time,seconds_elapsed,z,y,x
1772810231123323000,0.105322998046875,-1.1294889450073242,-2.4581961631774902,0.8714749813079834
1772810231152423200,0.134423095703125,0.29596397280693054,-1.8794018030166626,0.27985242009162903
1772810231162123300,0.144123291015625,0.8240565657615662,-1.0935243368148804,-0.004810560029000044
1772810231171823400,0.1538232421875,1.1704169511795044,-0.39744389057159424,-0.34261879324913025
1772810231181523500,0.1635234375,1.3851358890533447,0.07131846249103546,-0.6712640523910522
1772810231191223600,0.1732236328125,1.5143338441848755,0.28206682205200195,-0.9644791483879089
1772810231200923600,0.182923583984375,1.5708388090133667,0.33307403326034546,-1.2182934284210205
1772810231210623700,0.192623779296875,1.500589370727539,0.23014330863952637,-1.4232386350631714
1772810231220323800,0.20232373046875,1.316108226776123,0.012751801870763302,-1.5973349809646606
1772810231230024000,0.21202392578125,1.102000117301941,-0.2456440031528473,-1.7476078271865845
1772810231239724000,0.22172412109375,1.0027345418930054,-0.5019017457962036,-1.8557308912277222
1772810231249424100,0.231424072265625,1.1548398733139038,-0.6057487726211548,-1.835572361946106
1772810231259124200,0.241124267578125,1.3683371543884277,-0.5043452382087708,-1.8419864177703857
1772810231268824000,0.250823974609375,1.6725478172302246,-0.26885685324668884,-1.8835251331329346
1772810231278524400,0.2605244140625,2.0018038749694824,0.11499529331922531,-2.0228023529052734
1772810231288224500,0.270224609375,2.3371686935424805,0.5801688432693481,-2.266842842102051
1772810231297924600,0.279924560546875,2.690248489379883,1.0065524578094482,-2.5673882961273193
1772810231307624700,0.289624755859375,3.1807730197906494,1.31870436668396,-2.901531457901001
1772810231317324800,0.29932470703125,3.689012289047241,1.2389864921569824,-3.1654248237609863
1772810231327025000,0.30902490234375,3.967566728591919,0.7936660647392273,-3.337994337081909
1772810231336725000,0.31872509765625,3.9446592330932617,0.20143266022205353,-3.4397032260894775
1772810231346425000,0.328425048828125,3.6282312870025635,-0.13049599528312683,-3.4342055320739746
1772810231356125200,0.338125244140625,3.087310552597046,0.20693044364452362,-3.2527785301208496
1772810231365825000,0.347824951171875,2.35305118560791,0.8819360136985779,-2.966283082962036
1772810231375525000,0.357525146484375,1.509141445159912,1.327256441116333,-2.6635994911193848
1772810231385225200,0.36722509765625,0.8298597931861877,1.200196623802185,-2.2964696884155273
1772810231394925600,0.376925537109375,0.3909534513950348,0.9283617734909058,-1.7958661317825317
1772810231404625700,0.386625732421875,0.08888082206249237,0.773202121257782,-1.2295944690704346
1772810231414325800,0.39632568359375,-0.09437860548496246,0.8400917649269104,-0.7323505282402039
1772810231424025900,0.40602587890625,-0.2052505612373352,0.8856012225151062,-0.3236819803714752
1772810231433726000,0.415725830078125,-0.3246746361255646,0.7170788645744324,-0.03352120518684387
1772810231443426000,0.425426025390625,-0.2461785078048706,0.16447533667087555,-0.17371466755867004
1772810231453126000,0.4351259765625,0.09346231073141098,0.2655734717845917,-1.104978084564209
1772810231462826000,0.444825927734375,0.3072649836540222,0.06704241037368774,-1.3810888528823853
1772810231472526000,0.454526123046875,0.4972439408302307,0.3507890999317169,-1.3639847040176392
1772810231482226200,0.46422607421875,0.7244856357574463,1.0401500463485718,-1.2644137144088745
1772810231491926300,0.47392626953125,0.9810488224029541,1.9338451623916626,-1.1376593112945557
1772810231501626400,0.48362646484375,1.2513564825057983,2.620457172393799,-1.0664935111999512
1772810231511326500,0.493326416015625,1.4388920068740845,2.816850185394287,-1.1058943271636963
1772810231521026800,0.50302685546875,1.4245367050170898,2.4100141525268555,-1.2983167171478271
1772810231530727000,0.512726806640625,1.194546103477478,1.3752093315124512,-1.5402191877365112
1772810231540426800,0.5224267578125,0.9685261249542236,0.14706569910049438,-1.5735113620758057
1772810231550126800,0.532126953125,0.9410371780395508,-0.8708640933036804,-1.2772419452667236
1772810231559827000,0.541826904296875,0.9862411618232727,-1.9090287685394287,-0.7537307739257812
1772810231569527000,0.551527099609375,0.9697478413581848,-2.7886741161346436,-0.024663666263222694
1772810231579227100,0.56122705078125,0.7632755637168884,-3.285001754760742,0.8354339599609375
1772810231588927200,0.57092724609375,0.33597561717033386,-3.234605312347412,1.727907419204712
1772810231598627300,0.58062744140625,-0.04153880476951599,-2.8421247005462646,2.5119524002075195
1772810231608327400,0.590327392578125,-0.11881320178508759,-2.3555710315704346,3.1191518306732178
1772810231618027500,0.600027587890625,0.06597339361906052,-1.993633508682251,3.466733932495117
1772810231627727600,0.6097275390625,0.3857611119747162,-2.030590772628784,3.56997013092041
1772810231637427700,0.619427734375,0.7867938280105591,-2.3024256229400635,3.5769951343536377
1772810231647127800,0.6291279296875,1.1780527830123901,-2.7159812450408936,3.625558853149414
1772810231656828000,0.638827880859375,1.490510106086731,-3.2740061283111572,3.69000506401062
1772810231666528000,0.648528076171875,1.6337578296661377,-3.8341691493988037,3.666792154312134
1772810231676228000,0.65822802734375,1.6004657745361328,-4.055912971496582,3.5339291095733643
1772810231685928200,0.66792822265625,1.469740629196167,-3.8980045318603516,3.2685084342956543
1772810231695628300,0.677628173828125,1.2519673109054565,-3.474980592727661,2.81830096244812
1772810231705328400,0.687328369140625,0.8741474747657776,-2.937725067138672,2.046473264694214
1772810231715028500,0.697028564453125,0.5665770769119263,-2.0006585121154785,1.2804489135742188
1772810231724728600,0.706728515625,0.35277441143989563,-0.9609666466712952,0.6222421526908875
1772810231734428700,0.7164287109375,0.1182023361325264,-0.03672824427485466,0.0657443255186081
1772810231744128800,0.726128662109375,-0.1340848207473755,0.8052725195884705,-0.31696245074272156
1772810231753828900,0.735828857421875,-0.3955349326133728,1.3199260234832764,-0.5634464025497437
1772810231763529000,0.745529052734375,-0.6811142563819885,1.4524837732315063,-0.696309506893158
1772810231773229000,0.75522900390625,-1.0244202613830566,1.5877902507781982,-0.6346121430397034
1772810231782929200,0.76492919921875,-1.3158026933670044,1.6968296766281128,-0.408592164516449
1772810231792629200,0.774629150390625,-1.4886775016784668,1.7460042238235474,-0.10346522182226181
1772810231802329300,0.784329345703125,-1.552207350730896,1.7249294519424438,0.24167338013648987
1772810231812029400,0.794029541015625,-1.5460987091064453,1.6653701066970825,0.6170498132705688
1772810231821729500,0.8037294921875,-1.4691298007965088,1.5221222639083862,0.9768491387367249
1772810231831429600,0.8134296875,-1.324660301208496,1.287855625152588,1.2874739170074463
1772810231841129700,0.823129638671875,-1.1630865335464478,0.9088140726089478,1.4988330602645874
1772810231850829800,0.832829833984375,-1.018617033958435,0.4231765866279602,1.6231440305709839
1772810231860530000,0.842530029296875,-0.9037744402885437,-0.11064288020133972,1.6744567155838013
1772810231870230000,0.85222998046875,-0.7828232049942017,-0.6222421526908875,1.6662100553512573
1772810231879930000,0.86193017578125,-0.6209440231323242,-1.0220531225204468,1.6240603923797607
1772810231889630200,0.871630126953125,-0.4324922561645508,-1.2624284029006958,1.5483131408691406
1772810231899330300,0.881330322265625,-0.2559523284435272,-1.3558907508850098,1.4200315475463867
1772810231909030400,0.891030517578125,-0.09590577334165573,-1.357723355293274,1.234939455986023
1772810231918730500,0.90073046875,0.03390299528837204,-1.3354268074035645,1.0196096897125244
1772810231928430600,0.9104306640625,0.10079269111156464,-1.26731538772583,0.8097776174545288
1772810231938130700,0.920130615234375,0.08949168771505356,-1.143920660018921,0.6301833987236023
1772810231947830800,0.929830810546875,0.011606430634856224,-1.0116684436798096,0.46891507506370544
1772810231957531000,0.93953076171875,-0.11972949653863907,-0.8803325295448303,0.30978479981422424
1772810231967231000,0.94923095703125,-0.26908594369888306,-0.7438042163848877,0.15981750190258026
1772810231976931000,0.95893115234375,-0.3958403766155243,-0.5996401309967041,0.024510949850082397
1772810231986631200,0.968631103515625,-0.49480047821998596,-0.44722938537597656,-0.10743584483861923
1772810231996331300,0.978331298828125,-0.5693259835243225,-0.28779366612434387,-0.2540434002876282
1772810232006031400,0.98803125,-0.6108647584915161,-0.11217004805803299,-0.4131736755371094
1772810232015731500,0.9977314453125,-0.6151408553123474,0.08078686892986298,-0.5790234804153442
1772810232025431600,1.007431640625,-0.5992583632469177,0.29703301191329956,-0.7256309986114502
1772810232035131600,1.017131591796875,-0.5656607747077942,0.5233584046363831,-0.8343649506568909
1772810232044831700,1.026831787109375,-0.5259546041488647,0.7344121932983398,-0.9021708965301514
1772810232054531600,1.036531494140625,-0.4889972507953644,0.9033163189888,-0.9208022952079773
1772810232064231700,1.046231689453125,-0.4569268524646759,1.0450369119644165,-0.8969785571098328
1772810232073931800,1.055931884765625,-0.4376846253871918,1.16079580783844,-0.8187878727912903
1772810232083632000,1.065632080078125,-0.44379326701164246,1.1565197706222534,-0.7131083011627197
1772810232093332200,1.075332275390625,-0.47983428835868835,1.0202969312667847,-0.5946004986763
1772810232103032300,1.0850322265625,-0.5464185476303101,0.8437569737434387,-0.46112653613090515
1772810232112732400,1.094732421875,-0.6084213256835938,0.7582359313964844,-0.34658941626548767
1772810232122432500,1.1044326171875,-0.5952877402305603,0.7509055137634277,-0.34200790524482727
1772810232132132400,1.11413232421875,-0.5027416944503784,0.7692314982414246,-0.49594584107398987
1772810232141832400,1.12383251953125,-0.3329212963581085,0.9882264733314514,-0.7772490978240967
1772810232151532500,1.133532470703125,-0.08307760953903198,1.3016000986099243,-1.2131011486053467
1772810232161232600,1.143232666015625,0.09162971377372742,1.292437195777893,-1.7848705053329468
1772810232170932700,1.1529326171875,0.09682206809520721,0.9448550939559937,-2.100076675415039
1772810232180632800,1.1626328125,-0.12156209349632263,-0.15554144978523254,-2.1791837215423584
1772810232190333000,1.1723330078125,-0.4205803871154785,-1.6729295253753662,-2.2851688861846924
1772810232200033000,1.182032958984375,-0.5476402640342712,-2.940474033355713,-2.3829071521759033
1772810232209733400,1.1917333984375,-0.49968740344047546,-3.3726608753204346,-2.262261390686035
1772810232219433200,1.20143310546875,-0.4569268524646759,-2.403829336166382,-1.7381393909454346
1772810232229133300,1.21113330078125,-0.4410443603992462,-0.5159516930580139,-1.0930662155151367
1772810232238833400,1.22083349609375,-0.3484983444213867,1.2954914569854736,-0.7057778835296631
1772810232248533500,1.230533447265625,-0.16126830875873566,2.52852201461792,-0.6074286699295044
1772810232258233600,1.240233642578125,0.050090912729501724,3.1677920818328857,-0.6779835224151611
1772810232267933700,1.24993359375,0.23884813487529755,3.202305793762207,-0.7903826832771301
1772810232277633800,1.2596337890625,0.39370235800743103,2.6787948608398438,-0.8465822339057922
1772810232287334000,1.269333984375,0.5433642268180847,1.881921648979187,-0.7830522656440735
1772810232297034000,1.279033935546875,0.7052434086799622,1.1107048988342285,-0.6071232557296753
1772810232306734000,1.288734130859375,0.8219185471534729,0.5178605914115906,-0.35941755771636963
1772810232316434200,1.29843408203125,0.8674280047416687,0.10949750989675522,-0.10285435616970062
1772810232326134300,1.30813427734375,0.8390227556228638,-0.16989676654338837,0.12163844704627991
1772810232335834400,1.31783447265625,0.7486147880554199,-0.3161988854408264,0.3021489977836609
1772810232345534500,1.327534423828125,0.6224712133407593,-0.3638463318347931,0.40233081579208374
1772810232355234600,1.337234619140625,0.47494736313819885,-0.34613126516342163,0.41118836402893066
1772810232364934700,1.3469345703125,0.31093016266822815,-0.30856308341026306,0.33941173553466797
1772810232374634800,1.356634765625,0.14080433547496796,-0.26366451382637024,0.21784965693950653
1772810232384334800,1.3663349609375,-0.021685699000954628,-0.17203480005264282,0.070631243288517
1772810232394035000,1.376034912109375,-0.15546508133411407,-0.043142326176166534,-0.07414371520280838
1772810232403735000,1.385735107421875,-0.2565632164478302,0.08567378669977188,-0.20242531597614288
1772810232413435100,1.39543505859375,-0.33505934476852417,0.20998476445674896,-0.2836703360080719
1772810232423135200,1.40513525390625,-0.39248061180114746,0.35811948776245117,-0.30199626088142395
1772810232432835300,1.41483544921875,-0.42943793535232544,0.513279139995575,-0.2564868628978729
1772810232442535400,1.424535400390625,-0.4560105502605438,0.633619487285614,-0.1398116797208786
1772810232452235500,1.434235595703125,-0.4841103255748749,0.6913462281227112,0.0397825688123703
1772810232461935600,1.443935546875,-0.5009090900421143,0.6962331533432007,0.24197880923748016
1772810232471635700,1.4536357421875,-0.500298261642456,0.6733257174491882,0.43837183713912964
1772810232481335800,1.463335693359375,-0.4838049113750458,0.6101012229919434,0.6130791902542114
1772810232491036000,1.473035888671875,-0.45998117327690125,0.4943423271179199,0.764879047870636
1772810232500736000,1.482736083984375,-0.43921178579330444,0.3572031855583191,0.8891900181770325
1772810232510436000,1.49243603515625,-0.41783151030540466,0.22586725652217865,0.9850957989692688
1772810232520136200,1.50213623046875,-0.38209593296051025,0.11621702462434769,1.0525963306427002
1772810232529836300,1.511836181640625,-0.34055712819099426,0.031001387163996696,1.0736712217330933
1772810232539536400,1.521536376953125,-0.3194822669029236,-0.03153589367866516,1.0394628047943115
1772810232549236500,1.531236572265625,-0.3176496922969818,-0.051389001309871674,0.9368374943733215
1772810232558936600,1.5409365234375,-0.32070401310920715,-0.024510949850082397,0.7841212749481201
1772810232568636700,1.55063671875,-0.3381136655807495,0.01511890348047018,0.5999455451965332
1772810232578336800,1.560336669921875,-0.379347026348114,0.02916879393160343,0.41179922223091125
1772810232588036900,1.570036865234375,-0.43004879355430603,-0.01359174121171236,0.25205808877944946
1772810232597736700,1.57973681640625,-0.47464191913604736,-0.16653701663017273,0.1378263682126999
1772810232607436800,1.589436767578125,-0.5262600183486938,-0.3879754841327667,0.04802924394607544
1772810232617137000,1.599136962890625,-0.5018253922462463,-0.5183951258659363,0.013515383005142212
1772810232626837000,1.6088369140625,-0.2571740746498108,-0.47929978370666504,0.014431680552661419
1772810232636537000,1.618537109375,0.22296564280986786,-0.5293906927108765,-0.16241367161273956
1772810232646237400,1.628237548828125,0.7480039000511169,-1.173242211341858,-0.6596575975418091
1772810232655937500,1.6379375,1.1133010387420654,-2.502178430557251,-1.1920262575149536
1772810232665637600,1.6476376953125,1.275791049003601,-3.8027095794677734,-1.3908627033233643
1772810232675337500,1.65733740234375,1.3176352977752686,-4.173810005187988,-1.4388155937194824
1772810232685037600,1.66703759765625,1.2800670862197876,-3.734598159790039,-1.611995816230774
1772810232694737700,1.676737548828125,1.1508692502975464,-2.9224534034729004,-1.8578689098358154
1772810232704437800,1.686437744140625,0.9666935205459595,-1.6466623544692993,-1.9568289518356323
1772810232714137900,1.696137939453125,0.758083164691925,-0.1729510873556137,-1.9186499118804932
1772810232723838000,1.705837890625,0.5864301919937134,0.9928079843521118,-1.8700861930847168
1772810232733538000,1.7155380859375,0.5015199780464172,1.6287182569503784,-1.8337397575378418
1772810232743238100,1.725238037109375,0.4523453712463379,1.7902919054031372,-1.803501844406128
1772810232752938200,1.734938232421875,0.3915643095970154,1.6629266738891602,-1.7695989608764648
1772810232762638300,1.744638427734375,0.33200499415397644,1.3315324783325195,-1.713093876838684
1772810232772338400,1.75433837890625,0.31062474846839905,0.9161444306373596,-1.6071088314056396
1772810232782038500,1.76403857421875,0.3481929302215576,0.4961749315261841,-1.4223222732543945
1772810232791738600,1.773738525390625,0.4303542375564575,0.11407899856567383,-1.1795035600662231
1772810232801438700,1.783438720703125,0.5018253922462463,-0.21846051514148712,-0.9058361053466797
1772810232811138800,1.793138916015625,0.5256491303443909,-0.46860963106155396,-0.6416370868682861
1772810232820839000,1.8028388671875,0.5039634704589844,-0.5892554521560669,-0.3820195496082306
1772810232830539000,1.8125390625,0.44959646463394165,-0.5782598853111267,-0.13248129189014435
1772810232840239000,1.822239013671875,0.3854556679725647,-0.4551706314086914,0.09934188425540924
1772810232849939200,1.831939208984375,0.3176496922969818,-0.2853502035140991,0.28443390130996704
1772810232859639300,1.841639404296875,0.24342961609363556,-0.10300707072019577,0.4301251769065857
1772810232869339400,1.85133935546875,0.15515965223312378,0.07192932814359665,0.5370265245437622
1772810232879039500,1.86103955078125,0.053145237267017365,0.23564109206199646,0.5950586795806885
1772810232888739600,1.870739501953125,-0.05345066636800766,0.37064221501350403,0.5932260751724243
1772810232898439700,1.880439697265625,-0.14508038759231567,0.44700029492378235,0.5416079759597778
1772810232908139800,1.890139892578125,-0.20830489695072174,0.4558578431606293,0.4652498960494995
1772810232917840000,1.89983984375,-0.2409861534833908,0.4066832363605499,0.3733147382736206
1772810232927540000,1.9095400390625,-0.24465134739875793,0.346513032913208,0.27282747626304626
1772810232937240000,1.919239990234375,-0.22357651591300964,0.2741255760192871,0.1628718227148056
1772810232946940200,1.928940185546875,-0.17684535682201385,0.17638720571994781,0.05780307948589325
1772810232956640300,1.93864013671875,-0.12553271651268005,0.08323032408952713,-0.020387612283229828
1772810232966340400,1.94834033203125,-0.11239911615848541,-0.024816380813717842,-0.053985174745321274
1772810232976040400,1.95804052734375,-0.16035200655460358,-0.14485131204128265,-0.02496909722685814
1772810232985740500,1.967740478515625,-0.26389357447624207,-0.30031639337539673,0.06788235157728195
1772810232995440600,1.977440673828125,-0.37232208251953125,-0.4447859227657318,0.20105087757110596
1772810233005140700,1.987140625,-0.42332929372787476,-0.5403862595558167,0.32414013147354126
1772810233014840800,1.9968408203125,-0.34788748621940613,-0.5385536551475525,0.4194350242614746
1772810233024541000,2.006541015625,-0.129197895526886,-0.4411207437515259,0.451200008392334
1772810233034240800,2.01624072265625,0.19944734871387482,-0.3895026445388794,0.3018435537815094
1772810233043940900,2.02594091796875,0.4584540128707886,-0.6839394569396973,-0.15202897787094116
1772810233053641000,2.035640869140625,0.535728394985199,-1.3250420093536377,-0.8471930623054504
1772810233063341000,2.045341064453125,0.5308414697647095,-1.8757367134094238,-1.5414409637451172
1772810233073041200,2.055041259765625,0.45387253165245056,-2.022038698196411,-2.0454044342041016
1772810233082741500,2.064741455078125,0.22876885533332825,-1.7245476245880127,-2.2463788986206055
1772810233092441600,2.074441650390625,-0.07330377399921417,-1.015944480895996,-1.95438551902771
1772810233102141700,2.0841416015625,-0.23426663875579834,-0.2300669401884079,-1.2436443567276
1772810233111841500,2.093841552734375,-0.26389357447624207,0.43172869086265564,-0.23846633732318878
1772810233121541600,2.103541748046875,-0.26908594369888306,1.0019710063934326,0.9890664219856262
1772810233131241700,2.11324169921875,-0.24220788478851318,1.2832741737365723,2.0641884803771973
1772810233140941800,2.12294189453125,-0.2632827162742615,1.1843141317367554,2.6683337688446045
1772810233150642000,2.132641845703125,-0.35155269503593445,0.8987348079681396,2.8103597164154053
1772810233160342000,2.142342041015625,-0.44409868121147156,0.5658134818077087,2.6212971210479736
1772810233170042000,2.1520419921875,-0.5445859432220459,0.28695371747016907,2.254167318344116
1772810233179742200,2.1617421875,-0.711046576499939,0.16569706797599792,1.8784855604171753
1772810233189442300,2.1714423828125,-0.8921679854393005,0.33307403326034546,1.514410138130188
1772810233199142400,2.181142333984375,-1.046105980873108,0.755181610584259,1.0642027854919434
1772810233208842500,2.190842529296875,-1.2162318229675293,1.3975058794021606,0.5296961069107056
1772810233218542600,2.20054248046875,-1.3826924562454224,1.9845468997955322,-0.12148573249578476
1772810233228242700,2.21024267578125,-1.4355322122573853,2.402378559112549,-0.7912989854812622
1772810233237942800,2.21994287109375,-1.3267983198165894,2.7585127353668213,-1.2378411293029785
1772810233247643000,2.229642822265625,-1.0961968898773193,2.9460480213165283,-1.2845722436904907
1772810233257343000,2.239343017578125,-0.7308996915817261,2.964679479598999,-0.8398627042770386
1772810233267043000,2.24904296875,-0.14721840620040894,3.0660829544067383,0.0807105079293251
1772810233276743200,2.2587431640625,0.5580250024795532,3.165653944015503,1.2156972885131836
1772810233286443300,2.268443359375,1.1236857175827026,3.0615015029907227,2.4117705821990967
1772810233296143400,2.278143310546875,1.2654063701629639,2.5523457527160645,3.549506187438965
1772810233305843500,2.287843505859375,0.9126319885253906,1.6058107614517212,4.460610866546631
1772810233315543600,2.29754345703125,0.26939135789871216,0.4845684766769409,5.023522853851318
1772810233325243600,2.30724365234375,-0.2828303873538971,-0.3934732675552368,5.1304240226745605
1772810233334943700,2.31694384765625,-0.536644697189331,-0.7770963311195374,4.80513858795166
1772810233344643800,2.326643798828125,-0.49968740344047546,-0.7563269734382629,4.156705856323242
1772810233354344000,2.336343994140625,-0.3032943606376648,-0.4652498960494995,3.3195154666900635
1772810233364044000,2.3460439453125,-0.10201441496610641,-0.04650207981467247,2.431929111480713
1772810233373744000,2.355744140625,0.06536252796649933,0.35323256254196167,1.5877139568328857
1772810233383444000,2.36544384765625,0.17318016290664673,0.6638572812080383,0.8998801708221436
1772810233393144300,2.375144287109375,0.21349723637104034,0.9259182810783386,0.4499782621860504
1772810233402844400,2.384844482421875,0.1539379209280014,1.0523673295974731,0.18119776248931885
1772810233412544500,2.39454443359375,-0.044898562133312225,1.00288724899292,0.03672824427485466
1772810233422244600,2.40424462890625,-0.2675587832927704,0.7799215912818909,-0.002672533504664898
1772810233431944700,2.41394482421875,-0.42455101013183594,0.46135562658309937,0.033368486911058426
1772810233441644500,2.42364453125,-0.5436696410179138,0.125074565410614,0.0862082913517952
1772810233451344600,2.4333447265625,-0.6643154621124268,-0.16989676654338837,0.11522436887025833
1772810233461044700,2.443044677734375,-0.7635809779167175,-0.41271552443504333,0.10728313028812408
1772810233470744800,2.452744873046875,-0.814588189125061,-0.5742892622947693,0.07765618711709976
1772810233480445000,2.46244482421875,-0.8368847370147705,-0.6646972298622131,0.03428478538990021
1772810233490145000,2.47214501953125,-0.8451313972473145,-0.7117338180541992,-0.020693045109510422
1772810233499845000,2.48184521484375,-0.8167262077331543,-0.766406238079071,-0.06650790572166443
1772810233509545200,2.491545166015625,-0.6979129910469055,-0.8742238283157349,-0.08269581943750381
1772810233519245300,2.501245361328125,-0.47006043791770935,-1.0076978206634521,-0.07047852128744125
1772810233528945400,2.5109453125,-0.17562362551689148,-1.1167371273040771,-0.0191658828407526
1772810233538645500,2.5206455078125,0.09498947113752365,-1.2288308143615723,0.07979421317577362
1772810233548345600,2.530345703125,0.14660754799842834,-1.3076324462890625,0.2190713882446289
1772810233558045700,2.540045654296875,-0.11606431007385254,-1.328707218170166,0.37178757786750793
1772810233567745800,2.549745849609375,-0.5934551358222961,-1.283808708190918,0.4313468933105469
1772810233577446000,2.55944580078125,-1.0864230394363403,-1.201341986656189,0.404468834400177
1772810233587146000,2.56914599609375,-1.3924663066864014,-1.0293835401535034,0.4857138693332672
1772810233596846000,2.57884619140625,-1.4007129669189453,-0.6457604169845581,0.859257698059082
1772810233606546200,2.588546142578125,-1.1420117616653442,-0.03000873140990734,1.6008474826812744
1772810233616246300,2.598246337890625,-0.8940005898475647,0.26710063219070435,2.42337703704834
1772810233625946400,2.6079462890625,-1.018617033958435,-0.1680641770362854,2.9032111167907715
1772810233635646500,2.617646484375,-1.5277727842330933,-0.9744057059288025,2.9975898265838623
1772810233645346600,2.6273466796875,-2.0827434062957764,-1.6307798624038696,2.7947826385498047
1772810233655046700,2.637046630859375,-2.3157882690429688,-1.782579779624939,2.331136465072632
1772810233664746800,2.646746826171875,-2.101374864578247,-1.3864339590072632,1.8140393495559692
1772810233674446800,2.65644677734375,-1.6117666959762573,-0.6396517753601074,1.3769655227661133
1772810233684147000,2.66614697265625,-1.1743875741958618,-0.0755181610584259,0.8366556763648987
1772810233693847000,2.675846923828125,-0.9043853282928467,0.08109229803085327,0.17234022915363312
1772810233703547000,2.685546875,-0.759304940700531,-0.0206166859716177,-0.4076758921146393
1772810233713247200,2.695247314453125,-0.7519745230674744,-0.23342670500278473,-0.7030289769172668
1772810233722947300,2.704947265625,-0.8188642263412476,-0.4906007647514343,-0.7299070358276367
1772810233732647400,2.7146474609375,-0.8741474747657776,-0.6891318559646606,-0.5017490386962891
1772810233742347500,2.724347412109375,-0.8393282294273376,-0.7535780668258667,-0.08972076326608658
1772810233752047600,2.734047607421875,-0.7122683525085449,-0.7230347990989685,0.2859610617160797
1772810233761747700,2.743747802734375,-0.5421425104141235,-0.6100248694419861,0.42310020327568054
1772810233771447600,2.753447509765625,-0.3433060050010681,-0.38583746552467346,0.32444554567337036
1772810233781147600,2.763147705078125,-0.13958260416984558,-0.081015944480896,0.09384410083293915
1772810233790847700,2.77284765625,0.04428769648075104,0.14798198640346527,-0.2112828493118286
1772810233800547800,2.7825478515625,0.20799945294857025,0.2182314395904541,-0.5548942685127258
1772810233810248000,2.792248046875,0.35613417625427246,0.18096868693828583,-0.8688787817955017
1772810233819948000,2.801947998046875,0.5076286196708679,0.09880737960338593,-1.0872629880905151
1772810233829648100,2.811648193359375,0.7061597108840942,-0.05933023989200592,-1.1813361644744873
1772810233839348200,2.82134814453125,0.9257655739784241,-0.2447277009487152,-1.1501820087432861
1772810233849048300,2.83104833984375,1.091004490852356,-0.40630143880844116,-1.0066287517547607
1772810233858748400,2.84074853515625,1.1365139484405518,-0.4930442273616791,-0.7940478324890137
1772810233868448500,2.850448486328125,1.0543526411056519,-0.48388126492500305,-0.5619192123413086
1772810233878148600,2.860148681640625,0.8759800791740417,-0.38247770071029663,-0.3713294267654419
1772810233887848700,2.8698486328125,0.637742817401886,-0.20349432528018951,-0.252210795879364
1772810233897548800,2.879548828125,0.38270679116249084,-0.005039634648710489,-0.18898628652095795
1772810233907249000,2.889248779296875,0.13988803327083588,0.16814053058624268,-0.15233440697193146
1772810233916949000,2.898948974609375,-0.05833758786320686,0.3006981909275055,-0.13553562760353088
1772810233926649000,2.908649169921875,-0.17348559200763702,0.34376415610313416,-0.124845489859581
1772810233936349200,2.91834912109375,-0.19089524447917938,0.3092502951622009,-0.10957387089729309
1772810233946049300,2.92804931640625,-0.10354158282279968,0.26221370697021484,-0.10315979272127151
1772810233955749400,2.937749267578125,0.0565049909055233,0.2649625837802887,-0.14683662354946136
1772810233965449500,2.947449462890625,0.24465134739875793,0.33887723088264465,-0.24426954984664917
1772810233975149600,2.957149658203125,0.42302384972572327,0.4497492015361786,-0.3725511431694031
1772810233984849700,2.966849609375,0.5574141144752502,0.5633700489997864,-0.4950295388698578
1772810233994549800,2.9765498046875,0.6243038177490234,0.6363683938980103,-0.5915461778640747
1772810234004249600,2.98624951171875,0.6117810606956482,0.6397281289100647,-0.6709585785865784
1772810234013949700,2.99594970703125,0.5516108870506287,0.5664243698120117,-0.7372374534606934
1772810234023650000,3.005650146484375,0.47433650493621826,0.4802924394607544,-0.7882446646690369
1772810234033350100,3.01535009765625,0.38698282837867737,0.42012226581573486,-0.8209258913993835
1772810234043050200,3.02505029296875,0.28588470816612244,0.38499751687049866,-0.8154281377792358
1772810234052750300,3.034750244140625,0.1740964651107788,0.43172869086265564,-0.7552579641342163
1772810234062450400,3.044450439453125,0.06780599057674408,0.5826886296272278,-0.6361393332481384
1772810234072150300,3.054150390625,-0.025045456364750862,0.8199332356452942,-0.47212210297584534
1772810234081850400,3.063850341796875,-0.1282816082239151,1.1229221820831299,-0.2885572612285614
1772810234091550500,3.073550537109375,-0.26939135789871216,1.362075686454773,-0.16668972373008728
1772810234101250600,3.08325048828125,-0.4172206521034241,1.5612176656723022,-0.12118030339479446
1772810234110950700,3.09295068359375,-0.5653553605079651,1.6314671039581299,-0.12851068377494812
1772810234120650800,3.102650634765625,-0.7626646757125854,1.430798053741455,-0.14622575044631958
1772810234130350800,3.112350830078125,-0.9324851036071777,0.9353867173194885,-0.1398116797208786
1772810234140051000,3.122051025390625,-0.924238383769989,0.21945317089557648,-0.23938263952732086
1772810234149751000,3.1317509765625,-0.6814196705818176,-0.48296496272087097,-0.677067220211029
1772810234159451100,3.141451171875,-0.1951712965965271,-0.9533308744430542,-1.452865481376648
1772810234169151200,3.151151123046875,0.38698282837867737,-1.1353685855865479,-2.3224315643310547
1772810234178851300,3.160851318359375,0.832608699798584,-1.1320087909698486,-2.921689987182617
1772810234188551400,3.170551513671875,1.0241148471832275,-1.2248601913452148,-3.0545530319213867
1772810234198251500,3.18025146484375,0.9923498630523682,-2.1662027835845947,-2.8841216564178467
1772810234207951600,3.18995166015625,0.6420188546180725,-4.368064880371094,-2.61442494392395
1772810234217651700,3.199651611328125,0.42424559593200684,-6.933391571044922,-2.2469897270202637
1772810234227351800,3.209351806640625,0.767857015132904,-8.15939712524414,-1.8725296258926392
1772810234237052000,3.219052001953125,1.380554437637329,-6.790754795074463,-1.5878666639328003
1772810234246752000,3.228751953125,1.7037018537521362,-3.18146014213562,-1.3697879314422607
1772810234256452000,3.2384521484375,1.4107922315597534,0.2328922003507614,-0.9739475250244141
1772810234266152200,3.248152099609375,0.9004147052764893,1.8229732513427734,-0.3047451674938202
1772810234275852300,3.257852294921875,0.8646790981292725,1.8012875318527222,0.4762454628944397
1772810234285552400,3.267552490234375,1.2699878215789795,0.8950695991516113,1.31160306930542
1772810234295252500,3.27725244140625,1.637423038482666,-0.17234022915363312,2.0956480503082275
1772810234304952300,3.286952392578125,1.8518365621566772,-1.081612467765808,2.659170627593994
1772810234314652400,3.29665234375,1.9541563987731934,-1.7385975122451782,2.9584944248199463
1772810234324352500,3.3063525390625,1.9245294332504272,-1.8925354480743408,2.8500659465789795
1772810234334052600,3.316052490234375,1.76875901222229,-1.5116612911224365,2.415741205215454
1772810234343753000,3.3257529296875,1.6087124347686768,-0.4951822757720947,1.8363358974456787
1772810234353453000,3.335453125,1.7253875732421875,0.7576250433921814,0.9154572486877441
1772810234363153000,3.34515283203125,2.0882413387298584,1.9185734987258911,-0.22563818097114563
1772810234372853000,3.35485302734375,2.408639907836914,2.5334088802337646,-1.297705888748169
1772810234382553000,3.364552978515625,2.185063362121582,2.3089160919189453,-1.9061272144317627
1772810234392253200,3.374253173828125,1.3252711296081543,1.253341794013977,-1.740888237953186
1772810234401953300,3.383953369140625,0.48013970255851746,0.06215549260377884,-1.011515736579895
1772810234411653400,3.3936533203125,0.017104214057326317,-0.6482039093971252,-0.15783219039440155
1772810234421353500,3.403353515625,-0.15088360011577606,-0.7413607835769653,0.5831468105316162
1772810234431053600,3.413053466796875,-0.05955931544303894,-0.34002259373664856,1.2163081169128418
1772810234440753700,3.422753662109375,0.1795942485332489,0.23961171507835388,1.7114139795303345
1772810234450453800,3.432453857421875,0.4196641147136688,0.7105884552001953,1.9863032102584839
1772810234460153900,3.44215380859375,0.5403099060058594,1.0511455535888672,1.960036039352417
1772810234469854000,3.45185400390625,0.5164861679077148,1.3388628959655762,1.7144683599472046
1772810234479554000,3.461553955078125,0.3704894781112671,1.5548036098480225,1.4273619651794434
1772810234489254100,3.471254150390625,0.13988803327083588,1.6296344995498657,1.2239439487457275
1772810234498954200,3.480954345703125,-0.05436696484684944,1.593898892402649,1.0846667289733887
1772810234508654300,3.490654296875,-0.15241076052188873,1.4659227132797241,0.9612720608711243
1772810234518354400,3.5003544921875,-0.19089524447917938,1.2524255514144897,0.8329904675483704
1772810234528054300,3.51005419921875,-0.19150610268115997,1.0160208940505981,0.7044034600257874
1772810234537754600,3.519754638671875,-0.17531819641590118,0.8144354820251465,0.5745946764945984
1772810234547454700,3.529454833984375,-0.18295399844646454,0.6760746240615845,0.44875654578208923
1772810234557154800,3.53915478515625,-0.23396120965480804,0.6155989766120911,0.3568213880062103
1772810234566855000,3.54885498046875,-0.30024003982543945,0.6122392416000366,0.30947935581207275
1772810234576555000,3.558554931640625,-0.3652971386909485,0.6262891292572021,0.297872930765152
1772810234586254800,3.5682548828125,-0.41905322670936584,0.6101012229919434,0.29817837476730347
1772810234595955000,3.577954833984375,-0.4615083336830139,0.5459604263305664,0.28809911012649536
1772810234605655000,3.587655029296875,-0.5006036758422852,0.4705185890197754,0.25236350297927856
1772810234615355100,3.597355224609375,-0.5369501113891602,0.34345871210098267,0.16989676654338837
1772810234625055200,3.60705517578125,-0.5772672295570374,0.15836669504642487,0.04711294546723366
1772810234634755300,3.61675537109375,-0.6346884965896606,-0.024205517023801804,-0.0884990319609642
1772810234644455400,3.626455322265625,-0.6994401812553406,-0.1784488707780838,-0.21952952444553375
1772810234654155500,3.636155517578125,-0.767551600933075,-0.251752644777298,-0.3313177824020386
1772810234663855600,3.645855712890625,-0.8261946439743042,-0.20013457536697388,-0.4290561378002167
1772810234673555700,3.6555556640625,-0.8649845123291016,-0.07276926934719086,-0.5228238701820374
1772810234683255800,3.665255859375,-0.8949168920516968,0.08811724185943604,-0.5823832154273987
1772810234692956000,3.674955810546875,-0.9416480660438538,0.2582430839538574,-0.6022363305091858
1772810234702656000,3.684656005859375,-1.0238093137741089,0.40637779235839844,-0.595211386680603
1772810234712356000,3.694356201171875,-1.1316269636154175,0.5080868005752563,-0.5625301003456116
1772810234722056200,3.70405615234375,-1.2302817106246948,0.5484038591384888,-0.49747300148010254
1772810234731756300,3.71375634765625,-1.3057234287261963,0.5361865758895874,-0.40920305252075195
1772810234741456400,3.723456298828125,-1.3552035093307495,0.5175551772117615,-0.3304014801979065
1772810234751156500,3.733156494140625,-1.4114030599594116,0.4912880063056946,-0.28092142939567566
1772810234760856600,3.742856689453125,-1.4819579124450684,0.3987419903278351,-0.2641226649284363
1772810234770556700,3.752556640625,-1.528383731842041,0.3309359848499298,-0.2372446060180664
1772810234780256800,3.7622568359375,-1.4886775016784668,0.35964664816856384,-0.17676898837089539
1772810234789956900,3.771956787109375,-1.3182462453842163,0.47845983505249023,-0.13767364621162415
1772810234799657000,3.781656982421875,-0.9767727851867676,0.6284271478652954,-0.24610215425491333
1772810234809356800,3.791356689453125,-0.5558869242668152,0.5487856268882751,-0.6193405389785767
1772810234819057000,3.801056884765625,-0.2715294063091278,0.15042544901371002,-1.215544581413269
1772810234828757000,3.810757080078125,-0.17898337543010712,-0.25358524918556213,-1.934837818145752
1772810234838457000,3.82045703125,-0.2968802750110626,-0.24869832396507263,-2.5906012058258057
1772810234848157400,3.830157470703125,-0.5491674542427063,-0.3058141767978668,-3.0875396728515625
1772810234857857300,3.839857177734375,-0.7064651250839233,-0.8491783738136292,-3.6696937084198
1772810234867557400,3.849557373046875,-0.7822123765945435,-1.5553381443023682,-4.409451007843018
1772810234877257500,3.859257568359375,-0.6872228980064392,-2.040670156478882,-5.116527080535889
1772810234886957600,3.86895751953125,-0.4575377106666565,-1.791131854057312,-5.428068161010742
1772810234896657700,3.87865771484375,-0.22968515753746033,-0.9127083420753479,-5.1299662590026855
1772810234906357800,3.888357666015625,0.011300998739898205,0.1571449637413025,-4.279642105102539
1772810234916057900,3.898057861328125,0.20341797173023224,0.8950695991516113,-3.0951755046844482
1772810234925758000,3.907758056640625,0.29077163338661194,1.0670280456542969,-1.8826088905334473
1772810234935458000,3.9174580078125,0.3842339515686035,0.6253728270530701,-0.8963677287101746
1772810234945158100,3.927158203125,0.5702422857284546,-0.10247256606817245,-0.191735178232193
1772810234954858200,3.936858154296875,0.8148936033248901,-0.7627410292625427,0.256334125995636
1772810234964558300,3.946558349609375,1.0821470022201538,-1.3180171251296997,0.5009855031967163
1772810234974258400,3.956258544921875,1.306334376335144,-1.707137942314148,0.6127737164497375
1772810234983958500,3.96595849609375,1.413846492767334,-1.8506911993026733,0.6677515506744385
1772810234993658600,3.97565869140625,1.4126248359680176,-1.7703624963760376,0.6854666471481323
1772810235003358700,3.985358642578125,1.323133111000061,-1.4362194538116455,0.6485093235969543
1772810235013058600,3.99505859375,1.1597267389297485,-0.9285908341407776,0.5550470352172852
1772810235022758700,4.004758544921875,0.9440914988517761,-0.4359283745288849,0.4102720618247986
1772810235032458800,4.014458740234375,0.6914989352226257,-0.019394956529140472,0.2456440031528473
1772810235042159000,4.0241591796875,0.4156934916973114,0.2551887631416321,0.07673988491296768
1772810235051859200,4.033859130859375,0.12980876863002777,0.3605629503726959,-0.06375901401042938
1772810235061559300,4.043559326171875,-0.12767073512077332,0.32452189922332764,-0.13706278800964355
1772810235071259100,4.053259033203125,-0.318871408700943,0.20937390625476837,-0.150196373462677
1772810235080959200,4.062959228515625,-0.43310311436653137,0.07773254066705704,-0.10590868443250656
1772810235090659300,4.072659423828125,-0.47525280714035034,-0.08651372790336609,-0.006337722297757864
1772810235100359400,4.082359375,-0.46364638209342957,-0.2865719497203827,0.14576761424541473
1772810235110059500,4.0920595703125,-0.4098902642726898,-0.44784024357795715,0.3433823585510254
1772810235119759600,4.101759521484375,-0.3329212963581085,-0.4808269441127777,0.5422188639640808
1772810235129459700,4.111459716796875,-0.2614501118659973,-0.42157304286956787,0.7267000079154968
1772810235139159800,4.121159912109375,-0.21716243028640747,-0.34490951895713806,0.8910226225852966
1772810235148860000,4.13085986328125,-0.20830489695072174,-0.2700785994529724,1.0397682189941406
1772810235158560000,4.14056005859375,-0.21838416159152985,-0.1787542998790741,1.1564433574676514
1772810235168260000,4.150260009765625,-0.2202167510986328,-0.07460185885429382,1.2242493629455566
1772810235177960200,4.159960205078125,-0.21655155718326569,0.021227551624178886,1.22944176197052
1772810235187660300,4.169660400390625,-0.22968515753746033,0.125074565410614,1.1729366779327393
1772810235197360400,4.1793603515625,-0.2666424810886383,0.22647811472415924,1.071227788925171
1772810235207060500,4.189060546875,-0.3295615613460541,0.3150535225868225,0.9478330612182617
1772810235216760600,4.198760498046875,-0.3912588953971863,0.383470356464386,0.8161917328834534
1772810235226460700,4.208460693359375,-0.4422661066055298,0.40515607595443726,0.6869937777519226
1772810235236160800,4.218160888671875,-0.5006036758422852,0.3712530732154846,0.5923097729682922
1772810235245860900,4.22786083984375,-0.5497782826423645,0.31780239939689636,0.5464949011802673
1772810235255561000,4.23756103515625,-0.5766563415527344,0.2744309902191162,0.5290852785110474
1772810235265261000,4.247260986328125,-0.5986474752426147,0.2438877671957016,0.5251146554946899
1772810235274961000,4.2569609375,-0.6389645338058472,0.23472478985786438,0.525420069694519
1772810235284661000,4.266660888671875,-0.7070759534835815,0.23472478985786438,0.5370265245437622
1772810235294361000,4.276361083984375,-0.7852666974067688,0.22250749170780182,0.5733729600906372
1772810235304061200,4.286061279296875,-0.8826996088027954,0.1821904182434082,0.627129077911377
1772810235313761300,4.29576123046875,-1.0164790153503418,0.08414662629365921,0.6805797219276428
1772810235323461400,4.30546142578125,-1.145371437072754,-0.07002037763595581,0.7208967804908752
1772810235333161500,4.315161376953125,-1.1505638360977173,-0.13965895771980286,0.7395281791687012
1772810235342861600,4.324861572265625,-0.9349285364151001,-0.019013166427612305,0.7334195375442505
1772810235352561700,4.334561767578125,-0.5464185476303101,0.07254019379615784,0.5498546361923218
1772810235362261800,4.34426171875,-0.13652828335762024,-0.131717711687088,-0.07444914430379868
1772810235371961900,4.3539619140625,0.2101374864578247,-0.6179660558700562,-1.1352158784866333
1772810235381662000,4.363661865234375,0.4667007029056549,-0.9255365133285522,-2.0979387760162354
1772810235391362000,4.373362060546875,0.5201513767242432,-0.9554688930511475,-2.6794819831848145
1772810235401062100,4.383062255859375,0.4312705397605896,-0.9203441739082336,-2.966283082962036
1772810235410762200,4.39276220703125,0.4511236250400543,-1.0119738578796387,-2.9919393062591553
1772810235420462300,4.40246240234375,0.4685332775115967,-1.2905281782150269,-2.6660430431365967
1772810235430162400,4.412162353515625,0.2816086709499359,-1.2593741416931152,-1.8713078498840332
1772810235439862500,4.421862548828125,0.07880155742168427,-0.7325032353401184,-0.7671698331832886
1772810235449562600,4.431562744140625,0.06597339361906052,-0.02237292192876339,0.3788125216960907
1772810235459262700,4.4412626953125,0.25900667905807495,0.5196931958198547,1.4640138149261475
1772810235468962800,4.450962890625,0.5436696410179138,0.6272054314613342,2.329303741455078
1772810235478662700,4.46066259765625,0.8268054723739624,0.3727802336215973,2.9557456970214844
1772810235488362800,4.47036279296875,1.0760383605957031,-0.03252854943275452,3.3448665142059326
1772810235498062800,4.480062744140625,1.3069452047348022,-0.2144898921251297,3.5091891288757324
1772810235507763000,4.489762939453125,1.4294235706329346,-0.05933023989200592,3.532707452774048
1772810235517463000,4.499463134765625,1.3936879634857178,0.24633121490478516,3.4844491481781006
1772810235527163100,4.5091630859375,1.229365348815918,0.6177369952201843,3.4138941764831543
1772810235536863200,4.51886328125,0.9120211005210876,0.837648332118988,3.312796115875244
1772810235546563300,4.528563232421875,0.3652971386909485,0.9231693744659424,3.133507251739502
1772810235556263400,4.538263427734375,-0.1542433500289917,1.0096067190170288,2.7550764083862305
1772810235565963500,4.547963623046875,-0.45387253165245056,1.1580469608306885,2.13596510887146
1772810235575663600,4.55766357421875,-0.4685332775115967,1.297629475593567,1.4160609245300293
1772810235585363700,4.56736376953125,-0.2834412455558777,1.328478217124939,0.7480802536010742
1772810235595063800,4.577063720703125,-0.0027488914784044027,1.3019055128097534,0.28412848711013794
1772810235604764000,4.586763916015625,0.2620609998703003,1.2539526224136353,0.03428478538990021
1772810235614464000,4.596464111328125,0.4056142270565033,1.1769837141036987,-0.03474293276667595
1772810235624164000,4.6061640625,0.38698282837867737,1.0777181386947632,0.033979352563619614
1772810235633864200,4.6158642578125,0.2461785078048706,0.9469931125640869,0.15004366636276245
1772810235643564300,4.625564208984375,0.11056652665138245,0.8168789148330688,0.26885685324668884
1772810235653264400,4.635264404296875,0.054672397673130035,0.6812669634819031,0.35559967160224915
1772810235662964500,4.644964599609375,0.06322450190782547,0.49984011054039,0.41118836402893066
1772810235672664300,4.654664306640625,0.10140355676412582,0.2386954128742218,0.45364347100257874
1772810235682364400,4.664364501953125,0.1441640853881836,-0.07643445581197739,0.4918225109577179
1772810235692064500,4.674064453125,0.20402882993221283,-0.4053851366043091,0.5522981286048889
1772810235701764600,4.6837646484375,0.29993459582328796,-0.6604211926460266,0.6662244200706482
1772810235711464700,4.693464599609375,0.41783151030540466,-0.7972549200057983,0.8204677700996399
1772810235721164800,4.703164794921875,0.4978547990322113,-0.8415426015853882,0.9548580050468445
1772810235730865000,4.712864990234375,0.5253437161445618,-0.8186351656913757,1.0419062376022339
1772810235740565000,4.72256494140625,0.5048797130584717,-0.7810669541358948,1.0776418447494507
1772810235750265000,4.73226513671875,0.44379326701164246,-0.7404444813728333,1.071533203125
1772810235759965200,4.741965087890625,0.3390299379825592,-0.6414843797683716,1.0186933279037476
1772810235769665300,4.751665283203125,0.22327107191085815,-0.48296496272087097,0.9240093231201172
1772810235779365400,4.761365478515625,0.11911863088607788,-0.2963457703590393,0.7871756553649902
1772810235789065500,4.7710654296875,0.02932151034474373,-0.10422880202531815,0.6118574142456055
1772810235798765600,4.780765625,-0.046425722539424896,0.04321868345141411,0.42707082629203796
1772810235808465700,4.790465576171875,-0.12400554865598679,0.13240493834018707,0.2560287117958069
1772810235818165800,4.800165771484375,-0.19883649051189423,0.19104796648025513,0.09964732080698013
1772810235827865900,4.809865966796875,-0.23884813487529755,0.23747368156909943,-0.042684175074100494
1772810235837566000,4.81956591796875,-0.2556469142436981,0.2857320010662079,-0.1810450553894043
1772810235847266000,4.82926611328125,-0.28008151054382324,0.3266599476337433,-0.31696245074272156
1772810235856966000,4.8389658203125,-0.3170388340950012,0.36880961060523987,-0.428139865398407
1772810235866666000,4.848666015625,-0.3656025826931,0.41492989659309387,-0.49625128507614136
1772810235876366000,4.858365966796875,-0.4508182108402252,0.4381427764892578,-0.5240456461906433
1772810235886066200,4.868066162109375,-0.5870410799980164,0.46288278698921204,-0.4947241246700287
1772810235895766300,4.877766357421875,-0.7418952584266663,0.5502364635467529,-0.41531169414520264
1772810235905466400,4.88746630859375,-0.8857539296150208,0.7289143800735474,-0.31696245074272156
1772810235915166500,4.89716650390625,-1.0241148471832275,0.9830341339111328,-0.25007277727127075
1772810235924866600,4.906866455078125,-1.186299443244934,1.242040753364563,-0.22411102056503296
1772810235934566700,4.916566650390625,-1.3371829986572266,1.4448479413986206,-0.23968806862831116
1772810235944266800,4.926266845703125,-1.4110976457595825,1.6271910667419434,-0.2720639109611511
1772810235953966800,4.935966796875,-1.4043781757354736,1.7383683919906616,-0.2940550446510315
1772810235963667000,4.9456669921875,-1.334128737449646,1.651320219039917,-0.34750568866729736
1772810235973367000,4.955366943359375,-1.2235621213912964,1.262810230255127,-0.5164098143577576
1772810235983067100,4.965067138671875,-1.100778341293335,0.5621483325958252,-0.779692530632019
1772810235992767200,4.974767333984375,-1.1016945838928223,-0.4041634202003479,-1.0933716297149658
1772810236002467300,4.98446728515625,-1.2159262895584106,-1.1533890962600708,-1.5221986770629883
1772810236012167400,4.99416748046875,-1.2342523336410522,-0.9264528155326843,-2.046626091003418
1772810236021867500,5.003867431640625,-1.091309905052185,-0.18455752730369568,-2.7918810844421387
1772810236031567600,5.013567626953125,-0.7663298845291138,0.2759581506252289,-3.764988660812378
1772810236041267500,5.023267333984375,-0.24892739951610565,-0.2343430072069168,-4.827588081359863
1772810236050967600,5.032967529296875,0.29504770040512085,-1.6283364295959473,-5.680965900421143
1772810236060667600,5.042667724609375,0.7727439403533936,-2.4478116035461426,-5.76343297958374
1772810236070367700,5.05236767578125,1.1151336431503296,-2.122220516204834,-5.022759437561035
1772810236080067800,5.06206787109375,1.3570361137390137,-1.3757438659667969,-3.7170357704162598
1772810236089768000,5.071767822265625,1.63620126247406,-0.8436806201934814,-2.1718533039093018
1772810236099468000,5.081468017578125,1.9385793209075928,-0.8308524489402771,-0.7635046243667603
1772810236109168000,5.091168212890625,2.1801764965057373,-1.367802619934082,0.307646781206131
1772810236118868200,5.1008681640625,2.3451099395751953,-2.3302199840545654,1.0782526731491089
1772810236128568300,5.110568359375,2.422384262084961,-3.2297184467315674,1.570304274559021
1772810236138268400,5.120268310546875,2.416886568069458,-3.5760788917541504,1.7135521173477173
1772810236147968500,5.129968505859375,2.319453477859497,-3.357389211654663,1.4750093221664429
1772810236157668600,5.139668701171875,2.1047346591949463,-2.7471351623535156,0.9298125505447388
1772810236167368700,5.14936865234375,1.7376048564910889,-1.9927172660827637,0.1931096315383911
1772810236177068500,5.159068603515625,1.2400555610656738,-1.2573124170303345,-0.6150645017623901
1772810236186769000,5.168768798828125,0.6899717450141907,-0.61827152967453,-1.3386337757110596
1772810236196469000,5.178468994140625,0.1997527778148651,-0.05230529606342316,-1.8325179815292358
1772810236206169000,5.188169189453125,-0.21380266547203064,0.4091266989707947,-2.0731987953186035
1772810236215869200,5.197869140625,-0.5745183229446411,0.706923246383667,-2.086026906967163
1772810236225569000,5.207569091796875,-0.8451313972473145,0.8266527652740479,-1.888717532157898
1772810236235269000,5.21726904296875,-0.9721912741661072,0.8116865754127502,-1.5264747142791748
1772810236244969200,5.22696923828125,-0.9615011811256409,0.7127264738082886,-1.0701587200164795
1772810236254669300,5.23666943359375,-0.850018322467804,0.5477929711341858,-0.5808560252189636
1772810236264369400,5.246369384765625,-0.6719512343406677,0.3480401933193207,-0.11140646785497665
1772810236274069500,5.256069580078125,-0.46608981490135193,0.15836669504642487,0.2905425727367401
1772810236283769600,5.26576953125,-0.26939135789871216,0.04627300798892975,0.5907825827598572
1772810236293469700,5.2754697265625,-0.12064579129219055,-0.057497646659612656,0.7902299761772156
1772810236303169800,5.285169677734375,-0.10720676928758621,-0.2560287117958069,0.9316451549530029
1772810236312870000,5.294869873046875,-0.24709481000900269,-0.4808269441127777,1.0553452968597412
1772810236322570000,5.304570068359375,-0.42394015192985535,-0.6335431337356567,1.1130720376968384
1772810236332270000,5.31427001953125,-0.535728394985199,-0.6680569648742676,1.0574833154678345
1772810236341970200,5.32397021484375,-0.5681042671203613,-0.5816196203231812,0.9020181894302368
1772810236351670000,5.333669921875,-0.5479456782341003,-0.385532021522522,0.6854666471481323
1772810236361370000,5.3433701171875,-0.5039634704589844,-0.131717711687088,0.4554760456085205
1772810236371070500,5.353070556640625,-0.47922343015670776,0.10277800261974335,0.24930918216705322
1772810236380770600,5.3627705078125,-0.49510589241981506,0.2652680277824402,0.116751529276371
1772810236390470700,5.372470703125,-0.5250383019447327,0.3721693754196167,0.06696604937314987
1772810236400170500,5.38217041015625,-0.5528326034545898,0.393244206905365,0.07460185885429382
1772810236409870600,5.39187060546875,-0.5803215503692627,0.3220784664154053,0.14088068902492523
1772810236419570700,5.40157080078125,-0.5974257588386536,0.2130390852689743,0.2599993348121643
1772810236429270800,5.411270751953125,-0.610559344291687,0.12140937149524689,0.39591673016548157
1772810236438971000,5.420970947265625,-0.6517927050590515,0.09636391699314117,0.5214494466781616
1772810236448671000,5.4306708984375,-0.6960803866386414,0.1052214577794075,0.655228853225708
1772810236458371000,5.44037109375,-0.6777544617652893,0.13698641955852509,0.839099109172821
1772810236468071200,5.4500712890625,-0.6404917240142822,0.2530507445335388,1.0556507110595703
1772810236477771300,5.459771240234375,-0.6130027770996094,0.5331322550773621,1.236466646194458
1772810236487471400,5.469471435546875,-0.44501498341560364,1.0123556852340698,1.3137410879135132
1772810236497171500,5.47917138671875,-0.10873392969369888,1.4931062459945679,1.1909571886062622
1772810236506871600,5.48887158203125,0.07880155742168427,1.245095133781433,0.7037925720214844
1772810236516571600,5.498571533203125,-0.07422006875276566,0.11743875592947006,-0.16455170512199402
1772810236526271500,5.508271484375,-0.5442805290222168,-1.3623048067092896,-1.184695839881897
1772810236535971600,5.5179716796875,-1.0696241855621338,-1.977140188217163,-1.9986732006072998
1772810236545671700,5.527671630859375,-1.4385865926742554,-0.9398918151855469,-2.381380081176758
1772810236555371800,5.537371826171875,-1.510363221168518,0.8498656153678894,-2.4259731769561768
1772810236565072000,5.54707177734375,-1.0656535625457764,2.447277069091797,-2.0786964893341064
1772810236574772000,5.55677197265625,-0.36254823207855225,3.129612922668457,-1.342604398727417
1772810236584472000,5.56647216796875,0.282524973154068,2.612515926361084,-0.30077454447746277
1772810236594172200,5.576172119140625,1.0045671463012695,1.188895583152771,0.9148463606834412
1772810236603872300,5.585872314453125,1.7061452865600586,-0.5474112033843994,2.1549019813537598
1772810236613572400,5.595572265625,2.2598941326141357,-2.3195300102233887,3.404425859451294
1772810236623272400,5.6052724609375,2.5470006465911865,-3.666792154312134,4.452975273132324
1772810236632972500,5.61497265625,2.4627013206481934,-4.0232319831848145,4.820410251617432
1772810236642672600,5.624672607421875,2.0796890258789062,-3.5375943183898926,4.437703609466553
1772810236652372700,5.634372802734375,1.5024219751358032,-2.459723472595215,3.4141995906829834
1772810236662072800,5.64407275390625,0.8329141139984131,-1.0843613147735596,1.9640066623687744
1772810236671773000,5.65377294921875,0.18325942754745483,0.36880961060523987,0.4872410297393799
1772810236681473000,5.66347314453125,-0.3811796307563782,1.679114580154419,-0.7464004158973694
1772810236691172900,5.6731728515625,-0.7855721116065979,2.5804455280303955,-1.6449824571609497
1772810236700873000,5.682873046875,-1.0103703737258911,2.8623595237731934,-2.166355609893799
1772810236710573000,5.692572998046875,-1.1001675128936768,2.5032474994659424,-2.337092399597168
1772810236720273200,5.702273193359375,-1.0427461862564087,1.6574288606643677,-2.214003086090088
1772810236729973200,5.71197314453125,-0.7846558094024658,0.6574432253837585,-1.823354959487915
1772810236739673300,5.72167333984375,-0.45509424805641174,-0.173256516456604,-1.2210423946380615
1772810236749373400,5.73137353515625,-0.17592905461788177,-0.6326268315315247,-0.4901426136493683
1772810236759073500,5.741073486328125,0.024434590712189674,-0.6680569648742676,0.23067781329154968
1772810236768773600,5.750773681640625,0.1539379209280014,-0.30978479981422424,0.8445969223976135
1772810236778473700,5.7604736328125,0.2162461280822754,0.2585485279560089,1.3229039907455444
1772810236788173800,5.770173828125,0.2611446976661682,0.883768618106842,1.683619737625122
1772810236797874000,5.7798740234375,0.3017672002315521,1.401171088218689,1.9081125259399414
1772810236807574000,5.789573974609375,0.3640754222869873,1.724013090133667,1.9899684190750122
1772810236817274000,5.799274169921875,0.49052441120147705,1.8083124160766602,1.922467827796936
1772810236826974200,5.80897412109375,0.6438514590263367,1.6940807104110718,1.7141629457473755
1772810236836674300,5.81867431640625,0.7134900689125061,1.3049598932266235,1.3751329183578491
1772810236846374400,5.82837451171875,0.7177661061286926,0.7698423266410828,0.9386700987815857
1772810236856074500,5.838074462890625,0.7031053900718689,0.31261005997657776,0.44722938537597656
1772810236865774300,5.8477744140625,0.6860011219978333,-0.004046979360282421,-0.042684175074100494
1772810236875474400,5.857474365234375,0.6172788739204407,-0.1372154951095581,-0.4782307744026184
1772810236885174500,5.867174560546875,0.5345066785812378,-0.15401428937911987,-0.8331431746482849
1772810236894874600,5.87687451171875,0.4789179861545563,-0.07918334752321243,-1.0164026021957397
1772810236904574700,5.88657470703125,0.4410443603992462,0.06490438431501389,-1.0234276056289673
1772810236914274800,5.89627490234375,0.3451386094093323,0.1052214577794075,-1.0072396993637085
1772810236923975000,5.905974853515625,0.2513708472251892,0.04169152304530144,-0.9950223565101624
1772810236933675000,5.915675048828125,0.22693626582622528,-0.06910407543182373,-0.9693660736083984
1772810236943375000,5.925375,0.25503605604171753,-0.25297439098358154,-0.9565379023551941
1772810236953075200,5.9350751953125,0.31062474846839905,-0.46341729164123535,-0.9598976373672485
1772810236962775300,5.944775390625,0.36682429909706116,-0.6763036847114563,-0.9397391080856323
1772810236972475400,5.954475341796875,0.4111120104789734,-0.8445969223976135,-0.8820123672485352
1772810236982175200,5.96417529296875,0.4663952589035034,-0.8968258500099182,-0.7916043996810913
1772810236991875300,5.973875244140625,0.535728394985199,-0.7963386178016663,-0.6743183732032776
1772810237001575400,5.983575439453125,0.591622531414032,-0.6039161682128906,-0.547563910484314
1772810237011275800,5.99327587890625,0.601396381855011,-0.3995819091796875,-0.40004006028175354
1772810237020975900,6.002975830078125,0.5506945848464966,-0.19677481055259705,-0.24671301245689392
1772810237030675700,6.01267578125,0.46914416551589966,-0.01779143698513508,-0.12606722116470337
1772810237040375800,6.022375732421875,0.3555232882499695,0.0902552679181099,-0.05826122686266899
1772810237050076000,6.032075927734375,0.19730933010578156,0.15233440697193146,-0.027717988938093185
1772810237059776000,6.04177587890625,0.028099779039621353,0.2078467458486557,-0.03352120518684387
1772810237069476000,6.05147607421875,-0.10751219838857651,0.24327689409255981,-0.09338594973087311
1772810237079176200,6.06117626953125,-0.20677772164344788,0.2600756883621216,-0.1755472719669342
1772810237088876300,6.070876220703125,-0.2632827162742615,0.29153522849082947,-0.24152065813541412
1772810237098576400,6.080576416015625,-0.3130682110786438,0.33276858925819397,-0.29710936546325684
1772810237108276500,6.0902763671875,-0.37690356373786926,0.35414886474609375,-0.3673588037490845
1772810237117976600,6.0999765625,-0.4474584460258484,0.39049530029296875,-0.39820748567581177
1772810237127676700,6.1096767578125,-0.47097674012184143,0.4378373324871063,-0.3902662396430969
1772810237137376800,6.119376708984375,-0.3756818473339081,0.33001968264579773,-0.41958773136138916
1772810237147076600,6.12907666015625,-0.1945604383945465,-0.09995274990797043,-0.5518399477005005
1772810237156776700,6.138776611328125,-0.029016077518463135,-0.7945060133934021,-0.8517745733261108
1772810237166476800,6.148476806640625,0.005192350596189499,-1.4175881147384644,-1.2115739583969116
1772810237176177000,6.158177001953125,0.05100720748305321,-1.7883830070495605,-1.4763838052749634
1772810237185877000,6.167876953125,0.27427828311920166,-2.479576587677002,-1.8215223550796509
1772810237195577000,6.1775771484375,0.5433642268180847,-2.9426119327545166,-2.1269547939300537
1772810237205277200,6.187277099609375,0.593149721622467,-2.5782310962677,-2.1156537532806396
1772810237214977300,6.196977294921875,0.3280344009399414,-1.5489239692687988,-1.8236604928970337
1772810237224677400,6.206677490234375,-0.056199558079242706,-0.15645773708820343,-1.3551270961761475
1772810237234377500,6.21637744140625,-0.3020726442337036,1.0053306818008423,-0.881706953048706
1772810237244077600,6.22607763671875,-0.3087921440601349,1.6256638765335083,-0.5096902847290039
1772810237253777700,6.235777587890625,-0.13652828335762024,1.7606650590896606,-0.21861323714256287
1772810237263477500,6.2454775390625,0.13775001466274261,1.4695879220962524,0.0962875634431839
1772810237273177900,6.255177734375,0.3952295184135437,0.7835868000984192,0.4609738290309906
1772810237282878000,6.2648779296875,0.5794052481651306,-0.03764454275369644,0.8455132246017456
1772810237292578000,6.274578125,0.6954695582389832,-0.7639627456665039,1.164079189300537
1772810237302278100,6.284278076171875,0.7052434086799622,-1.2456296682357788,1.3351212739944458
1772810237311978000,6.29397802734375,0.5784889459609985,-1.3653591871261597,1.3122138977050781
1772810237321678000,6.303677978515625,0.33505934476852417,-1.1399500370025635,1.0953569412231445
1772810237331378200,6.313378173828125,0.03329212963581085,-0.6778308153152466,0.7667116522789001
1772810237341078300,6.323078369140625,-0.2712239623069763,-0.1219438835978508,0.3904189467430115
1772810237350778400,6.3327783203125,-0.5467239618301392,0.3712530732154846,0.005574141163378954
1772810237360478500,6.342478515625,-0.7565560340881348,0.718224287033081,-0.34261879324913025
1772810237370178600,6.352178466796875,-0.8814778923988342,0.873994767665863,-0.6712640523910522
1772810237379878700,6.361878662109375,-0.9453132748603821,0.7881683111190796,-0.982194185256958
1772810237389578800,6.371578857421875,-0.9480621218681335,0.5554288029670715,-1.195691466331482
1772810237399278800,6.38127880859375,-0.8625410795211792,0.28176137804985046,-1.2372303009033203
1772810237408979000,6.39097900390625,-0.7137954831123352,0.03649916872382164,-1.1000910997390747
1772810237418679000,6.400678955078125,-0.5684096813201904,-0.10881029069423676,-0.8306997418403625
1772810237428379000,6.41037890625,-0.4581485986709595,-0.12988512217998505,-0.5038870573043823
1772810237438079000,6.420078857421875,-0.379347026348114,-0.07215840369462967,-0.19509494304656982
1772810237447779000,6.429779052734375,-0.3170388340950012,0.05604684352874756,0.06299543380737305
1772810237457479200,6.439479248046875,-0.24495677649974823,0.23991714417934418,0.25266894698143005
1772810237467179300,6.44917919921875,-0.1533270627260208,0.44211336970329285,0.368122398853302
1772810237476879400,6.45887939453125,-0.06200277432799339,0.6186532974243164,0.4160752594470978
1772810237486579500,6.468579345703125,0.0021380267571657896,0.7353284955024719,0.4108829200267792
1772810237496279600,6.478279541015625,0.04917461425065994,0.7704532146453857,0.3684278130531311
1772810237505979600,6.487979736328125,0.07513637095689774,0.699287474155426,0.29420775175094604
1772810237515679700,6.4976796875,0.07086031138896942,0.5557342171669006,0.20624321699142456
1772810237525379800,6.5073798828125,0.04886918142437935,0.39599308371543884,0.11339177191257477
1772810237535080000,6.517079833984375,0.01649334840476513,0.23197589814662933,0.024510949850082397
1772810237544780000,6.526780029296875,-0.015577051788568497,0.1406516134738922,-0.030772313475608826
1772810237554480000,6.536480224609375,-0.04214967042207718,0.15470150113105774,-0.04390590637922287
1772810237564180200,6.54618017578125,-0.07483093440532684,0.21517711877822876,-0.022220205515623093
1772810237573880300,6.55588037109375,-0.12705987691879272,0.28176137804985046,0.02848157100379467
1772810237583580200,6.565580078125,-0.19730933010578156,0.3510945439338684,0.10575596243143082
1772810237593280300,6.5752802734375,-0.27488914132118225,0.3990474045276642,0.17692171037197113
1772810237602980400,6.58498046875,-0.3659079968929291,0.41584619879722595,0.21876594424247742
1772810237612680400,6.594680419921875,-0.4676169753074646,0.4350884258747101,0.24258968234062195
1772810237622380500,6.604380615234375,-0.5778780579566956,0.43050694465637207,0.25938844680786133
1772810237632080600,6.61408056640625,-0.676227331161499,0.4586067199707031,0.2859610617160797
1772810237641780700,6.62378076171875,-0.6997455954551697,0.5865828990936279,0.2801578640937805
1772810237651480800,6.633480712890625,-0.6688969135284424,0.7643445730209351,0.19097159802913666
1772810237661181000,6.643180908203125,-0.6511818766593933,1.012966513633728,0.02542724646627903
1772810237670881000,6.652881103515625,-0.6356047987937927,1.2735003232955933,-0.17463096976280212
1772810237680581000,6.6625810546875,-0.5558869242668152,1.4335469007492065,-0.37346744537353516
1772810237690281000,6.672281005859375,-0.40347617864608765,1.3336704969406128,-0.5457313060760498
1772810237699981000,6.68198095703125,-0.23945899307727814,0.8083268404006958,-0.6617956161499023
1772810237709681200,6.69168115234375,-0.1594357043504715,-0.09292780607938766,-0.6804270148277283
1772810237719381500,6.701381591796875,-0.13164135813713074,-0.9609666466712952,-0.520380437374115
1772810237729081300,6.711081298828125,-0.10079269111156464,-1.4475204944610596,-0.2726747691631317
1772810237738781400,6.720781494140625,-0.06261363625526428,-1.5599195957183838,-0.13156500458717346
1772810237748481500,6.7304814453125,-0.007024944759905338,-1.272813081741333,-0.12392919510602951
1772810237758181600,6.740181640625,-0.024434590712189674,-0.7117338180541992,-0.17188207805156708
1772810237767881700,6.7498818359375,-0.15515965223312378,-0.07948877662420273,-0.20547963678836823
1772810237777581800,6.759581787109375,-0.2205221801996231,0.37369653582572937,-0.3090212345123291
1772810237787282000,6.769281982421875,-0.10659590363502502,0.4332558512687683,-0.4336376488208771
1772810237796982000,6.77898193359375,0.13683371245861053,0.00755945174023509,-0.31635159254074097
1772810237806682000,6.78868212890625,0.44929105043411255,-0.6677515506744385,0.21784965693950653
1772810237816382200,6.79838232421875,0.7455604672431946,-1.219667911529541,1.1747692823410034
1772810237826082300,6.808082275390625,0.831997811794281,-1.487532138824463,2.4481170177459717
1772810237835782400,6.817782470703125,0.6704241037368774,-1.5638902187347412,3.8387506008148193
1772810237845482200,6.827482177734375,0.38209593296051025,-1.5217405557632446,4.9486918449401855
1772810237855182300,6.837182373046875,0.1029307171702385,-1.415450096130371,5.450822830200195
1772810237864882400,6.84688232421875,-0.12736530601978302,-1.1509455442428589,5.4398274421691895
1772810237874582500,6.85658251953125,-0.31184646487236023,-0.8336013555526733,5.175322532653809
1772810237884282600,6.86628271484375,-0.4211912751197815,-0.7657953500747681,4.8005571365356445
1772810237893982700,6.875982666015625,-0.3750709891319275,-1.0374010801315308,4.464276313781738
1772810237903682800,6.885682861328125,-0.19944734871387482,-1.553505539894104,4.225122451782227
1772810237913383000,6.8953828125,-0.043371398001909256,-2.055025577545166,4.058356285095215
1772810237923083000,6.9050830078125,0.05222893878817558,-2.485379695892334,3.8647124767303467
1772810237932783000,6.914783203125,0.1081230640411377,-2.8607561588287354,3.5207955837249756
1772810237942483200,6.924483154296875,0.11178825795650482,-2.847928047180176,3.0736424922943115
1772810237952183300,6.934183349609375,0.11484257876873016,-2.1854450702667236,2.627405881881714
1772810237961883100,6.943883056640625,0.11087195575237274,-1.0165553092956543,2.1478769779205322
1772810237971583200,6.953583251953125,0.07360920310020447,0.20631958544254303,1.635972261428833
1772810237981283600,6.96328369140625,-0.01893680728971958,1.1665990352630615,1.1854594945907593
1772810237990983700,6.972983642578125,-0.18173226714134216,1.7915136814117432,0.8604794144630432
1772810238000683500,6.98268359375,-0.3643808364868164,2.0404410362243652,0.6170498132705688
1772810238010383600,6.992383544921875,-0.4935787320137024,1.9897392988204956,0.3836994469165802
1772810238020083700,7.002083740234375,-0.5345066785812378,1.7872376441955566,0.12621992826461792
1772810238029783800,7.01178369140625,-0.5061014890670776,1.4530946016311646,-0.1508072465658188
1772810238039484000,7.02148388671875,-0.43401941657066345,1.0257946252822876,-0.40553784370422363
1772810238049184000,7.03118408203125,-0.32559093832969666,0.6107120513916016,-0.5811614990234375
1772810238058884000,7.040884033203125,-0.19669845700263977,0.33399030566215515,-0.6486620306968689
1772810238068584200,7.050584228515625,-0.08002328872680664,0.23014330863952637,-0.6227002739906311
1772810238078284300,7.0602841796875,0.000610864779446274,0.26282456517219543,-0.5170207023620605
1772810238087984400,7.069984375,0.049480047076940536,0.3889681398868561,-0.33345580101013184
1772810238097684500,7.0796845703125,0.06841685622930527,0.5416843295097351,-0.11537708342075348
1772810238107384300,7.08938427734375,0.032681263983249664,0.6317868828773499,0.09903645515441895
1772810238117084400,7.09908447265625,-0.09285144507884979,0.6018545031547546,0.2926805913448334
1772810238126784500,7.108784423828125,-0.272751122713089,0.5254964232444763,0.43806639313697815
1772810238136484600,7.118484619140625,-0.41844236850738525,0.45646870136260986,0.4912116527557373
1772810238146184700,7.128184814453125,-0.49663305282592773,0.3981311321258545,0.4310414493083954
1772810238155884800,7.137884765625,-0.5161807537078857,0.3568977415561676,0.2795470058917999
1772810238165585000,7.1475849609375,-0.49663305282592773,0.35506516695022583,0.06788235157728195
1772810238175285000,7.157284912109375,-0.46395179629325867,0.40118545293807983,-0.16363540291786194
1772810238184985000,7.166985107421875,-0.430659681558609,0.4796815812587738,-0.3749946057796478
1772810238194685200,7.176685302734375,-0.4050033390522003,0.5438223481178284,-0.5234347581863403
1772810238204385300,7.18638525390625,-0.41355544328689575,0.5610029697418213,-0.5778017044067383
1772810238214085000,7.196085205078125,-0.4514290690422058,0.5661189556121826,-0.529543399810791
1772810238223785200,7.20578515625,-0.5216785073280334,0.5477929711341858,-0.4113410711288452
1772810238233485600,7.215485595703125,-0.6346884965896606,0.4897608458995819,-0.2586248815059662
1772810238243185700,7.225185546875,-0.7648026943206787,0.4326449930667877,-0.10224349051713943
1772810238252885500,7.234885498046875,-0.8772017955780029,0.4399753510951996,0.017486004158854485
1772810238262585600,7.244585693359375,-0.9517273306846619,0.5520690679550171,0.07307469844818115
1772810238272285700,7.25428564453125,-0.980132520198822,0.7738129496574402,0.05933023989200592
1772810238281985800,7.26398583984375,-0.9954041838645935,1.0829105377197266,-0.022220205515623093
1772810238291686000,7.273685791015625,-1.0063997507095337,1.4045308828353882,-0.150196373462677
1772810238301386000,7.283385986328125,-1.0161736011505127,1.6852232217788696,-0.2943604588508606
1772810238311086000,7.293086181640625,-1.0109812021255493,1.9598069190979004,-0.3917934000492096
1772810238320786200,7.3027861328125,-1.0277799367904663,2.1812453269958496,-0.3975966274738312
1772810238330486300,7.312486328125,-1.1081087589263916,2.2533273696899414,-0.3136027157306671
1772810238340186400,7.322186279296875,-1.227838158607483,2.1116068363189697,-0.1346193253993988
1772810238349886500,7.331886474609375,-1.3332123756408691,1.753640055656433,0.106366828083992
1772810238359586300,7.34158642578125,-1.2776236534118652,1.159879446029663,0.26427537202835083
1772810238369286400,7.351286376953125,-0.96180659532547,0.5329031348228455,0.266107976436615
1772810238378986500,7.360986572265625,-0.5616901516914368,0.10399972647428513,0.11919499188661575
1772810238388686600,7.3706865234375,-0.36193737387657166,-0.26763513684272766,-0.16241367161273956
1772810238398386700,7.38038671875,-0.39217519760131836,-0.2908479869365692,-0.31635159254074097
1772810238408086800,7.390086669921875,-0.3066541254520416,-0.19555309414863586,-0.6010146141052246
1772810238417787000,7.399786865234375,-0.12278381735086441,-0.3736201822757721,-1.3841432332992554
1772810238427487000,7.409487060546875,0.0513126403093338,-0.6619483232498169,-2.1092398166656494
1772810238437187000,7.41918701171875,0.18631376326084137,-0.4289034307003021,-2.197815179824829
1772810238446887200,7.42888720703125,0.21258094906806946,0.32757624983787537,-1.5389974117279053
1772810238456587300,7.438587158203125,0.18295399844646454,1.0404554605484009,-0.39454227685928345
1772810238466287000,7.448287109375,0.2629773020744324,1.2637264728546143,0.8439860343933105
1772810238475987200,7.4579873046875,0.5094612240791321,0.8596394658088684,1.8610758781433105
1772810238485687300,7.467687255859375,0.8616247773170471,-0.10758855938911438,2.4417028427124023
1772810238495387600,7.4773876953125,1.2290599346160889,-1.300607442855835,2.5376086235046387
1772810238505087500,7.48708740234375,1.488066554069519,-2.318308115005493,2.217210054397583
1772810238514787600,7.49678759765625,1.5638138055801392,-2.9139013290405273,1.5990148782730103
1772810238524487700,7.50648779296875,1.4584397077560425,-3.055622100830078,0.7859538793563843
1772810238534187800,7.516187744140625,1.2925899028778076,-2.706818103790283,-0.08910989761352539
1772810238543888000,7.525887939453125,1.158199667930603,-1.92124605178833,-0.882317841053009
1772810238553588000,7.535587890625,1.091004490852356,-0.949971079826355,-1.4791326522827148
1772810238563288000,7.5452880859375,1.0491602420806885,-0.08254310488700867,-1.8181626796722412
1772810238572988200,7.55498828125,0.9770781993865967,0.4842630624771118,-1.906738042831421
1772810238582688300,7.564688232421875,0.8998038172721863,0.6809614896774292,-1.7570761442184448
1772810238592388400,7.574388427734375,0.7993165850639343,0.44119709730148315,-1.3939170837402344
1772810238602088400,7.58408837890625,0.638353705406189,-0.06177370250225067,-0.9027817845344543
1772810238611788300,7.593788330078125,0.4471530318260193,-0.6207149624824524,-0.4232529401779175
1772810238621488400,7.60348828125,0.20463970303535461,-1.1045198440551758,-0.03810269013047218
1772810238631188500,7.6131884765625,-0.08826996386051178,-1.3348158597946167,0.23403756320476532
1772810238640888600,7.622888671875,-0.3344484567642212,-1.2709804773330688,0.3937787115573883
1772810238650588700,7.632588623046875,-0.5054906010627747,-1.0162498950958252,0.42859798669815063
1772810238660288800,7.642288818359375,-0.6117810606956482,-0.6860775351524353,0.35071274638175964
1772810238669988900,7.65198876953125,-0.675616443157196,-0.35468336939811707,0.21540619432926178
1772810238679689000,7.66168896484375,-0.7244856357574463,-0.09903645515441895,0.081015944480896
1772810238689389000,7.67138916015625,-0.7846558094024658,-0.0062613640911877155,-0.030772313475608826
1772810238699089200,7.681089111328125,-0.8274163603782654,-0.09262236952781677,-0.10774127393960953
1772810238708789000,7.6907890625,-0.8127555847167969,-0.2548069655895233,-0.11232276260852814
1772810238718489000,7.700489013671875,-0.7241802215576172,-0.4099666178226471,-0.039018988609313965
1772810238728189200,7.710189208984375,-0.6142245531082153,-0.5367210507392883,0.07735075056552887
1772810238737889300,7.71988916015625,-0.5519163012504578,-0.6784417033195496,0.2099084109067917
1772810238747589400,7.72958935546875,-0.545502245426178,-0.8644500374794006,0.3580431044101715
1772810238757289500,7.73928955078125,-0.5861247777938843,-1.0480148792266846,0.5107592940330505
1772810238766989600,7.748989501953125,-0.6896663308143616,-1.2190570831298828,0.6524799466133118
1772810238776689700,7.758689697265625,-0.8710931539535522,-1.3458114862442017,0.7618247270584106
1772810238786389800,7.7683896484375,-1.063515543937683,-1.4377466440200806,0.8103885054588318
1772810238796089900,7.77808984375,-1.1410953998565674,-1.6497167348861694,0.7184533476829529
1772810238805790000,7.7877900390625,-1.1200206279754639,-1.8968114852905273,0.5263363718986511
1772810238815490000,7.797489990234375,-1.0586286783218384,-1.9569816589355469,0.32963791489601135
1772810238825190100,7.807190185546875,-0.99968022108078,-1.6952260732650757,0.15554144978523254
1772810238834890200,7.81689013671875,-0.9447023868560791,-1.2105048894882202,-0.022525638341903687
1772810238844590300,7.82659033203125,-0.8573487401008606,-0.7893136739730835,-0.25618141889572144
1772810238854290200,7.836290283203125,-0.7165443897247314,-0.6390409469604492,-0.5591703653335571
1772810238863990300,7.845990234375,-0.5247328281402588,-0.6451495885848999,-0.8520799875259399
1772810238873690400,7.8556904296875,-0.34177884459495544,-0.6146063208580017,-1.0344231128692627
1772810238883390500,7.865390380859375,-0.1536324918270111,-0.4814378023147583,-1.140102744102478
1772810238893090600,7.875090576171875,0.17073670029640198,-0.349185585975647,-1.3774237632751465
1772810238902790700,7.884790771484375,0.646905779838562,-0.43317949771881104,-1.9302563667297363
1772810238912490800,7.89449072265625,1.1465932130813599,-0.6023890376091003,-2.663904905319214
1772810238922190800,7.90419091796875,1.5491530895233154,-0.4606684148311615,-3.124802350997925
1772810238931891000,7.913890869140625,1.7156137228012085,0.08536835014820099,-3.068908214569092
1772810238941591000,7.923591064453125,1.6804890632629395,0.47235119342803955,-2.6959753036499023
1772810238951291100,7.933291015625,1.804800033569336,0.39538222551345825,-2.186208724975586
1772810238960991000,7.942990966796875,1.8588615655899048,0.004734201822429895,-1.4324015378952026
1772810238970691000,7.952691162109375,1.6890411376953125,-0.16470441222190857,-0.6911171674728394
1772810238980391200,7.96239111328125,1.450192928314209,0.13820815086364746,-0.10285435616970062
1772810238990091300,7.97209130859375,1.1899645328521729,0.7735075354576111,0.3064250349998474
1772810238999791400,7.981791259765625,0.953559935092926,1.4414881467819214,0.6197986602783203
1772810239009491500,7.991491455078125,0.7360920310020447,1.8434371948242188,0.8601739406585693
1772810239019191600,8.001191650390625,0.6047561168670654,1.9271256923675537,1.1387282609939575
1772810239028891600,8.0108916015625,0.5888736248016357,1.6733113527297974,1.412395715713501
1772810239038591700,8.020591796875,0.6026180982589722,1.1384992599487305,1.6759839057922363
1772810239048291800,8.030291748046874,0.5369501113891602,0.6116283535957336,1.960341453552246
1772810239057991700,8.03999169921875,0.40744680166244507,0.28176137804985046,2.2025492191314697
1772810239067691800,8.04969189453125,0.23762640357017517,0.06307178735733032,2.410548686981201
1772810239077392100,8.05939208984375,-0.004886918235570192,-0.11247547715902328,2.649702310562134
1772810239087092200,8.06909228515625,-0.3582721948623657,-0.22365286946296692,2.904433012008667
1772810239096792000,8.0787919921875,-0.8011491298675537,-0.19005531072616577,3.0534839630126953
1772810239106492200,8.0884921875,-1.2705987691879272,0.0032070400193333626,3.0229406356811523
1772810239116192300,8.098192138671875,-1.6704097986221313,0.27259841561317444,2.8836636543273926
1772810239125892400,8.107892333984376,-1.9330816268920898,0.5648971796035767,2.675664186477661
1772810239135592400,8.117592529296875,-2.058919668197632,0.8721621632575989,2.4499495029449463
1772810239145292500,8.12729248046875,-2.056476354598999,1.1155917644500732,2.2960116863250732
1772810239154992600,8.13699267578125,-1.9831725358963013,1.1977530717849731,2.245615243911743
1772810239164692700,8.146692626953126,-1.9104795455932617,1.1186461448669434,2.2941789627075195
1772810239174392800,8.156392822265625,-1.8487823009490967,0.9851721525192261,2.4191009998321533
1772810239184093000,8.166093017578126,-1.7812817096710205,0.884379506111145,2.619464635848999
1772810239193792800,8.175792724609375,-1.6218459606170654,0.7334958910942078,2.882136344909668
1772810239203492900,8.185492919921876,-1.4740166664123535,0.567951500415802,3.1267876625061035
1772810239213193000,8.19519287109375,-1.3475676774978638,0.3529271185398102,3.27950382232666
1772810239222893000,8.20489306640625,-1.2101231813430786,0.04932733252644539,3.2969136238098145
1772810239232593200,8.21459326171875,-1.1047489643096924,-0.3119228184223175,3.184209108352661
1772810239242293200,8.224293212890625,-1.0378592014312744,-0.6039161682128906,2.971933603286743
1772810239251993300,8.233993408203125,-1.0406081676483154,-0.7984766364097595,2.689103126525879
1772810239261693400,8.243693359375,-1.1102467775344849,-0.8937715291976929,2.3699262142181396
1772810239271393500,8.2533935546875,-1.2290599346160889,-0.849483847618103,2.0140974521636963
1772810239281093600,8.26309375,-1.3723077774047852,-0.617355227470398,1.6170353889465332
1772810239290793700,8.272793701171874,-1.4923427104949951,-0.30306529998779297,1.1799616813659668
1772810239300493600,8.28249365234375,-1.571755051612854,-0.00923932995647192,0.7373901605606079
1772810239310193700,8.292193603515624,-1.6065744161605835,0.2793179154396057,0.321391224861145
1772810239319893800,8.301893798828125,-1.609628677368164,0.5474875569343567,-0.04482220485806465
1772810239329593900,8.31159375,-1.5931353569030762,0.6953168511390686,-0.38385215401649475
1772810239339294000,8.3212939453125,-1.5592323541641235,0.69012451171875,-0.6960040330886841
1772810239348994000,8.330994140625,-1.500589370727539,0.5435169339179993,-0.9571487307548523
1772810239358694100,8.340694091796875,-1.4260637760162354,0.3068068325519562,-1.1474331617355347
1772810239368394200,8.350394287109374,-1.3274091482162476,0.04535670951008797,-1.2720495462417603
1772810239378094300,8.36009423828125,-1.174692988395691,-0.20013457536697388,-1.3334414958953857
1772810239387794400,8.36979443359375,-0.9911280870437622,-0.3849211633205414,-1.3450478315353394
1772810239397494300,8.379494384765625,-0.8127555847167969,-0.48357582092285156,-1.3224458694458008
1772810239407194600,8.389194580078126,-0.6856957077980042,-0.5015963315963745,-1.286710262298584
1772810239416894700,8.398894775390625,-0.6071996092796326,-0.4139372408390045,-1.2677735090255737
1772810239426594600,8.408594482421876,-0.5684096813201904,-0.2801578640937805,-1.3264164924621582
1772810239436294700,8.418294677734375,-0.5778780579566956,-0.10911571979522705,-1.5093705654144287
1772810239445994800,8.427994873046876,-0.5867356061935425,0.19960007071495056,-1.788230299949646
1772810239455694800,8.43769482421875,-0.4828886091709137,0.7185297012329102,-2.085416078567505
1772810239465395000,8.44739501953125,-0.21991132199764252,1.4164427518844604,-2.312352180480957
1772810239475095000,8.457094970703125,0.10384701192378998,2.0777037143707275,-2.4085633754730225
1772810239484795100,8.466795166015626,0.3851502537727356,2.394131898880005,-2.434830665588379
1772810239494495200,8.4764951171875,0.6175842881202698,2.0859506130218506,-2.4959170818328857
1772810239504195300,8.4861953125,0.8872811198234558,1.182176113128662,-2.709414482116699
1772810239513895400,8.4958955078125,1.20981764793396,-0.02390008419752121,-3.0038511753082275
1772810239523595300,8.50559521484375,1.546709656715393,-1.1579705476760864,-3.2048256397247314
1772810239533295400,8.51529541015625,1.8897101879119873,-1.8433607816696167,-3.245142698287964
1772810239542995500,8.524995361328125,2.255007266998291,-2.163759469985962,-3.3306639194488525
1772810239552695600,8.534695556640624,2.5637993812561035,-2.610912322998047,-3.7613234519958496
1772810239562395600,8.544395751953125,2.729954719543457,-3.248044490814209,-4.353862285614014
1772810239572095700,8.554095703125,2.5054619312286377,-3.3308165073394775,-4.567359447479248
1772810239581795800,8.5637958984375,1.7663154602050781,-2.577925682067871,-4.355694770812988
1772810239591496000,8.573495849609374,1.00762140750885,-1.476536512374878,-3.980623960494995
1772810239601196000,8.583196044921875,0.6453786492347717,-0.39652758836746216,-3.4149632453918457
1772810239610896100,8.592896240234374,0.6603448390960693,0.2545779049396515,-2.616562843322754
1772810239620596000,8.602595947265625,0.8289434909820557,0.3046688139438629,-1.5506038665771484
1772810239630296000,8.612296142578124,0.9532544612884521,-0.016569707542657852,-0.20609050989151
1772810239639996200,8.62199609375,0.9957095980644226,-0.5296961069107056,1.1949278116226196
1772810239649696300,8.6316962890625,0.9850194454193115,-1.0608429908752441,2.287154197692871
1772810239659396400,8.641396240234375,1.0012073516845703,-1.4511855840682983,2.8833580017089844
1772810239669096400,8.651096435546876,1.0961968898773193,-1.5431207418441772,2.921231746673584
1772810239678796500,8.660796630859375,1.204319953918457,-1.3222931623458862,2.513784885406494
1772810239688496600,8.67049658203125,1.229365348815918,-0.8784999251365662,1.9270492792129517
1772810239698196700,8.68019677734375,1.145676851272583,-0.43776097893714905,1.367802619934082
1772810239707896800,8.689896728515626,0.9917389750480652,-0.09964732080698013,0.9160680770874023
1772810239717596700,8.6995966796875,0.8032872080802917,0.12354740500450134,0.5306124091148376
1772810239727297000,8.709297119140626,0.6084213256835938,0.2658788859844208,0.18577924370765686
1772810239736997000,8.7189970703125,0.406530499458313,0.3052796721458435,-0.10315979272127151
1772810239746697200,8.728697265625,0.22754712402820587,0.2680169343948364,-0.29374960064888
1772810239756397000,8.73839697265625,0.11056652665138245,0.3208567202091217,-0.4290561378002167
1772810239766097200,8.74809716796875,0.06841685622930527,0.4192059636116028,-0.5497019290924072
1772810239775797200,8.75779736328125,0.04825831577181816,0.46135562658309937,-0.6190351247787476
1772810239785497300,8.767497314453125,0.008857538923621178,0.45280352234840393,-0.5915461778640747
1772810239795197400,8.777197509765625,-0.06261363625526428,0.41004297137260437,-0.4837285578250885
1772810239804897500,8.7868974609375,-0.1692095398902893,0.39049530029296875,-0.31268641352653503
1772810239814597600,8.79659765625,-0.29993459582328796,0.45158177614212036,-0.08605557680130005
1772810239824297700,8.806297607421875,-0.4272999167442322,0.5774199366569519,0.15951207280158997
1772810239833997800,8.815997802734374,-0.516791582107544,0.7005091905593872,0.38156139850616455
1772810239843697700,8.82569775390625,-0.5564978122711182,0.7747292518615723,0.561766505241394
1772810239853397800,8.835397705078124,-0.5290089249610901,0.7783944606781006,0.6772199869155884
1772810239863097900,8.845097900390625,-0.4266890585422516,0.7032580971717834,0.7040980458259583
1772810239872798000,8.8547978515625,-0.26358816027641296,0.502894401550293,0.6237692832946777
1772810239882498000,8.864498046875,-0.10140355676412582,0.18646647036075592,0.4722748398780823
1772810239892198100,8.8741982421875,0.007330377586185932,-0.13935352861881256,0.2874882221221924
1772810239901898200,8.883898193359375,0.04276053607463837,-0.44386962056159973,0.09567669779062271
1772810239911598300,8.893598388671874,-0.00946840364485979,-0.6787471175193787,-0.08055779337882996
1772810239921298400,8.90329833984375,-0.09926552325487137,-0.7978657484054565,-0.22899793088436127
1772810239930998500,8.91299853515625,-0.2052505612373352,-0.7624356150627136,-0.36888596415519714
1772810239940698400,8.922698486328125,-0.3277289569377899,-0.5761218667030334,-0.5206858515739441
1772810239950398500,8.9323984375,-0.44837474822998047,-0.3183369040489197,-0.668515145778656
1772810239960098600,8.9420986328125,-0.5708531141281128,-0.0654388889670372,-0.7818305492401123
1772810239969798700,8.951798583984376,-0.685390293598175,0.16081015765666962,-0.8368083834648132
1772810239979498800,8.961498779296875,-0.7889318466186523,0.30283620953559875,-0.8270345330238342
1772810239989198800,8.97119873046875,-0.8536835312843323,0.3413206934928894,-0.7741947770118713
1772810239998899000,8.98089892578125,-0.8683443069458008,0.32971426844596863,-0.7173843383789062
1772810240008599000,8.99059912109375,-0.8469640016555786,0.3119991719722748,-0.6718748807907104
1772810240018299100,9.000299072265625,-0.7855721116065979,0.29794928431510925,-0.5991820096969604
1772810240027999200,9.009999267578126,-0.627968966960907,0.3321577310562134,-0.4785361886024475
1772810240037699000,9.019698974609375,-0.3347539007663727,0.4787652790546417,-0.3557523787021637
1772810240047399400,9.0293994140625,0.024434590712189674,0.6230056881904602,-0.35758498311042786
1772810240057099500,9.039099609375,0.3753764033317566,0.5649735331535339,-0.5384009480476379
1772810240066799400,9.04879931640625,0.6692023873329163,0.19960007071495056,-0.8392518758773804
1772810240076499500,9.05849951171875,0.8585704565048218,-0.6127737164497375,-1.2024109363555908
1772810240086199600,9.068199462890625,0.9547816514968872,-1.4114794731140137,-1.3826160430908203
1772810240095899600,9.077899658203124,0.9593631625175476,-1.7896047830581665,-1.286710262298584
1772810240105599700,9.087599853515625,0.8814778923988342,-1.8815398216247559,-1.251891016960144
1772810240115299800,9.0972998046875,0.878118097782135,-1.6851468086242676,-1.4507274627685547
1772810240125000000,9.107,0.9908226728439331,-1.356501579284668,-1.6657519340515137
1772810240134700000,9.116699951171874,1.0259474515914917,-1.1753802299499512,-1.6300163269042969
1772810240144400100,9.126400146484375,0.9077450633049011,-1.237688422203064,-1.1743111610412598
1772810240154100200,9.136100341796874,0.6911935210227966,-1.321682333946228,-0.4012618064880371
1772810240163800000,9.145800048828125,0.5351175665855408,-1.0012837648391724,0.4979311525821686
1772810240173500200,9.155500244140624,0.5891790986061096,-0.3333030939102173,1.3757438659667969
1772810240183200300,9.1652001953125,0.7599157691001892,0.1207985132932663,2.125580310821533
1772810240192900400,9.174900390625,0.861319363117218,0.17638720571994781,2.7217843532562256
1772810240202600400,9.184600341796875,0.8494074940681458,-0.010766491293907166,3.1264822483062744
1772810240212300500,9.194300537109376,0.8148936033248901,-0.22273656725883484,3.2669811248779297
1772810240222000600,9.204000732421875,0.8448259830474854,-0.2596938908100128,3.1118216514587402
1772810240231700700,9.21370068359375,0.980743408203125,-0.033368486911058426,2.6878814697265625
1772810240241400800,9.22340087890625,1.074205756187439,0.11652245372533798,2.049527645111084
1772810240251101000,9.233100830078126,1.0259474515914917,0.04932733252644539,1.1866811513900757
1772810240260800800,9.24280078125,0.8191696405410767,-0.06391172856092453,0.14088068902492523
1772810240270500900,9.2525009765625,0.49999281764030457,-0.031841326504945755,-0.7925207018852234
1772810240280201000,9.262200927734375,0.21777328848838806,-0.07521272450685501,-1.363373875617981
1772810240289901000,9.271901123046876,0.007941242307424545,-0.21784965693950653,-1.4678317308425903
1772810240299601200,9.28160107421875,-0.10109812021255493,-0.23617559671401978,-1.1798089742660522
1772810240309301200,9.29130126953125,-0.15027274191379547,-0.08681915700435638,-0.6712640523910522
1772810240319001300,9.30100146484375,-0.22388194501399994,0.11255183815956116,-0.1343138962984085
1772810240328701400,9.310701416015625,-0.3225366175174713,0.2955058515071869,0.2651916742324829
1772810240338401500,9.320401611328125,-0.39186975359916687,0.4741837978363037,0.4570032060146332
1772810240348101400,9.330101318359375,-0.4050033390522003,0.6464476585388184,0.4444804787635803
1772810240357801500,9.339801513671874,-0.3836230933666229,0.8245147466659546,0.25755587220191956
1772810240367501600,9.34950146484375,-0.3601047992706299,0.9564615488052368,0.008323032408952713
1772810240377201700,9.35920166015625,-0.3637699782848358,0.9778417944908142,-0.17676898837089539
1772810240386901800,9.36890185546875,-0.42882707715034485,0.8211549520492554,-0.2473238706588745
1772810240396601900,9.378601806640624,-0.5369501113891602,0.49312058091163635,-0.22533275187015533
1772810240406302000,9.388302001953125,-0.6163625717163086,0.09056070446968079,-0.16913318634033203
1772810240416002000,9.398001953125,-0.5943714380264282,-0.2590830326080322,-0.10041090101003647
1772810240425702100,9.4077021484375,-0.49571678042411804,-0.4658607542514801,-0.0243582334369421
1772810240435402200,9.41740234375,-0.3851502537727356,-0.5556578636169434,0.0550541877746582
1772810240445102300,9.427102294921875,-0.31001389026641846,-0.5782598853111267,0.14026983082294464
1772810240454850800,9.436850830078125,-0.31551164388656616,-0.5501601099967957,0.24289511144161224
1772810240464502300,9.446502197265625,-0.3897317349910736,-0.46341729164123535,0.3684278130531311
1772810240474202400,9.456202392578126,-0.4731147587299347,-0.39591673016548157,0.48449212312698364
1772810240483902500,9.46590234375,-0.5415316224098206,-0.37606361508369446,0.5581013560295105
1772810240493602600,9.4756025390625,-0.5928442478179932,-0.35040730237960815,0.5718457698822021
1772810240503302700,9.485302734375,-0.5998691916465759,-0.3216966688632965,0.5293906927108765
1772810240513002800,9.495002685546876,-0.5653553605079651,-0.3229183852672577,0.4570032060146332
1772810240522702800,9.504702880859375,-0.5204567909240723,-0.32352927327156067,0.3843103051185608
1772810240532403000,9.51440283203125,-0.46028661727905273,-0.2957349121570587,0.3473529815673828
1772810240542103000,9.52410302734375,-0.39767298102378845,-0.2560287117958069,0.3519344627857208
1772810240551803000,9.533802978515626,-0.3689623177051544,-0.21632249653339386,0.3836994469165802
1772810240561503000,9.5435029296875,-0.38881543278694153,-0.1839466542005539,0.42707082629203796
1772810240571203000,9.553203125,-0.42394015192985535,-0.16134466230869293,0.46830421686172485
1772810240580903200,9.562903076171875,-0.46975502371788025,-0.15157082676887512,0.5046506524085999
1772810240590603300,9.572603271484375,-0.554665207862854,-0.09445496648550034,0.544967770576477
1772810240600303400,9.582303466796875,-0.6630937457084656,0.06123919412493706,0.5687914490699768
1772810240610003500,9.59200341796875,-0.7733548283576965,0.29245150089263916,0.5571850538253784
1772810240619703600,9.60170361328125,-0.8811724185943604,0.5227475166320801,0.5241983532905579
1772810240629403600,9.611403564453125,-0.9917389750480652,0.661413848400116,0.49854201078414917
1772810240639103700,9.621103759765624,-1.0974185466766357,0.6430879235267639,0.47380200028419495
1772810240648803800,9.630803955078125,-1.2049307823181152,0.6119337677955627,0.42737627029418945
1772810240658503700,9.640503662109374,-1.2455532550811768,0.744491457939148,0.3937787115573883
1772810240668203800,9.650203857421875,-1.148425817489624,0.9983057379722595,0.3791179656982422
1772810240677904000,9.65990380859375,-1.0082323551177979,1.077412724494934,0.256334125995636
1772810240687604000,9.66960400390625,-0.9413426518440247,0.772591233253479,-0.12270746380090714
1772810240697304000,9.679303955078124,-0.9181297421455383,0.002672533504664898,-0.7198277711868286
1772810240707004200,9.689004150390625,-0.8912517428398132,-0.8406262993812561,-1.3416881561279297
1772810240716704300,9.698704345703124,-0.8142827749252319,-0.9478330612182617,-1.5848122835159302
1772810240726404400,9.708404296875,-0.7226530313491821,-0.4548651874065399,-1.5325833559036255
1772810240736104400,9.7181044921875,-0.5586358308792114,-0.3052796721458435,-1.798004150390625
1772810240745804300,9.72780419921875,-0.2568686306476593,-0.7175370454788208,-2.454683780670166
1772810240755504400,9.73750439453125,0.13439024984836578,-0.9414190053939819,-2.9592580795288086
1772810240765204500,9.74720458984375,0.5613847374916077,-0.653701663017273,-3.0127086639404297
1772810240774904600,9.756904541015626,0.9013310074806213,-0.17050762474536896,-2.6156466007232666
1772810240784604700,9.766604736328125,1.138346552848816,0.24816381931304932,-1.7647119760513306
1772810240794304800,9.7763046875,1.3286309242248535,0.43692103028297424,-0.630641520023346
1772810240804004900,9.7860048828125,1.5128066539764404,0.3513999581336975,0.5361102223396301
1772810240813705000,9.795705078125,1.6606359481811523,0.027947064489126205,1.5134938955307007
1772810240823405000,9.805405029296875,1.7070616483688354,-0.3220020830631256,2.135659694671631
1772810240833105200,9.815105224609376,1.6416990756988525,-0.48357582092285156,2.2831835746765137
1772810240842805200,9.82480517578125,1.5210533142089844,-0.3989710509777069,1.9661446809768677
1772810240852505000,9.834505126953125,1.3405427932739258,-0.12560907006263733,1.3800199031829834
1772810240862205200,9.844205078125,1.1441497802734375,0.2444986253976822,0.7602975964546204
1772810240871905300,9.8539052734375,0.9468404054641724,0.5374082922935486,0.26702427864074707
1772810240881605400,9.86360546875,0.7150171995162964,0.5847502946853638,-0.06131555140018463
1772810240891305500,9.873305419921875,0.4169152081012726,0.38438665866851807,-0.256792277097702
1772810240901005600,9.883005615234374,0.08155044913291931,0.10063996911048889,-0.3765217661857605
1772810240910705700,9.89270556640625,-0.2767217457294464,-0.07070759683847427,-0.4736492931842804
1772810240920405800,9.90240576171875,-0.6343830823898315,-0.13019055128097534,-0.593684196472168
1772810240930105900,9.91210595703125,-0.9217949509620667,-0.12072215229272842,-0.7292962074279785
1772810240939806000,9.921805908203124,-1.0735948085784912,-0.027259841561317444,-0.826423704624176
1772810240949505800,9.931505859375,-1.1035271883010864,0.15012001991271973,-0.8572723865509033
1772810240959206000,9.941205810546874,-1.0757328271865845,0.37919431924819946,-0.8148172497749329
1772810240968906000,9.950906005859375,-1.0024291276931763,0.6519454121589661,-0.696309506893158
1772810240978606000,9.960606201171874,-0.8756746649742126,0.9042325615882874,-0.5463421940803528
1772810240988306200,9.97030615234375,-0.7345649003982544,1.049007534980774,-0.39454227685928345
1772810240998006300,9.98000634765625,-0.6004800796508789,1.121700406074524,-0.22838707268238068
1772810241007706400,9.989706298828125,-0.43310311436653137,1.1391100883483887,-0.06101011857390404
1772810241017406500,9.999406494140626,-0.26542073488235474,1.00288724899292,0.07460185885429382
1772810241027106600,10.0091064453125,-0.1795942485332489,0.7011200785636902,0.17447824776172638
1772810241036806700,10.018806640625,-0.129197895526886,0.342542439699173,0.2645808160305023
1772810241046506500,10.028506591796875,-0.05925388261675835,0.018784092739224434,0.3216966688632965
1772810241056206600,10.03820654296875,0.01649334840476513,-0.1995237022638321,0.30917394161224365
1772810241065906700,10.04790673828125,0.07360920310020447,-0.312228262424469,0.24106250703334808
1772810241075606800,10.057606689453126,0.12003492563962936,-0.34124433994293213,0.19066616892814636
1772810241085307000,10.067306884765625,0.14019346237182617,-0.3113119602203369,0.1943313628435135
1772810241095007000,10.077007080078126,0.11698060482740402,-0.2554178237915039,0.23800818622112274
1772810241104707000,10.08670703125,0.0665842592716217,-0.2138790339231491,0.30398157238960266
1772810241114407200,10.0964072265625,-0.017715077847242355,-0.194025918841362,0.3736201822757721
1772810241124107300,10.106107177734375,-0.11759147047996521,-0.13874267041683197,0.4087449014186859
1772810241133807000,10.11580712890625,-0.2360992431640625,-0.08773545175790787,0.32963791489601135
1772810241143507200,10.125507080078124,-0.3964512348175049,-0.06482802331447601,0.12347104400396347
1772810241153207300,10.135207275390625,-0.5540543794631958,-0.007788525894284248,-0.13339759409427643
1772810241162907400,10.144907470703124,-0.6267472505569458,0.13301581144332886,-0.36430448293685913
1772810241172607500,10.154607421875,-0.5201513767242432,0.31383177638053894,-0.5136609077453613
1772810241182307600,10.1643076171875,-0.23823726177215576,0.44730573892593384,-0.5478693246841431
1772810241192007700,10.174007568359375,0.11178825795650482,0.33429574966430664,-0.48586657643318176
1772810241201707800,10.183707763671874,0.3594939112663269,-0.4337903559207916,-0.4324159026145935
1772810241211408000,10.193407958984375,0.31123560667037964,-1.829005479812622,-0.5020545125007629
1772810241221107700,10.203107666015624,0.03543015569448471,-2.706818103790283,-0.6440805792808533
1772810241230808000,10.21280810546875,-0.24220788478851318,-2.015319347381592,-0.8117629289627075
1772810241240508000,10.2225078125,-0.49541133642196655,-0.35621052980422974,-1.2445605993270874
1772810241250208000,10.2322080078125,-0.5864301919937134,1.1446079015731812,-1.9146792888641357
1772810241259908000,10.241908203125,-0.4630354940891266,2.209956169128418,-2.4397175312042236
1772810241269608200,10.251608154296875,-0.14813470840454102,2.6439754962921143,-2.557919979095459
1772810241279308300,10.261308349609376,0.3243691921234131,1.9860740900039673,-2.2213335037231445
1772810241289008400,10.27100830078125,0.7428115606307983,0.15378521382808685,-1.4705805778503418
1772810241298708500,10.28070849609375,0.952949047088623,-1.821675181388855,-0.47639816999435425
1772810241308408600,10.29040869140625,1.0045671463012695,-2.938030481338501,0.4609738290309906
1772810241318108700,10.300108642578126,1.018311619758606,-2.9896485805511475,1.1002438068389893
1772810241327808500,10.30980859375,0.9193515181541443,-2.2340087890625,1.3207659721374512
1772810241337508600,10.319508544921876,0.7254019379615784,-1.0196096897125244,1.245018720626831
1772810241347208700,10.329208740234375,0.5186241865158081,0.1055268943309784,1.124678373336792
1772810241356908800,10.33890869140625,0.30451610684394836,0.7927497625350952,1.1628574132919312
1772810241366609000,10.34860888671875,0.11239911615848541,1.0502293109893799,1.3992621898651123
1772810241376309000,10.35830908203125,0.01893680728971958,0.8944587707519531,1.7150791883468628
1772810241386009000,10.368009033203125,0.004276053514331579,0.5633700489997864,1.9994367361068726
1772810241395709200,10.377709228515625,0.03390299528837204,0.23777911067008972,2.1875832080841064
1772810241405409300,10.3874091796875,0.06994401663541794,-0.04833467677235603,2.2340087890625
1772810241415109000,10.397109130859375,0.060781046748161316,-0.17661628127098083,2.1295509338378906
1772810241424809200,10.406809326171874,-0.0565049909055233,-0.15890119969844818,1.8314489126205444
1772810241434509300,10.41650927734375,-0.30573782324790955,-0.014813470654189587,1.3259583711624146
1772810241444209400,10.42620947265625,-0.6484329700469971,0.2533561587333679,0.6631700992584229
1772810241453909500,10.435909423828125,-1.0045671463012695,0.6574432253837585,-0.05948295816779137
1772810241463609600,10.445609619140624,-1.3384047746658325,1.1614066362380981,-0.6294198036193848
1772810241473309700,10.455309814453125,-1.5589269399642944,1.6919426918029785,-0.8123738169670105
1772810241483009800,10.465009765625,-1.5888593196868896,2.059683322906494,-0.5151880979537964
1772810241492710000,10.4747099609375,-1.4016292095184326,2.1861324310302734,0.1934150606393814
1772810241502410000,10.484409912109374,-1.0045671463012695,1.992182731628418,1.0382410287857056
1772810241512109800,10.49410986328125,-0.46914416551589966,1.447596788406372,1.8033491373062134
1772810241521810000,10.503809814453126,0.07635809481143951,0.6397281289100647,2.310061454772949
1772810241531510000,10.513510009765625,0.546113133430481,-0.2190713882446289,2.473773241043091
1772810241541210000,10.523210205078126,0.9251546859741211,-0.9930370450019836,2.339993953704834
1772810241550910200,10.53291015625,1.1514800786972046,-1.6552144289016724,2.04128098487854
1772810241560610300,10.5426103515625,1.2162318229675293,-2.0418918132781982,1.7523419857025146
1772810241570310400,10.552310302734375,1.1780527830123901,-2.0223441123962402,1.5739694833755493
1772810241580010500,10.562010498046876,1.0204496383666992,-1.6750675439834595,1.4750093221664429
1772810241589710600,10.571710693359375,0.759304940700531,-1.1866811513900757,1.4001784324645996
1772810241599410400,10.581410400390626,0.467006117105484,-0.6619483232498169,1.3183225393295288
1772810241609110500,10.591110595703125,0.22327107191085815,-0.14698933064937592,1.190651774406433
1772810241618810600,10.600810546875,0.07360920310020447,0.2237292230129242,1.0067814588546753
1772810241628510700,10.6105107421875,-0.022907428443431854,0.38102689385414124,0.7676279544830322
1772810241638210800,10.6202109375,-0.13591741025447845,0.32940882444381714,0.5034289360046387
1772810241647911000,10.629910888671875,-0.2834412455558777,0.08872810751199722,0.2401462197303772
1772810241657611000,10.639611083984375,-0.46059203147888184,-0.2606101930141449,-0.030161447823047638
1772810241667311000,10.64931103515625,-0.6441569328308105,-0.5849793553352356,-0.30627232789993286
1772810241677011000,10.659010986328125,-0.776714563369751,-0.7780126333236694,-0.5518399477005005
1772810241686711300,10.668711181640624,-0.8158099055290222,-0.7722094655036926,-0.7415134906768799
1772810241696411100,10.6784111328125,-0.7663298845291138,-0.579787015914917,-0.8774309158325195
1772810241706111200,10.688111328125,-0.6722567081451416,-0.25389066338539124,-0.9479857683181763
1772810241715811300,10.697811279296875,-0.5543597936630249,0.1611155867576599,-0.9385173916816711
1772810241725511400,10.707511474609374,-0.43310311436653137,0.5731438994407654,-0.8609375357627869
1772810241735211500,10.71721142578125,-0.37140578031539917,0.8055779337882996,-0.7265473008155823
1772810241744911600,10.72691162109375,-0.38209593296051025,0.7814487814903259,-0.5338194370269775
1772810241754611700,10.73661181640625,-0.4251618981361389,0.5016726851463318,-0.2632063627243042
1772810241764311800,10.746311767578124,-0.5332849621772766,0.15561780333518982,0.0755181610584259
1772810241774012000,10.756011962890625,-0.6994401812553406,-0.010155626572668552,0.4206567704677582
1772810241783711700,10.765711669921876,-0.8448259830474854,0.1256854236125946,0.7077631950378418
1772810241793411800,10.775411865234375,-0.8747583627700806,0.40576693415641785,0.8277981281280518
1772810241803112000,10.78511181640625,-0.8466585874557495,0.7005091905593872,0.6503419280052185
1772810241812812000,10.79481201171875,-0.9547816514968872,0.7939714789390564,0.12713623046875
1772810241822512000,10.80451220703125,-1.2721259593963623,0.45799586176872253,-0.6569086909294128
1772810241832212200,10.814212158203125,-1.6313143968582153,-0.0058795735239982605,-1.454698085784912
1772810241841912300,10.823912353515626,-1.8078542947769165,-0.2612210512161255,-2.02402400970459
1772810241851612400,10.8336123046875,-1.8338160514831543,-0.31955865025520325,-2.2989132404327393
1772810241861312500,10.8433125,-1.7314962148666382,-0.3934732675552368,-2.581132650375366
1772810241871012400,10.853012451171875,-1.349400281906128,-0.39561131596565247,-3.0114870071411133
1772810241880712400,10.86271240234375,-0.8148936033248901,0.008399390615522861,-3.3725080490112305
1772810241890412500,10.87241259765625,-0.3588830530643463,0.7582359313964844,-3.3890013694763184
1772810241900112600,10.882112548828125,0.07086031138896942,1.2356266975402832,-2.9372668266296387
1772810241909812700,10.891812744140625,0.4920515716075897,1.131779670715332,-2.1510839462280273
1772810241919512800,10.901512939453125,0.8506292104721069,0.550541877746582,-1.298011302947998
1772810241929213000,10.911212890625,1.203098177909851,-0.3494910001754761,-0.5958222150802612
1772810241938913000,10.9209130859375,1.4926481246948242,-1.300912857055664,-0.1141553521156311
1772810241948613000,10.930613037109374,1.6224569082260132,-2.024787664413452,0.13996438682079315
1772810241958313000,10.94031298828125,1.628870964050293,-2.32869291305542,0.21265730261802673
1772810241968013000,10.950012939453124,1.5238021612167358,-2.1066434383392334,0.17539454996585846
1772810241977713200,10.959713134765625,1.286481261253357,-1.4469095468521118,0.043753188103437424
1772810241987413200,10.969413330078124,0.9584468603134155,-0.542829692363739,-0.18532110750675201
1772810241997113300,10.97911328125,0.620333194732666,0.3923279047012329,-0.4232529401779175
1772810242006813400,10.9888134765625,0.3243691921234131,1.1565197706222534,-0.568027913570404
1772810242016513500,10.998513427734375,0.11484257876873016,1.6058107614517212,-0.5793288946151733
1772810242026213600,11.008213623046874,0.007635809946805239,1.670562505722046,-0.47517645359039307
1772810242035913700,11.017913818359375,-0.03329212963581085,1.3773473501205444,-0.30657777190208435
1772810242045613600,11.027613525390626,-0.060781046748161316,0.9091194868087769,-0.11354449391365051
1772810242055313700,11.037313720703125,-0.09865466505289078,0.5056433081626892,0.06299543380737305
1772810242065013800,11.047013671875,-0.1591302752494812,0.2738201320171356,0.16928590834140778
1772810242074713900,11.0567138671875,-0.23487751185894012,0.22617268562316895,0.1943313628435135
1772810242084414000,11.0664140625,-0.25350889563560486,0.31871870160102844,0.17050762474536896
1772810242094114000,11.076114013671875,-0.2000582218170166,0.480903297662735,0.1427132785320282
1772810242103814100,11.085814208984376,-0.13622283935546875,0.6253728270530701,0.14637847244739532
1772810242113514200,11.09551416015625,-0.10598503798246384,0.6690496206283569,0.20654866099357605
1772810242123214300,11.10521435546875,-0.09101885557174683,0.5401571989059448,0.3281107544898987
1772810242132914200,11.1149140625,-0.05955931544303894,0.26618432998657227,0.49334967136383057
1772810242142614300,11.1246142578125,-0.000305432389723137,-0.05474875494837761,0.6210203766822815
1772810242152314400,11.134314453125,0.04276053607463837,-0.4182133078575134,0.6512582302093506
1772810242162014500,11.144014404296875,0.07941242307424545,-0.8000037670135498,0.6350703239440918
1772810242171714600,11.153714599609375,0.12644900381565094,-1.127732753753662,0.6314051151275635
1772810242181414700,11.16341455078125,0.08582650125026703,-1.3152682781219482,0.6011673212051392
1772810242191114800,11.17311474609375,-0.06872228533029556,-1.2260819673538208,0.4860192835330963
1772810242200814800,11.18281494140625,-0.24312418699264526,-0.8879683017730713,0.260915607213974
1772810242210515000,11.192514892578124,-0.3854556679725647,-0.47441285848617554,-0.04634936526417732
1772810242220215000,11.202215087890625,-0.49541133642196655,-0.047723811119794846,-0.3459785282611847
1772810242229915000,11.211914794921874,-0.5815432667732239,0.295811265707016,-0.5463421940803528
1772810242239615000,11.221614990234375,-0.6239983439445496,0.4915934205055237,-0.6208676695823669
1772810242249315000,11.231315185546874,-0.583375871181488,0.46257734298706055,-0.6117047071456909
1772810242259015200,11.24101513671875,-0.5103775262832642,0.16783510148525238,-0.5689441561698914
1772810242268715300,11.25071533203125,-0.4370737373828888,-0.2447277009487152,-0.5206858515739441
1772810242278415400,11.260415283203125,-0.3090975880622864,-0.5981130003929138,-0.5304597020149231
1772810242288115500,11.270115478515624,-0.1380554437637329,-0.8430697321891785,-0.6639336347579956
1772810242297815600,11.279815673828125,0.059864748269319534,-0.9939533472061157,-0.8514691591262817
1772810242307515400,11.289515380859376,0.26908594369888306,-0.8705586791038513,-0.9376010894775391
1772810242317215500,11.299215576171875,0.34727662801742554,-0.42859798669815063,-0.8193987607955933
1772810242326915600,11.30891552734375,0.33689191937446594,0.14950916171073914,-0.4333322048187256
1772810242336615700,11.31861572265625,0.36743515729904175,0.567951500415802,0.09873101860284805
1772810242346315800,11.328315673828126,0.4199695289134979,0.6208676695823669,0.6197986602783203
1772810242356015900,11.338015869140625,0.44990190863609314,0.2909243404865265,1.0205259323120117
1772810242365716000,11.347716064453126,0.41355544328689575,-0.30245441198349,1.1814888715744019
1772810242375416000,11.357416015625,0.30970844626426697,-0.9997565746307373,1.078863501548767
1772810242385116200,11.3671162109375,0.29077163338661194,-1.3986512422561646,0.8119156360626221
1772810242394816000,11.37681591796875,0.2574795186519623,-1.2685370445251465,0.4597521126270294
1772810242404516000,11.38651611328125,0.08063415437936783,-0.7169261574745178,0.04253146052360535
1772810242414216200,11.39621630859375,-0.04917461425065994,-0.04436405375599861,-0.23419028520584106
1772810242423916300,11.405916259765625,-0.09285144507884979,0.44089165329933167,-0.3242928385734558
1772810242433616400,11.415616455078125,-0.0769689604640007,0.5114465355873108,-0.16394083201885223
1772810242443316500,11.42531640625,-0.0204639695584774,0.1311832070350647,0.22853977978229523
1772810242453016600,11.4350166015625,0.04917461425065994,-0.5443568825721741,0.6405680775642395
1772810242462716700,11.444716552734375,0.17226386070251465,-1.2715914249420166,0.9411135315895081
1772810242472416800,11.454416748046874,0.26022839546203613,-1.7587560415267944,1.0180824995040894
1772810242482116600,11.46411669921875,0.24892739951610565,-1.8170936107635498,0.7157044410705566
1772810242491816700,11.473816650390624,0.004276053514331579,-1.607872486114502,0.20257803797721863
1772810242501516800,11.483516845703125,-0.4068359434604645,-1.1029927730560303,-0.40920305252075195
1772810242511217000,11.493216796875,-0.7528908252716064,-0.7386118769645691,-0.9950223565101624
1772810242520917000,11.5029169921875,-1.0195332765579224,-0.5199222564697266,-1.401247501373291
1772810242530617000,11.5126171875,-1.1035271883010864,-0.2819904685020447,-1.547855019569397
1772810242540317200,11.522317138671875,-1.0250310897827148,-0.22090397775173187,-1.6181044578552246
1772810242550017300,11.532017333984374,-0.9419534802436829,-0.27252206206321716,-1.611079454421997
1772810242559717000,11.541717041015625,-0.888502836227417,-0.6558396816253662,-1.3978877067565918
1772810242569417200,11.551417236328126,-0.6459894776344299,-0.8226057887077332,-1.3823106288909912
1772810242579117300,11.561117431640625,-0.6114756464958191,-0.5513818264007568,-1.1043671369552612
1772810242588817400,11.5708173828125,-0.5287034511566162,-0.053832460194826126,-1.0500001907348633
1772810242598517500,11.580517578125,-0.44379326701164246,0.3199404180049896,-0.7873283624649048
1772810242608217600,11.590217529296876,-0.3634645342826843,0.5291616320610046,-0.4082867503166199
1772810242617917700,11.599917724609375,-0.22754712402820587,0.6583595275878906,-0.06864593178033829
1772810242627617800,11.60961767578125,-0.20738859474658966,0.7142536640167236,0.17111849784851074
1772810242637318000,11.61931787109375,-0.2837466895580292,0.578336238861084,0.32444554567337036
1772810242647017700,11.629017822265626,-0.3552178740501404,0.24297146499156952,0.4570032060146332
1772810242656717800,11.6387177734375,-0.4013381600379944,-0.11919499188661575,0.5529089570045471
1772810242666418000,11.64841796875,-0.41355544328689575,-0.40080365538597107,0.6307942271232605
1772810242676118000,11.658117919921875,-0.41935867071151733,-0.6213258504867554,0.6744710803031921
1772810242685818000,11.667818115234375,-0.4822777509689331,-0.7938951253890991,0.6375137567520142
1772810242695518200,11.677518310546875,-0.5632173418998718,-0.8500946760177612,0.516257107257843
1772810242705218300,11.68721826171875,-0.593149721622467,-0.6937133073806763,0.321391224861145
1772810242714918400,11.69691845703125,-0.5867356061935425,-0.34429866075515747,0.0965929925441742
1772810242724618200,11.7066181640625,-0.5845975875854492,-0.03733910992741585,-0.10651954263448715
1772810242734318300,11.716318359375,-0.5696313977241516,0.0844520553946495,-0.20273074507713318
1772810242744018400,11.726018310546875,-0.527481734752655,0.06734783947467804,-0.19387321174144745
1772810242753718500,11.735718505859374,-0.44318240880966187,-0.059635672718286514,-0.09002619981765747
1772810242763418600,11.745418701171875,-0.3451386094093323,-0.06971494108438492,0.1476002037525177
1772810242773118700,11.75511865234375,-0.29046618938446045,-0.07399099320173264,0.4340957701206207
1772810242782818800,11.76481884765625,-0.2718348205089569,-0.2138790339231491,0.7340303659439087
1772810242792519000,11.774518798828124,-0.2809978127479553,-0.5046506524085999,0.9511927962303162
1772810242802218800,11.78421875,-0.24831652641296387,-0.8510109782218933,1.0235803127288818
1772810242811919000,11.793919189453124,-0.18173226714134216,-1.155527114868164,0.9725731015205383
1772810242821619000,11.803618896484375,-0.1389717310667038,-1.282586932182312,0.8079450130462646
1772810242831319000,11.813319091796876,-0.19089524447917938,-1.2511274814605713,0.6622537970542908
1772810242841019100,11.82301904296875,-0.30146175622940063,-0.9527199864387512,0.4298197329044342
1772810242850719200,11.83271923828125,-0.39797839522361755,-0.5345830321311951,0.23189954459667206
1772810242860419300,11.84241943359375,-0.4923570156097412,-0.24778202176094055,0.10483966767787933
1772810242870119400,11.852119384765626,-0.609948456287384,-0.2746600806713104,0.030314164236187935
