time,seconds_elapsed,z,y,x
1772810285534638800,0.112638916015625,0.6398808360099792,-0.46341729164123535,0.23892448842525482
1772810285554038800,0.132038818359375,1.22234046459198,0.2790125012397766,-0.3902662396430969
1772810285563738600,0.141738525390625,1.3747512102127075,0.08720094710588455,-0.622394859790802
1772810285573438500,0.1514384765625,1.461493968963623,-0.3070359230041504,-0.7396808862686157
1772810285583138600,0.161138671875,1.6502511501312256,-0.8284090161323547,-0.7134137153625488
1772810285592838700,0.170838623046875,1.8521419763565063,-1.135979413986206,-0.5845212340354919
1772810285602538500,0.18053857421875,1.9657628536224365,-1.0733658075332642,-0.3258199989795685
1772810285612238300,0.19023828125,1.9022328853607178,-0.6262127757072449,0.03672824427485466
1772810285621938400,0.1999384765625,1.6704097986221313,-0.007406735327094793,0.4469239413738251
1772810285631638300,0.20963818359375,1.2803726196289062,0.3150535225868225,0.7694605588912964
1772810285641338400,0.21933837890625,0.6493492722511292,0.11377356201410294,0.7984766364097595
1772810285651038200,0.2290380859375,-0.05039634555578232,-0.27435463666915894,0.6372083425521851
1772810285660738300,0.23873828125,-0.5705476999282837,-0.48479756712913513,0.4719693958759308
1772810285689838000,0.267838134765625,-1.0766491889953613,-0.7447205185890198,-0.19906556606292725
1772810285699538200,0.2775380859375,-1.0177006721496582,-0.6494256258010864,-0.5823832154273987
1772810285709238000,0.287238037109375,-0.8268054723739624,0.14859285950660706,-1.1672862768173218
1772810285718938000,0.296938232421875,-0.5613847374916077,1.1943933963775635,-1.5933644771575928
1772810285728638000,0.306637939453125,-0.1533270627260208,2.176663875579834,-1.8667263984680176
1772810285738337800,0.316337890625,0.430659681558609,2.5685336589813232,-2.127871036529541
1772810285748038000,0.326037841796875,0.934012234210968,2.2707371711730957,-2.363054037094116
1772810285757737700,0.33573779296875,1.3213005065917969,1.7664681673049927,-2.561279773712158
1772810285767437800,0.345437744140625,1.546404242515564,1.4943280220031738,-2.6403865814208984
1772810285777138000,0.355137939453125,1.645975112915039,1.188895583152771,-2.6070945262908936
1772810285786837800,0.364837646484375,1.665522813796997,0.8275690674781799,-2.4665956497192383
1772810285796537600,0.37453759765625,1.571755051612854,0.5740602016448975,-2.1822381019592285
1772810285806237700,0.38423779296875,1.390328288078308,0.47204574942588806,-1.71126127243042
1772810285815937500,0.3939375,1.1939351558685303,0.37858346104621887,-1.141324520111084
1772810285825637600,0.4036376953125,0.9172134399414062,0.43233954906463623,-0.5661953091621399
1772810285835337700,0.413337646484375,0.6554579138755798,0.7554870247840881,-0.09674570709466934
1772810285845037600,0.42303759765625,0.49052441120147705,1.077107310295105,0.17203480005264282
1772810285854737400,0.4327373046875,0.4407389461994171,0.9042325615882874,0.3155880272388458
1772810285864437500,0.4424375,0.3799578845500946,0.5331322550773621,0.3287216126918793
1772810285874137300,0.452137451171875,0.2205221801996231,0.024663666263222694,0.26946771144866943
1772810285883837400,0.46183740234375,0.03023780696094036,-0.5916988849639893,0.14088068902492523
1772810285893537300,0.471537353515625,-0.15546508133411407,-1.1012364625930786,0.015042545273900032
1772810285903237400,0.4812373046875,-0.3448331654071808,-1.3079378604888916,-0.083306685090065
1772810285912937200,0.490937255859375,-0.45967575907707214,-1.3922371864318848,-0.16394083201885223
1772810285922637300,0.50063720703125,-0.47555822134017944,-1.461570382118225,-0.20547963678836823
1772810285932337200,0.510337158203125,-0.4667007029056549,-1.2676208019256592,-0.12881611287593842
1772810285942037200,0.520037353515625,-0.42913252115249634,-0.6882155537605286,0.10483966767787933
1772810285951737000,0.529737060546875,-0.3845393657684326,0.13698641955852509,0.42340564727783203
1772810285961437200,0.539437255859375,-0.4535670876502991,0.8535308241844177,0.663475513458252
1772810285971137000,0.549136962890625,-0.5400044918060303,1.3083196878433228,0.7902299761772156
1772810285980836900,0.5588369140625,-0.4575377106666565,1.5120429992675781,0.8818596601486206
1772810285990537000,0.568536865234375,-0.13194678723812103,1.6015347242355347,1.0935243368148804
1772810286000236800,0.57823681640625,0.34086254239082336,1.5749621391296387,1.4606540203094482
1772810286009937000,0.58793701171875,0.6624828577041626,1.1650718450546265,1.7272964715957642
1772810286019637000,0.597636962890625,0.9401208758354187,0.7652608752250671,1.894673466682434
1772810286029336800,0.6073369140625,1.3515383005142212,0.5774199366569519,2.0400593280792236
1772810286039036700,0.61703662109375,1.6978986263275146,0.020922118797898293,1.7764711380004883
1772810286048736800,0.62673681640625,2.0714423656463623,-0.7361684441566467,1.2318851947784424
1772810286058436600,0.6364365234375,2.4691154956817627,-1.524183988571167,0.6778308153152466
1772810286068136700,0.64613671875,2.8576254844665527,-2.2963171005249023,0.24594943225383759
1772810286077836500,0.65583642578125,3.2256715297698975,-3.0818891525268555,-0.015195261687040329
1772810286087536600,0.66553662109375,3.4932303428649902,-3.798128128051758,-0.10682497918605804
1772810286097236500,0.675236572265625,3.607767343521118,-4.388528823852539,-0.06711876392364502
1772810286106936600,0.6849365234375,3.481929302215576,-4.68204927444458,0.04283689334988594
1772810286116636400,0.694636474609375,3.059516191482544,-4.511618137359619,0.18028147518634796
1772810286126336500,0.70433642578125,2.3903138637542725,-3.862574338912964,0.32536184787750244
1772810286136036400,0.714036376953125,1.5757256746292114,-2.74560809135437,0.46463900804519653
1772810286145736400,0.723736328125,0.7199041247367859,-1.487837553024292,0.4823541045188904
1772810286155436300,0.733436279296875,-0.04153880476951599,-0.326583594083786,0.3320813775062561
1772810286165136100,0.74313623046875,-0.6163625717163086,0.7619010806083679,0.10819942504167557
1772810286174836200,0.752836181640625,-1.0131192207336426,1.788459300994873,-0.09338594973087311
1772810286184536300,0.762536376953125,-1.2654063701629639,2.6803219318389893,-0.21464261412620544
1772810286194236200,0.772236083984375,-1.4028509855270386,3.3663229942321777,-0.22044582664966583
1772810286203936300,0.781936279296875,-1.4660754203796387,3.8217227458953857,-0.10682497918605804
1772810286213636000,0.791635986328125,-1.469435214996338,3.9851291179656982,0.10728313028812408
1772810286223336000,0.8013359375,-1.434615969657898,3.895026445388794,0.3742310404777527
1772810286233036000,0.8110361328125,-1.3744457960128784,3.6262459754943848,0.6482039093971252
1772810286242735900,0.82073583984375,-1.3087778091430664,3.140303134918213,0.8815542459487915
1772810286252436000,0.83043603515625,-1.2250893115997314,2.53157639503479,1.0727548599243164
1772810286262136000,0.840135986328125,-1.1172716617584229,1.9201006889343262,1.2187515497207642
1772810286271836000,0.8498359375,-0.99968022108078,1.355050802230835,1.3229039907455444
1772810286281535700,0.85953564453125,-0.8857539296150208,0.8608611822128296,1.3916263580322266
1772810286291235800,0.86923583984375,-0.7730493545532227,0.4601338803768158,1.4365248680114746
1772810286300935700,0.878935791015625,-0.6401863098144531,0.19501857459545135,1.4820343255996704
1772810286310635800,0.8886357421875,-0.49999281764030457,0.049021899700164795,1.5583924055099487
1772810286320335600,0.898335693359375,-0.3851502537727356,-0.00045814859913662076,1.6631556749343872
1772810286330035700,0.90803564453125,-0.33231043815612793,0.020922118797898293,1.7746385335922241
1772810286339735600,0.917735595703125,-0.3396408259868622,0.06795870512723923,1.866573691368103
1772810286349435400,0.927435302734375,-0.3860665261745453,0.11896591633558273,1.9273546934127808
1772810286359135500,0.937135498046875,-0.4621191918849945,0.19013166427612305,1.947513222694397
1772810286368835600,0.946835693359375,-0.5467239618301392,0.2857320010662079,1.9252166748046875
1772810286378535400,0.956535400390625,-0.6090322136878967,0.3782780170440674,1.8616868257522583
1772810286388235500,0.966235595703125,-0.6404917240142822,0.4534143805503845,1.7566180229187012
1772810286397935400,0.975935302734375,-0.6508764028549194,0.5163334608078003,1.6234495639801025
1772810286407635200,0.98563525390625,-0.6441569328308105,0.5557342171669006,1.4655410051345825
1772810286417335300,0.995335205078125,-0.619722306728363,0.5884155035018921,1.2777000665664673
1772810286427035100,1.00503515625,-0.5711585879325867,0.5795579552650452,1.0577887296676636
1772810286436735200,1.0147353515625,-0.5137372612953186,0.5233584046363831,0.8293253183364868
1772810286446435300,1.024435302734375,-0.472198486328125,0.4696022868156433,0.6262127757072449
1772810286456135200,1.03413525390625,-0.4667007029056549,0.45646870136260986,0.4670824706554413
1772810286465835000,1.0438349609375,-0.4838049113750458,0.5154171586036682,0.35498878359794617
1772810286475535000,1.05353515625,-0.4889972507953644,0.5291616320610046,0.28473934531211853
1772810286485235000,1.06323486328125,-0.47372564673423767,0.4482220411300659,0.27801984548568726
1772810286494935000,1.07293505859375,-0.44898560643196106,0.3119991719722748,0.35559967160224915
1772810286504635000,1.082634765625,-0.3744601011276245,0.1721111536026001,0.5052615404129028
1772810286514335000,1.0923349609375,-0.2461785078048706,0.11499529331922531,0.6790525317192078
1772810286524034800,1.102034912109375,-0.11148282140493393,0.14706569910049438,0.8430697321891785
1772810286533735000,1.11173486328125,-0.003665188793092966,0.145843967795372,0.9182060956954956
1772810286543434800,1.121434814453125,0.03390299528837204,-0.0032070400193333626,0.8158862590789795
1772810286553134800,1.131134765625,-0.06322450190782547,-0.4047742784023285,0.5632936954498291
1772810286562834700,1.140834716796875,-0.24984370172023773,-0.8931606411933899,0.26732969284057617
1772810286572534800,1.15053466796875,-0.3436114490032196,-1.1790454387664795,0.10575596243143082
1772810286582234600,1.160234619140625,-0.36804601550102234,-1.4734822511672974,-0.012140937149524689
1772810286591934500,1.1699345703125,-0.4276053309440613,-1.7138575315475464,-0.20273074507713318
1772810286601634600,1.179634521484375,-0.32192572951316833,-1.7807471752166748,-0.741818904876709
1772810286611334400,1.18933447265625,-0.07391463965177536,-1.911166787147522,-1.7219514846801758
1772810286621034500,1.199034423828125,0.20647229254245758,-1.8503857851028442,-2.7274348735809326
1772810286630734300,1.208734375,0.5207622051239014,-1.4609594345092773,-3.3972480297088623
1772810286640434400,1.218434326171875,0.8454368710517883,-1.022663950920105,-3.7335290908813477
1772810286650134300,1.22813427734375,1.1071923971176147,-0.6857720613479614,-3.798280954360962
1772810286659834400,1.23783447265625,1.204014539718628,-0.4093557596206665,-3.524613380432129
1772810286669534200,1.2475341796875,1.0305289030075073,-0.24350596964359283,-2.96842098236084
1772810286679234300,1.257234375,0.6856957077980042,-0.2755763828754425,-2.3163228034973145
1772810286688934100,1.26693408203125,0.41905322670936584,-0.4597521126270294,-1.743637204170227
1772810286698634200,1.27663427734375,0.33231043815612793,-0.5981130003929138,-1.3224458694458008
1772810286708334000,1.286333984375,0.40225446224212646,-0.5645154118537903,-1.0420589447021484
1772810286718034200,1.2960341796875,0.6096430420875549,-0.43348491191864014,-0.8658244609832764
1772810286727734000,1.305734130859375,0.8863648176193237,-0.2856556475162506,-0.7277690172195435
1772810286737433900,1.315433837890625,1.1053597927093506,-0.1268308013677597,-0.5622246861457825
1772810286747134000,1.325134033203125,1.1615593433380127,0.002901607658714056,-0.33345580101013184
1772810286756834000,1.334833984375,1.0421353578567505,0.07315105944871902,-0.07353284955024719
1772810286766534000,1.344533935546875,0.8072578310966492,0.08659008145332336,0.18089233338832855
1772810286776233700,1.354233642578125,0.5204567909240723,0.06123919412493706,0.3836994469165802
1772810286785933800,1.363933837890625,0.2415970265865326,0.027030766010284424,0.5208385586738586
1772810286795633700,1.373633544921875,0.006719512399286032,0.014508038759231567,0.5932260751724243
1772810286805333800,1.383333740234375,-0.18173226714134216,0.025503603741526604,0.616744339466095
1772810286815033600,1.39303369140625,-0.32039856910705566,0.07070759683847427,0.6048324704170227
1772810286824733700,1.402733642578125,-0.40225446224212646,0.12721258401870728,0.5718457698822021
1772810286834433500,1.41243359375,-0.43829548358917236,0.13820815086364746,0.5406916737556458
1772810286844133600,1.422133544921875,-0.4376846253871918,0.0847574844956398,0.5474112033843994
1772810286853833500,1.43183349609375,-0.4059196412563324,-0.022983787581324577,0.6026944518089294
1772810286863533300,1.441533203125,-0.3503309488296509,-0.15890119969844818,0.7153990268707275
1772810286873233400,1.4512333984375,-0.29504770040512085,-0.3326922357082367,0.8671988844871521
1772810286882933500,1.46093359375,-0.2461785078048706,-0.5132027864456177,1.0510692596435547
1772810286892633300,1.47063330078125,-0.2110537886619568,-0.7047088742256165,1.2395210266113281
1772810286902333400,1.48033349609375,-0.2055560052394867,-0.8983530402183533,1.4157555103302002
1772810286912033300,1.490033203125,-0.23732095956802368,-1.0596213340759277,1.5638902187347412
1772810286921733000,1.499733154296875,-0.2984074354171753,-1.1759910583496094,1.6411645412445068
1772810286931433200,1.50943310546875,-0.3897317349910736,-1.2444078922271729,1.635666847229004
1772810286941133000,1.519133056640625,-0.49968740344047546,-1.247767686843872,1.569998860359192
1772810286950833200,1.528833251953125,-0.5812378525733948,-1.1614066362380981,1.46004319190979
1772810286960533200,1.538533203125,-0.6298015713691711,-1.0400736331939697,1.2978585958480835
1772810286970233000,1.548233154296875,-0.6768381595611572,-0.913013756275177,1.1002438068389893
1772810286979933000,1.557932861328125,-0.7095194458961487,-0.7862593531608582,0.8928552269935608
1772810286989633000,1.567633056640625,-0.7089085578918457,-0.663780927658081,0.6912698745727539
1772810286999332900,1.577332763671875,-0.702799916267395,-0.5776489973068237,0.49854201078414917
1772810287009033000,1.587032958984375,-0.731510579586029,-0.5150353908538818,0.3232238292694092
1772810287018732800,1.59673291015625,-0.7892373204231262,-0.4725802540779114,0.168675035238266
1772810287028433000,1.606432861328125,-0.8701768517494202,-0.46769335865974426,0.02237292192876339
1772810287038132700,1.6161328125,-0.9471458196640015,-0.45303258299827576,-0.09308052062988281
1772810287047832800,1.625832763671875,-0.9511164426803589,-0.3644571900367737,-0.1498909443616867
1772810287057532700,1.63553271484375,-0.8359684348106384,-0.17234022915363312,-0.17218750715255737
1772810287067232500,1.645232421875,-0.6652317643165588,0.03894263133406639,-0.23480114340782166
1772810287076932600,1.6549326171875,-0.5329795479774475,0.16416990756988525,-0.4012618064880371
1772810287086632700,1.6646328125,-0.5015199780464172,0.11377356201410294,-0.7204386591911316
1772810287096332500,1.67433251953125,-0.6087267398834229,-0.25358524918556213,-1.1941642761230469
1772810287106032400,1.684032470703125,-0.8298597931861877,-0.9172898530960083,-1.694462537765503
1772810287115732500,1.693732421875,-1.0735948085784912,-1.6469677686691284,-2.163606643676758
1772810287125432300,1.703432373046875,-1.1578941345214844,-2.024482250213623,-2.6828417778015137
1772810287135132400,1.71313232421875,-0.9584468603134155,-1.338175654411316,-3.1177775859832764
1772810287144832300,1.722832275390625,-0.5968148708343506,0.8061888217926025,-3.064021348953247
1772810287154532400,1.732532470703125,-0.324063777923584,3.4213008880615234,-2.3841288089752197
1772810287164232200,1.742232177734375,-0.1588248461484909,5.078271865844727,-1.1239148378372192
1772810287173932300,1.751932373046875,-0.014049889519810677,4.9246392250061035,0.46433359384536743
1772810287183632100,1.761632080078125,0.23335035145282745,3.1644322872161865,2.1286346912384033
1772810287193332200,1.771332275390625,0.5549706816673279,0.6586649417877197,3.6652650833129883
1772810287203032000,1.781031982421875,0.7715222239494324,-1.578856348991394,4.812163829803467
1772810287212732200,1.790732177734375,0.8524618148803711,-2.9474990367889404,5.452960968017578
1772810287222432000,1.800431884765625,0.8029817342758179,-3.463374137878418,5.659127712249756
1772810287232132000,1.810132080078125,0.6175842881202698,-3.2834744453430176,5.451128005981445
1772810287241832000,1.81983203125,0.337808221578598,-2.680551052093506,4.742830276489258
1772810287251531800,1.82953173828125,0.053756099194288254,-1.7673081159591675,3.6386923789978027
1772810287261231900,1.83923193359375,-0.18875721096992493,-0.5858956575393677,2.4108541011810303
1772810287270931700,1.848931640625,-0.38789913058280945,0.6073523163795471,1.257236123085022
1772810287280631800,1.8586318359375,-0.5574141144752502,1.483637809753418,0.27313292026519775
1772810287290331600,1.86833154296875,-0.667064368724823,1.8501566648483276,-0.4470766484737396
1772810287300031700,1.87803173828125,-0.7165443897247314,1.735008716583252,-0.8581886291503906
1772810287309731600,1.887731689453125,-0.7681624889373779,1.2600613832473755,-0.9742529392242432
1772810287319431700,1.897431640625,-0.7916807532310486,0.679739773273468,-0.8001564741134644
1772810287329131500,1.907131591796875,-0.7437278628349304,0.2747364342212677,-0.3869064748287201
1772810287338831600,1.91683154296875,-0.6502655744552612,0.11102467030286789,0.20318889617919922
1772810287348531500,1.926531494140625,-0.5775726437568665,0.06551524996757507,0.8638391494750977
1772810287358231600,1.9362314453125,-0.5311469435691833,-0.004657844081521034,1.4872266054153442
1772810287367931400,1.945931396484375,-0.46914416551589966,-0.20502148568630219,1.9548436403274536
1772810287377631200,1.95563134765625,-0.4068359434604645,-0.5498546361923218,2.186361312866211
1772810287387331300,1.965331298828125,-0.37781986594200134,-0.9209550023078918,2.2019383907318115
1772810287397031200,1.97503125,-0.39858928322792053,-1.2285254001617432,2.055636405944824
1772810287406731300,1.984731201171875,-0.4883863925933838,-1.4276673793792725,1.7969350814819336
1772810287416431400,1.994431396484375,-0.6239983439445496,-1.4838669300079346,1.461570382118225
1772810287426131200,2.004131103515625,-0.748920202255249,-1.4068979024887085,1.0638973712921143
1772810287435831000,2.0138310546875,-0.8329141139984131,-1.2306634187698364,0.6329322457313538
1772810287445531100,2.02353125,-0.879339873790741,-0.9692133069038391,0.1882227063179016
1772810287455231000,2.03323095703125,-0.880256175994873,-0.5990293025970459,-0.23480114340782166
1772810287464931000,2.04293115234375,-0.8570432662963867,-0.1882227063179016,-0.602847158908844
1772810287474631000,2.052630859375,-0.8454368710517883,0.18921536207199097,-0.9098067283630371
1772810287484331000,2.0623310546875,-0.8652899861335754,0.45738500356674194,-1.1407135725021362
1772810287494030800,2.07203076171875,-0.916602611541748,0.5636754631996155,-1.2851831912994385
1772810287503731000,2.08173095703125,-0.9816597104072571,0.4860956370830536,-1.344131588935852
1772810287513430800,2.0914306640625,-1.0509928464889526,0.24266603589057922,-1.3349685668945312
1772810287523130600,2.101130615234375,-1.0983349084854126,-0.11461350321769714,-1.2735767364501953
1772810287532830700,2.110830810546875,-1.0818414688110352,-0.5052615404129028,-1.187750220298767
1772810287542530800,2.12053076171875,-0.9993748068809509,-0.8308524489402771,-1.1019237041473389
1772810287552230700,2.130230712890625,-0.8619301915168762,-1.0357975959777832,-1.0289254188537598
1772810287561930800,2.1399306640625,-0.6811142563819885,-1.1304816007614136,-0.9886083006858826
1772810287571630600,2.149630615234375,-0.4944950342178345,-1.1265109777450562,-0.9666171669960022
1772810287581330400,2.159330322265625,-0.323452889919281,-1.0501528978347778,-0.9559270143508911
1772810287591030500,2.169030517578125,-0.1805105358362198,-0.949971079826355,-0.9342412948608398
1772810287600730400,2.17873046875,-0.08399390429258347,-0.8421534299850464,-0.8862884640693665
1772810287610430500,2.188430419921875,-0.04917461425065994,-0.7303652167320251,-0.8019890785217285
1772810287620130300,2.19813037109375,-0.04062250629067421,-0.6146063208580017,-0.6712640523910522
1772810287629830400,2.207830322265625,-0.02718348242342472,-0.4957931339740753,-0.48708829283714294
1772810287639530200,2.2175302734375,-0.03237583488225937,-0.41118836402893066,-0.27145302295684814
1772810287649230300,2.227230224609375,-0.06383536756038666,-0.36537349224090576,-0.07353284955024719
1772810287658930200,2.23693017578125,-0.13072505593299866,-0.3488801419734955,0.07918334752321243
1772810287668630000,2.246630126953125,-0.2409861534833908,-0.3433823585510254,0.1738673895597458
1772810287678330000,2.256330078125,-0.3292561173439026,-0.1476002037525177,0.2807687222957611
1772810287688030200,2.2660302734375,-0.2672533392906189,0.40607234835624695,0.46433359384536743
1772810287697730000,2.27572998046875,-0.0873536616563797,1.0630574226379395,0.6860775351524353
1772810287707430000,2.285429931640625,-0.004276053514331579,1.3700169324874878,0.8030580878257751
1772810287717130000,2.2951298828125,-0.19303326308727264,0.9469931125640869,0.8009200692176819
1772810287726829800,2.304829833984375,-0.7617483735084534,-0.27832525968551636,0.876667320728302
1772810287736530000,2.314530029296875,-1.3417644500732422,-1.673845887184143,1.3519201278686523
1772810287746229800,2.324229736328125,-1.4828742742538452,-2.4639995098114014,1.8115959167480469
1772810287755929900,2.333929931640625,-1.275791049003601,-2.3812272548675537,1.5290708541870117
1772810287765629700,2.343629638671875,-0.9092722535133362,-1.846720576286316,0.39225155115127563
1772810287775329800,2.353329833984375,-0.44470956921577454,-0.8977421522140503,-0.7974076271057129
1772810287785029600,2.363029541015625,-0.06902772188186646,0.43233954906463623,-1.5221986770629883
1772810287794729500,2.3727294921875,-0.17318016290664673,1.6024510860443115,-1.7482186555862427
1772810287804429600,2.3824296875,-0.5986474752426147,2.4323108196258545,-1.5237258672714233
1772810287814129400,2.39212939453125,-0.8631519079208374,3.0660829544067383,-1.074129343032837
1772810287823829500,2.40182958984375,-0.8258891701698303,3.4463462829589844,-0.6990583539009094
1772810287833529600,2.411529541015625,-0.5705476999282837,3.5361435413360596,-0.40401068329811096
1772810287843229400,2.4212294921875,-0.1948658674955368,3.5172066688537598,-0.08483384549617767
1772810287852929300,2.43092919921875,0.18142683804035187,3.330893039703369,0.19066616892814636
1772810287862629400,2.44062939453125,0.5287034511566162,2.9038984775543213,0.34032803773880005
1772810287872329200,2.4503291015625,0.924849271774292,2.347400665283203,0.37514734268188477
1772810287882029300,2.460029296875,1.331379771232605,1.8382447957992554,0.343993216753006
1772810287891729200,2.469729248046875,1.6502511501312256,1.4701987504959106,0.2810741662979126
1772810287901429200,2.47942919921875,1.8289291858673096,1.225547432899475,0.2047160565853119
1772810287911129000,2.489129150390625,1.878714680671692,1.0664172172546387,0.13935352861881256
1772810287920829200,2.4988291015625,1.8475605249404907,0.9222530722618103,0.07887791097164154
1772810287930529000,2.508529052734375,1.747684121131897,0.7582359313964844,0.014431680552661419
1772810287940228900,2.518228759765625,1.5971059799194336,0.5832231640815735,-0.04298960790038109
1772810287949929000,2.527928955078125,1.3723077774047852,0.4442514181137085,-0.10651954263448715
1772810287959628800,2.53762890625,1.0867284536361694,0.393244206905365,-0.21006113290786743
1772810287969329000,2.547328857421875,0.8078686594963074,0.41126471757888794,-0.36888596415519714
1772810287979028700,2.55702880859375,0.5821541547775269,0.485484778881073,-0.5600866675376892
1772810287988728800,2.566728759765625,0.43951719999313354,0.5844448804855347,-0.7494547367095947
1772810287998428700,2.5764287109375,0.38209593296051025,0.6412553191184998,-0.8832340836524963
1772810288008128800,2.586128662109375,0.3799578845500946,0.5917752385139465,-0.9406554102897644
1772810288017828600,2.59582861328125,0.43004879355430603,0.4555523991584778,-0.9006437659263611
1772810288027528700,2.60552880859375,0.5360338687896729,0.25091269612312317,-0.7778599262237549
1772810288037228500,2.615228515625,0.6713404059410095,-0.024816380813717842,-0.6269763112068176
1772810288046928600,2.6249287109375,0.7855721116065979,-0.32933247089385986,-0.4724275469779968
1772810288056628500,2.63462841796875,0.8481857180595398,-0.6146063208580017,-0.32795801758766174
1772810288066328300,2.644328369140625,0.8530726432800293,-0.8320741653442383,-0.1908188909292221
1772810288076028400,2.6540283203125,0.7984002828598022,-0.9456950426101685,-0.05215258151292801
1772810288085728300,2.663728271484375,0.7015781998634338,-0.884913980960846,0.07460185885429382
1772810288095428400,2.673428466796875,0.6328558921813965,-0.6063596606254578,0.1631772518157959
1772810288105128200,2.683128173828125,0.6417134404182434,-0.1625663936138153,0.21876594424247742
1772810288114828300,2.692828369140625,0.7281508445739746,0.36880961060523987,0.24411684274673462
1772810288124528000,2.702528076171875,0.8402445316314697,0.9121738076210022,0.23189954459667206
1772810288134228200,2.712228271484375,0.8460476994514465,1.282663345336914,0.11522436887025833
1772810288143928000,2.721927978515625,0.6206386089324951,1.2625048160552979,-0.13309216499328613
1772810288153628000,2.7316279296875,0.21838416159152985,0.8849903345108032,-0.4586831033229828
1772810288163328000,2.741327880859375,-0.13958260416984558,0.3208567202091217,-0.7790816426277161
1772810288173028000,2.751028076171875,-0.3341430425643921,-0.22823435068130493,-1.064660906791687
1772810288182728000,2.76072802734375,-0.277332603931427,-0.4716639816761017,-1.3019819259643555
1772810288192428000,2.770427978515625,0.000610864779446274,-0.30489787459373474,-1.519755244255066
1772810288202128000,2.7801279296875,0.27947062253952026,-0.031001387163996696,-1.795255184173584
1772810288211827700,2.78982763671875,0.430659681558609,-0.04405862092971802,-2.185903310775757
1772810288221527800,2.79952783203125,0.3906480371952057,-0.4704422354698181,-2.7500369548797607
1772810288231227600,2.8092275390625,0.15699224174022675,-0.9918153285980225,-3.413435935974121
1772810288240927700,2.818927734375,-0.08155044913291931,-1.2441024780273438,-4.085692882537842
1772810288250627600,2.828627685546875,-0.13225223124027252,-1.310381293296814,-4.742677688598633
1772810288260327700,2.83832763671875,0.1081230640411377,-1.3601667881011963,-5.3058953285217285
1772810288270027500,2.848027587890625,0.6276635527610779,-1.3100758790969849,-5.688601970672607
1772810288279727600,2.8577275390625,1.0711513757705688,-0.9820414781570435,-5.718839645385742
1772810288289427500,2.867427490234375,1.275791049003601,-0.395305871963501,-5.20479679107666
1772810288299127300,2.877127197265625,1.4114030599594116,0.11407899856567383,-4.127231597900391
1772810288308827400,2.886827392578125,1.554956316947937,0.23625195026397705,-2.6464953422546387
1772810288318527200,2.89652734375,1.7864739894866943,0.0154243353754282,-0.9678388833999634
1772810288328227300,2.906227294921875,2.0772457122802734,-0.4206567704677582,0.8094722032546997
1772810288337927200,2.91592724609375,2.234848737716675,-0.830547034740448,2.6677229404449463
1772810288347627300,2.925627197265625,2.173456907272339,-1.1976767778396606,4.250473499298096
1772810288357327000,2.9353271484375,1.868940830230713,-1.4084250926971436,5.0937724113464355
1772810288367027200,2.945027099609375,1.433088779449463,-1.292360782623291,5.143863201141357
1772810288376727000,2.95472705078125,0.9920443892478943,-0.886441171169281,4.711676597595215
1772810288386427000,2.964427001953125,0.593149721622467,-0.3128391206264496,3.9670321941375732
1772810288396127000,2.974126953125,0.26939135789871216,0.23716825246810913,3.0602035522460938
1772810288405827000,2.9838271484375,0.023212861269712448,0.6864593029022217,2.226067543029785
1772810288415527000,2.99352685546875,-0.06536252796649933,1.0679444074630737,1.7034728527069092
1772810288425226800,3.003226806640625,0.022907428443431854,1.4619520902633667,1.6781219244003296
1772810288434926800,3.0129267578125,0.04581485688686371,1.763108491897583,2.0696861743927
1772810288444626700,3.022626708984375,-0.03756818547844887,1.835801362991333,2.67291522026062
1772810288454326800,3.032326904296875,-0.14233149588108063,1.733481526374817,3.2404086589813232
1772810288464026600,3.042026611328125,-0.2458730787038803,1.474169373512268,3.647855281829834
1772810288473726700,3.051726806640625,-0.38759371638298035,1.0902409553527832,3.8705155849456787
1772810288483426600,3.061426513671875,-0.5500837564468384,0.7649554014205933,3.988718032836914
1772810288493126700,3.071126708984375,-0.7238747477531433,0.6140718460083008,4.089510440826416
1772810288502826500,3.080826416015625,-0.8854485154151917,0.6772963404655457,4.165868759155273
1772810288512526300,3.0905263671875,-1.0118975639343262,0.9179770350456238,4.155789375305176
1772810288522226400,3.100226318359375,-1.0949751138687134,1.0746638774871826,4.01559591293335
1772810288531926300,3.10992626953125,-1.1142174005508423,1.004719853401184,3.757200241088867
1772810288541626400,3.11962646484375,-1.0919208526611328,0.7893900275230408,3.4007606506347656
1772810288551326200,3.129326171875,-1.1136064529418945,0.5352702736854553,2.929172992706299
1772810288561026300,3.1390263671875,-1.201570987701416,0.3006981909275055,2.353738307952881
1772810288570726100,3.14872607421875,-1.3002257347106934,0.18341214954853058,1.73798668384552
1772810288580426200,3.15842626953125,-1.3802490234375,0.18463388085365295,1.1390337944030762
1772810288590126000,3.1681259765625,-1.4425572156906128,0.22617268562316895,0.6289616227149963
1772810288599826000,3.177825927734375,-1.4581341743469238,0.2698495090007782,0.29909467697143555
1772810288609526000,3.187526123046875,-1.4181225299835205,0.3584249019622803,0.18455752730369568
1772810288619225900,3.197225830078125,-1.324354887008667,0.5053378939628601,0.24289511144161224
1772810288628926000,3.206926025390625,-1.1887428760528564,0.6220130324363708,0.38644832372665405
1772810288638626000,3.2166259765625,-1.0207550525665283,0.6733257174491882,0.5431351661682129
1772810288648326000,3.226325927734375,-0.8436042666435242,0.6601921319961548,0.644844114780426
1772810288658025700,3.236025634765625,-0.6927206516265869,0.5532907843589783,0.6622537970542908
1772810288667725800,3.245725830078125,-0.5717694163322449,0.39507678151130676,0.5953640937805176
1772810288677425700,3.25542578125,-0.4627300798892975,0.24510949850082397,0.4365392327308655
1772810288687125800,3.265125732421875,-0.3546070158481598,0.15500694513320923,0.20227259397506714
1772810288696825600,3.27482568359375,-0.23182319104671478,0.1614210158586502,-0.06895136088132858
1772810288706525700,3.284525634765625,-0.10201441496610641,0.25243985652923584,-0.35850125551223755
1772810288716225500,3.2942255859375,0.017715077847242355,0.38927358388900757,-0.6541598439216614
1772810288725925600,3.303925537109375,0.15821397304534912,0.5212203860282898,-0.8896481990814209
1772810288735625500,3.31362548828125,0.3084867000579834,0.6436987519264221,-1.0170135498046875
1772810288745325300,3.3233251953125,0.44348782300949097,0.7072287201881409,-1.0484730005264282
1772810288755025400,3.333025390625,0.5390881896018982,0.633008599281311,-1.0026581287384033
1772810288764725200,3.342725341796875,0.5986474752426147,0.43600472807884216,-0.8988111615180969
1772810288774425300,3.35242529296875,0.6264418363571167,0.17608177661895752,-0.7732784748077393
1772810288784125200,3.362125244140625,0.6371319890022278,-0.05108356848359108,-0.6535489559173584
1772810288793825300,3.3718251953125,0.6545416116714478,-0.18730641901493073,-0.5646681189537048
1772810288803525000,3.381525146484375,0.685084879398346,-0.21021384000778198,-0.5038870573043823
1772810288813225200,3.39122509765625,0.7186824083328247,-0.15676318109035492,-0.46082112193107605
1772810288822925000,3.400925048828125,0.7180715203285217,-0.1011744812130928,-0.44157886505126953
1772810288832625000,3.410625,0.6808087825775146,-0.03955349326133728,-0.47731447219848633
1772810288842325000,3.420324951171875,0.665842592716217,0.10338886082172394,-0.5637518167495728
1772810288852024800,3.43002490234375,0.7147117853164673,0.36972591280937195,-0.6675988435745239
1772810288861725000,3.439724853515625,0.9184352159500122,0.607046902179718,-0.8358920812606812
1772810288871424800,3.4494248046875,1.3069452047348022,0.43753188848495483,-1.2201260328292847
1772810288881124900,3.459124755859375,1.6508620977401733,-0.3210858106613159,-1.8743622303009033
1772810288890824700,3.46882470703125,1.7684534788131714,-1.015639066696167,-2.471177101135254
1772810288900524800,3.47852490234375,1.8347324132919312,-0.766406238079071,-2.761337995529175
1772810288910224600,3.488224609375,1.7611231803894043,-0.039477135986089706,-2.9143595695495605
1772810288919924500,3.497924560546875,1.5940515995025635,0.11652245372533798,-3.407632827758789
1772810288929624600,3.50762451171875,1.469435214996338,-0.7215076684951782,-4.622337341308594
1772810288939324700,3.51732470703125,1.3900227546691895,-2.0168464183807373,-6.009000301361084
1772810288949024500,3.5270244140625,1.3038908243179321,-2.318308115005493,-6.721879482269287
1772810288958724400,3.536724365234375,1.1133010387420654,-1.2954151630401611,-6.529151916503906
1772810288968424400,3.546424560546875,0.898276686668396,0.2393062710762024,-5.48274040222168
1772810288978124300,3.556124267578125,0.730594277381897,1.62505304813385,-3.907014846801758
1772810288987824400,3.565824462890625,0.7354812026023865,2.2835652828216553,-2.345033645629883
1772810288997524200,3.575524169921875,0.9789108037948608,2.090532064437866,-1.0805433988571167
1772810289007224000,3.58522412109375,1.4196497201919556,1.3336704969406128,-0.057955797761678696
1772810289016924200,3.594924072265625,1.8836015462875366,0.4430296719074249,0.8320741653442383
1772810289026624300,3.604624267578125,2.145357131958008,-0.4258491098880768,1.5345686674118042
1772810289036324000,3.614323974609375,2.1810927391052246,-1.1894301176071167,2.0110433101654053
1772810289046024000,3.62402392578125,2.0861032009124756,-1.6301690340042114,2.2636358737945557
1772810289055724000,3.63372412109375,1.8982622623443604,-1.6402482986450195,2.2471425533294678
1772810289065424000,3.643423828125,1.626121997833252,-1.3042726516723633,1.985386848449707
1772810289075124000,3.6531240234375,1.2861758470535278,-0.7801506519317627,1.5794672966003418
1772810289084823800,3.66282373046875,0.9294307827949524,-0.2401462197303772,1.1045198440551758
1772810289094524000,3.67252392578125,0.5720748901367188,0.2551887631416321,0.6326268315315247
1772810289104223700,3.6822236328125,0.23426663875579834,0.633619487285614,0.21662792563438416
1772810289113923800,3.691923828125,-0.04428769648075104,0.8220712542533875,-0.11568251997232437
1772810289123623700,3.701623779296875,-0.21868959069252014,0.8535308241844177,-0.33223408460617065
1772810289133323500,3.711323486328125,-0.26511532068252563,0.790000855922699,-0.42966702580451965
1772810289143023600,3.721023681640625,-0.2208276242017746,0.6430879235267639,-0.4577668011188507
1772810289152723500,3.730723388671875,-0.1331685185432434,0.45249807834625244,-0.42936158180236816
1772810289162423600,3.740423583984375,-0.0204639695584774,0.2952004075050354,-0.3291797637939453
1772810289172123400,3.750123291015625,0.07422006875276566,0.19013166427612305,-0.17218750715255737
1772810289181823500,3.759823486328125,0.12583814561367035,0.13339759409427643,0.003741546766832471
1772810289191523300,3.7695234375,0.12431098520755768,0.11407899856567383,0.15004366636276245
1772810289201223400,3.779223388671875,0.09621120244264603,0.14462223649024963,0.2508363425731659
1772810289210923300,3.78892333984375,0.06963858753442764,0.21212279796600342,0.3107011020183563
1772810289220623000,3.798623046875,0.05955931544303894,0.3153589367866516,0.3317759335041046
1772810289230323200,3.8083232421875,0.07238747924566269,0.4641045033931732,0.30947935581207275
1772810289240023000,3.81802294921875,0.08796452730894089,0.5703949928283691,0.23067781329154968
1772810289249723100,3.82772314453125,0.08888082206249237,0.5933024287223816,0.11888955533504486
1772810289259423000,3.837423095703125,0.07422006875276566,0.5448150038719177,0.00038179047987796366
1772810289269123000,3.847123046875,0.06414080411195755,0.4427242577075958,-0.12362375855445862
1772810289278823000,3.856822998046875,0.07299833744764328,0.3046688139438629,-0.247629314661026
1772810289288523000,3.86652294921875,0.10231985151767731,0.17088942229747772,-0.34261879324913025
1772810289298222800,3.876222900390625,0.13469567894935608,0.07498364895582199,-0.39820748567581177
1772810289307922700,3.885922607421875,0.14538581669330597,0.0032070400193333626,-0.418366014957428
1772810289317622800,3.895622802734375,0.08826996386051178,-0.06666062027215958,-0.418366014957428
1772810289327322600,3.905322509765625,-0.017104214057326317,-0.0907897800207138,-0.4061487317085266
1772810289337022700,3.915022705078125,-0.12125665694475174,-0.05413788929581642,-0.41378453373908997
1772810289346722600,3.92472265625,-0.21471896767616272,0.005955931730568409,-0.45532333850860596
1772810289356422700,3.934422607421875,-0.3017672002315521,0.0902552679181099,-0.4938078224658966
1772810289366122500,3.94412255859375,-0.3695732057094574,0.16600249707698822,-0.5216021537780762
1772810289375822600,3.953822509765625,-0.38209593296051025,0.1766926348209381,-0.5533671379089355
1772810289385522400,3.9635224609375,-0.281914085149765,0.21456626057624817,-0.6110938787460327
1772810289395222300,3.97322216796875,-0.05283980444073677,0.3309359848499298,-0.7375428676605225
1772810289404922400,3.98292236328125,0.24923282861709595,0.4017963111400604,-1.049083948135376
1772810289414622200,3.992622314453125,0.5283980369567871,0.16050471365451813,-1.6254348754882812
1772810289424322300,4.002322265625,0.6707295179367065,-0.27282747626304626,-2.3132686614990234
1772810289434022100,4.012022216796875,0.6731730103492737,-0.5883391499519348,-2.7741661071777344
1772810289443722200,4.02172216796875,0.5671879649162292,-0.7300597429275513,-2.809290647506714
1772810289453422000,4.031422119140625,0.4657844007015228,-0.8604794144630432,-2.4562108516693115
1772810289463122200,4.0411220703125,0.35674503445625305,-0.8186351656913757,-1.844124436378479
1772810289472822000,4.050822021484375,0.21838416159152985,-0.6121628880500793,-1.3132829666137695
1772810289482521900,4.06052197265625,0.15699224174022675,-0.2603047490119934,-1.0051016807556152
1772810289492222000,4.070221923828125,0.12767073512077332,0.24694208800792694,-0.7827468514442444
1772810289501921800,4.079921875,0.09376774728298187,0.6751583218574524,-0.4290561378002167
1772810289511622000,4.089621826171875,0.06200277432799339,1.0038034915924072,0.20105087757110596
1772810289521321700,4.09932177734375,0.1285870373249054,1.0218240022659302,0.9725731015205383
1772810289531021800,4.109021728515625,0.40408703684806824,0.734717607498169,1.719966173171997
1772810289540721700,4.1187216796875,0.8350521326065063,0.1821904182434082,2.3143374919891357
1772810289550421800,4.128421875,1.2348631620407104,-0.6390409469604492,2.7556874752044678
1772810289560121600,4.13812158203125,1.4932589530944824,-1.4658464193344116,3.072420835494995
1772810289569821400,4.147821533203125,1.5323543548583984,-1.887648582458496,3.2214717864990234
1772810289579521500,4.157521484375,1.4300343990325928,-1.7276020050048828,3.1383941173553467
1772810289589221400,4.167221435546875,1.3167190551757812,-0.9292016625404358,2.764239549636841
1772810289598921500,4.17692138671875,1.229365348815918,0.33337944746017456,2.152458429336548
1772810289608621600,4.18662158203125,1.0855066776275635,1.5734349489212036,1.4731767177581787
1772810289618321400,4.1963212890625,0.7226530313491821,2.4457497596740723,0.8839976787567139
1772810289628021200,4.206021240234375,0.18356487154960632,2.7120869159698486,0.40782859921455383
1772810289637721300,4.215721435546875,-0.33719736337661743,2.4521639347076416,0.03428478538990021
1772810289647421200,4.225421142578125,-0.6960803866386414,1.8920009136199951,-0.27603453397750854
1772810289657121000,4.23512109375,-0.8408553600311279,1.23654305934906,-0.5002219080924988
1772810289666821000,4.244821044921875,-0.8084795475006104,0.670576810836792,-0.6110938787460327
1772810289676521000,4.25452099609375,-0.6997455954551697,0.2597702443599701,-0.5704713463783264
1772810289686221000,4.264220947265625,-0.5839866995811462,0.006566796451807022,-0.34200790524482727
1772810289695921000,4.2739208984375,-0.46975502371788025,-0.02023489587008953,0.09873101860284805
1772810289705621000,4.28362109375,-0.4147771894931793,0.2484692484140396,0.6469821333885193
1772810289715320800,4.29332080078125,-0.4214966893196106,0.7200568318367004,1.1665226221084595
1772810289725021000,4.30302099609375,-0.4001164436340332,1.086881160736084,1.5779401063919067
1772810289734720800,4.312720703125,-0.33597561717033386,1.159879446029663,1.8574106693267822
1772810289744420600,4.322420654296875,-0.3185659945011139,0.9451605081558228,1.9621740579605103
1772810289754120700,4.33212060546875,-0.32681265473365784,0.4796815812587738,1.9267438650131226
1772810289763820500,4.341820556640625,-0.3127627670764923,-0.044669486582279205,1.7734167575836182
1772810289773520600,4.351520751953125,-0.26389357447624207,-0.45883581042289734,1.522962212562561
1772810289783220500,4.361220458984375,-0.1802051067352295,-0.6766090989112854,1.2132538557052612
1772810289792920600,4.370920654296875,-0.07941242307424545,-0.7053197622299194,0.9029344916343689
1772810289802620400,4.380620361328125,-0.013439024798572063,-0.5883391499519348,0.6677515506744385
1772810289812320500,4.390320556640625,-0.018631376326084137,-0.40752315521240234,0.5318341255187988
1772810289822020400,4.400020263671875,-0.10048725455999374,-0.2569449841976166,0.4615846872329712
1772810289831720200,4.40972021484375,-0.2406807243824005,-0.16378812491893768,0.42126762866973877
1772810289841420300,4.419420166015625,-0.406530499458313,-0.13385574519634247,0.38736462593078613
1772810289851120000,4.4291201171875,-0.562911868095398,-0.17508912086486816,0.3473529815673828
1772810289860820200,4.4388203125,-0.6945532560348511,-0.2618319094181061,0.270689457654953
1772810289870520000,4.44852001953125,-0.7803797721862793,-0.35101816058158875,0.15706861019134521
1772810289880220200,4.45822021484375,-0.7993165850639343,-0.42187848687171936,0.02237292192876339
1772810289889920000,4.467919921875,-0.748920202255249,-0.4615846872329712,-0.10315979272127151
1772810289899620000,4.4776201171875,-0.6597339510917664,-0.45761406421661377,-0.20028728246688843
1772810289909320000,4.48731982421875,-0.5662716627120972,-0.41118836402893066,-0.24396412074565887
1772810289919019800,4.497019775390625,-0.48502662777900696,-0.34063348174095154,-0.21830779314041138
1772810289928720000,4.506719970703125,-0.4425715208053589,-0.25938844680786133,-0.13064870238304138
1772810289938419700,4.516419677734375,-0.4407389461994171,-0.19127702713012695,-0.012446369975805283
1772810289948119800,4.526119873046875,-0.45387253165245056,-0.13904809951782227,0.10972658544778824
1772810289957819600,4.535819580078125,-0.46944957971572876,-0.09170607477426529,0.21204642951488495
1772810289967519700,4.545519775390625,-0.4886918365955353,-0.033368486911058426,0.26763513684272766
1772810289977219600,4.555219482421875,-0.49052441120147705,0.0334448479115963,0.2749654948711395
1772810289986919700,4.564919677734375,-0.47983428835868835,0.1107192412018776,0.23342670500278473
1772810289996619500,4.57461962890625,-0.4725039005279541,0.19379685819149017,0.1527925580739975
1772810290006319400,4.5843193359375,-0.4633409380912781,0.28206682205200195,0.04864010959863663
1772810290016019500,4.59401953125,-0.45417797565460205,0.32910341024398804,-0.055512335151433945
1772810290025719300,4.60371923828125,-0.47983428835868835,0.304974228143692,-0.14622575044631958
1772810290035419400,4.61341943359375,-0.5433642268180847,0.23258677124977112,-0.2115882933139801
1772810290045119200,4.623119140625,-0.6264418363571167,0.14798198640346527,-0.2693150043487549
1772810290054819300,4.6328193359375,-0.6759218573570251,0.09636391699314117,-0.3245982825756073
1772810290064519200,4.642519287109375,-0.6514872908592224,0.1510363221168518,-0.3603338599205017
1772810290074219300,4.65221923828125,-0.5384773015975952,0.39538222551345825,-0.3508654534816742
1772810290083919000,4.661919189453125,-0.347582072019577,0.6687442064285278,-0.33223408460617065
1772810290093619000,4.671618896484375,-0.1649334877729416,0.7212786078453064,-0.4006509482860565
1772810290103319000,4.681319091796875,-0.11117739230394363,0.4082103967666626,-0.5750528573989868
1772810290113019000,4.691018798828125,-0.22510367631912231,-0.12408190965652466,-0.69722580909729
1772810290122719000,4.700718994140625,-0.3536907136440277,-0.6680569648742676,-0.6996692419052124
1772810290132418800,4.710418701171875,-0.3072649836540222,-0.9823469519615173,-0.8239802122116089
1772810290142119000,4.720118896484375,-0.10354158282279968,-1.3293181657791138,-1.4501166343688965
1772810290151818800,4.72981884765625,0.25900667905807495,-2.0260093212127686,-2.9290201663970947
1772810290161518800,4.739518798828125,0.7886264324188232,-2.5962517261505127,-4.641579627990723
1772810290171218700,4.74921875,1.2107340097427368,-2.5088980197906494,-5.723726749420166
1772810290180918500,4.75891845703125,1.3637555837631226,-1.6039018630981445,-5.892630577087402
1772810290190618600,4.76861865234375,1.3472622632980347,-0.23281583189964294,-5.1999101638793945
1772810290200318500,4.778318359375,1.3765838146209717,0.9283617734909058,-3.954967737197876
1772810290210018600,4.7880185546875,1.4953969717025757,1.62199866771698,-2.4641520977020264
1772810290219718400,4.797718505859375,1.561675786972046,1.7160718441009521,-0.9617302417755127
1772810290229418500,4.80741845703125,1.5250239372253418,1.2289072275161743,0.3430769443511963
1772810290239118300,4.817118408203125,1.4077378511428833,0.5355756878852844,1.2303580045700073
1772810290248818400,4.826818359375,1.3008365631103516,-0.2086866796016693,1.5516729354858398
1772810290258518300,4.836518310546875,1.339626431465149,-0.9218713045120239,1.3714678287506104
1772810290268218000,4.846218017578125,1.4511092901229858,-1.443244457244873,0.8491783738136292
1772810290277918200,4.855918212890625,1.488066554069519,-1.6585742235183716,0.1781434416770935
1772810290287618000,4.8656181640625,1.3942989110946655,-1.6133702993392944,-0.46173742413520813
1772810290297318100,4.875318115234375,1.191491723060608,-1.3409245014190674,-0.918664276599884
1772810290307018000,4.88501806640625,0.9376774430274963,-0.8962149620056152,-1.169424295425415
1772810290316717800,4.8947177734375,0.6783653497695923,-0.38583746552467346,-1.2482258081436157
1772810290326418000,4.90441796875,0.46395179629325867,0.10858121514320374,-1.1914154291152954
1772810290336118000,4.914117919921875,0.3191768527030945,0.49312058091163635,-1.0503056049346924
1772810290345817900,4.92381787109375,0.20616686344146729,0.7231112122535706,-0.8704059720039368
1772810290355517700,4.933517578125,0.08032871782779694,0.7848085165023804,-0.6792052984237671
1772810290365217800,4.9432177734375,-0.06017018109560013,0.7060069441795349,-0.48708829283714294
1772810290374917600,4.952917724609375,-0.19669845700263977,0.5404626131057739,-0.308104932308197
1772810290384617700,4.96261767578125,-0.29535311460494995,0.33276858925819397,-0.16730059683322906
1772810290394317600,4.972317626953125,-0.3430005609989166,0.1253799945116043,-0.06681333482265472
1772810290404017400,4.982017333984375,-0.35735589265823364,-0.04650207981467247,0.0006872228696011007
1772810290413717500,4.991717529296875,-0.33658650517463684,-0.13019055128097534,0.052916161715984344
1772810290423417300,5.001417236328125,-0.28038692474365234,-0.15004366636276245,0.1164461001753807
1772810290433117400,5.011117431640625,-0.2205221801996231,-0.17447824776172638,0.21296273171901703
1772810290442817300,5.0208173828125,-0.18417572975158691,-0.22853977978229523,0.36201372742652893
1772810290452517400,5.030517333984375,-0.1747073233127594,-0.2868773639202118,0.553214430809021
1772810290462217200,5.04021728515625,-0.19669845700263977,-0.3333030939102173,0.7709876894950867
1772810290471917300,5.049917236328125,-0.25870123505592346,-0.36537349224090576,0.9905936121940613
1772810290481617200,5.0596171875,-0.35063639283180237,-0.36628979444503784,1.1814888715744019
1772810290491317000,5.06931689453125,-0.47097674012184143,-0.32566729187965393,1.320460557937622
1772810290501017000,5.07901708984375,-0.610559344291687,-0.2545015513896942,1.3787981271743774
1772810290510717000,5.088717041015625,-0.7431169748306274,-0.15126539766788483,1.3488657474517822
1772810290520417000,5.0984169921875,-0.851545512676239,-0.038560837507247925,1.2300525903701782
1772810290530116900,5.108116943359375,-0.9447023868560791,0.06612611562013626,1.0455714464187622
1772810290539817000,5.11781689453125,-1.0189224481582642,0.16814053058624268,0.8253546953201294
1772810290549516800,5.127516845703125,-1.081230640411377,0.24510949850082397,0.5975021123886108
1772810290559217000,5.137216796875,-1.1465932130813599,0.30222535133361816,0.3785070776939392
1772810290568916700,5.146916748046875,-1.2122611999511719,0.36880961060523987,0.18974986672401428
1772810290578616600,5.156616455078125,-1.28556489944458,0.4179842174053192,0.05169443041086197
1772810290588316700,5.166316650390625,-1.3866630792617798,0.4650208055973053,0.008017600513994694
1772810290598016500,5.1760166015625,-1.4883720874786377,0.5160280466079712,0.08681915700435638
1772810290607716600,5.185716552734375,-1.5610649585723877,0.5477929711341858,0.26732969284057617
1772810290617416400,5.19541650390625,-1.5861103534698486,0.5600103139877319,0.4600575268268585
1772810290627116500,5.205116455078125,-1.4865394830703735,0.5386300086975098,0.5941423773765564
1772810290636816400,5.21481640625,-1.1444551944732666,0.34956738352775574,0.5632936954498291
1772810290646516500,5.2245166015625,-0.6246092319488525,-0.3940841555595398,0.09873101860284805
1772810290656216300,5.23421630859375,-0.2006690800189972,-1.735237717628479,-0.7296016216278076
1772810290665916200,5.243916259765625,0.09651663154363632,-2.60022234916687,-1.2583050727844238
1772810290675616300,5.2536162109375,0.28466299176216125,-2.7495787143707275,-1.2115739583969116
1772810290685316000,5.263316162109375,0.36224281787872314,-2.8616724014282227,-0.7372374534606934
1772810290695016000,5.273015869140625,0.5852084755897522,-2.6771912574768066,0.041615162044763565
1772810290704716000,5.282716064453125,0.9062178730964661,-2.2071309089660645,0.8412371873855591
1772810290714415900,5.292415771484375,1.1013891696929932,-1.403843641281128,1.831754446029663
1772810290724116000,5.302115966796875,1.072678565979004,-0.48510298132896423,3.038517713546753
1772810290733816000,5.311816162109375,0.888502836227417,0.12751802802085876,4.201298713684082
1772810290743516000,5.321515869140625,0.7360920310020447,0.4036289155483246,4.9068474769592285
1772810290753215700,5.3312158203125,0.8680388331413269,0.3168860971927643,4.838125228881836
1772810290762915800,5.340915771484375,1.3417644500732422,0.05085449293255806,4.220235824584961
1772810290772615700,5.35061572265625,1.8781037330627441,-0.356286883354187,3.4676501750946045
1772810290782315500,5.3603154296875,2.3628249168395996,-0.6992111206054688,2.848844289779663
1772810290792015600,5.370015625,2.7620251178741455,-0.8504001498222351,2.2602760791778564
1772810290801715500,5.379715576171875,2.9516985416412354,-0.8323796391487122,1.7309616804122925
1772810290811415600,5.38941552734375,2.95963978767395,-0.6515636444091797,1.471344232559204
1772810290821115400,5.399115478515625,2.7501132488250732,-0.28901541233062744,1.4832561016082764
1772810290830815500,5.4088154296875,2.3069307804107666,0.3092502951622009,1.543426275253296
1772810290840515300,5.418515380859375,1.6682716608047485,0.9531017541885376,1.3833796977996826
1772810290850215400,5.42821533203125,0.8707877397537231,1.4268274307250977,0.9469167590141296
1772810290859915300,5.437915283203125,0.001832594396546483,1.6934698820114136,0.414242684841156
1772810290869615000,5.447614990234375,-0.8042035102844238,1.7557780742645264,-0.06131555140018463
1772810290879315200,5.457315185546875,-1.3558143377304077,1.6543744802474976,-0.4159225523471832
1772810290889015000,5.46701513671875,-1.5735876560211182,1.4592032432556152,-0.5979602336883545
1772810290898715100,5.476715087890625,-1.5445716381072998,1.2231040000915527,-0.5212967395782471
1772810290908415000,5.4864150390625,-1.4459168910980225,0.921336829662323,-0.18837542831897736
1772810290918115000,5.496114990234375,-1.359174132347107,0.6091849207878113,0.3216966688632965
1772810290927815000,5.50581494140625,-1.293811559677124,0.32788166403770447,0.803363561630249
1772810290937515000,5.515514892578125,-1.2412772178649902,0.03558287397027016,1.0767254829406738
1772810290947214800,5.52521484375,-1.22234046459198,-0.19769111275672913,1.1002438068389893
1772810290956914700,5.534914794921875,-1.2629629373550415,-0.28290674090385437,0.9203441739082336
1772810290966614800,5.54461474609375,-1.3539817333221436,-0.17905974388122559,0.6216312646865845
1772810290976314600,5.554314697265625,-1.4679080247879028,0.07040216773748398,0.2804632782936096
1772810290986014500,5.564014404296875,-1.5607595443725586,0.33276858925819397,-0.032910339534282684
1772810290995714600,5.573714599609375,-1.5735876560211182,0.5539016127586365,-0.23541201651096344
1772810291005414400,5.583414306640625,-1.543960690498352,0.6687442064285278,-0.3087157905101776
1772810291015114500,5.593114501953125,-1.506087064743042,0.7225003242492676,-0.2742019295692444
1772810291024814300,5.602814453125,-1.4437788724899292,0.8025236129760742,-0.150196373462677
1772810291034514400,5.612514404296875,-1.3463460206985474,0.9243911504745483,0.0550541877746582
1772810291044214300,5.62221435546875,-1.2159262895584106,0.985783040523529,0.2923751473426819
1772810291053914400,5.631914306640625,-1.065959095954895,0.8871283531188965,0.5205331444740295
1772810291063614200,5.6416142578125,-0.8964440822601318,0.5713112950325012,0.6989056468009949
1772810291073314000,5.65131396484375,-0.7559451460838318,0.08933897316455841,0.792062520980835
1772810291083014100,5.66101416015625,-0.6829468011856079,-0.38125598430633545,0.7819832563400269
1772810291092714000,5.6707138671875,-0.6374374032020569,-0.69096440076828,0.63568115234375
1772810291102414000,5.6804140625,-0.572685718536377,-0.7157044410705566,0.38156139850616455
1772810291112114000,5.690114013671875,-0.4816668927669525,-0.43745553493499756,0.09567669779062271
1772810291121814000,5.69981396484375,-0.39339691400527954,-0.022754713892936707,-0.13339759409427643
1772810291131513900,5.709513916015625,-0.34605491161346436,0.30375251173973083,-0.22930335998535156
1772810291141214000,5.7192138671875,-0.3344484567642212,0.44211336970329285,-0.15416699647903442
1772810291150913800,5.728913818359375,-0.3610210716724396,0.439364492893219,0.04344775900244713
1772810291160613600,5.738613525390625,-0.40866854786872864,0.3572031855583191,0.2612210512161255
1772810291170313700,5.748313720703125,-0.4453204274177551,0.2835939824581146,0.4050796926021576
1772810291180013600,5.758013671875,-0.44501498341560364,0.23777911067008972,0.4353175163269043
1772810291189713700,5.767713623046875,-0.43982264399528503,0.24113887548446655,0.38675376772880554
1772810291199413500,5.77741357421875,-0.48075059056282043,0.25610506534576416,0.27343833446502686
1772810291209113300,5.78711328125,-0.5763509273529053,0.2842048406600952,0.1329394429922104
1772810291218813400,5.7968134765625,-0.694247841835022,0.3474293351173401,-0.021914774551987648
1772810291228513300,5.80651318359375,-0.8316923975944519,0.388051837682724,-0.2067013680934906
1772810291238213400,5.81621337890625,-0.9779945015907288,0.47784897685050964,-0.4125627875328064
1772810291247913200,5.825913330078125,-1.0680971145629883,0.6760746240615845,-0.6526326537132263
1772810291257613300,5.83561328125,-1.0965023040771484,0.8721621632575989,-0.9339358806610107
1772810291267313200,5.845313232421875,-1.045189619064331,1.0151045322418213,-1.1654536724090576
1772810291277013200,5.85501318359375,-0.8967494964599609,1.152549147605896,-1.16789710521698
1772810291286713000,5.864713134765625,-0.7092140316963196,1.2053889036178589,-0.816038966178894
1772810291296413000,5.874412841796875,-0.5189296007156372,0.7527381181716919,-0.38996079564094543
1772810291306113000,5.884113037109375,-0.3744601011276245,-0.3672060966491699,-0.26473352313041687
1772810291315812900,5.893812744140625,-0.2574795186519623,-1.5498403310775757,-0.43913543224334717
1772810291325512700,5.9035126953125,-0.13988803327083588,-1.9985204935073853,-0.7488438487052917
1772810291335212800,5.913212890625,-0.11239911615848541,-2.0400593280792236,-1.418046236038208
1772810291344912600,5.92291259765625,-0.0821613147854805,-2.0318126678466797,-2.631223678588867
1772810291354612700,5.93261279296875,0.11484257876873016,-1.662544846534729,-4.0765299797058105
1772810291364312800,5.942312744140625,0.2718348205089569,-1.0376302003860474,-5.122941017150879
1772810291374012700,5.9520126953125,0.20463970303535461,-0.1888335794210434,-5.334605693817139
1772810291383712500,5.96171240234375,-0.022296564653515816,0.782365083694458,-4.704803943634033
1772810291393412600,5.97141259765625,-0.08796452730894089,1.4491239786148071,-3.4815473556518555
1772810291403112400,5.981112548828125,0.1591302752494812,1.47661292552948,-1.9983677864074707
1772810291412812300,5.990812255859375,0.56382817029953,0.9653190970420837,-0.5451204776763916
1772810291422512400,6.000512451171875,0.8549052476882935,0.18677189946174622,0.6555342674255371
1772810291432212200,6.010212158203125,1.0027345418930054,-0.48479756712913513,1.3885719776153564
1772810291441912300,6.019912353515625,1.1059707403182983,-0.8296307325363159,1.578550934791565
1772810291451612200,6.029612060546875,1.214093804359436,-0.8406262993812561,1.3109921216964722
1772810291461312300,6.039312255859375,1.2806780338287354,-0.6164389252662659,0.7560214996337891
1772810291471012000,6.04901220703125,1.2299761772155762,-0.24839289486408234,0.10850485414266586
1772810291480712200,6.058712158203125,1.1148282289505005,0.020922118797898293,-0.41928231716156006
1772810291490412000,6.068412109375,0.9159917235374451,0.036193739622831345,-0.7100539207458496
1772810291500112000,6.07811181640625,0.6053670048713684,-0.10728313028812408,-0.799240231513977
1772810291509812000,6.08781201171875,0.2678641974925995,-0.2969566285610199,-0.7668643593788147
1772810291519511800,6.09751171875,-0.018325943499803543,-0.4664716124534607,-0.6944769024848938
1772810291529211600,6.107211669921875,-0.2306014597415924,-0.5724566578865051,-0.6675988435745239
1772810291538911700,6.116911865234375,-0.37354379892349243,-0.5865065455436707,-0.7198277711868286
1772810291548611600,6.126611572265625,-0.4477638900279999,-0.5055669546127319,-0.8368083834648132
1772810291558311700,6.136311767578125,-0.4728093445301056,-0.34521496295928955,-0.9708932042121887
1772810291568011500,6.146011474609375,-0.4575377106666565,-0.16012293100357056,-1.0683261156082153
1772810291577711600,6.155711669921875,-0.4007273018360138,-0.005955931730568409,-1.1031454801559448
1772810291587411500,6.165411376953125,-0.3084867000579834,0.10430516302585602,-1.064355492591858
1772810291597111600,6.175111572265625,-0.19761475920677185,0.17119485139846802,-0.9528726935386658
1772810291606811400,6.184811279296875,-0.10567960888147354,0.15806126594543457,-0.7864120602607727
1772810291616511200,6.19451123046875,-0.05894844979047775,0.08170316368341446,-0.5683333277702332
1772810291626211300,6.20421142578125,-0.026878049597144127,-0.039248060435056686,-0.31665703654289246
1772810291635911200,6.2139111328125,0.015577051788568497,-0.21601705253124237,-0.0576503649353981
1772810291645611300,6.223611328125,0.06963858753442764,-0.4444804787635803,0.17631085216999054
1772810291655311000,6.23331103515625,0.15210533142089844,-0.6698895692825317,0.36690065264701843
1772810291665011000,6.243010986328125,0.2370155304670334,-0.838182806968689,0.4902953505516052
1772810291674711000,6.2527109375,0.29626941680908203,-0.9258419275283813,0.5296961069107056
1772810291684411000,6.262410888671875,0.31093016266822815,-0.9209550023078918,0.4860192835330963
1772810291694111000,6.272111083984375,0.2776380479335785,-0.8152754306793213,0.37148213386535645
1772810291703810800,6.281810791015625,0.18784092366695404,-0.6411789655685425,0.20227259397506714
1772810291713511000,6.291510986328125,0.05070177838206291,-0.4353175163269043,0.010155626572668552
1772810291723210800,6.301210693359375,-0.10537417232990265,-0.21479532122612,-0.16913318634033203
1772810291732910800,6.310910888671875,-0.2672533392906189,0.0038179049734026194,-0.3236819803714752
1772810291742610700,6.320610595703125,-0.3946186602115631,0.1928805559873581,-0.43424850702285767
1772810291752310500,6.330310546875,-0.4685332775115967,0.3685041666030884,-0.48036879301071167
1772810291762010600,6.3400107421875,-0.5112938284873962,0.5080868005752563,-0.45623964071273804
1772810291771710500,6.34971044921875,-0.5632173418998718,0.5624537467956543,-0.3817141354084015
1772810291781410300,6.359410400390625,-0.6163625717163086,0.5682569742202759,-0.2888626754283905
1772810291791110400,6.3691103515625,-0.6508764028549194,0.5264127254486084,-0.21525347232818604
1772810291800810200,6.378810302734375,-0.6524035930633545,0.43081238865852356,-0.16363540291786194
1772810291810510300,6.38851025390625,-0.6148353815078735,0.3318522870540619,-0.14317142963409424
1772810291820210200,6.398210205078125,-0.46486809849739075,0.263435423374176,-0.18745912611484528
1772810291829910300,6.40791015625,-0.21227550506591797,0.10461059212684631,-0.3725511431694031
1772810291839610000,6.417610107421875,0.05803215503692627,-0.3623191714286804,-0.8306997418403625
1772810291849310200,6.427310302734375,0.29901832342147827,-1.2563197612762451,-1.5319725275039673
1772810291859010000,6.437010009765625,0.47952884435653687,-2.0144028663635254,-1.9647701978683472
1772810291868710000,6.4467099609375,0.5170970559120178,-2.186361312866211,-1.8725296258926392
1772810291878410000,6.456409912109375,0.36651885509490967,-1.9423209428787231,-1.6086360216140747
1772810291888109800,6.46610986328125,0.2883281707763672,-1.085353970527649,-1.47119140625
1772810291897809700,6.4758095703125,0.3078758418560028,0.14683662354946136,-1.5991675853729248
1772810291907509800,6.485509765625,0.15607595443725586,1.2383756637573242,-1.8560363054275513
1772810291917209900,6.4952099609375,0.0015271619195118546,1.874896764755249,-1.86916983127594
1772810291926909700,6.50490966796875,-0.011911863461136818,1.9347615242004395,-1.5374703407287598
1772810291936609800,6.51460986328125,0.17715078592300415,1.5529710054397583,-0.918053388595581
1772810291946309600,6.5243095703125,0.6805033683776855,0.8520036339759827,-0.13278673589229584
1772810291956009500,6.534009521484375,1.375972867012024,-0.028863361105322838,0.7401390671730042
1772810291965709600,6.54370947265625,2.012188673019409,-0.9365320801734924,1.6170353889465332
1772810291975409400,6.553409423828125,2.4275765419006348,-1.580383539199829,2.278601884841919
1772810291985109200,6.563109130859375,2.550971269607544,-1.7163009643554688,2.518977165222168
1772810291994809300,6.572809326171875,2.4581198692321777,-1.3351212739944458,2.3106722831726074
1772810292004509200,6.58250927734375,2.2342379093170166,-0.69096440076828,1.7538691759109497
1772810292014209300,6.592209228515625,1.9425499439239502,0.010919207707047462,1.0834450721740723
1772810292023909000,6.6019091796875,1.6771292686462402,0.4237874448299408,0.4652498960494995
1772810292033609200,6.611609130859375,1.4104868173599243,0.2857320010662079,-0.09063705801963806
1772810292043309000,6.62130908203125,1.117882490158081,-0.05047270283102989,-0.5222130417823792
1772810292053009200,6.631009033203125,0.7538071274757385,-0.173256516456604,-0.825507402420044
1772810292062709000,6.640708984375,0.33078327775001526,-0.06299543380737305,-1.1187224388122559
1772810292072408800,6.650408935546875,0.000305432389723137,0.3938550651073456,-1.3303871154785156
1772810292082109000,6.66010888671875,-0.16096286475658417,0.9955568909645081,-1.4052181243896484
1772810292091808800,6.669808837890625,-0.19730933010578156,1.39445161819458,-1.3377175331115723
1772810292101508900,6.6795087890625,-0.2107483446598053,1.5926772356033325,-1.102534532546997
1772810292111208700,6.689208740234375,-0.2715294063091278,1.7191262245178223,-0.7247146964073181
1772810292120908500,6.698908447265625,-0.33719736337661743,1.7731877565383911,-0.2430478185415268
1772810292130608600,6.708608642578125,-0.3543015718460083,1.6858340501785278,0.32444554567337036
1772810292140308500,6.71830859375,-0.3170388340950012,1.4164427518844604,0.859257698059082
1772810292150008600,6.728008544921875,-0.205861434340477,1.034041404724121,1.2031745910644531
1772810292159708400,6.73770849609375,-0.06414080411195755,0.6348412036895752,1.321376919746399
1772810292169408500,6.747408447265625,0.044898562133312225,0.28695371747016907,1.254487156867981
1772810292179108400,6.7571083984375,0.11514800786972046,0.009010255336761475,1.0587049722671509
1772810292188808400,6.766808349609375,0.15607595443725586,-0.1268308013677597,0.8274927139282227
1772810292198508300,6.77650830078125,0.19089524447917938,-0.1274416595697403,0.5938369035720825
1772810292208208100,6.7862080078125,0.22388194501399994,-0.10789398849010468,0.3797288239002228
1772810292217908200,6.795908203125,0.2162461280822754,-0.08498656004667282,0.22884522378444672
1772810292227608000,6.805608154296875,0.15271618962287903,-0.06696604937314987,0.17508912086486816
1772810292237308000,6.815307861328125,0.05070177838206291,-0.11247547715902328,0.19005531072616577
1772810292247008000,6.825008056640625,-0.09315688163042068,-0.229150652885437,0.21113014221191406
1772810292256707800,6.834707763671875,-0.23335035145282745,-0.3580431044101715,0.19708025455474854
1772810292266408000,6.844407958984375,-0.30115634202957153,-0.44814568758010864,0.11950042098760605
1772810292276107800,6.854107666015625,-0.2724456787109375,-0.4960985481739044,-0.01763872057199478
1772810292285807600,6.8638076171875,-0.19089524447917938,-0.4615846872329712,-0.18776455521583557
1772810292295507700,6.8735078125,-0.09926552325487137,-0.3531562089920044,-0.32337653636932373
1772810292305207600,6.88320751953125,-0.038789913058280945,-0.23220497369766235,-0.3759109079837799
1772810292314907600,6.89290771484375,-0.04428769648075104,-0.11369720846414566,-0.3401753306388855
1772810292324607500,6.902607421875,-0.1185077652335167,-0.0022143847309052944,-0.24365869164466858
1772810292334307600,6.9123076171875,-0.21960589289665222,0.13889537751674652,-0.10835213959217072
1772810292344007400,6.92200732421875,-0.3078758418560028,0.29886558651924133,0.033368486911058426
1772810292353707500,6.93170751953125,-0.4169152081012726,0.4189005196094513,0.16989676654338837
1772810292363407400,6.941407470703125,-0.5238165259361267,0.5022835731506348,0.3073413372039795
1772810292373107200,6.951107177734375,-0.5977311730384827,0.5755873322486877,0.4350120723247528
1772810292382807300,6.960807373046875,-0.6499601006507874,0.661413848400116,0.5303069949150085
1772810292392507100,6.970507080078125,-0.6777544617652893,0.7460185885429382,0.5944477915763855
1772810292402207000,6.98020703125,-0.6811142563819885,0.8190169334411621,0.6494256258010864
1772810292411907000,6.989906982421875,-0.6856957077980042,0.8834632039070129,0.6927970051765442
1772810292421607000,6.99960693359375,-0.7141009569168091,0.957683265209198,0.720285952091217
1772810292431307000,7.00930712890625,-0.7785471677780151,1.0154099464416504,0.7321978211402893
1772810292441006800,7.0190068359375,-0.8533781170845032,1.0273218154907227,0.7636573314666748
1772810292450707000,7.02870703125,-0.9388991594314575,0.9543235301971436,0.8140536546707153
1772810292460406800,7.03840673828125,-1.0302234888076782,0.7841976881027222,0.8430697321891785
1772810292470107000,7.04810693359375,-1.0864230394363403,0.6522508859634399,0.840320885181427
1772810292479806700,7.057806640625,-1.0861176252365112,0.6110175251960754,0.8259655237197876
1772810292489506600,7.067506591796875,-1.0427461862564087,0.6382009983062744,0.7923679947853088
1772810292499206700,7.07720654296875,-1.000596523284912,0.6061305999755859,0.6133846044540405
1772810292508906500,7.086906494140625,-1.0403027534484863,0.4390590488910675,0.21204642951488495
1772810292518606300,7.0966064453125,-1.1059707403182983,0.17608177661895752,-0.30291256308555603
1772810292528306400,7.106306396484375,-1.110857605934143,-0.09445496648550034,-0.6724857687950134
1772810292538006300,7.11600634765625,-1.0888664722442627,-0.32047492265701294,-0.6819541454315186
1772810292547706400,7.125706298828125,-1.1337649822235107,-0.8183297514915466,-0.6059014797210693
1772810292557406200,7.13540625,-1.1976003646850586,-1.175074815750122,-0.7628937363624573
1772810292567106300,7.145106201171875,-1.2617411613464355,-1.4908918142318726,-1.263192057609558
1772810292576806100,7.15480615234375,-1.2983931303024292,-1.6518547534942627,-1.9131520986557007
1772810292586506200,7.16450634765625,-1.2073742151260376,-1.3250420093536377,-2.39329195022583
1772810292596206000,7.1742060546875,-0.9676098227500916,-0.6427060961723328,-2.613508701324463
1772810292605906000,7.183906005859375,-0.6407971382141113,0.02977965772151947,-2.6526038646698
1772810292615606000,7.19360595703125,-0.27030766010284424,0.41554075479507446,-2.6296966075897217
1772810292625305900,7.203305908203125,0.10629047453403473,0.28237223625183105,-2.5588362216949463
1772810292635006000,7.213005859375,0.47006043791770935,-0.2917642891407013,-2.3105196952819824
1772810292644705800,7.222705810546875,0.8387173414230347,-0.8794162273406982,-1.851149320602417
1772810292654405600,7.232405517578125,1.2131774425506592,-1.2718968391418457,-1.3190860748291016
1772810292664105700,7.242105712890625,1.6129884719848633,-1.4930298328399658,-0.8484148383140564
1772810292673805600,7.2518056640625,2.0097451210021973,-1.58954656124115,-0.4495201110839844
1772810292683505700,7.261505615234375,2.30570912361145,-1.6008474826812744,-0.10651954263448715
1772810292693205500,7.27120556640625,2.391535520553589,-1.5944334268569946,0.17631085216999054
1772810292702905600,7.280905517578125,2.2901320457458496,-1.5208241939544678,0.3543779253959656
1772810292712605400,7.29060546875,2.0751075744628906,-1.331456184387207,0.32566729187965393
1772810292722305500,7.300305419921875,1.775783896446228,-1.03365957736969,0.03611737862229347
1772810292732005400,7.31000537109375,1.441640853881836,-0.6595048904418945,-0.46112653613090515
1772810292741705200,7.319705322265625,1.1139118671417236,-0.27282747626304626,-1.0521382093429565
1772810292751405300,7.3294052734375,0.8518509268760681,0.05940660089254379,-1.5722895860671997
1772810292761105200,7.339105224609375,0.721431314945221,0.3318522870540619,-1.8658101558685303
1772810292770805000,7.348804931640625,0.6957749724388123,0.5099193453788757,-1.8963533639907837
1772810292780505000,7.358505126953125,0.7079922556877136,0.6198750138282776,-1.7149264812469482
1772810292790205000,7.368204833984375,0.7021890878677368,0.5719221234321594,-1.3954442739486694
1772810292799904800,7.37790478515625,0.6646208763122559,0.37369653582572937,-0.983415961265564
1772810292809604900,7.38760498046875,0.6200277805328369,0.09728021919727325,-0.5341249108314514
1772810292819304700,7.3973046875,0.5494728684425354,-0.20654866099357605,-0.09094249457120895
1772810292829004800,7.4070048828125,0.46975502371788025,-0.43256860971450806,0.3073413372039795
1772810292838704600,7.41670458984375,0.40744680166244507,-0.5507709383964539,0.5907825827598572
1772810292848404700,7.42640478515625,0.3536907136440277,-0.533666729927063,0.7398335933685303
1772810292858104600,7.4361044921875,0.33505934476852417,-0.3314704895019531,0.7911462187767029
1772810292867804700,7.4458046875,0.36254823207855225,-0.033368486911058426,0.774042010307312
1772810292877504500,7.45550439453125,0.36682429909706116,0.2542724609375,0.7208967804908752
1772810292887204400,7.465204345703125,0.3326158821582794,0.4741837978363037,0.6897426843643188
1772810292896904400,7.474904541015625,0.2657261788845062,0.6024653911590576,0.7117338180541992
1772810292906604300,7.484604248046875,0.1737910360097885,0.6528617143630981,0.7630464434623718
1772810292916304400,7.494304443359375,0.08918625861406326,0.6522508859634399,0.8290198445320129
1772810292926004200,7.504004150390625,0.0030543238390237093,0.5710058808326721,0.9160680770874023
1772810292935704000,7.5137041015625,-0.09651663154363632,0.4604393243789673,1.0150282382965088
1772810292945404200,7.523404052734375,-0.19639302790164948,0.36392268538475037,1.099632978439331
1772810292955104000,7.53310400390625,-0.3078758418560028,0.2964221239089966,1.1585813760757446
1772810292964804000,7.54280419921875,-0.4263836145401001,0.2835939824581146,1.1854594945907593
1772810292974504000,7.55250390625,-0.5204567909240723,0.33368489146232605,1.1982876062393188
1772810292984203800,7.562203857421875,-0.6059778332710266,0.4130973219871521,1.2056180238723755
1772810292993903900,7.57190380859375,-0.7156280875205994,0.4757109582424164,1.236466646194458
1772810293003603700,7.581603759765625,-0.8359684348106384,0.5459604263305664,1.321376919746399
1772810293013303800,7.5913037109375,-0.9202677607536316,0.6046034097671509,1.4496585130691528
1772810293023003600,7.601003662109375,-0.9025527238845825,0.5920807123184204,1.5556435585021973
1772810293032703700,7.610703857421875,-0.7391464114189148,0.44241881370544434,1.599931240081787
1772810293042403600,7.620403564453125,-0.46914416551589966,0.0007635809597559273,1.5055526494979858
1772810293052103400,7.630103515625,-0.33047783374786377,-0.959134042263031,1.1069633960723877
1772810293071503400,7.64950341796875,-0.5439751148223877,-2.4328453540802,0.18272492289543152
1772810293081203500,7.659203369140625,-0.4257727563381195,-1.5754966735839844,0.249920055270195
1772810293090903300,7.6689033203125,-0.36285367608070374,-0.27374377846717834,0.3592648506164551
1772810293100603100,7.67860302734375,-0.46364638209342957,0.6824886798858643,0.2719111740589142
1772810293110303200,7.68830322265625,-0.5739074349403381,1.0908517837524414,0.0058795735239982605
1772810293120003000,7.698003173828125,-0.8191696405410767,0.9283617734909058,-0.3145190179347992
1772810293129703200,7.707703125,-0.8936951756477356,0.3969093859195709,-0.3698022663593292
1772810293139403000,7.717403076171875,-0.6178897023200989,-0.06696604937314987,0.04711294546723366
1772810293149103000,7.72710302734375,-0.2202167510986328,-0.32414013147354126,0.9795980453491211
1772810293158803000,7.736802978515625,0.1948658674955368,-0.4570032060146332,2.267911911010742
1772810293168502800,7.746502685546875,0.6044507026672363,-0.4398989975452423,3.5314855575561523
1772810293178203000,7.756202880859375,0.9382883310317993,-0.22548545897006989,4.410825729370117
1772810293187902700,7.76590283203125,1.1410953998565674,-0.0449749194085598,4.762072563171387
1772810293197602800,7.775602783203125,1.092226266860962,-0.15126539766788483,4.6945719718933105
1772810293207302700,7.785302734375,0.8298597931861877,-0.5217548608779907,4.341492176055908
1772810293217002500,7.79500244140625,0.6148353815078735,-0.8265764117240906,3.706803798675537
1772810293226702600,7.80470263671875,0.47525280714035034,-0.7505237460136414,2.8027238845825195
1772810293236402400,7.81440234375,0.2767217457294464,-0.36140286922454834,1.6814817190170288
1772810293246102300,7.824102294921875,0.07238747924566269,0.2551887631416321,0.48265954852104187
1772810293255802400,7.83380224609375,0.040317077189683914,0.9088140726089478,-0.5426769852638245
1772810293265502200,7.843502197265625,0.15729768574237823,1.2722786664962769,-1.2085195779800415
1772810293275202300,7.853202392578125,0.2254091054201126,1.1507165431976318,-1.3151155710220337
1772810293284902100,7.862902099609375,0.12675444781780243,0.8229875564575195,-0.8435279130935669
1772810293294602200,7.872602294921875,-0.08552107214927673,0.5105302333831787,-0.002061668550595641
1772810293304302000,7.882302001953125,-0.28588470816612244,0.5242747068405151,0.8916335105895996
1772810293314002200,7.892002197265625,-0.42363473773002625,0.799163818359375,1.609399676322937
1772810293323702000,7.901701904296875,-0.4783071279525757,1.0865757465362549,2.1072545051574707
1772810293333401900,7.91140185546875,-0.5097666382789612,1.1766782999038696,2.376645803451538
1772810293343102000,7.92110205078125,-0.5616901516914368,0.9763146042823792,2.4117705821990967
1772810293352801800,7.9308017578125,-0.6230821013450623,0.551152765750885,2.2190427780151367
1772810293362502000,7.940501953125,-0.6456840634346008,0.13393209874629974,1.8109849691390991
1772810293372201700,7.95020166015625,-0.6032289862632751,-0.03520108386874199,1.292360782623291
1772810293391601700,7.9696015625,-0.43463030457496643,0.28328853845596313,0.5807033181190491
1772810293401301500,7.979301513671875,-0.4276053309440613,0.46776971220970154,0.5483275055885315
1772810293411001300,7.98900146484375,-0.45967575907707214,0.5850557684898376,0.7306706309318542
1772810293420701400,7.998701416015625,-0.5112938284873962,0.6107884049415588,1.023885726928711
1772810293430401300,8.0084013671875,-0.5558869242668152,0.546953022480011,1.3079378604888916
1772810293440101400,8.018101318359374,-0.5510000586509705,0.43081238865852356,1.5086069107055664
1772810293449801200,8.02780126953125,-0.5106829404830933,0.28725916147232056,1.591379165649414
1772810293459501300,8.037501220703126,-0.467006117105484,0.15836669504642487,1.551061987876892
1772810293469201200,8.047201171875,-0.4422661066055298,0.07864884287118912,1.4007892608642578
1772810293478901000,8.05690087890625,-0.4459312856197357,0.03741546720266342,1.1711041927337646
1772810293488601000,8.06660107421875,-0.46364638209342957,0.03588830679655075,0.8931606411933899
1772810293498301000,8.076301025390626,-0.47952884435653687,0.11927134543657303,0.6054433584213257
1772810293508001000,8.0860009765625,-0.4862483739852905,0.28848087787628174,0.3174206018447876
1772810293517700900,8.095700927734375,-0.476779967546463,0.4610501825809479,0.044669486582279205
1772810293527401000,8.10540087890625,-0.4663952589035034,0.5792525410652161,-0.1908188909292221
1772810293537100800,8.115100830078125,-0.4523453712463379,0.6284271478652954,-0.3609447181224823
1772810293556500700,8.134500732421875,-0.3539961278438568,0.5835285782814026,-0.5161044001579285
1772810293566200600,8.14420068359375,-0.29535311460494995,0.5117519497871399,-0.549091100692749
1772810293575900400,8.153900390625,-0.2461785078048706,0.42653632164001465,-0.5686387419700623
1772810293585600500,8.1636005859375,-0.19608759880065918,0.3614792227745056,-0.566500723361969
1772810293595300400,8.17330029296875,-0.15546508133411407,0.33887723088264465,-0.549091100692749
1772810293605000400,8.18300048828125,-0.12370011955499649,0.3153589367866516,-0.5243510603904724
1772810293614700300,8.1927001953125,-0.06383536756038666,0.2854265570640564,-0.4797579348087311
1772810293624400100,8.202400146484376,0.06383536756038666,0.3410152494907379,-0.40004006028175354
1772810293634100200,8.212100341796875,0.2107483446598053,0.47845983505249023,-0.2943604588508606
1772810293643800000,8.221800048828126,0.3023780584335327,0.6052142977714539,-0.20456334948539734
1772810293653500200,8.231500244140625,0.3228420317173004,0.6974548697471619,-0.13125957548618317
1772810293663200000,8.241199951171875,0.29596397280693054,0.8437569737434387,-0.030161447823047638
1772810293672900000,8.250900146484375,0.2761108875274658,1.0041090250015259,0.02848157100379467
1772810293682600000,8.260599853515625,0.40378162264823914,1.0019710063934326,-0.13889537751674652
1772810293692299800,8.2702998046875,0.6814196705818176,0.7481566667556763,-0.6767618060112
1772810293701999900,8.279999755859375,0.9850194454193115,0.3975202441215515,-1.4440079927444458
1772810293711699700,8.28969970703125,1.1908808946609497,0.09972367435693741,-2.2219443321228027
1772810293721399800,8.29939990234375,1.0891718864440918,-0.21601705253124237,-2.9705591201782227
1772810293731099600,8.309099609375,0.7632755637168884,-0.2969566285610199,-3.538357973098755
1772810293740799500,8.318799560546875,0.40958482027053833,-0.36628979444503784,-4.2946085929870605
1772810293750499600,8.32849951171875,0.09407317638397217,-0.10056361556053162,-4.999851703643799
1772810293760199400,8.338199462890625,-0.012217295356094837,0.6882919073104858,-5.067047119140625
1772810293769899300,8.347899169921876,-0.06505709886550903,1.6119194030761719,-4.372188091278076
1772810293779599400,8.357599365234375,-0.21197007596492767,1.9900447130203247,-3.0450844764709473
1772810293789299200,8.36729931640625,-0.22754712402820587,1.4924954175949097,-1.446146011352539
1772810293798999300,8.376999267578125,-0.05955931544303894,0.44577857851982117,0.06635518372058868
1772810293808699100,8.38669921875,0.1798996776342392,-0.6668352484703064,1.2215005159378052
1772810293818399200,8.396399169921875,0.3894262909889221,-1.522962212562561,1.9181917905807495
1772810293828099000,8.40609912109375,0.5476402640342712,-2.0290637016296387,2.1478769779205322
1772810293837799200,8.415799072265624,0.6298015713691711,-2.051971197128296,1.9667555093765259
1772810293847499000,8.4254990234375,0.6200277805328369,-1.560530424118042,1.466762661933899
1772810293857198800,8.43519873046875,0.536339282989502,-0.7880918979644775,0.820162296295166
1772810293866899000,8.44489892578125,0.4105011224746704,-0.05543597787618637,0.22823435068130493
1772810293876598800,8.454598876953124,0.3246746361255646,0.39965829253196716,-0.1712712198495865
1772810293886298600,8.464298583984375,0.30085089802742004,0.5291616320610046,-0.3093266487121582
1772810293895998700,8.473998779296876,0.3173442482948303,0.4039343297481537,-0.2121991515159607
1772810293905698600,8.483698486328125,0.3436114490032196,0.12140937149524689,0.037033677101135254
1772810293915398700,8.493398681640626,0.2935205399990082,-0.21174100041389465,0.30428701639175415
1772810293925098500,8.503098388671875,0.14141519367694855,-0.5269472599029541,0.4554760456085205
1772810293934798300,8.51279833984375,-0.0461202897131443,-0.765489935874939,0.41179922223091125
1772810293944498400,8.52249853515625,-0.2052505612373352,-0.7993929386138916,0.19188790023326874
1772810293954198300,8.5321982421875,-0.33322674036026,-0.6164389252662659,-0.145614892244339
1772810293963898000,8.541898193359375,-0.4459312856197357,-0.3543779253959656,-0.520991325378418
1772810293973598200,8.55159814453125,-0.5690205693244934,-0.08804088830947876,-0.8310051560401917
1772810293983298000,8.561298095703124,-0.7003564834594727,0.17027856409549713,-1.0390046834945679
1772810293992998100,8.570998046875,-0.8005383014678955,0.3975202441215515,-1.1532363891601562
1772810294002698000,8.580697998046874,-0.8265000581741333,0.5621483325958252,-1.1733949184417725
1772810294012398000,8.590398193359375,-0.7889318466186523,0.5655080676078796,-1.103450894355774
1772810294022098000,8.600097900390624,-0.7189878225326538,0.40637779235839844,-0.9256892204284668
1772810294031798000,8.609798095703125,-0.6575959324836731,0.18616104125976562,-0.6734020709991455
1772810294041497900,8.619497802734376,-0.6359102129936218,-0.019624030217528343,-0.42600181698799133
1772810294051197700,8.62919775390625,-0.6374374032020569,-0.1320231556892395,-0.2635118067264557
1772810294060897800,8.638897705078126,-0.6499601006507874,-0.12591449916362762,-0.2164752036333084
1772810294070597600,8.64859765625,-0.648127555847168,-0.05047270283102989,-0.2790888547897339
1772810294080297700,8.658297607421876,-0.6267472505569458,0.09178243577480316,-0.4223366379737854
1772810294089997600,8.66799755859375,-0.600785493850708,0.29703301191329956,-0.5933787822723389
1772810294099697400,8.677697509765625,-0.5861247777938843,0.46257734298706055,-0.761366605758667
1772810294109397500,8.6873974609375,-0.5934551358222961,0.5429824590682983,-0.87254399061203
1772810294119097300,8.697097412109375,-0.6233875155448914,0.5710058808326721,-0.9073632955551147
1772810294128797200,8.706797119140624,-0.6588176488876343,0.5682569742202759,-0.8829286694526672
1772810294138497300,8.716497314453125,-0.648127555847168,0.5441278219223022,-0.8111520409584045
1772810294148197000,8.726197021484374,-0.5797106623649597,0.5172497630119324,-0.7005855441093445
1772810294157897000,8.73589697265625,-0.4880809485912323,0.46746426820755005,-0.5741365551948547
1772810294167597000,8.74559716796875,-0.45937031507492065,0.34376415610313416,-0.4482983946800232
1772810294177297000,8.755296875,-0.46364638209342957,0.17119485139846802,-0.29741477966308594
1772810294186997000,8.7649970703125,-0.4108065664768219,0.0798705667257309,-0.11812597513198853
1772810294196696800,8.77469677734375,-0.2788597643375397,0.18524473905563354,0.034895651042461395
1772810294206397000,8.78439697265625,-0.13011419773101807,0.2179260104894638,0.011682788841426373
1772810294216096800,8.7940966796875,-0.11606431007385254,-0.4756345748901367,-0.3862956166267395
1772810294225796900,8.803796875,-0.20402882993221283,-1.6124539375305176,-1.039310097694397
1772810294235496700,8.81349658203125,-0.2055560052394867,-2.1432955265045166,-1.640095591545105
1772810294245196500,8.823196533203125,-0.16768237948417664,-1.707137942314148,-2.00172758102417
1772810294254896600,8.832896728515625,-0.13103049993515015,-0.5831468105316162,-2.0371577739715576
1772810294264596500,8.842596435546875,-0.03176496922969818,0.7283035516738892,-1.6981277465820312
1772810294274296600,8.852296630859374,0.07269290834665298,1.4607304334640503,-1.131550669670105
1772810294283996400,8.861996337890625,0.05589412897825241,1.4246894121170044,-0.5283216834068298
1772810294293696300,8.8716962890625,-0.10903936624526978,0.585972011089325,-0.020693045109510422
1772810294303396400,8.881396240234375,-0.26022839546203613,-0.6335431337356567,0.35040730237960815
1772810294313096200,8.89109619140625,-0.15790854394435883,-1.3998730182647705,0.6008618474006653
1772810294322796000,8.900796142578125,0.1182023361325264,-1.3219877481460571,0.8232166767120361
1772810294332496100,8.91049609375,0.3084867000579834,-0.8024472594261169,1.0486257076263428
1772810294342196000,8.920196044921875,0.28985533118247986,-0.23709189891815186,1.285335898399353
1772810294351896000,8.92989599609375,0.2614501118659973,0.33887723088264465,1.616729974746704
1772810294361596000,8.939595947265625,0.26542073488235474,0.7090612649917603,1.9154428243637085
1772810294371295700,8.949295654296876,0.31581708788871765,0.6375901103019714,2.0486114025115967
1772810294380995800,8.958995849609375,0.43921178579330444,0.25182899832725525,2.0336451530456543
1772810294390695700,8.96869580078125,0.5784889459609985,-0.4032471179962158,1.9493458271026611
1772810294400395800,8.978395751953125,0.695164144039154,-1.0150282382965088,1.774333119392395
1772810294410095600,8.988095703125,0.8457422852516174,-1.3045780658721924,1.5034146308898926
1772810294419795500,8.99779541015625,1.0060943365097046,-1.3476440906524658,1.1646900177001953
1772810294429495600,9.00749560546875,1.100778341293335,-1.2227221727371216,0.8088613152503967
1772810294439195400,9.0171953125,1.0696241855621338,-0.9493602514266968,0.4450913369655609
1772810294448895500,9.0268955078125,0.7886264324188232,-0.48907360434532166,0.1631772518157959
1772810294458595300,9.03659521484375,0.35643959045410156,0.036804601550102234,0.0016035200096666813
1772810294468295400,9.04629541015625,-0.05742128938436508,0.5319104790687561,-0.05826122686266899
1772810294477995300,9.055995361328126,-0.4248564541339874,0.7588467597961426,-0.008170315995812416
1772810294487695000,9.065695068359375,-0.6068941354751587,0.7765618562698364,0.11003202199935913
1772810294497395200,9.075395263671876,-0.5555815100669861,0.46776971220970154,0.13446660339832306
1772810294507095000,9.085094970703125,-0.31551164388656616,0.30894485116004944,0.2804632782936096
1772810294516795000,9.094794921875,0.007635809946805239,0.1464548259973526,0.6057487726211548
1772810294526495000,9.104494873046875,0.22907429933547974,-0.08498656004667282,1.0577887296676636
1772810294536194800,9.11419482421875,0.3042106628417969,-0.30917394161224365,1.4743984937667847
1772810294545895000,9.12389501953125,0.28557929396629333,-0.5278635025024414,1.7031673192977905
1772810294555594800,9.1335947265625,0.24892739951610565,-0.7184533476829529,1.6949206590652466
1772810294565294600,9.143294677734374,0.2367101013660431,-0.7703768610954285,1.4606540203094482
1772810294574994700,9.15299462890625,0.2522871494293213,-0.6277399063110352,1.0501528978347778
1772810294584694500,9.162694580078124,0.29413139820098877,-0.29817837476730347,0.5312232971191406
1772810294594394400,9.172394287109375,0.31093016266822815,0.12018764764070511,-0.008781181648373604
1772810294604094500,9.182094482421874,0.27091851830482483,0.4851793646812439,-0.4473820924758911
1772810294613794300,9.191794189453125,0.27000224590301514,0.8452841639518738,-0.6562978625297546
1772810294623494400,9.201494384765626,0.31551164388656616,1.218522548675537,-0.6370556354522705
1772810294633194200,9.2111943359375,0.3338375985622406,1.4442371129989624,-0.4339430630207062
1772810294642894000,9.22089404296875,0.3231474757194519,1.4051417112350464,-0.08422297984361649
1772810294652594200,9.23059423828125,0.2565632164478302,1.1552979946136475,0.2954294681549072
1772810294662294000,9.2402939453125,0.1383608728647232,0.9671516418457031,0.5486329197883606
1772810294671994000,9.249994140625,0.08674279600381851,0.7591522336006165,0.7236456871032715
1772810294681694000,9.25969384765625,0.03023780696094036,0.6003273725509644,0.8931606411933899
1772810294691394000,9.26939404296875,-0.05955931544303894,0.41187557578086853,0.9624938368797302
1772810294701094000,9.279093994140625,-0.1698204129934311,0.2893971800804138,0.8879683017730713
1772810294710793700,9.288793701171874,-0.20402882993221283,0.25152358412742615,0.6989056468009949
1772810294720493800,9.298493896484375,-0.20280711352825165,0.30894485116004944,0.3950004279613495
1772810294730193700,9.308193603515624,-0.16279546916484833,0.5172497630119324,0.051389001309871674
1772810294739893800,9.317893798828125,-0.19303326308727264,0.5219075679779053,-0.07353284955024719
1772810294749593600,9.327593505859374,-0.23457208275794983,-0.03252854943275452,0.12591449916362762
1772810294759293400,9.33729345703125,-0.24281874299049377,-0.8745293021202087,0.6573668718338013
1772810294768993500,9.34699365234375,-0.537255585193634,-0.895604133605957,1.0901645421981812
1772810294778693400,9.356693359375,-0.8188642263412476,-0.56298828125,1.2019528150558472
1772810294788393200,9.366393310546876,-0.9639446139335632,-0.1784488707780838,0.9524145722389221
1772810294798093300,9.37609326171875,-1.0965023040771484,-0.025121813639998436,0.6613374948501587
1772810294807793200,9.385793212890626,-1.3106104135513306,-0.22304199635982513,0.4053851366043091
1772810294817493200,9.3954931640625,-1.0519092082977295,-0.6784417033195496,0.19555309414863586
1772810294827193000,9.405193115234376,-0.41263917088508606,-0.5312232971191406,-0.320933073759079
1772810294836893000,9.414892822265625,0.04978547990322113,0.7466294765472412,-1.0060179233551025
1772810294846593000,9.424593017578125,0.389120876789093,1.6904155015945435,-1.6431498527526855
1772810294856292900,9.43429296875,0.47097674012184143,2.1332924365997314,-1.759214162826538
1772810294865992700,9.44399267578125,0.4725039005279541,1.9863795042037964,-1.4687479734420776
1772810294875692800,9.45369287109375,0.6154462695121765,1.4366012811660767,-1.0832923650741577
1772810294885392600,9.463392578125,0.702799916267395,0.36453354358673096,-0.991968035697937
1772810294895092700,9.4730927734375,0.6673697829246521,-0.5455785989761353,-1.2521964311599731
1772810294904792600,9.48279248046875,0.5836812853813171,-0.9585232138633728,-1.538081169128418
1772810294914492700,9.49249267578125,0.472198486328125,-1.1628574132919312,-1.6492584943771362
1772810294924192500,9.502192626953125,0.33689191937446594,-1.331456184387207,-1.6446770429611206
1772810294933892400,9.511892333984376,0.14538581669330597,-1.4618757963180542,-1.582674264907837
1772810294943592400,9.521592529296875,0.000610864779446274,-1.3540581464767456,-1.4980695247650146
1772810294953292300,9.531292236328126,-0.049480047076940536,-0.9838740825653076,-1.4204896688461304
1772810294962992400,9.540992431640625,0.000610864779446274,-0.5477166175842285,-1.370398759841919
1772810294972692200,9.550692138671875,0.09865466505289078,-0.09720385819673538,-1.3670389652252197
1772810294982392000,9.56039208984375,0.1698204129934311,0.1314886510372162,-1.4235440492630005
1772810294992092200,9.570092041015625,0.20738859474658966,0.005421424750238657,-1.4327069520950317
1772810295001792000,9.5797919921875,0.25442516803741455,-0.33941173553466797,-1.3371065855026245
1772810295011492000,9.5894921875,0.3274235129356384,-0.6237692832946777,-1.1437679529190063
1772810295021192000,9.59919189453125,0.383928507566452,-0.7887027859687805,-0.9201914072036743
1772810295030891800,9.608891845703125,0.3857611119747162,-0.8464295268058777,-0.6831759214401245
1772810295040592000,9.618591796875,0.3271180987358093,-0.7801506519317627,-0.43974629044532776
1772810295050291700,9.628291748046875,0.23457208275794983,-0.6121628880500793,-0.23480114340782166
1772810295059991600,9.637991455078126,0.13683371245861053,-0.42340564727783203,-0.08575014024972916
1772810295069691600,9.647691650390625,0.05497783049941063,-0.27771440148353577,0.028787001967430115
1772810295079391500,9.6573916015625,-0.010995565913617611,-0.1995237022638321,0.10483966767787933
1772810295089091600,9.667091552734375,-0.08765909820795059,-0.16562071442604065,0.1527925580739975
1772810295098791400,9.67679150390625,-0.14141519367694855,-0.1573740392923355,0.17539454996585846
1772810295108491300,9.6864912109375,-0.17287473380565643,-0.20746494829654694,0.18639011681079865
1772810295118191400,9.69619140625,-0.18234314024448395,-0.27832525968551636,0.20349432528018951
1772810295127891200,9.70589111328125,-0.18570289015769958,-0.3220020830631256,0.2346484363079071
1772810295137591000,9.715591064453125,-0.18753549456596375,-0.367511510848999,0.2969566285610199
1772810295147291100,9.725291015625,-0.16615521907806396,-0.3895026445388794,0.37056586146354675
1772810295156991000,9.734990966796875,-0.16646064817905426,-0.41729700565338135,0.4237110912799835
1772810295166691000,9.744691162109374,-0.19608759880065918,-0.43317949771881104,0.464944452047348
1772810295176391000,9.754390869140625,-0.26480987668037415,-0.43195775151252747,0.4964039921760559
1772810295186091000,9.764091064453124,-0.3637699782848358,-0.37117671966552734,0.45730865001678467
1772810295195790800,9.773790771484375,-0.4557051360607147,-0.2514472007751465,0.3055087625980377
1772810295205490700,9.78349072265625,-0.5137372612953186,-0.09414953738451004,0.08009964227676392
1772810295215190800,9.793190673828125,-0.5491674542427063,0.03405570983886719,-0.15447242558002472
1772810295224890600,9.802890625,-0.5845975875854492,0.036193739622831345,-0.28061601519584656
1772810295234590700,9.8125908203125,-0.6075050234794617,-0.04864010959863663,-0.3245982825756073
1772810295244290600,9.82229052734375,-0.6496546864509583,-0.07307469844818115,-0.3713294267654419
1772810295253990400,9.831990478515625,-0.674700140953064,-0.13355031609535217,-0.3618610203266144
1772810295263690500,9.8416904296875,-0.68386310338974,-0.17050762474536896,-0.42050403356552124
1772810295273390300,9.851390380859375,-0.6780598759651184,-0.15370884537696838,-0.5368737578392029
1772810295283090400,9.86109033203125,-0.6423243284225464,-0.08865175396203995,-0.7088322043418884
1772810295292790300,9.870790283203124,-0.582459568977356,0.016646064817905426,-0.9156099557876587
1772810295302490000,9.880489990234375,-0.4975493550300598,0.16875138878822327,-1.0851249694824219
