time,seconds_elapsed,z,y,x
1772811898115131400,0.09013134765625,0,0,0
1772811898124832300,0.099832275390625,-0.1966691017150879,0.21544456481933594,-0.06288468837738037
1772811898134533000,0.109533203125,-0.7555708885192871,-0.591524600982666,0.08393371105194092
1772811898153934800,0.128934814453125,-1.5724444389343262,-1.4254391193389893,0.3210477828979492
1772811898163635700,0.1386357421875,-0.39623355865478516,-1.6795437335968018,0.36328914761543274
1772811898173336600,0.148336669921875,-0.6801533699035645,-1.409343957901001,-0.10653980076313019
1772811898183037400,0.158037353515625,-0.8968873023986816,-0.6870629787445068,-0.014351904392242432
1772811898192738300,0.16773828125,-0.05401420593261719,0.7305538654327393,-0.0160883367061615
1772811898202439200,0.177439208984375,0.3633232116699219,0.8521518707275391,0.9056459069252014
1772811898212140000,0.18714013671875,1.123828411102295,0.33924436569213867,0.8845800161361694
1772811898221841000,0.1968408203125,1.4025559425354004,-1.1304197311401367,0.6206712126731873
1772811898231541800,0.206541748046875,1.3669562339782715,-2.5627875328063965,0.3647555112838745
1772811898241242600,0.21624267578125,0.7018566131591797,-3.6836700439453125,0.06822216510772705
1772811898250943500,0.225943603515625,1.2339892387390137,-3.507896900177002,-0.07295727729797363
1772811898260644400,0.235644287109375,1.9453587532043457,-2.534296989440918,-0.12073773145675659
1772811898270345200,0.24534521484375,1.4074172973632812,-1.5137205123901367,-0.2905270457267761
1772811898280046000,0.255046142578125,0.8493103981018066,-0.6688554286956787,-0.5204896330833435
1772811898289747000,0.264746826171875,0.4118809700012207,-0.10128283500671387,-0.6915760040283203
1772811898299447800,0.27444775390625,0.13496112823486328,0.00893712043762207,-0.9114119410514832
1772811898309148700,0.284148681640625,-2.553377866744995,-0.06443357467651367,-0.9183565378189087
1772811898318849500,0.293849609375,-3.2479231357574463,-0.6923599243164062,-0.3462531566619873
1772811898328550400,0.30355029296875,-1.1679883003234863,-1.3008384704589844,0.27146971225738525
1772811898338251300,0.313251220703125,0.9218125343322754,-1.3102532625198364,0.5732345581054688
1772811898347952000,0.3229521484375,4.628957748413086,-0.10586965084075928,0.8346461653709412
1772811898357653000,0.332653076171875,5.982093811035156,0.5308557748794556,1.548600435256958
1772811898367353900,0.342353759765625,5.874753952026367,0.588900089263916,2.5305607318878174
1772811898377054700,0.3520546875,6.579788684844971,0.913833498954773,3.140176773071289
1772811898386755600,0.361755615234375,8.571643829345703,2.017622709274292,2.254810333251953
1772811898396456400,0.37145654296875,11.373697280883789,2.504197120666504,0.9925355911254883
1772811898406157300,0.3811572265625,14.504573822021484,0.24605107307434082,1.6919087171554565
1772811898415858200,0.390858154296875,17.49292755126953,-1.4455091953277588,2.9613208770751953
1772811898425559000,0.40055908203125,19.112468719482422,-1.6389046907424927,3.45554256439209
1772811898435260000,0.410260009765625,19.214397430419922,-0.5679416656494141,3.5667355060577393
1772811898444960800,0.419960693359375,19.625530242919922,-0.11935019493103027,4.304617881774902
1772811898454661600,0.42966162109375,20.05200958251953,0.040148258209228516,5.00174617767334
1772811898464362500,0.439362548828125,19.40456771850586,0.6125967502593994,5.209654808044434
1772811898474063400,0.4490634765625,18.018980026245117,1.4884594678878784,4.35623836517334
1772811898483764200,0.45876416015625,16.628036499023438,1.8041867017745972,3.257172107696533
1772811898493465000,0.468465087890625,15.173653602600098,1.5180102586746216,2.3425817489624023
1772811898503166000,0.478166015625,13.866397857666016,1.0996330976486206,1.3148860931396484
1772811898512866800,0.48786669921875,12.212934494018555,0.5469233989715576,0.6262631416320801
1772811898522567700,0.497567626953125,7.901104927062988,-1.5237863063812256,1.6181139945983887
1772811898532268500,0.5072685546875,5.566010475158691,0.6188092231750488,0.7984180450439453
1772811898541969400,0.516969482421875,-0.16166114807128906,3.5904955863952637,0.9398260116577148
1772811898551670300,0.526670166015625,-4.366970062255859,3.6809897422790527,1.7094016075134277
1772811898561371100,0.53637109375,-6.911860466003418,3.9371440410614014,1.9276819229125977
1772811898571072000,0.546072021484375,-7.477189064025879,4.437089920043945,1.7947196960449219
1772811898580772900,0.55577294921875,-7.899568557739258,3.841862916946411,1.3861675262451172
1772811898590473700,0.5654736328125,-8.585285186767578,3.04486346244812,0.5028886795043945
1772811898600174600,0.575174560546875,-9.252108573913574,3.0499181747436523,-0.7702069282531738
1772811898609875500,0.58487548828125,-9.150513648986816,3.006618022918701,-2.086056709289551
1772811898619576300,0.594576416015625,-8.551372528076172,2.5091052055358887,-3.1250133514404297
1772811898629277200,0.604277099609375,-7.75406551361084,2.162080764770508,-3.876749038696289
1772811898638978000,0.61397802734375,-7.129195213317871,1.7402656078338623,-4.344264984130859
1772811898648679000,0.623678955078125,-6.941667079925537,1.4458340406417847,-4.550677299499512
1772811898658379800,0.6333798828125,-6.722281455993652,1.316192865371704,-4.70706033706665
1772811898668080600,0.64308056640625,-6.763598442077637,1.3720219135284424,-4.574249744415283
1772811898677781500,0.652781494140625,-8.569615364074707,0.9384821653366089,-4.105968952178955
1772811898687482400,0.662482421875,-8.359476089477539,0.7541981935501099,-3.954318046569824
1772811898697183200,0.672183349609375,-8.361074447631836,0.37586092948913574,-3.598208427429199
1772811898706884000,0.681884033203125,-8.703038215637207,-0.19542372226715088,-3.2734131813049316
1772811898716585000,0.6915849609375,-9.148716926574707,-0.5068645477294922,-3.121192693710327
1772811898726285800,0.701285888671875,-9.367867469787598,-0.5035860538482666,-3.1343610286712646
1772811898735986700,0.710986572265625,-9.553719520568848,-0.5216226577758789,-3.3723907470703125
1772811898745687600,0.7206875,-9.77602767944336,-0.6370890140533447,-3.814967393875122
1772811898755388400,0.730388427734375,-9.751676559448242,-0.7918792963027954,-4.0442986488342285
1772811898765089300,0.74008935546875,-9.622020721435547,-0.9491546154022217,-4.1759562492370605
1772811898774790100,0.7497900390625,-9.541808128356934,-1.2059681415557861,-4.223081588745117
1772811898784491000,0.759490966796875,-9.48244857788086,-1.5189952850341797,-4.087649822235107
1772811898794192000,0.76919189453125,-9.215865135192871,-1.733065128326416,-3.795316219329834
1772811898803892700,0.778892822265625,-8.886848449707031,-1.8274123668670654,-3.5328311920166016
1772811898813593600,0.788593505859375,-8.533164024353027,-1.9169683456420898,-3.242241144180298
1772811898823294500,0.79829443359375,-8.212579727172852,-2.0586776733398438,-2.881981372833252
1772811898832995300,0.807995361328125,-7.919677257537842,-2.2712368965148926,-2.5241897106170654
1772811898842696200,0.8176962890625,-7.594586372375488,-2.4894163608551025,-2.334388256072998
1772811898852396800,0.827396728515625,-7.308238983154297,-2.677790641784668,-2.2836966514587402
1772811898862098000,0.837097900390625,-6.834214210510254,-2.9869391918182373,-2.1746139526367188
1772811898871798800,0.846798828125,-6.478777885437012,-3.1572928428649902,-2.1788179874420166
1772811898881499600,0.856499755859375,-6.1353840827941895,-3.3376729488372803,-2.2192487716674805
1772811898891200500,0.866200439453125,-5.722572326660156,-3.5223381519317627,-2.194744825363159
1772811898900901400,0.8759013671875,-5.278714179992676,-3.640887498855591,-2.192711591720581
1772811898910602200,0.885602294921875,-4.951425552368164,-3.652869701385498,-2.237377882003784
1772811898920302800,0.895302734375,-4.675863265991211,-3.3642971515655518,-2.3616514205932617
1772811898930004000,0.90500390625,-4.387304306030273,-2.885436773300171,-2.3960611820220947
1772811898939704800,0.914704833984375,-3.6830506324768066,-2.145984649658203,-2.4560818672180176
1772811898949405400,0.924405517578125,-2.3484768867492676,-1.482896089553833,-2.3644368648529053
1772811898959106300,0.934106201171875,-0.08027505874633789,-0.4857971668243408,-2.1848902702331543
1772811898968807400,0.943807373046875,3.2404589653015137,1.2721436023712158,-1.5400294065475464
1772811898978508300,0.95350830078125,7.40731954574585,2.993678569793701,-0.04430651664733887
1772811898988209000,0.963208984375,12.169193267822266,3.1136698722839355,2.9331676959991455
1772811898997910000,0.972909912109375,15.725160598754883,0.12216567993164062,7.840882301330566
1772811899007611000,0.98261083984375,18.949134826660156,-1.8797236680984497,12.423395156860352
1772811899017311500,0.9923115234375,22.153186798095703,-3.340470314025879,16.394493103027344
1772811899027012400,1.002012451171875,23.1568660736084,-5.29064416885376,19.003286361694336
1772811899036713500,1.01171337890625,22.145217895507812,-5.672641277313232,18.092731475830078
1772811899046414300,1.021414306640625,21.421829223632812,-4.366284370422363,13.515483856201172
1772811899056115000,1.031114990234375,19.639301300048828,-2.6895432472229004,8.251311302185059
1772811899065815800,1.04081591796875,17.26962661743164,-1.526355504989624,4.2669196128845215
1772811899075517000,1.050516845703125,15.327322959899902,-0.16641294956207275,1.741351842880249
1772811899085217500,1.060217529296875,13.225271224975586,1.716007947921753,-0.13896584510803223
1772811899094918400,1.06991845703125,10.952194213867188,3.5391135215759277,-1.2874031066894531
1772811899104619500,1.07961962890625,8.723546981811523,4.482426166534424,-1.2813105583190918
1772811899114320100,1.089320068359375,6.626432418823242,4.5887017250061035,-0.23051118850708008
1772811899124021000,1.09902099609375,4.328699111938477,4.279031276702881,1.054945707321167
1772811899133721900,1.108721923828125,1.886678695678711,4.170692443847656,1.9987668991088867
1772811899143423000,1.118423095703125,-0.21917724609375,4.1573486328125,2.4891066551208496
1772811899153123600,1.12812353515625,-2.0476560592651367,4.199759483337402,2.5157830715179443
1772811899162824400,1.137824462890625,-3.8867177963256836,4.165533065795898,2.0600409507751465
1772811899172525300,1.147525390625,-5.437099456787109,3.9648337364196777,1.3012351989746094
1772811899182226200,1.15722607421875,-6.546778678894043,3.5508944988250732,0.3592498302459717
1772811899191927000,1.166927001953125,-7.344876289367676,3.067707061767578,-0.6662204265594482
1772811899201628000,1.1766279296875,-7.937255859375,2.5821352005004883,-1.5940091609954834
1772811899211328800,1.186328857421875,-8.3511323928833,2.0257351398468018,-2.3728950023651123
1772811899221029600,1.196029541015625,-8.661844253540039,1.5802544355392456,-3.057471513748169
1772811899230730500,1.20573046875,-9.08733081817627,1.2216793298721313,-3.5348823070526123
1772811899240431400,1.215431396484375,-9.69318675994873,0.9437140226364136,-3.788684844970703
1772811899250132200,1.22513232421875,-10.296619415283203,0.6469881534576416,-3.916475296020508
1772811899259833000,1.2348330078125,-10.952760696411133,0.2012242078781128,-3.8037474155426025
1772811899269534000,1.244533935546875,-11.475872993469238,-0.2539973258972168,-3.5807406902313232
1772811899279234800,1.25423486328125,-11.744707107543945,-0.6937469244003296,-3.2908201217651367
1772811899288935700,1.263935791015625,-11.915242195129395,-1.077700138092041,-3.020756483078003
1772811899298636500,1.273636474609375,-12.186379432678223,-1.280501365661621,-2.8172192573547363
1772811899308337400,1.28333740234375,-12.277828216552734,-1.5083850622177124,-2.700976610183716
1772811899318038300,1.293038330078125,-12.20508861541748,-1.7578864097595215,-2.671132802963257
1772811899327739100,1.3027392578125,-12.036811828613281,-1.8136913776397705,-2.750828981399536
1772811899337440000,1.31243994140625,-11.673421859741211,-2.0156030654907227,-2.618364095687866
1772811899347140900,1.322140869140625,-11.036606788635254,-2.3391876220703125,-2.6162941455841064
1772811899356841700,1.331841796875,-10.317004203796387,-2.557438373565674,-2.6316161155700684
1772811899366542600,1.34154248046875,-9.462440490722656,-2.6037092208862305,-2.66776180267334
1772811899376243500,1.351243408203125,-8.514151573181152,-2.6204071044921875,-2.614119529724121
1772811899385944300,1.3609443359375,-7.631998062133789,-2.687905788421631,-2.449667453765869
1772811899395645200,1.370645263671875,-6.956380844116211,-2.609590530395508,-2.3220608234405518
1772811899405346000,1.380345947265625,-6.3613080978393555,-2.548564910888672,-2.3100132942199707
1772811899415047000,1.390046875,-5.793141841888428,-2.562403440475464,-2.257157802581787
1772811899424747800,1.399747802734375,-5.643711090087891,-2.287311315536499,-2.444131851196289
1772811899434448600,1.40944873046875,-5.476073265075684,-1.7141501903533936,-2.619795322418213
1772811899444149500,1.4191494140625,-4.251640319824219,-0.9984641075134277,-2.386538505554199
1772811899453850400,1.428850341796875,-1.064558506011963,-0.4228973388671875,-1.6070367097854614
1772811899463551200,1.43855126953125,2.8152551651000977,0.3483126163482666,0.05944323539733887
1772811899473252000,1.448252197265625,6.753593444824219,1.1316742897033691,2.8926279544830322
1772811899482953000,1.457952880859375,12.324944496154785,0.5383453369140625,6.761358261108398
1772811899492653800,1.46765380859375,18.459850311279297,-1.533199429512024,11.56905746459961
1772811899502354700,1.477354736328125,24.646625518798828,-3.624228000640869,16.38920021057129
1772811899512055600,1.4870556640625,30.500343322753906,-5.68436336517334,20.679288864135742
1772811899521756400,1.49675634765625,34.258949279785156,-6.355092525482178,22.213512420654297
1772811899531457300,1.506457275390625,35.3264274597168,-4.89636754989624,19.959644317626953
1772811899541158100,1.516158203125,34.16288375854492,-2.9485669136047363,16.005935668945312
1772811899550859000,1.52585888671875,31.466970443725586,-1.1506484746932983,12.298776626586914
1772811899560559900,1.535559814453125,28.14232635498047,0.8545953631401062,9.79251480102539
1772811899570260700,1.5452607421875,24.524616241455078,2.9272732734680176,8.145645141601562
1772811899579961600,1.554961669921875,20.70343017578125,4.391359806060791,7.099129676818848
1772811899589662200,1.564662109375,16.417037963867188,5.182803153991699,6.510611534118652
1772811899599363300,1.57436328125,12.086094856262207,5.617343902587891,5.955739498138428
1772811899609064200,1.584064208984375,8.045639038085938,6.030811309814453,4.74470853805542
1772811899618765000,1.59376513671875,4.552021026611328,6.437865257263184,2.974740982055664
1772811899628465700,1.603465576171875,1.795724868774414,6.427527904510498,0.8574619293212891
1772811899638166800,1.613166748046875,-0.5256671905517578,5.839114189147949,-1.4722390174865723
1772811899647867600,1.62286767578125,-2.577392578125,4.91688346862793,-3.718465805053711
1772811899657568300,1.632568359375,-4.58828067779541,3.8842787742614746,-5.613033771514893
1772811899667269400,1.642269287109375,-6.582978248596191,2.815326452255249,-6.902460098266602
1772811899676970200,1.65197021484375,-8.49831771850586,1.71919846534729,-7.5798869132995605
1772811899686671000,1.661671142578125,-9.983317375183105,0.4155111312866211,-7.853254318237305
1772811899696371700,1.671371826171875,-10.500078201293945,-1.0450525283813477,-7.797013282775879
1772811899706072800,1.68107275390625,-10.525862693786621,-2.254930257797241,-7.604833602905273
1772811899715773700,1.690773681640625,-10.748771667480469,-3.0210633277893066,-7.439224720001221
1772811899725474300,1.700474365234375,-11.174921989440918,-3.5669708251953125,-7.2521867752075195
1772811899735175200,1.710175048828125,-11.628203392028809,-4.1366987228393555,-6.970941543579102
1772811899744876300,1.719876220703125,-11.924970626831055,-4.484117031097412,-6.829627990722656
1772811899754577000,1.729576904296875,-12.075901985168457,-4.558711051940918,-6.842170238494873
1772811899764277800,1.73927783203125,-12.086597442626953,-4.452588081359863,-6.894561290740967
1772811899773978600,1.748978515625,-12.119619369506836,-4.163448333740234,-7.010258197784424
1772811899783679700,1.7586796875,-12.195869445800781,-3.9419033527374268,-7.028876781463623
1772811899793380400,1.76838037109375,-12.173206329345703,-3.7748022079467773,-6.884519577026367
1772811899803081200,1.778081298828125,-11.963900566101074,-3.625753402709961,-6.505675315856934
1772811899812782000,1.787781982421875,-11.428072929382324,-3.6357507705688477,-5.841734886169434
1772811899822483000,1.79748291015625,-10.522247314453125,-3.6796507835388184,-4.952421188354492
1772811899832183800,1.807183837890625,-9.443803787231445,-3.539189100265503,-3.886949062347412
1772811899841884700,1.816884765625,-8.385231971740723,-3.4667928218841553,-2.760448694229126
1772811899851585500,1.82658544921875,-7.353056907653809,-3.7165164947509766,-1.6558432579040527
1772811899861286400,1.836286376953125,-6.463823318481445,-3.9190073013305664,-0.7678041458129883
1772811899870987300,1.8459873046875,-5.680804252624512,-4.018374919891357,-0.3370485305786133
1772811899880688000,1.855688232421875,-5.00185489654541,-4.0894575119018555,-0.21523594856262207
1772811899890389000,1.865388916015625,-4.5799174308776855,-4.089386463165283,-0.3320133686065674
1772811899900089900,1.87508984375,-4.328730583190918,-4.073477268218994,-0.5976181030273438
1772811899909790700,1.884790771484375,-4.212903022766113,-4.116379737854004,-0.8329378366470337
1772811899919491600,1.89449169921875,-4.272773742675781,-4.132716655731201,-0.9517744779586792
1772811899929192400,1.9041923828125,-4.410719871520996,-4.190500259399414,-0.9758784770965576
1772811899938893300,1.913893310546875,-4.564188003540039,-4.30192756652832,-0.8854937553405762
1772811899948594200,1.92359423828125,-4.7956695556640625,-4.2410688400268555,-0.8276540040969849
1772811899958295000,1.933294921875,-4.990640163421631,-4.075824737548828,-0.7339071035385132
1772811899967996000,1.942995849609375,-5.092569828033447,-3.9710497856140137,-0.4558519124984741
1772811899977696800,1.95269677734375,-5.219663619995117,-3.9229183197021484,0.025344133377075195
1772811899987397600,1.962397705078125,-5.2348480224609375,-3.6560444831848145,0.49781501293182373
1772811899997098500,1.972098388671875,-4.986865997314453,-3.275791883468628,0.9126933813095093
1772811900006799400,1.98179931640625,-4.718984127044678,-2.873230457305908,1.333706021308899
1772811900016500200,1.991500244140625,-4.4662041664123535,-2.15248441696167,1.777069091796875
1772811900026201000,2.001201171875,-3.861485004425049,-1.0024430751800537,2.3546247482299805
1772811900035902000,2.01090185546875,-2.699131488800049,0.19186639785766602,3.3494439125061035
1772811900045602800,2.020602783203125,-1.0363683700561523,1.6013717651367188,4.798268795013428
1772811900055303700,2.0303037109375,1.5557966232299805,3.266757011413574,6.474667072296143
1772811900065004500,2.040004638671875,5.080318450927734,4.74608850479126,8.396119117736816
1772811900074705400,2.049705322265625,8.14450740814209,6.2025580406188965,9.942626953125
1772811900084406300,2.05940625,10.16246509552002,8.323280334472656,10.595993041992188
1772811900094107100,2.069107177734375,12.560202598571777,9.006168365478516,10.865910530090332
1772811900103807700,2.078807861328125,14.078900337219238,5.870721340179443,11.711973190307617
1772811900113508900,2.0885087890625,15.314427375793457,4.892945766448975,10.527719497680664
1772811900123209700,2.098209716796875,17.460660934448242,5.471750259399414,8.295955657958984
1772811900132910300,2.107910400390625,18.495487213134766,5.5754313468933105,5.270011901855469
1772811900142611200,2.117611083984375,19.574459075927734,5.699723243713379,2.042858600616455
1772811900152312300,2.127312255859375,20.602752685546875,5.585750102996826,-0.7235449552536011
1772811900162013200,2.13701318359375,20.73082733154297,5.662051200866699,-3.1391942501068115
1772811900171713800,2.1467138671875,20.10739517211914,6.0445051193237305,-4.86540412902832
1772811900181414700,2.15641455078125,18.303485870361328,6.228522777557373,-5.819507598876953
1772811900191115800,2.16611572265625,15.695511817932129,5.5060505867004395,-6.129510402679443
1772811900200816400,2.17581640625,12.361177444458008,4.351694107055664,-5.885619163513184
1772811900210517200,2.185517333984375,8.051793098449707,3.2473764419555664,-5.437529563903809
1772811900220218000,2.195218017578125,3.648127555847168,2.1879782676696777,-4.615483283996582
1772811900229919200,2.204919189453125,-0.3936443328857422,1.0000534057617188,-3.6407570838928223
1772811900239619800,2.214619873046875,-3.582388401031494,-0.17880582809448242,-2.8186440467834473
1772811900249320700,2.22432080078125,-5.246190071105957,-1.4988257884979248,-2.2686209678649902
1772811900259021600,2.234021484375,-5.8338775634765625,-2.881415843963623,-2.177072525024414
1772811900268722400,2.243722412109375,-5.801429271697998,-4.232549667358398,-2.4072084426879883
1772811900278423300,2.25342333984375,-5.483710765838623,-5.47438383102417,-2.966444492340088
1772811900288124200,2.263124267578125,-5.526442527770996,-6.409072399139404,-3.5629501342773438
1772811900297825000,2.272824951171875,-5.719271659851074,-6.940921783447266,-4.263068675994873
1772811900307526000,2.28252587890625,-6.090524196624756,-7.053545951843262,-4.807640552520752
1772811900317226800,2.292226806640625,-6.835993766784668,-7.0991716384887695,-5.083751201629639
1772811900326927600,2.301927734375,-7.7311835289001465,-7.020785808563232,-5.066323280334473
1772811900336628500,2.31162841796875,-8.650522232055664,-6.8094162940979,-4.581943511962891
1772811900346329300,2.321329345703125,-9.329407691955566,-6.6415300369262695,-3.7813057899475098
1772811900356030200,2.3310302734375,-9.79570484161377,-6.384377479553223,-2.891441583633423
1772811900365731000,2.34073095703125,-10.129803657531738,-6.151461601257324,-2.089365005493164
1772811900375432000,2.350431884765625,-10.291516304016113,-5.8585944175720215,-1.574698805809021
1772811900385132800,2.3601328125,-10.340714454650879,-5.454276084899902,-1.2996459007263184
1772811900394833700,2.369833740234375,-10.334590911865234,-5.143311500549316,-1.1311008930206299
1772811900404534500,2.379534423828125,-10.324234962463379,-4.972190856933594,-0.9512986540794373
1772811900414235400,2.3892353515625,-10.174158096313477,-4.735601425170898,-0.8187921643257141
1772811900423936300,2.398936279296875,-10.017227172851562,-4.4798126220703125,-0.6212435960769653
1772811900433637000,2.40863720703125,-9.888483047485352,-4.338329315185547,-0.37641027569770813
1772811900443338000,2.418337890625,-9.719503402709961,-4.325527191162109,-0.2068144977092743
1772811900453038800,2.428038818359375,-9.555229187011719,-4.337924003601074,-0.2023867666721344
1772811900462739700,2.43773974609375,-9.352084159851074,-4.3586273193359375,-0.21507585048675537
1772811900472440600,2.447440673828125,-9.205106735229492,-4.296651363372803,-0.14936316013336182
1772811900482141400,2.457141357421875,-9.012899398803711,-4.407188892364502,0.07685711979866028
1772811900491842300,2.46684228515625,-8.726941108703613,-4.460571765899658,0.4122099280357361
1772811900501543200,2.476543212890625,-8.358710289001465,-4.251418113708496,0.6775500178337097
1772811900511243800,2.486243896484375,-7.905191898345947,-3.9007935523986816,0.8288664817810059
1772811900520944600,2.495944580078125,-7.257373809814453,-3.4639744758605957,0.6995087265968323
1772811900530645800,2.505645751953125,-6.173013687133789,-2.9418840408325195,0.43427836894989014
1772811900540346600,2.5153466796875,-4.771617889404297,-2.3376731872558594,0.290780246257782
1772811900550047200,2.525047119140625,-2.9470157623291016,-1.5395610332489014,0.1716814637184143
1772811900559748000,2.534748046875,-0.18802261352539062,-0.4224529266357422,0.015257418155670166
1772811900569449200,2.54444921875,3.284674644470215,0.9913229942321777,0.07877880334854126
1772811900579149800,2.55414990234375,7.20976448059082,2.499544143676758,0.7700485587120056
1772811900588850700,2.5638505859375,10.76900863647461,3.6826705932617188,1.9392449855804443
1772811900598551600,2.573551513671875,12.991440773010254,4.765811920166016,2.674739122390747
1772811900608252400,2.58325244140625,14.026613235473633,5.833650588989258,2.5919291973114014
1772811900617953300,2.592953369140625,15.431817054748535,6.707366466522217,1.4148204326629639
1772811900627654100,2.602654052734375,17.505306243896484,7.526270866394043,0.5452220439910889
1772811900637355000,2.61235498046875,20.549442291259766,7.960124492645264,0.6865324378013611
1772811900647056000,2.622055908203125,24.317829132080078,7.998584270477295,1.3927838802337646
1772811900656756700,2.6317568359375,27.365184783935547,8.367514610290527,1.687803030014038
1772811900666457600,2.64145751953125,28.655004501342773,8.855239868164062,1.0976707935333252
1772811900676158500,2.651158447265625,28.472553253173828,9.308292388916016,0.12697243690490723
1772811900685859300,2.660859375,27.119041442871094,9.603460311889648,-0.6351678967475891
1772811900695560200,2.670560302734375,24.960308074951172,9.38902473449707,-0.8689604997634888
1772811900705261000,2.680260986328125,22.117694854736328,8.53563117980957,-0.976172924041748
1772811900714962000,2.6899619140625,18.3171443939209,7.346158027648926,-1.0349922180175781
1772811900724662800,2.699662841796875,13.254884719848633,6.50836181640625,-0.8600550889968872
1772811900734363600,2.70936376953125,7.518568992614746,5.90675163269043,-0.4229440689086914
1772811900744064500,2.719064453125,2.2957420349121094,5.393819808959961,-0.3940356969833374
1772811900753765400,2.728765380859375,-1.7435274124145508,4.878663539886475,-0.6635929346084595
1772811900763466200,2.73846630859375,-4.204615592956543,4.064260482788086,-0.9510114192962646
1772811900773167000,2.7481669921875,-5.143087387084961,2.639087200164795,-1.11564302444458
1772811900782868000,2.757867919921875,-5.619032382965088,0.9998879432678223,-1.266493320465088
1772811900792568800,2.76756884765625,-5.591914176940918,-0.5807521343231201,-1.513367772102356
1772811900802269700,2.777269775390625,-5.6595892906188965,-2.130331039428711,-1.6179752349853516
1772811900811970600,2.786970458984375,-6.173367023468018,-3.3456509113311768,-1.8288553953170776
1772811900821671200,2.796671142578125,-6.820781707763672,-4.065493106842041,-2.0615110397338867
1772811900831372000,2.8063720703125,-7.555530548095703,-4.524692058563232,-1.9660232067108154
1772811900841073200,2.8160732421875,-8.578211784362793,-4.970763683319092,-1.488391637802124
1772811900850774000,2.82577392578125,-9.663590431213379,-5.152461528778076,-0.8238022327423096
1772811900860474600,2.835474609375,-10.676847457885742,-5.244664669036865,-0.25804567337036133
1772811900870175500,2.845175537109375,-11.565302848815918,-5.245301723480225,0.33699196577072144
1772811900879876600,2.854876708984375,-12.281396865844727,-5.217587471008301,0.9486206769943237
1772811900889577200,2.8645771484375,-12.539789199829102,-5.308388710021973,1.3829412460327148
1772811900899278000,2.874278076171875,-12.761836051940918,-5.064167022705078,1.9096884727478027
1772811900908979000,2.88397900390625,-12.993744850158691,-5.130075931549072,2.1588757038116455
1772811900918679800,2.8936796875,-12.672801971435547,-5.360511302947998,2.1205053329467773
1772811900928380700,2.903380615234375,-12.185201644897461,-5.144237518310547,1.8936957120895386
1772811900938081500,2.91308154296875,-11.56529712677002,-4.934205055236816,1.4922599792480469
1772811900947782400,2.922782470703125,-10.727807998657227,-5.011997222900391,1.248116135597229
1772811900957483300,2.932483154296875,-10.161186218261719,-5.207880973815918,1.1554352045059204
1772811900967184100,2.94218408203125,-9.319757461547852,-5.5498480796813965,1.087975263595581
1772811900976885000,2.951885009765625,-8.575453758239746,-5.655503273010254,0.975051999092102
1772811900986585900,2.9615859375,-7.952170372009277,-5.443637371063232,0.7896325588226318
1772811900996286700,2.97128662109375,-7.354475975036621,-5.196430683135986,0.6821402311325073
1772811901005987600,2.980987548828125,-6.93087100982666,-5.027198791503906,0.725173830986023
1772811901015688400,2.9906884765625,-6.6928019523620605,-4.898008346557617,0.9048529267311096
1772811901025389300,3.000389404296875,-6.525689125061035,-4.767874240875244,1.0880144834518433
1772811901035090200,3.010090087890625,-6.377450942993164,-4.5931878089904785,1.2786716222763062
1772811901044791000,3.019791015625,-6.258184909820557,-4.381763458251953,1.4298334121704102
1772811901054492000,3.029491943359375,-5.971452236175537,-4.198079586029053,1.5347988605499268
1772811901064192800,3.03919287109375,-5.398903846740723,-4.115950584411621,1.6051414012908936
1772811901073893600,3.0488935546875,-4.808914661407471,-4.056469440460205,1.6649329662322998
1772811901083594500,3.058594482421875,-4.393833637237549,-3.8877618312835693,1.7623339891433716
1772811901093295400,3.06829541015625,-3.9857378005981445,-3.7622220516204834,2.0647764205932617
1772811901102996000,3.077995849609375,-3.523130416870117,-3.650709867477417,2.5179498195648193
1772811901112697000,3.087697021484375,-3.1139678955078125,-3.6220200061798096,3.133815050125122
1772811901122398000,3.09739794921875,-2.457150459289551,-3.366608142852783,3.6687967777252197
1772811901132098600,3.1070986328125,-2.002742290496826,-2.0817530155181885,3.4240188598632812
1772811901141799400,3.11679931640625,-1.504744529724121,-0.010217666625976562,2.691032886505127
1772811901151500300,3.126500244140625,-0.30020809173583984,1.0392818450927734,2.1990318298339844
1772811901161201400,3.136201416015625,1.2839784622192383,1.8057270050048828,1.9155709743499756
1772811901170902000,3.145902099609375,3.5880870819091797,2.601649284362793,1.619570016860962
1772811901180603000,3.155602783203125,6.529438018798828,4.0110344886779785,1.0822681188583374
1772811901190303700,3.1653037109375,9.7243013381958,6.53411340713501,-0.24165737628936768
1772811901200004600,3.175004638671875,12.229652404785156,7.663506031036377,-1.383078932762146
1772811901209705500,3.18470556640625,14.231897354125977,6.474490165710449,-1.2388814687728882
1772811901219406300,3.19440625,15.768877983093262,4.920597553253174,-0.8999731540679932
1772811901229107200,3.204107177734375,16.82510757446289,4.7874979972839355,-1.2261638641357422
1772811901238808000,3.21380810546875,17.42870330810547,5.392525672912598,-1.9790551662445068
1772811901248509000,3.223509033203125,18.00570297241211,5.976709365844727,-2.7831857204437256
1772811901258209800,3.233209716796875,18.301231384277344,6.766368389129639,-3.884871006011963
1772811901267910700,3.24291064453125,18.302345275878906,7.477146148681641,-4.652736186981201
1772811901277611500,3.252611572265625,17.31014633178711,7.5301899909973145,-4.495643615722656
1772811901287312400,3.2623125,14.81370735168457,7.017469882965088,-3.573147773742676
1772811901297013200,3.27201318359375,11.441107749938965,6.215461254119873,-2.4545488357543945
1772811901306714000,3.281714111328125,7.530048370361328,5.72820520401001,-1.9259480237960815
1772811901316415000,3.2914150390625,3.2852783203125,4.991343975067139,-1.7236828804016113
1772811901326115800,3.30111572265625,-0.8782453536987305,4.263204097747803,-1.6651195287704468
1772811901335816700,3.310816650390625,-4.0451154708862305,3.1603493690490723,-1.3708562850952148
1772811901345517300,3.320517333984375,-5.902224540710449,1.5944523811340332,-0.9687017202377319
1772811901355218400,3.330218505859375,-6.638879776000977,0.03825664520263672,-0.6000979542732239
1772811901364919300,3.339919189453125,-6.508996963500977,-1.275895118713379,-0.551716685295105
1772811901374620200,3.3496201171875,-6.2895026206970215,-2.387019395828247,-0.6041685342788696
1772811901384320800,3.35932080078125,-6.202180862426758,-3.3567519187927246,-0.44615936279296875
1772811901394021600,3.369021728515625,-6.225440979003906,-3.8881280422210693,-0.5316363573074341
1772811901403722800,3.37872265625,-6.248955726623535,-3.9480748176574707,-0.9472165107727051
1772811901413423400,3.38842333984375,-6.208075523376465,-3.7739202976226807,-1.516322374343872
1772811901423124200,3.398124267578125,-6.262680530548096,-3.7569940090179443,-2.0669736862182617
1772811901432825000,3.4078251953125,-6.575333595275879,-3.778214693069458,-2.3857221603393555
1772811901442526000,3.41752587890625,-7.052355766296387,-3.7186641693115234,-2.5184073448181152
1772811901452226800,3.427226806640625,-7.664771556854248,-3.593367576599121,-2.438760280609131
1772811901461927700,3.436927734375,-8.401111602783203,-3.418962240219116,-2.2314186096191406
1772811901471628500,3.446628662109375,-9.027379035949707,-3.301908493041992,-1.9216437339782715
1772811901481329400,3.456329345703125,-9.382184982299805,-3.1438074111938477,-1.6576471328735352
1772811901491030300,3.4660302734375,-9.571828842163086,-3.0213301181793213,-1.2475225925445557
1772811901500731100,3.475731201171875,-9.632787704467773,-2.9094161987304688,-0.8991661071777344
1772811901510432000,3.485431884765625,-9.350554466247559,-2.702971935272217,-0.8188560009002686
1772811901520132900,3.4951328125,-8.854371070861816,-2.485820770263672,-0.8855078220367432
1772811901529833700,3.504833740234375,-8.384662628173828,-2.3460702896118164,-1.0821386575698853
1772811901539534600,3.51453466796875,-7.939826965332031,-2.313945770263672,-1.161461591720581
1772811901549235500,3.5242353515625,-7.5898637771606445,-2.386075258255005,-1.118876576423645
1772811901558936300,3.533936279296875,-7.28102445602417,-2.578378200531006,-1.00180983543396
1772811901568637200,3.54363720703125,-7.016110897064209,-2.762547492980957,-0.9401482343673706
1772811901578338000,3.553338134765625,-6.824033737182617,-2.901806116104126,-0.836828351020813
1772811901588039000,3.563038818359375,-6.617809295654297,-2.990722179412842,-0.6948655843734741
1772811901597739500,3.572739501953125,-6.335858345031738,-3.07940673828125,-0.5917387008666992
1772811901607440600,3.582440673828125,-5.990825176239014,-3.2275454998016357,-0.4952974319458008
1772811901617141500,3.5921416015625,-5.652619361877441,-3.2648391723632812,-0.19044554233551025
1772811901626842000,3.601842041015625,-5.498736381530762,-3.029597759246826,0.09515154361724854
1772811901636543000,3.61154296875,-5.31355094909668,-2.693739891052246,0.30421221256256104
1772811901646243800,3.621243896484375,-4.727437973022461,-2.165252923965454,0.4473607540130615
1772811901655945000,3.630945068359375,-3.634833335876465,-1.53973388671875,0.6652500629425049
1772811901665645600,3.6406455078125,-2.318781852722168,-0.7795650959014893,0.7876226902008057
1772811901675346400,3.650346435546875,-0.5934476852416992,0.4527428150177002,0.6196105480194092
1772811901685047300,3.66004736328125,1.6952190399169922,1.815690279006958,0.8413101434707642
1772811901694748200,3.669748046875,4.923643112182617,2.6115453243255615,1.6126269102096558
1772811901704449000,3.679448974609375,9.405247688293457,3.869673490524292,1.9646484851837158
1772811901714150000,3.68914990234375,13.436394691467285,5.771241188049316,1.7080873250961304
1772811901723850800,3.698850830078125,17.638580322265625,4.613554000854492,3.5968518257141113
1772811901733551600,3.708551513671875,22.642925262451172,2.2609946727752686,6.895247459411621
1772811901743252500,3.71825244140625,28.390586853027344,1.1147018671035767,9.861339569091797
1772811901752953300,3.727953369140625,32.849910736083984,-0.5147989988327026,12.157358169555664
1772811901762654200,3.737654296875,35.934669494628906,-0.506934642791748,12.080636024475098
1772811901772355000,3.74735498046875,37.04191589355469,0.3893136978149414,9.877029418945312
1772811901782056000,3.757055908203125,37.201629638671875,1.4226248264312744,6.80717658996582
1772811901791756800,3.7667568359375,35.904685974121094,2.66477632522583,4.36180305480957
1772811901801457700,3.776457763671875,32.87299728393555,3.518817901611328,3.5038392543792725
1772811901811158500,3.786158447265625,28.396217346191406,3.737001895904541,3.3483240604400635
1772811901820859400,3.795859375,21.313663482666016,4.089929580688477,3.0290591716766357
1772811901830560300,3.805560302734375,12.470341682434082,4.963018894195557,1.7014966011047363
1772811901840260900,3.8152607421875,4.092763900756836,6.172815799713135,-1.3379994630813599
1772811901849961700,3.824961669921875,-3.1932296752929688,6.794053077697754,-4.535780906677246
1772811901859662800,3.834662841796875,-8.694138526916504,6.086585521697998,-6.164117813110352
1772811901869363700,3.84436376953125,-11.306612014770508,4.521642208099365,-6.695119857788086
1772811901879064300,3.854064208984375,-11.720904350280762,2.7338523864746094,-6.334475040435791
1772811901888765200,3.86376513671875,-11.143877029418945,1.060652256011963,-5.023911952972412
1772811901898466000,3.873466064453125,-9.927754402160645,-0.5859470367431641,-3.101654052734375
1772811901908167000,3.8831669921875,-8.875635147094727,-2.225771188735962,-1.3101943731307983
1772811901917867800,3.89286767578125,-8.75439167022705,-3.1545379161834717,0.06080317497253418
1772811901927568600,3.902568603515625,-9.344582557678223,-3.1659932136535645,1.050520896911621
1772811901937269500,3.91226953125,-10.491560935974121,-2.5552096366882324,1.4535298347473145
1772811901946970400,3.921970458984375,-11.830774307250977,-1.8976824283599854,1.3925780057907104
1772811901956671200,3.931671142578125,-12.9580717086792,-1.494565486907959,1.2549694776535034
1772811901966372000,3.9413720703125,-13.585304260253906,-1.7180689573287964,1.088214635848999
1772811901976073000,3.951072998046875,-14.064848899841309,-1.4202494621276855,1.081307291984558
1772811901985773800,3.96077392578125,-14.238978385925293,-1.87775456905365,1.010169267654419
1772811901995474700,3.970474609375,-14.582527160644531,-2.6675450801849365,0.8493467569351196
1772811902005175600,3.980175537109375,-14.798102378845215,-2.827996015548706,0.537895679473877
1772811902014876400,3.98987646484375,-14.136899948120117,-2.6692209243774414,0.19655397534370422
1772811902024577300,3.999577392578125,-13.06171989440918,-2.7083029747009277,-0.18112394213676453
1772811902034278100,4.009278076171875,-12.110642433166504,-2.933082103729248,-0.5625880360603333
1772811902043979000,4.01897900390625,-11.103671073913574,-3.308351516723633,-0.7375538349151611
1772811902053679600,4.0286796875,-10.068350791931152,-3.699455976486206,-0.5471174716949463
1772811902063380500,4.03838037109375,-9.376564025878906,-3.8973233699798584,0.1471896767616272
1772811902073081300,4.048081298828125,-8.944502830505371,-4.300688743591309,0.795491099357605
1772811902082782200,4.0577822265625,-8.238033294677734,-4.586832523345947,1.0207797288894653
1772811902092483000,4.067483154296875,-7.908054351806641,-4.570305824279785,0.8322914242744446
1772811902102184000,4.077183837890625,-7.869922637939453,-4.427122116088867,0.4279913306236267
1772811902111884800,4.086884765625,-7.896502494812012,-4.3409504890441895,0.10312563180923462
1772811902121585700,4.096585693359375,-7.474225997924805,-4.511517524719238,-0.017522096633911133
1772811902131286500,4.10628662109375,-6.915951251983643,-4.830568313598633,0.06793040037155151
1772811902140987400,4.1159873046875,-6.52688455581665,-4.948555946350098,0.24873965978622437
1772811902150688300,4.125688232421875,-6.150332450866699,-5.0015153884887695,0.556279718875885
1772811902160389000,4.13538916015625,-5.842642307281494,-5.246079444885254,1.0579912662506104
1772811902170090000,4.145090087890625,-5.74199914932251,-5.440537452697754,1.5297996997833252
1772811902179790800,4.154790771484375,-5.725353717803955,-5.442688941955566,1.95332670211792
1772811902189491700,4.16449169921875,-5.805597305297852,-5.394148826599121,2.2274043560028076
1772811902199192600,4.174192626953125,-6.033400535583496,-5.187040328979492,2.367684841156006
1772811902208893400,4.1838935546875,-6.443436622619629,-4.6867146492004395,2.249957323074341
1772811902218594300,4.19359423828125,-6.777095317840576,-4.296833515167236,2.137118339538574
1772811902228295200,4.203295166015625,-6.950445175170898,-3.8860058784484863,1.953275442123413
1772811902237995800,4.212995849609375,-6.769813060760498,-3.1362500190734863,1.5404614210128784
1772811902247697000,4.22269677734375,-6.3682732582092285,-2.2301547527313232,1.2126126289367676
1772811902257397800,4.232397705078125,-5.638150691986084,-0.9940712451934814,0.9116724133491516
1772811902267098400,4.242098388671875,-3.5831212997436523,0.9690184593200684,0.49257513880729675
1772811902276799200,4.25179931640625,-0.13311100006103516,2.949985980987549,0.11419665813446045
1772811902286500000,4.2615,3.786945343017578,4.587721347808838,-0.2111818492412567
1772811902296201000,4.271200927734375,7.29530143737793,6.7560133934021,-0.5757496953010559
1772811902305901800,4.28090185546875,10.564507484436035,8.520458221435547,-0.38945335149765015
1772811902315602700,4.290602783203125,14.503705024719238,6.990551471710205,1.2716175317764282
1772811902325303600,4.300303466796875,18.595989227294922,5.795535087585449,1.9541518688201904
1772811902335004400,4.31000439453125,23.74870491027832,4.938319206237793,2.7190823554992676
1772811902344705300,4.319705322265625,27.925262451171875,2.6829822063446045,3.620176076889038
1772811902354406100,4.32940625,29.79215431213379,1.777069330215454,2.8541078567504883
1772811902364107000,4.33910693359375,30.951875686645508,1.601872444152832,1.4633268117904663
1772811902373807900,4.348807861328125,30.993087768554688,2.2301700115203857,-0.0016932487487792969
1772811902383508700,4.3585087890625,28.916118621826172,3.547384738922119,-1.222546935081482
1772811902393209600,4.368209716796875,24.757394790649414,4.930596828460693,-1.4244792461395264
1772811902402910500,4.377910400390625,19.348453521728516,6.251279830932617,-0.9221891164779663
1772811902412611300,4.387611328125,13.262681007385254,7.071038722991943,-0.04757332801818848
1772811902422312200,4.397312255859375,6.830389022827148,7.377950191497803,0.7625874280929565
1772811902432013000,4.407012939453125,0.9900074005126953,7.142683029174805,1.2964355945587158
1772811902441713700,4.416713623046875,-3.2541708946228027,6.2305402755737305,1.7042675018310547
1772811902451414500,4.42641455078125,-5.428511619567871,4.856820106506348,1.63033926486969
1772811902461115400,4.436115478515625,-6.120985984802246,3.642155408859253,1.2029175758361816
1772811902470816300,4.445816162109375,-6.395914554595947,2.5857133865356445,0.48944687843322754
1772811902480517000,4.45551708984375,-6.4146728515625,1.5091218948364258,-0.4608743190765381
1772811902519320600,4.494320556640625,-7.720193862915039,-1.6352897882461548,-1.3649940490722656
1772811902529021400,4.504021484375,-8.502876281738281,-1.960397720336914,-1.3255537748336792
1772811902538722300,4.513722412109375,-9.465384483337402,-2.273082971572876,-1.2916274070739746
1772811902548423200,4.523423095703125,-10.591293334960938,-2.4906983375549316,-1.2294070720672607
1772811902558124000,4.5331240234375,-11.384366035461426,-2.7013444900512695,-1.2244534492492676
1772811902567825000,4.542824951171875,-11.93928050994873,-2.861839532852173,-1.2035117149353027
1772811902577525800,4.55252587890625,-12.526105880737305,-2.8711509704589844,-1.0722935199737549
1772811902587226600,4.5622265625,-12.900787353515625,-3.0022242069244385,-0.9201323390007019
1772811902596927500,4.571927490234375,-12.974485397338867,-3.1431148052215576,-0.7559565305709839
1772811902606628400,4.58162841796875,-12.987159729003906,-3.2786128520965576,-0.5368289351463318
1772811902616329200,4.5913291015625,-12.885878562927246,-3.4535980224609375,-0.4035876393318176
1772811902626029800,4.60102978515625,-12.653617858886719,-3.682253122329712,-0.2855909466743469
1772811902635730700,4.610730712890625,-12.213550567626953,-3.816725254058838,-0.297568142414093
1772811902645431600,4.620431640625,-11.58978271484375,-3.938076972961426,-0.3170654773712158
1772811902655132400,4.63013232421875,-11.034055709838867,-4.104421138763428,-0.46036359667778015
1772811902664833300,4.639833251953125,-10.449383735656738,-4.177297592163086,-0.6002267599105835
1772811902674534100,4.6495341796875,-9.984007835388184,-4.27121114730835,-0.5848860740661621
1772811902684235000,4.659235107421875,-9.528389930725098,-4.535345077514648,-0.30464446544647217
1772811902693935900,4.668935791015625,-8.835086822509766,-4.7373247146606445,-0.05960264801979065
1772811902703636700,4.67863671875,-7.948828220367432,-4.813571929931641,0.1662750244140625
1772811902713337600,4.688337646484375,-7.043230056762695,-4.866904258728027,0.45247501134872437
1772811902723038500,4.69803857421875,-6.25087308883667,-4.816900730133057,0.9919172525405884
1772811902732739300,4.7077392578125,-5.031572341918945,-4.455258846282959,1.5937014818191528
1772811902771542500,4.74654248046875,3.295670509338379,3.221282958984375,0.9842925071716309
1772811902781243600,4.75624365234375,7.498570442199707,5.693617820739746,1.912009835243225
1772811902790944500,4.765944580078125,12.271256446838379,5.097251892089844,5.034296035766602
1772811902800645400,4.775645263671875,19.437061309814453,2.112922191619873,9.913498878479004
1772811902810346000,4.785345947265625,28.950946807861328,-0.335355281829834,14.232725143432617
1772811902820046800,4.795046875,37.4920768737793,-1.5743522644042969,16.204587936401367
1772811902829747700,4.804747802734375,42.360836029052734,-0.9503457546234131,14.457008361816406
1772811902839448600,4.814448486328125,42.41259765625,2.615311861038208,9.036482810974121
1772811902849149400,4.8241494140625,39.154945373535156,6.058320045471191,4.071325302124023
1772811902858850300,4.833850341796875,34.790283203125,9.041336059570312,1.0796504020690918
1772811902868551200,4.84355126953125,29.943832397460938,11.203948974609375,-0.4345362186431885
1772811902878252000,4.853251953125,25.1375789642334,12.368592262268066,-0.9210596084594727
1772811902887953000,4.862952880859375,20.919658660888672,12.144290924072266,-0.2531925439834595
1772811902897653800,4.87265380859375,15.428950309753418,11.01341438293457,1.3077495098114014
1772811902907354600,4.882354736328125,8.805089950561523,9.65772819519043,2.068993330001831
1772811902917055500,4.892055419921875,3.003692626953125,8.153280258178711,1.9927772283554077
1772811902926756400,4.90175634765625,-0.9864654541015625,6.841890335083008,0.9983518123626709
1772811902936457200,4.911457275390625,-3.0152554512023926,5.459064483642578,-0.6273552179336548
1772811902946158000,4.921157958984375,-3.20322322845459,3.9947309494018555,-1.6073048114776611
1772811902955858700,4.930858642578125,-3.0726146697998047,2.1900603771209717,-1.9410881996154785
1772811902965559800,4.940559814453125,-3.168698787689209,0.5870046615600586,-2.0389580726623535
1772811902975260700,4.9502607421875,-3.276675224304199,-1.0186189413070679,-1.9546862840652466
1772811902984961300,4.959961181640625,-3.8538742065429688,-2.559213161468506,-1.5111620426177979
1772811902994662100,4.969662109375,-4.908271312713623,-3.8637986183166504,-0.9055221080780029
1772811903004363000,4.979363037109375,-6.562135696411133,-4.695103168487549,-0.2554613947868347
1772811903014063900,4.98906396484375,-8.559924125671387,-5.13301944732666,0.43914109468460083
1772811903023764700,4.9987646484375,-10.522319793701172,-5.367088317871094,1.127608299255371
1772811903033465600,5.008465576171875,-12.282419204711914,-5.693803787231445,1.7537496089935303
1772811903043166500,5.01816650390625,-13.587459564208984,-6.408184051513672,1.944580078125
1772811903052867300,5.027867431640625,-14.52182674407959,-6.9904255867004395,1.412081003189087
1772811903062568200,5.037568115234375,-14.654167175292969,-7.897315979003906,0.707955002784729
1772811903072269000,5.04726904296875,-14.87100887298584,-9.25796127319336,0.2453707456588745
1772811903081970000,5.056969970703125,-14.541167259216309,-9.807023048400879,-0.13307465612888336
1772811903091670800,5.0666708984375,-13.362049102783203,-9.901851654052734,-0.608849287033081
1772811903101371600,5.07637158203125,-12.244025230407715,-9.971545219421387,-0.7351427674293518
1772811903111072500,5.086072509765625,-11.080831527709961,-10.662294387817383,-0.7086992859840393
1772811903120773400,5.0957734375,-10.000070571899414,-10.902739524841309,-0.9203754663467407
1772811903130474000,5.105473876953125,-9.154947280883789,-10.707853317260742,-1.2852468490600586
1772811903140174800,5.1151748046875,-8.776281356811523,-10.195852279663086,-2.011111259460449
1772811903149875700,5.124875732421875,-8.734591484069824,-9.578208923339844,-2.678631544113159
1772811903159576600,5.13457666015625,-8.794650077819824,-8.855239868164062,-3.157714366912842
1772811903169277400,5.14427734375,-8.79719352722168,-8.148469924926758,-2.9778754711151123
1772811903178978300,5.153978271484375,-8.747514724731445,-7.732360363006592,-2.0523483753204346
1772811903188679200,5.16367919921875,-8.596151351928711,-7.449572563171387,-0.8940265774726868
1772811903198380000,5.173380126953125,-8.355712890625,-7.053286552429199,0.06140667200088501
1772811903208081000,5.183080810546875,-8.090339660644531,-6.738356590270996,0.6886841058731079
1772811903217781800,5.19278173828125,-7.7571821212768555,-6.4806718826293945,1.0363295078277588
1772811903227482600,5.202482666015625,-7.504593372344971,-6.29120397567749,1.1863319873809814
1772811903237183500,5.21218359375,-7.208001613616943,-6.041205883026123,1.2179533243179321
1772811903246884400,5.22188427734375,-6.761020183563232,-5.566222190856934,1.1279749870300293
1772811903256585200,5.231585205078125,-6.318911075592041,-5.025610446929932,1.063486099243164
1772811903266286000,5.2412861328125,-6.010568141937256,-4.514394760131836,1.2034589052200317
1772811903275986700,5.250986572265625,-5.747762203216553,-3.768897533416748,1.1967120170593262
1772811903285687600,5.2606875,-5.325978755950928,-2.9343252182006836,1.0449155569076538
1772811903295388400,5.270388427734375,-4.838034629821777,-2.007676601409912,1.0644108057022095
1772811903305089300,5.28008935546875,-4.32553768157959,-0.4149937629699707,0.8396604061126709
1772811903314790100,5.2897900390625,-3.3177380561828613,2.0757088661193848,0.2653958797454834
1772811903324491000,5.299490966796875,-1.429239273071289,4.3162336349487305,0.1413973569869995
1772811903334191900,5.30919189453125,0.8207249641418457,6.724043369293213,0.44896119832992554
1772811903343892700,5.318892822265625,4.069088459014893,8.646570205688477,1.5016523599624634
1772811903353593600,5.328593505859375,8.001272201538086,10.013525009155273,2.477863311767578
1772811903363294500,5.33829443359375,12.237190246582031,11.80122184753418,2.4688873291015625
1772811903372995300,5.347995361328125,16.9510498046875,12.097137451171875,2.1759839057922363
1772811903382696200,5.3576962890625,20.800174713134766,11.747465133666992,1.1121169328689575
1772811903392397000,5.36739697265625,23.641677856445312,10.540936470031738,0.251354843378067
1772811903402098000,5.377097900390625,24.49224853515625,8.529406547546387,-0.27345386147499084
1772811903411798800,5.386798828125,24.110050201416016,7.767106533050537,-1.4731855392456055
1772811903421499600,5.396499755859375,23.30516815185547,7.875361442565918,-2.1862082481384277
1772811903431200300,5.4062001953125,21.94938850402832,8.141486167907715,-1.8674466609954834
1772811903440901000,5.415901123046875,19.889345169067383,8.184381484985352,-1.1306625604629517
1772811903450602200,5.425602294921875,17.47803497314453,8.182385444641113,-0.5962954759597778
1772811903460302800,5.435302734375,14.809179306030273,7.419798851013184,-0.6201844811439514
1772811903470003700,5.445003662109375,11.870230674743652,6.184414863586426,-1.191003441810608
1772811903479704600,5.45470458984375,8.407513618469238,4.802466869354248,-1.16279137134552
1772811903489405400,5.464405517578125,5.091392517089844,3.6326422691345215,-0.6921404600143433
1772811903499106300,5.474106201171875,2.1894073486328125,2.1039113998413086,-0.030261754989624023
1772811903508807200,5.48380712890625,0.12481307983398438,0.6485099792480469,0.192374587059021
1772811903518508000,5.493508056640625,-1.4347786903381348,-0.6478137969970703,0.016346901655197144
1772811903528209000,5.503208984375,-3.274174690246582,-1.802978277206421,-0.19830240309238434
1772811903537909800,5.51290966796875,-4.960443496704102,-2.8078904151916504,-0.7489623427391052
1772811903547610600,5.522610595703125,-6.294249057769775,-3.8864898681640625,-1.5050400495529175
1772811903557311500,5.5323115234375,-7.26771879196167,-4.792624473571777,-2.124436140060425
1772811903567012400,5.542012451171875,-7.814958095550537,-5.558787822723389,-2.3915724754333496
1772811903576713000,5.551712890625,-8.422555923461914,-5.893095016479492,-2.294559955596924
1772811903586413800,5.561413818359375,-9.38844108581543,-5.962735652923584,-1.8833266496658325
1772811903596114700,5.57111474609375,-10.383252143859863,-5.9937849044799805,-1.437703013420105
1772811903605815600,5.580815673828125,-11.323108673095703,-5.930771350860596,-1.0630323886871338
1772811903615516400,5.590516357421875,-12.041803359985352,-5.8273091316223145,-0.6914479732513428
1772811903625217300,5.60021728515625,-12.509672164916992,-5.694962024688721,-0.570873498916626
1772811903634918100,5.609918212890625,-12.563787460327148,-5.730626583099365,-0.6878460645675659
1772811903644619000,5.619618896484375,-12.319137573242188,-5.805008411407471,-0.7821369171142578
1772811903654319900,5.62931982421875,-11.986984252929688,-5.879881381988525,-0.7144588828086853
1772811903664020700,5.639020751953125,-11.42803955078125,-6.06790828704834,-0.49855685234069824
1772811903673721600,5.6487216796875,-10.636354446411133,-6.278871536254883,-0.23544767498970032
1772811903683422500,5.65842236328125,-9.654454231262207,-6.269499778747559,0.05027353763580322
1772811903693123300,5.668123291015625,-8.973593711853027,-6.311969757080078,0.4493696987628937
1772811903702824200,5.67782421875,-8.677210807800293,-6.459151744842529,0.809561014175415
1772811903712525000,5.687525146484375,-8.78510856628418,-6.4037699699401855,1.268006443977356
1772811903722225700,5.6972255859375,-9.03522777557373,-6.228155136108398,1.639431357383728
1772811903731926500,5.706926513671875,-9.171216011047363,-5.765953063964844,1.7941758632659912
1772811903741627400,5.71662744140625,-8.924654960632324,-5.461727142333984,2.0261640548706055
1772811903751328300,5.726328369140625,-8.297460556030273,-5.12435245513916,2.2143406867980957
1772811903761029000,5.736029052734375,-7.487493515014648,-4.947842121124268,2.2684104442596436
1772811903770730000,5.74572998046875,-6.671042442321777,-4.94732666015625,2.32437801361084
1772811903780430800,5.755430908203125,-6.015782356262207,-4.573726654052734,2.1519057750701904
1772811903790131700,5.765131591796875,-5.496907711029053,-4.074087619781494,1.7342712879180908
1772811903799832600,5.77483251953125,-4.4793596267700195,-3.424522876739502,1.350523591041565
1772811903809533400,5.784533447265625,-3.38275146484375,-2.5076465606689453,1.219815969467163
1772811903819234300,5.794234375,-2.24832820892334,-0.9942536354064941,0.9123810529708862
1772811903828935200,5.80393505859375,-0.6979942321777344,0.9568881988525391,1.0643692016601562
1772811903838636000,5.813635986328125,0.9065208435058594,2.702188014984131,1.9178379774093628
1772811903848337000,5.8233369140625,3.5281291007995605,4.217728137969971,3.1595261096954346
1772811903858037800,5.833037841796875,7.184841156005859,5.954506874084473,3.9442527294158936
1772811903867738400,5.84273828125,12.255624771118164,8.426467895507812,3.145545721054077
1772811903877439200,5.852439208984375,18.326030731201172,9.76478385925293,1.6262649297714233
1772811903887140000,5.86214013671875,24.0405330657959,10.3306884765625,0.4099125564098358
1772811903896841000,5.871841064453125,28.94973373413086,11.587779998779297,0.2685539424419403
1772811903906541800,5.881541748046875,32.876991271972656,12.576754570007324,1.3635269403457642
1772811903916242700,5.89124267578125,34.89799880981445,13.334264755249023,2.8116869926452637
1772811903925943600,5.900943603515625,35.32273864746094,13.690741539001465,4.035795211791992
1772811903935644400,5.91064453125,34.55369567871094,13.454328536987305,4.402222633361816
1772811903945345300,5.92034521484375,32.19711685180664,12.443981170654297,3.699249744415283
1772811903955046100,5.930046142578125,28.07791519165039,10.720565795898438,2.2236733436584473
1772811903964747000,5.9397470703125,22.190807342529297,8.338838577270508,0.90322345495224
1772811903974447900,5.94944775390625,15.29811954498291,5.423164367675781,0.026024609804153442
1772811903984148500,5.9591484375,8.673123359680176,2.7440524101257324,-1.2051843404769897
1772811903993849300,5.968849365234375,3.0272226333618164,0.2343897819519043,-2.960416793823242
1772811904003550500,5.978550537109375,-1.3824825286865234,-1.5817103385925293,-4.9432830810546875
1772811904013251000,5.9882509765625,-4.212223529815674,-2.5272369384765625,-6.764512538909912
1772811904022952000,5.997951904296875,-4.8199663162231445,-3.095939874649048,-7.842376708984375
1772811904032652800,6.00765283203125,-4.390888690948486,-3.7350330352783203,-7.435487270355225
1772811904042353700,6.017353759765625,-3.6325511932373047,-4.608028411865234,-5.752455711364746
1772811904052054500,6.027054443359375,-3.4602975845336914,-5.872843265533447,-3.368112802505493
1772811904061755400,6.03675537109375,-4.033143997192383,-6.854817867279053,-1.3241100311279297
1772811904071456300,6.046456298828125,-5.391889572143555,-7.586004257202148,0.2297726571559906
1772811904081157000,6.0561572265625,-6.853387832641602,-7.555492401123047,0.873411238193512
1772811904090858000,6.06585791015625,-8.319831848144531,-7.313579082489014,1.1303144693374634
1772811904100558800,6.075558837890625,-9.847697257995605,-6.989556312561035,1.2137956619262695
1772811904110259700,6.085259765625,-11.192699432373047,-6.420135021209717,0.9840269088745117
1772811904119960600,6.094960693359375,-12.201672554016113,-6.2243781089782715,0.6350067853927612
1772811904129661200,6.1046611328125,-13.099939346313477,-6.251988887786865,0.17878016829490662
1772811904139362000,6.114362060546875,-13.940078735351562,-6.1734161376953125,-0.47146889567375183
1772811904149063000,6.12406298828125,-14.71181869506836,-6.187677383422852,-0.8597660064697266
1772811904158763800,6.133763671875,-15.5638427734375,-6.453779697418213,-0.6955975294113159
1772811904168464600,6.143464599609375,-15.377878189086914,-7.110292434692383,-0.3072207272052765
1772811904178165500,6.15316552734375,-13.170434951782227,-7.761589050292969,-0.23662394285202026
1772811904187866400,6.162866455078125,-11.122367858886719,-7.4088969230651855,-0.62640780210495
1772811904197567200,6.172567138671875,-9.577462196350098,-7.7673115730285645,-0.5176615715026855
1772811904207268000,6.18226806640625,-8.084169387817383,-8.142960548400879,-0.1261783242225647
1772811904216969000,6.191968994140625,-7.278525352478027,-7.937525749206543,0.3888790011405945
1772811904226669800,6.201669921875,-7.094102382659912,-7.830642223358154,1.3562853336334229
1772811904236370700,6.21137060546875,-7.324136734008789,-7.71485710144043,2.143623113632202
1772811904246071300,6.2210712890625,-7.449886322021484,-7.209375381469727,2.224221706390381
1772811904255772200,6.230772216796875,-7.595911502838135,-6.762810707092285,1.795137882232666
1772811904265473300,6.240473388671875,-7.516877174377441,-6.414302825927734,1.3608899116516113
1772811904275174000,6.250173828125,-7.05645751953125,-5.866825103759766,1.4393774271011353
1772811904284874800,6.259874755859375,-6.589725971221924,-5.677439212799072,1.8221908807754517
1772811904294575600,6.26957568359375,-5.818601608276367,-5.298913955688477,2.4305331707000732
1772811904304276500,6.2792763671875,-4.989028453826904,-4.448624134063721,3.1085612773895264
1772811904313977300,6.288977294921875,-4.416053771972656,-4.010655403137207,4.117664337158203
1772811904323678200,6.29867822265625,-3.7288365364074707,-4.30782413482666,4.192171096801758
1772811904333379000,6.308379150390625,-3.23537540435791,-4.223607063293457,3.524956226348877
1772811904343080000,6.318079833984375,-3.306152820587158,-4.435664176940918,2.547983169555664
1772811904352780500,6.327780517578125,-3.772407054901123,-4.611513137817383,1.7083359956741333
1772811904362481700,6.337481689453125,-4.294527053833008,-4.346231460571289,0.8233497142791748
1772811904372182500,6.3471826171875,-4.887997150421143,-4.182792663574219,0.07023122906684875
1772811904381883400,6.35688330078125,-5.039813995361328,-4.164036750793457,-0.545119047164917
1772811904391584000,6.366583984375,-5.0903778076171875,-3.724120616912842,-0.9467700123786926
1772811904401284900,6.376284912109375,-4.663468360900879,-2.8004367351531982,-1.5174366235733032
1772811904410985700,6.38598583984375,-3.8712925910949707,-1.1001482009887695,-2.470062732696533
1772811904420686600,6.3956865234375,-2.7944588661193848,0.40402936935424805,-3.1542606353759766
1772811904430387500,6.405387451171875,-2.2686471939086914,1.9994959831237793,-2.5853590965270996
1772811904440088300,6.41508837890625,-2.061893939971924,4.053571701049805,-0.7005674839019775
1772811904449789200,6.4247890625,-1.645881175994873,5.243361949920654,2.2434027194976807
1772811904459490000,6.434489990234375,-0.4387178421020508,7.739884376525879,3.4758269786834717
1772811904469191000,6.44419091796875,2.7444629669189453,10.791062355041504,2.665800094604492
1772811904478891800,6.453891845703125,6.405023574829102,11.502033233642578,2.260756731033325
1772811904488592600,6.463592529296875,10.299907684326172,10.356979370117188,3.297373056411743
1772811904498293200,6.473293212890625,15.00726318359375,8.368437767028809,5.798972129821777
1772811904507994000,6.482994140625,19.85991668701172,6.137219429016113,8.035787582397461
1772811904517695000,6.492695068359375,24.048254013061523,4.86421012878418,8.538043022155762
1772811904527395800,6.502395751953125,27.783979415893555,4.301300525665283,7.522399425506592
1772811904537096700,6.5120966796875,30.552719116210938,4.1364030838012695,5.838440895080566
1772811904546797600,6.521797607421875,31.161518096923828,4.253567695617676,3.891386032104492
1772811904556498400,6.53149853515625,29.328140258789062,4.075121879577637,2.2929372787475586
1772811904566199300,6.54119921875,25.185989379882812,3.6701111793518066,1.0715434551239014
1772811904575900200,6.550900146484375,19.50867462158203,3.4274826049804688,-0.18553543090820312
1772811904585601000,6.56060107421875,12.734335899353027,3.4383158683776855,-1.1635220050811768
1772811904595302000,6.570302001953125,5.258394241333008,3.8750925064086914,-1.129502534866333
1772811904605002800,6.580002685546875,-0.08221435546875,4.183861255645752,-0.8148684501647949
1772811904614703400,6.589703369140625,-2.8547754287719727,4.001320838928223,-0.7394614219665527
1772811904624404200,6.599404296875,-3.792750358581543,2.855396032333374,-0.684213399887085
1772811904634105000,6.60910498046875,-2.9378180503845215,1.5821006298065186,-0.5604515075683594
1772811904643806200,6.61880615234375,-2.253021717071533,0.285294771194458,-0.48467278480529785
1772811904653506800,6.6285068359375,-1.9845819473266602,-0.8375554084777832,-0.7079558372497559
1772811904663207700,6.638207763671875,-1.7603025436401367,-1.4400243759155273,-1.6401277780532837
1772811904672908500,6.647908447265625,-1.8019638061523438,-1.5383470058441162,-2.4555680751800537
1772811904682609400,6.657609375,-2.581047534942627,-1.5811965465545654,-2.770113468170166
1772811904692310300,6.667310302734375,-4.257597923278809,-1.3945753574371338,-2.445939302444458
1772811904702011100,6.67701123046875,-6.258212089538574,-1.5612233877182007,-2.062959671020508
1772811904711712000,6.6867119140625,-8.18194580078125,-1.6459081172943115,-1.995783805847168
1772811904721412900,6.696412841796875,-9.563180923461914,-1.9809741973876953,-2.2882351875305176
1772811904731113500,6.706113525390625,-10.447508811950684,-2.4294261932373047,-2.786701202392578
1772811904740814300,6.715814453125,-10.716978073120117,-3.1195216178894043,-3.4510557651519775
1772811904750515500,6.725515380859375,-10.610719680786133,-3.64241099357605,-4.112207412719727
1772811904760216000,6.735216064453125,-10.461618423461914,-4.01862907409668,-4.481753349304199
1772811904769917000,6.7449169921875,-10.400047302246094,-4.317211627960205,-4.610557556152344
1772811904779617800,6.75461767578125,-10.350584030151367,-4.497041702270508,-4.400247573852539
1772811904789318700,6.764318603515625,-10.294449806213379,-4.5441508293151855,-3.848745822906494
1772811904799019500,6.77401953125,-10.229827880859375,-4.318985939025879,-3.0912580490112305
1772811904808720400,6.783720458984375,-10.404083251953125,-3.9889001846313477,-1.9404666423797607
1772811904818421200,6.793421142578125,-10.393928527832031,-3.826495409011841,-0.8145908117294312
1772811904828122000,6.8031220703125,-9.865220069885254,-3.8736412525177,-0.268080472946167
1772811904837823000,6.812822998046875,-9.213194847106934,-4.156256198883057,-0.3135378360748291
1772811904847523600,6.822523681640625,-8.418502807617188,-4.539904594421387,-0.7238724231719971
1772811904857224700,6.832224609375,-7.654336452484131,-4.98643684387207,-1.0155047178268433
1772811904866925600,6.841925537109375,-6.8796281814575195,-5.4790472984313965,-1.0307550430297852
1772811904876626200,6.851626220703125,-6.277502536773682,-5.7061238288879395,-0.8945460319519043
1772811904886327000,6.8613271484375,-6.301650047302246,-5.851070880889893,-0.5998397469520569
1772811904896028000,6.87102783203125,-6.513917446136475,-5.597019672393799,-0.28704023361206055
1772811904905728800,6.880728759765625,-6.622708797454834,-4.830455303192139,-0.1981525421142578
1772811904915429600,6.8904296875,-6.610220432281494,-3.5898399353027344,-0.4211964011192322
1772811904925130500,6.900130615234375,-5.869078636169434,-2.06207275390625,-0.5290670394897461
1772811904934831400,6.909831298828125,-4.192517280578613,-0.05262613296508789,-0.45148390531539917
1772811904944532200,6.9195322265625,-1.3511133193969727,2.4328880310058594,0.06866204738616943
1772811904954232800,6.92923291015625,2.5862274169921875,4.616822242736816,1.4477105140686035
1772811904963933700,6.93893359375,7.214820861816406,6.621257781982422,2.9675545692443848
1772811904973634600,6.948634521484375,11.794378280639648,8.992416381835938,4.304152011871338
1772811904983335700,6.958335693359375,16.43368911743164,11.114118576049805,5.417243957519531
1772811904993036300,6.968036376953125,22.52203941345215,9.242883682250977,7.596931457519531
1772811905002737200,6.977737060546875,27.9393367767334,7.239222526550293,9.448394775390625
1772811905012438000,6.98743798828125,32.55228805541992,7.574440002441406,9.156381607055664
1772811905022139000,6.997138916015625,35.18604278564453,9.140608787536621,7.746194839477539
1772811905031839700,7.00683984375,36.3549690246582,11.801565170288086,5.563687801361084
1772811905041540600,7.01654052734375,38.29200744628906,12.451303482055664,4.030753135681152
1772811905051241500,7.026241455078125,39.26280212402344,11.217523574829102,3.412790060043335
1772811905060942300,7.0359423828125,36.98523712158203,8.777536392211914,2.6313114166259766
1772811905070643000,7.045642822265625,30.92688751220703,6.106444835662842,1.1753828525543213
1772811905080344000,7.055343994140625,22.12765884399414,4.260562419891357,-0.3548600673675537
1772811905090045000,7.065044921875,13.200800895690918,3.4332518577575684,-1.5433800220489502
1772811905099745800,7.074745849609375,8.528892517089844,2.5298962593078613,-3.050565719604492
1772811905109446400,7.0844462890625,3.3636341094970703,-1.3897671699523926,-2.5106353759765625
1772811905119147300,7.094147216796875,0.019593238830566406,-0.5810213088989258,-2.281737804412842
1772811905128848100,7.10384814453125,-3.9578800201416016,-2.4307711124420166,-0.9351725578308105
1772811905138549000,7.113549072265625,-6.9198384284973145,-2.9044947624206543,0.3476901650428772
1772811905148249900,7.123249755859375,-8.563602447509766,-4.446595191955566,1.8081111907958984
1772811905157950700,7.13295068359375,-9.117640495300293,-5.756616592407227,2.473176956176758
1772811905167651600,7.142651611328125,-9.245549201965332,-7.511638641357422,1.604768991470337
1772811905177352400,7.1523525390625,-10.465118408203125,-8.367094039916992,-0.06981551647186279
1772811905187053000,7.162052978515625,-11.493350982666016,-9.672344207763672,-1.1848864555358887
1772811905196754000,7.17175390625,-12.516998291015625,-9.905571937561035,-2.0664162635803223
1772811905206455000,7.181455078125,-14.121456146240234,-9.645940780639648,-2.3576643466949463
1772811905216155600,7.19115576171875,-16.009397506713867,-8.819507598876953,-2.7223992347717285
1772811905225856500,7.2008564453125,-17.249635696411133,-8.281397819519043,-3.42767333984375
1772811905235557400,7.210557373046875,-17.740745544433594,-8.042511940002441,-3.5091865062713623
1772811905245258200,7.22025830078125,-17.493032455444336,-8.293763160705566,-3.3690404891967773
1772811905254959000,7.229958984375,-16.061601638793945,-8.648538589477539,-3.2389378547668457
1772811905264660000,7.239659912109375,-13.964183807373047,-9.218804359436035,-3.087294340133667
1772811905274360800,7.24936083984375,-11.792726516723633,-9.601744651794434,-2.6558148860931396
1772811905284061700,7.259061767578125,-10.162215232849121,-9.86705207824707,-2.000919818878174
1772811905293762600,7.268762451171875,-8.59306812286377,-9.92798900604248,-1.4574378728866577
1772811905303463200,7.278463134765625,-6.8640546798706055,-9.633609771728516,-1.0374072790145874
1772811905313164000,7.2881640625,-5.7924723625183105,-9.10371208190918,-0.4974883794784546
1772811905322865000,7.297864990234375,-5.042170524597168,-8.435256958007812,0.2175910472869873
1772811905332565800,7.307565673828125,-4.480331897735596,-7.895600318908691,0.6187393665313721
1772811905342266600,7.3172666015625,-4.081104755401611,-7.530094146728516,0.549554705619812
1772811905351967500,7.326967529296875,-4.091589450836182,-7.28685998916626,0.44682836532592773
1772811905361668400,7.33666845703125,-4.438562870025635,-6.8850274085998535,0.6333694458007812
1772811905371369200,7.346369140625,-5.032003402709961,-6.7341156005859375,0.8043050169944763
1772811905381070000,7.356070068359375,-5.357578277587891,-6.405466556549072,0.8969542980194092
1772811905390771000,7.36577099609375,-5.7665910720825195,-6.289848327636719,0.9724029302597046
1772811905400471800,7.375471923828125,-6.176441669464111,-6.180298805236816,1.0055527687072754
1772811905410172400,7.38517236328125,-6.169917106628418,-6.323375701904297,1.0772333145141602
1772811905419873300,7.394873291015625,-5.817655563354492,-6.288693904876709,0.9653637409210205
1772811905429574100,7.40457421875,-5.372745513916016,-6.342814922332764,0.8180456161499023
1772811905439275000,7.41427490234375,-4.916090488433838,-6.293322563171387,0.5149794220924377
1772811905448976000,7.423975830078125,-4.730454444885254,-6.124342918395996,0.11775827407836914
1772811905458676700,7.4336767578125,-4.590664863586426,-5.964081287384033,-0.31861498951911926
1772811905468377600,7.443377685546875,-4.508509635925293,-5.762338638305664,-0.7491874694824219
1772811905478078500,7.453078369140625,-4.278617858886719,-5.558492660522461,-1.1514477729797363
1772811905487779300,7.462779296875,-4.48707389831543,-5.211918830871582,-1.3843803405761719
1772811905497480200,7.472480224609375,-4.737701416015625,-4.888624668121338,-1.558586835861206
1772811905507181000,7.48218115234375,-4.575299263000488,-3.849510669708252,-2.3729026317596436
1772811905516882000,7.4918818359375,-3.240088701248169,-1.767162799835205,-3.840498208999634
1772811905526582500,7.50158251953125,0.38731813430786133,0.8719806671142578,-4.358456611633301
1772811905536283400,7.511283447265625,6.03835916519165,3.050588607788086,-2.413879871368408
1772811905545984300,7.520984375,11.022649765014648,6.494837760925293,0.028626680374145508
1772811905555685000,7.53068505859375,14.919328689575195,10.130175590515137,2.535554885864258
1772811905565386000,7.540385986328125,16.425655364990234,15.379203796386719,3.8168630599975586
1772811905575086800,7.5500869140625,17.083812713623047,21.380897521972656,0.566855788230896
1772811905584787700,7.55978759765625,19.485897064208984,23.351587295532227,-4.314099311828613
1772811905594488600,7.569488525390625,19.379501342773438,21.798011779785156,-3.515897512435913
1772811905604189400,7.579189453125,16.407712936401367,16.787853240966797,2.042100429534912
1772811905613890300,7.588890380859375,14.794462203979492,13.891263961791992,5.182238578796387
1772811905623591200,7.598591064453125,14.1879301071167,13.265714645385742,4.228325366973877
1772811905633292000,7.6082919921875,14.36822509765625,13.394880294799805,2.4937658309936523
1772811905642992600,7.61799267578125,14.18901252746582,11.40760326385498,1.1669058799743652
1772811905652693500,7.627693603515625,12.780828475952148,9.03310775756836,0.170941561460495
1772811905662394400,7.637394287109375,9.608667373657227,7.144331455230713,0.16059549152851105
1772811905672095200,7.64709521484375,5.617621421813965,6.005390644073486,0.33903369307518005
1772811905681796000,7.656796142578125,1.5459704399108887,5.3576741218566895,0.47185683250427246
1772811905691497000,7.6664970703125,-1.4796252250671387,4.3211541175842285,0.738228976726532
1772811905701197800,7.67619775390625,-2.455698013305664,2.723602771759033,1.097028374671936
1772811905710898700,7.685898681640625,-2.6367812156677246,0.6208024024963379,1.3675296306610107
1772811905720599300,7.695599365234375,-2.2040066719055176,-1.3298935890197754,0.760245680809021
1772811905730300200,7.705300048828125,-1.8065242767333984,-3.374669075012207,-0.09778982400894165
1772811905740001000,7.7150009765625,-1.6423840522766113,-5.184516429901123,-0.8459415435791016
1772811905749702000,7.724701904296875,-2.32973575592041,-6.111181259155273,-0.9451601505279541
1772811905759402800,7.73440283203125,-4.014069080352783,-6.918598175048828,0.4340084195137024
1772811905769103600,7.744103515625,-5.999417304992676,-7.3938703536987305,1.0545955896377563
1772811905778804500,7.753804443359375,-8.017889976501465,-7.274491786956787,0.8937423229217529
1772811905788505300,7.76350537109375,-10.17021369934082,-7.548892974853516,0.2974509298801422
1772811905798206200,7.773206298828125,-11.950090408325195,-7.4558329582214355,-0.6595844030380249
1772811905807907000,7.782906982421875,-13.352538108825684,-7.146740913391113,-1.2489781379699707
1772811905817608000,7.79260791015625,-13.781883239746094,-7.283454418182373,-1.514014720916748
1772811905827308800,7.802308837890625,-13.35267448425293,-7.508977890014648,-1.566598892211914
1772811905837009400,7.812009521484375,-12.516241073608398,-8.202091217041016,-1.6854115724563599
1772811905846710300,7.821710205078125,-11.2445650100708,-8.725147247314453,-2.0954904556274414
1772811905856411100,7.8314111328125,-9.935863494873047,-9.156843185424805,-2.6773734092712402
1772811905866112000,7.841112060546875,-8.605755805969238,-9.399271011352539,-3.0412659645080566
1772811905875812900,7.850812744140625,-7.426208972930908,-9.363484382629395,-3.131040096282959
1772811905885513700,7.860513671875,-6.385155200958252,-8.987152099609375,-3.0042450428009033
1772811905895214600,7.870214599609375,-5.839051723480225,-8.646403312683105,-2.6831629276275635
1772811905904915500,7.87991552734375,-5.523163795471191,-8.090256690979004,-2.321315288543701
1772811905914616000,7.889615966796875,-5.6481122970581055,-7.449509143829346,-1.8346762657165527
1772811905924317000,7.89931689453125,-5.932643890380859,-6.813660621643066,-1.160260796546936
1772811905934017800,7.909017822265625,-6.166622161865234,-6.177671432495117,-0.6799254417419434
1772811905943719000,7.918718994140625,-6.326828956604004,-5.691434383392334,-0.3931874632835388
1772811905953419500,7.92841943359375,-6.249489784240723,-5.230939865112305,-0.15959423780441284
1772811905963120400,7.938120361328125,-5.731748580932617,-4.84291410446167,0.209628164768219
1772811905972821200,7.9478212890625,-4.951344013214111,-4.410531044006348,0.5245294570922852
1772811905982522000,7.957522216796875,-4.146829128265381,-3.5481839179992676,0.39637577533721924
1772811905992223000,7.967222900390625,-3.5282187461853027,-2.3320202827453613,-0.03324967622756958
1772811906001923800,7.976923828125,-2.525477886199951,-0.8819403648376465,-0.40862977504730225
1772811906011624700,7.986624755859375,-0.37817907333374023,0.8225841522216797,-0.16544485092163086
1772811906021325600,7.99632568359375,3.059122085571289,2.937488555908203,1.2516789436340332
1772811906031026200,8.006026123046874,7.5441694259643555,4.7606916427612305,4.430109977722168
1772811906040727000,8.01572705078125,12.713752746582031,6.272210597991943,7.9525933265686035
1772811906050428000,8.025427978515625,18.245716094970703,8.78933334350586,7.772212505340576
1772811906060128800,8.035128662109376,23.337703704833984,11.113598823547363,5.072782039642334
1772811906069829600,8.04482958984375,26.13541030883789,12.817389488220215,3.3718268871307373
1772811906079530500,8.054530517578126,28.426340103149414,14.124342918395996,2.2522716522216797
1772811906089231400,8.0642314453125,30.197521209716797,14.177770614624023,1.9125076532363892
1772811906098932200,8.07393212890625,31.58252716064453,14.646439552307129,1.0599422454833984
1772811906108632800,8.0836328125,30.99856948852539,15.75888442993164,-1.0153688192367554
1772811906118333700,8.093333740234375,28.8991641998291,16.793224334716797,-2.7838733196258545
1772811906128034800,8.103034912109376,25.645606994628906,17.17485809326172,-3.4413979053497314
1772811906137735700,8.112735595703125,21.661941528320312,16.24596405029297,-3.4616198539733887
1772811906147436300,8.122436279296876,17.599435806274414,14.821702003479004,-2.2960190773010254
1772811906157137200,8.13213720703125,13.801769256591797,12.605056762695312,-0.7515475153923035
1772811906166838000,8.141838134765624,9.323226928710938,10.027366638183594,1.1827332973480225
1772811906176539000,8.151538818359375,4.07364559173584,7.490222454071045,3.4824182987213135
1772811906186239700,8.16123974609375,-0.9335808753967285,4.0927934646606445,6.060805797576904
1772811906195940600,8.170940673828126,-4.905864715576172,1.4049882888793945,5.92926025390625
1772811906205641500,8.180641357421875,-7.709267616271973,-1.6308565139770508,3.597290515899658
1772811906215342300,8.19034228515625,-8.510114669799805,-4.5704121589660645,0.8954748511314392
1772811906225043000,8.20004296875,-7.564373970031738,-7.828191757202148,-1.7129733562469482
1772811906234743800,8.209743896484374,-5.564630031585693,-10.833637237548828,-3.4789912700653076
1772811906244444700,8.219444580078125,-4.151389122009277,-12.438889503479004,-3.368805408477783
1772811906254145500,8.2291455078125,-3.9988155364990234,-13.152342796325684,-2.8362886905670166
1772811906263846400,8.238846435546876,-4.655593395233154,-12.353391647338867,-3.09863543510437
1772811906273547300,8.24854736328125,-6.083133697509766,-11.059294700622559,-3.032461404800415
1772811906283248000,8.258248046875,-8.270108222961426,-10.233892440795898,-2.727473258972168
1772811906292949000,8.267948974609375,-10.922603607177734,-9.369062423706055,-2.340294599533081
1772811906302649900,8.27764990234375,-13.306464195251465,-8.5565824508667,-1.7965550422668457
1772811906312350500,8.2873505859375,-14.882258415222168,-7.906167984008789,-0.8774654269218445
1772811906322051300,8.29705126953125,-15.397089958190918,-7.402151107788086,-0.3035014271736145
1772811906331752200,8.306752197265626,-15.107307434082031,-7.179858207702637,-0.2747306227684021
1772811906341453000,8.316453125,-14.337564468383789,-7.303836345672607,-0.2595352530479431
1772811906351154000,8.32615380859375,-13.123071670532227,-7.506776332855225,-0.2710624933242798
1772811906360854800,8.335854736328125,-11.423985481262207,-7.674808025360107,-0.4708540141582489
1772811906370555600,8.3455556640625,-10.119142532348633,-7.834388732910156,-0.6005271673202515
1772811906380256500,8.355256591796875,-8.889535903930664,-7.818622589111328,-0.42625993490219116
1772811906389957400,8.364957275390625,-8.147205352783203,-7.5390167236328125,0.06982427835464478
1772811906399658200,8.374658203125,-7.733437538146973,-7.435409069061279,0.7229903340339661
1772811906409359000,8.384359130859375,-7.038789749145508,-7.475710868835449,1.036520004272461
1772811906419059700,8.394059814453126,-6.139956474304199,-7.406455993652344,0.6876950860023499
1772811906428760600,8.403760498046875,-5.3371100425720215,-7.536011695861816,0.214383065700531
1772811906438461400,8.41346142578125,-4.479640960693359,-7.821544647216797,-0.20526784658432007
1772811906448162300,8.423162353515625,-3.620610237121582,-8.078805923461914,-0.6007537841796875
1772811906457863200,8.43286328125,-3.2033627033233643,-8.081507682800293,-0.838072657585144
1772811906467564000,8.44256396484375,-3.2749438285827637,-7.906964302062988,-0.8830826878547668
1772811906477265000,8.452264892578125,-3.7243447303771973,-7.391429424285889,-0.8926966190338135
1772811906486965800,8.4619658203125,-4.184572696685791,-6.577326774597168,-0.9787415266036987
1772811906496666600,8.47166650390625,-4.702252388000488,-5.704381465911865,-0.9201309680938721
1772811906506367200,8.4813671875,-5.045730113983154,-5.008435249328613,-0.7736086845397949
1772811906516068000,8.491068115234375,-5.150766372680664,-4.314027309417725,-0.6874189376831055
1772811906525769000,8.50076904296875,-4.857658386230469,-3.5257859230041504,-0.8449000120162964
1772811906535469800,8.5104697265625,-4.332901477813721,-2.7170352935791016,-1.0169790983200073
1772811906545170700,8.520170654296875,-3.3909735679626465,-1.4480342864990234,-1.4752135276794434
1772811906554871600,8.52987158203125,-2.2647266387939453,0.7511076927185059,-2.6017370223999023
1772811906564572400,8.539572509765625,-0.6198534965515137,2.8710546493530273,-3.8918445110321045
1772811906574273300,8.549273193359374,0.5807986259460449,4.738883018493652,-3.7662994861602783
1772811906583974000,8.558973876953125,1.3925714492797852,7.325062274932861,-1.9712655544281006
1772811906593674800,8.5686748046875,2.5698060989379883,9.23115348815918,1.4857664108276367
1772811906603375600,8.578375732421875,4.8423333168029785,10.747129440307617,3.6022486686706543
1772811906613076500,8.588076416015625,8.392498016357422,11.715185165405273,3.7820825576782227
1772811906622777300,8.59777734375,11.916036605834961,12.212474822998047,2.9596543312072754
1772811906632478200,8.607478271484375,14.160959243774414,11.802953720092773,1.7058796882629395
1772811906642179000,8.617178955078124,14.453962326049805,10.301673889160156,1.1258876323699951
1772811906651880000,8.6268798828125,13.383157730102539,8.428821563720703,1.9590191841125488
1772811906661580800,8.636580810546874,12.940949440002441,7.020831108093262,2.7312257289886475
1772811906671281700,8.64628173828125,13.77055835723877,5.533570766448975,2.876217842102051
1772811906680982500,8.655982421875,14.635621070861816,4.469428062438965,2.8829524517059326
1772811906690683400,8.665683349609376,14.758049964904785,3.2117104530334473,2.9613037109375
1772811906700384000,8.675384033203125,13.944733619689941,2.3110899925231934,2.9129085540771484
1772811906710084900,8.6850849609375,12.268372535705566,1.504549503326416,2.508680582046509
1772811906719785700,8.69478564453125,10.607009887695312,0.967566967010498,1.6818652153015137
1772811906729486600,8.704486572265624,8.826457023620605,0.5190911293029785,0.7002297639846802
1772811906739187500,8.7141875,7.192972660064697,0.5535540580749512,-0.12970411777496338
1772811906748888300,8.723888427734375,5.484498500823975,0.4907212257385254,-0.6527502536773682
1772811906758589200,8.733589111328126,3.888899803161621,0.3850069046020508,-1.001602292060852
1772811906768290000,8.7432900390625,2.2107038497924805,0.3909335136413574,-1.2637953758239746
1772811906777990700,8.75299072265625,0.6629705429077148,0.1810016632080078,-1.4542065858840942
1772811906787691500,8.76269140625,-0.26167917251586914,0.0018177032470703125,-1.5029833316802979
1772811906797392400,8.772392333984374,-1.2297239303588867,-0.2344808578491211,-1.2939956188201904
1772811906807093200,8.78209326171875,-2.3736023902893066,-0.4967842102050781,-1.0034488439559937
1772811906816794000,8.791794189453125,-3.2349932193756104,-0.7523980140686035,-0.664093017578125
1772811906826495000,8.801494873046876,-4.049529075622559,-1.187239646911621,-0.3672269582748413
1772811906836195800,8.81119580078125,-4.872491836547852,-1.5072040557861328,-0.43223869800567627
1772811906845896700,8.820896728515624,-5.35048770904541,-1.5592989921569824,-0.7576635479927063
1772811906855597300,8.830597412109375,-5.828155994415283,-1.6632471084594727,-1.0113898515701294
1772811906865298200,8.840298095703124,-5.756932735443115,-1.9128904342651367,-1.5286245346069336
1772811906874999000,8.8499990234375,-5.075833320617676,-2.209980010986328,-1.996146559715271
1772811906884700000,8.859699951171875,-4.337274551391602,-2.5635781288146973,-2.289158344268799
1772811906894400800,8.86940087890625,-3.315762996673584,-3.166348934173584,-2.5175766944885254
1772811906904101600,8.8791015625,-2.2728419303894043,-3.433687686920166,-2.5533640384674072
1772811906913802500,8.888802490234376,-1.7659826278686523,-3.7199676036834717,-2.2946183681488037
1772811906923503400,8.89850341796875,-1.3819217681884766,-3.6041572093963623,-1.9551432132720947
1772811906933204200,8.908204345703124,-1.489941120147705,-3.35795521736145,-1.5118683576583862
1772811906942904800,8.91790478515625,-1.700179100036621,-3.1040525436401367,-1.2543690204620361
1772811906952605700,8.927605712890625,-1.6016764640808105,-2.8966894149780273,-1.254821538925171
1772811906962306600,8.937306640625,-1.3938379287719727,-2.6006851196289062,-1.5879135131835938
1772811906972007400,8.94700732421875,-1.7271995544433594,-1.9867630004882812,-1.3947155475616455
1772811906981708300,8.956708251953126,-3.134935140609741,-1.1257872581481934,-0.6371883153915405
1772811906991409200,8.9664091796875,-3.826908588409424,-0.5793380737304688,-0.2959444224834442
1772811907001110000,8.976110107421874,-3.588089942932129,-0.16948699951171875,-0.5779309272766113
1772811907010811000,8.985810791015625,-2.8653547763824463,-0.1631946563720703,-0.8667992949485779
1772811907020511700,8.99551171875,-1.7448716163635254,-0.21622419357299805,-1.0688974857330322
1772811907030212400,9.00521240234375,-0.6720685958862305,-0.42706918716430664,-1.1522778272628784
1772811907039913500,9.01491357421875,-0.2368311882019043,-0.27807044982910156,-0.7184594869613647
