time,seconds_elapsed,z,y,x
1772810285524938800,0.102938720703125,0,0,0
1772810285534638800,0.112638916015625,-0.3670077323913574,0.2978696823120117,0.06900691986083984
1772810285554038800,0.132038818359375,0.002972126007080078,0.27744483947753906,-0.8253791332244873
1772810285563738600,0.141738525390625,0.5801973342895508,0.2745399475097656,-1.1924819946289062
1772810285573438500,0.1514384765625,0.47557878494262695,-0.09351587295532227,-1.0537183284759521
1772810285583138600,0.161138671875,0.21547937393188477,-0.6715989112854004,-0.8754910230636597
1772810285592838700,0.170838623046875,0.026441574096679688,-0.7064504623413086,-0.5027812719345093
1772810285602538500,0.18053857421875,0.03983449935913086,-0.5143318176269531,0.1377105712890625
1772810285612238300,0.19023828125,-0.17771434783935547,-0.8044314384460449,1.0599356889724731
1772810285621938400,0.1999384765625,-0.4306831359863281,-1.3648295402526855,1.9798699617385864
1772810285631638300,0.20963818359375,0.06176137924194336,-1.8491969108581543,2.610795021057129
1772810285641338400,0.21933837890625,1.3699002265930176,-1.854811191558838,2.474066734313965
1772810285651038200,0.2290380859375,1.7196826934814453,-1.367401123046875,2.06772780418396
1772810285689838000,0.267838134765625,-2.0162343978881836,-0.45345640182495117,-0.49695050716400146
1772810285699538200,0.2775380859375,-2.3737099170684814,-0.14370155334472656,-1.3610241413116455
1772810285709238000,0.287238037109375,-3.3459677696228027,0.37819576263427734,-1.360480785369873
1772810285718938000,0.296938232421875,-3.933163642883301,0.46309995651245117,-1.346731424331665
1772810285728638000,0.306637939453125,-3.647366762161255,0.05842876434326172,-1.503170132637024
1772810285738337800,0.316337890625,-2.223160743713379,0.6143584251403809,-1.6429381370544434
1772810285748038000,0.326037841796875,0.06892538070678711,1.939741611480713,-2.656989574432373
1772810285757737700,0.33573779296875,1.000082015991211,2.7215538024902344,-3.6290502548217773
1772810285767437800,0.345437744140625,-0.9296507835388184,1.3822994232177734,-2.7883098125457764
1772810285777138000,0.355137939453125,-1.4864420890808105,0.004176616668701172,-2.0343565940856934
1772810285786837800,0.364837646484375,-1.244755744934082,-0.6863908767700195,-1.515143632888794
1772810285796537600,0.37453759765625,-1.0599994659423828,-1.3950121402740479,-1.018168330192566
1772810285806237700,0.38423779296875,-0.9910130500793457,-1.9053528308868408,-0.5303189754486084
1772810285815937500,0.3939375,-0.6494593620300293,-2.447510242462158,0.32270193099975586
1772810285825637600,0.4036376953125,-0.06361770629882812,-3.00285267829895,1.0418440103530884
1772810285835337700,0.413337646484375,0.13821649551391602,-2.800090789794922,1.3755154609680176
1772810285845037600,0.42303759765625,0.7113761901855469,-1.8590539693832397,1.20325767993927
1772810285854737400,0.4327373046875,1.5963382720947266,-0.8393032550811768,0.1046600341796875
1772810285864437500,0.4424375,2.2236270904541016,0.2487015724182129,-0.28648316860198975
1772810285874137300,0.452137451171875,3.0216526985168457,0.6853811740875244,-0.407884418964386
1772810285883837400,0.46183740234375,4.563826560974121,1.198453426361084,-0.2171332836151123
1772810285893537300,0.471537353515625,6.400086879730225,1.7936053276062012,0.06649625301361084
1772810285903237400,0.4812373046875,8.052433013916016,2.3686654567718506,0.4271961450576782
1772810285912937200,0.490937255859375,10.034494400024414,2.9781887531280518,0.9407538175582886
1772810285922637300,0.50063720703125,13.478191375732422,2.8533787727355957,2.3010201454162598
1772810285932337200,0.510337158203125,16.42205810546875,2.5384936332702637,3.9499244689941406
1772810285942037200,0.520037353515625,18.585634231567383,2.906203269958496,5.415046215057373
1772810285951737000,0.529737060546875,19.676660537719727,3.8457813262939453,6.508591175079346
1772810285961437200,0.539437255859375,20.43614959716797,4.636139392852783,6.942804336547852
1772810285971137000,0.549136962890625,20.541118621826172,5.16570520401001,6.25272274017334
1772810285980836900,0.5588369140625,20.095829010009766,5.592098236083984,4.963313102722168
1772810285990537000,0.568536865234375,18.99325180053711,5.91589879989624,3.3604965209960938
1772810286000236800,0.57823681640625,17.435943603515625,6.127316951751709,2.1066977977752686
1772810286009937000,0.58793701171875,15.148698806762695,4.553441047668457,2.353569269180298
1772810286019637000,0.597636962890625,13.003745079040527,2.590937614440918,1.8614143133163452
1772810286029336800,0.6073369140625,8.548357963562012,4.062354564666748,0.5342803001403809
1772810286039036700,0.61703662109375,6.396866798400879,1.5389094352722168,-0.1338433027267456
1772810286048736800,0.62673681640625,4.137499809265137,0.20150279998779297,-1.4189646244049072
1772810286058436600,0.6364365234375,2.62581729888916,0.1305527687072754,-3.283881187438965
1772810286068136700,0.64613671875,1.634690284729004,-0.7262101173400879,-4.4437761306762695
1772810286077836500,0.65583642578125,1.3424444198608398,-1.740778923034668,-4.655791759490967
1772810286087536600,0.66553662109375,1.0545549392700195,-1.9314947128295898,-4.309836387634277
1772810286097236500,0.675236572265625,0.5923357009887695,-1.0945353507995605,-3.404979705810547
1772810286106936600,0.6849365234375,-0.12085628509521484,0.3078274726867676,-2.2014479637145996
1772810286116636400,0.694636474609375,-0.8198156356811523,1.8870019912719727,-0.885678768157959
1772810286126336500,0.70433642578125,-1.3965654373168945,2.347745418548584,0.8355817794799805
1772810286136036400,0.714036376953125,-2.280848503112793,2.3257250785827637,2.3450965881347656
1772810286145736400,0.723736328125,-3.2767581939697266,1.5154094696044922,3.01381254196167
1772810286155436300,0.733436279296875,-3.9434752464294434,0.31955385208129883,2.643888473510742
1772810286165136100,0.74313623046875,-4.8226165771484375,-0.2417917251586914,1.1733441352844238
1772810286174836200,0.752836181640625,-5.874910354614258,-0.8496441841125488,-0.36706018447875977
1772810286184536300,0.762536376953125,-6.836555480957031,-1.807652235031128,-1.635291576385498
1772810286194236200,0.772236083984375,-7.525290489196777,-2.6541683673858643,-2.746164560317993
1772810286203936300,0.781936279296875,-8.107698440551758,-3.2668867111206055,-3.5484776496887207
1772810286213636000,0.791635986328125,-8.455619812011719,-3.578516960144043,-4.065750598907471
1772810286223336000,0.8013359375,-8.688652992248535,-3.7313544750213623,-4.431856155395508
1772810286233036000,0.8110361328125,-9.089827537536621,-3.6074609756469727,-4.76430606842041
1772810286242735900,0.82073583984375,-9.209635734558105,-3.4725966453552246,-4.868746757507324
1772810286252436000,0.83043603515625,-9.27207088470459,-3.504812717437744,-4.826120376586914
1772810286262136000,0.840135986328125,-9.50295352935791,-3.6257574558258057,-4.59807014465332
1772810286271836000,0.8498359375,-9.683415412902832,-3.8864011764526367,-4.321513652801514
1772810286281535700,0.85953564453125,-9.718954086303711,-4.105262756347656,-4.21585750579834
1772810286291235800,0.86923583984375,-9.604491233825684,-4.386391639709473,-4.032894134521484
1772810286300935700,0.878935791015625,-9.418390274047852,-4.651172161102295,-3.7368574142456055
1772810286310635800,0.8886357421875,-9.123006820678711,-4.860037803649902,-3.482858180999756
1772810286320335600,0.898335693359375,-8.816306114196777,-4.975001811981201,-3.2120652198791504
1772810286330035700,0.90803564453125,-8.621650695800781,-5.241829872131348,-2.745016098022461
1772810286339735600,0.917735595703125,-8.504596710205078,-5.560654163360596,-2.257014751434326
1772810286349435400,0.927435302734375,-8.364203453063965,-5.729949474334717,-1.7977348566055298
1772810286359135500,0.937135498046875,-8.284841537475586,-5.948338985443115,-1.4333367347717285
1772810286368835600,0.946835693359375,-8.332489967346191,-6.189673900604248,-1.2326894998550415
1772810286378535400,0.956535400390625,-8.297706604003906,-6.314537048339844,-1.2052627801895142
1772810286388235500,0.966235595703125,-8.174436569213867,-6.360355854034424,-1.1928497552871704
1772810286397935400,0.975935302734375,-8.06837272644043,-6.438815593719482,-1.1704943180084229
1772810286407635200,0.98563525390625,-7.9193220138549805,-6.517669200897217,-1.0961861610412598
1772810286417335300,0.995335205078125,-7.732147693634033,-6.612198829650879,-0.879861056804657
1772810286427035100,1.00503515625,-7.387273788452148,-6.699647903442383,-0.7083020210266113
1772810286436735200,1.0147353515625,-6.802705764770508,-6.7129740715026855,-0.5405817627906799
1772810286446435300,1.024435302734375,-6.313230514526367,-6.728767395019531,-0.28056684136390686
1772810286456135200,1.03413525390625,-5.783764362335205,-6.772825241088867,0.1253890097141266
1772810286465835000,1.0438349609375,-5.436860084533691,-6.833810806274414,0.436379611492157
1772810286475535000,1.05353515625,-4.7525129318237305,-6.703270435333252,0.6914846897125244
1772810286485235000,1.06323486328125,-3.8682808876037598,-6.470833778381348,0.9001410603523254
1772810286494935000,1.07293505859375,-3.0235843658447266,-6.3258185386657715,1.137527346611023
1772810286504635000,1.082634765625,-2.2598280906677246,-5.934744358062744,1.3162635564804077
1772810286514335000,1.0923349609375,-1.650712013244629,-5.197949409484863,1.3412998914718628
1772810286524034800,1.102034912109375,-1.2321043014526367,-3.9792466163635254,1.1653717756271362
1772810286533735000,1.11173486328125,-0.30340003967285156,-1.9213881492614746,0.9703136682510376
1772810286543434800,1.121434814453125,0.9675426483154297,0.4629983901977539,0.9281133413314819
1772810286553134800,1.131134765625,2.748136043548584,2.0905985832214355,1.315694808959961
1772810286562834700,1.140834716796875,4.648743152618408,3.2311973571777344,1.8469009399414062
1772810286572534800,1.15053466796875,5.971305847167969,5.818258762359619,1.2223787307739258
1772810286582234600,1.160234619140625,7.3514604568481445,9.059255599975586,0.20618799328804016
1772810286591934500,1.1699345703125,8.127452850341797,8.250468254089355,1.2606014013290405
1772810286601634600,1.179634521484375,6.699123382568359,7.089457988739014,2.330687999725342
1772810286611334400,1.18933447265625,6.4690985679626465,8.706056594848633,1.6858038902282715
1772810286621034500,1.199034423828125,7.03671407699585,10.465045928955078,1.103668212890625
1772810286630734300,1.208734375,7.937737941741943,11.305780410766602,1.1952712535858154
1772810286640434400,1.218434326171875,9.628692626953125,11.284807205200195,1.7175610065460205
1772810286650134300,1.22813427734375,11.537698745727539,10.744338989257812,2.3553764820098877
1772810286659834400,1.23783447265625,13.182846069335938,9.961075782775879,3.4744324684143066
1772810286669534200,1.2475341796875,14.20848274230957,9.068809509277344,4.6743268966674805
1772810286679234300,1.257234375,14.523275375366211,8.129075050354004,4.952915668487549
1772810286688934100,1.26693408203125,13.835923194885254,7.563595771789551,4.1229658126831055
1772810286698634200,1.27663427734375,12.038915634155273,7.1159772872924805,2.687004566192627
1772810286708334000,1.286333984375,9.5477294921875,6.518238067626953,1.1329482793807983
1772810286718034200,1.2960341796875,7.101639747619629,5.849067687988281,-0.1898784637451172
1772810286727734000,1.305734130859375,5.029603958129883,4.7403483390808105,-0.4723128080368042
1772810286737433900,1.315433837890625,3.1774253845214844,3.6394600868225098,-0.035115957260131836
1772810286747134000,1.325134033203125,1.6642093658447266,2.848628044128418,0.48865747451782227
1772810286756834000,1.334833984375,0.3353424072265625,2.176081657409668,0.8746347427368164
1772810286766534000,1.344533935546875,-0.9690556526184082,1.6517901420593262,1.0347871780395508
1772810286776233700,1.354233642578125,-2.2226195335388184,1.163564682006836,0.8776376247406006
1772810286785933800,1.363933837890625,-3.3897781372070312,0.6216588020324707,0.5446252822875977
1772810286795633700,1.373633544921875,-4.4667487144470215,0.050589561462402344,0.10202813148498535
1772810286805333800,1.383333740234375,-5.384936809539795,-0.484987735748291,-0.41646695137023926
1772810286815033600,1.39303369140625,-6.1577558517456055,-1.069190502166748,-0.9044262170791626
1772810286824733700,1.402733642578125,-6.704627990722656,-1.633401870727539,-1.3975296020507812
1772810286834433500,1.41243359375,-6.970418930053711,-2.123526096343994,-1.9162250757217407
1772810286844133600,1.422133544921875,-7.047664642333984,-2.650468349456787,-2.3748605251312256
1772810286853833500,1.43183349609375,-6.979139804840088,-3.080582857131958,-2.7762603759765625
1772810286863533300,1.441533203125,-6.929617404937744,-3.4434452056884766,-3.1313395500183105
1772810286873233400,1.4512333984375,-6.745082855224609,-3.7732350826263428,-3.356372117996216
1772810286882933500,1.46093359375,-6.652385711669922,-4.123477935791016,-3.465139865875244
1772810286892633300,1.47063330078125,-6.625071048736572,-4.479885101318359,-3.45090913772583
1772810286902333400,1.48033349609375,-6.579677104949951,-4.770218849182129,-3.358731746673584
1772810286912033300,1.490033203125,-6.66062068939209,-4.978782653808594,-3.2576241493225098
1772810286921733000,1.499733154296875,-6.8598127365112305,-5.129755020141602,-3.1088194847106934
1772810286931433200,1.50943310546875,-7.044393539428711,-5.253893852233887,-2.922431707382202
1772810286941133000,1.519133056640625,-7.136428356170654,-5.434590816497803,-2.695254325866699
1772810286950833200,1.528833251953125,-7.298379898071289,-5.443732261657715,-2.6729865074157715
1772810286960533200,1.538533203125,-7.293030261993408,-5.365658760070801,-2.6167640686035156
1772810286970233000,1.548233154296875,-7.18256139755249,-5.3965911865234375,-2.5936055183410645
1772810286979933000,1.557932861328125,-6.940155506134033,-5.372710227966309,-2.5583972930908203
1772810286989633000,1.567633056640625,-6.6294684410095215,-5.262483596801758,-2.5212273597717285
1772810286999332900,1.577332763671875,-6.082149028778076,-5.183823585510254,-2.3744704723358154
1772810287009033000,1.587032958984375,-5.47406530380249,-5.1207804679870605,-2.1693663597106934
1772810287018732800,1.59673291015625,-4.887037754058838,-4.912398338317871,-2.0127665996551514
1772810287028433000,1.606432861328125,-4.004571914672852,-4.679494380950928,-1.6602625846862793
1772810287038132700,1.6161328125,-2.9812121391296387,-4.217033863067627,-1.4315024614334106
1772810287047832800,1.625832763671875,-1.9093101024627686,-3.4117684364318848,-1.346513032913208
1772810287057532700,1.63553271484375,-0.9135451316833496,-2.0776352882385254,-1.1696339845657349
1772810287067232500,1.645232421875,0.23456764221191406,-0.38111162185668945,-0.9454618096351624
1772810287076932600,1.6549326171875,1.9525766372680664,1.5463790893554688,-0.7253119945526123
1772810287086632700,1.6646328125,4.1592302322387695,3.886561870574951,-0.2070002555847168
1772810287096332500,1.67433251953125,7.166022777557373,6.633533954620361,0.8288091421127319
1772810287106032400,1.684032470703125,10.987316131591797,9.82642936706543,2.241772174835205
1772810287115732500,1.693732421875,15.353727340698242,13.1851806640625,4.370739936828613
1772810287125432300,1.703432373046875,19.64607048034668,16.26983642578125,7.503028869628906
1772810287135132400,1.71313232421875,23.43158721923828,18.025875091552734,10.876485824584961
1772810287144832300,1.722832275390625,26.797409057617188,18.14694595336914,14.86710262298584
1772810287154532400,1.732532470703125,30.41444206237793,17.482500076293945,17.43118667602539
1772810287164232200,1.742232177734375,33.654266357421875,16.45641326904297,16.795944213867188
1772810287173932300,1.751932373046875,35.07976531982422,16.06319808959961,13.364690780639648
1772810287183632100,1.761632080078125,34.114566802978516,15.894241333007812,8.700453758239746
1772810287193332200,1.771332275390625,30.60810661315918,15.496841430664062,4.32184362411499
1772810287203032000,1.781031982421875,25.07625961303711,13.992298126220703,1.9723533391952515
1772810287212732200,1.790732177734375,18.53447723388672,11.356283187866211,1.3401095867156982
1772810287222432000,1.800431884765625,12.653707504272461,8.403901100158691,1.2481037378311157
1772810287232132000,1.810132080078125,7.077739238739014,5.877859115600586,1.1895496845245361
1772810287241832000,1.81983203125,2.0715222358703613,3.784313201904297,0.4711427688598633
1772810287251531800,1.82953173828125,-2.0739517211914062,1.6056785583496094,-0.869539737701416
1772810287261231900,1.83923193359375,-5.381216526031494,-0.8171310424804688,-2.4065637588500977
1772810287270931700,1.848931640625,-7.318201541900635,-3.2447385787963867,-3.935153007507324
1772810287280631800,1.8586318359375,-8.156732559204102,-5.455364227294922,-5.381683349609375
1772810287290331600,1.86833154296875,-8.010293960571289,-7.328130722045898,-6.497798919677734
1772810287300031700,1.87803173828125,-7.5764007568359375,-8.815518379211426,-6.8608808517456055
1772810287309731600,1.887731689453125,-6.8676958084106445,-10.26146125793457,-6.481860637664795
1772810287319431700,1.897431640625,-5.7740020751953125,-11.728577613830566,-5.516799449920654
1772810287329131500,1.907131591796875,-5.014954566955566,-12.927684783935547,-4.331198215484619
1772810287338831600,1.91683154296875,-4.876629829406738,-13.553635597229004,-3.2890067100524902
1772810287348531500,1.926531494140625,-5.184008598327637,-13.695453643798828,-2.427057981491089
1772810287358231600,1.9362314453125,-5.840176582336426,-13.421384811401367,-1.9811476469039917
1772810287367931400,1.945931396484375,-6.6420698165893555,-12.610795974731445,-1.9974000453948975
1772810287377631200,1.95563134765625,-7.344687461853027,-11.685291290283203,-2.1025333404541016
1772810287387331300,1.965331298828125,-7.993360996246338,-11.132726669311523,-1.9333449602127075
1772810287397031200,1.97503125,-8.458333969116211,-10.78947639465332,-1.4357527494430542
1772810287406731300,1.984731201171875,-8.675886154174805,-10.557222366333008,-0.9575270414352417
1772810287416431400,1.994431396484375,-8.746655464172363,-10.48300838470459,-0.589157223701477
1772810287426131200,2.004131103515625,-8.733736038208008,-10.428157806396484,-0.35103583335876465
1772810287435831000,2.0138310546875,-8.570531845092773,-10.406576156616211,-0.22775864601135254
1772810287445531100,2.02353125,-8.257558822631836,-10.452751159667969,-0.20806467533111572
1772810287455231000,2.03323095703125,-7.927659034729004,-10.344608306884766,-0.2316817045211792
1772810287464931000,2.04293115234375,-7.5351409912109375,-10.299019813537598,-0.21267849206924438
1772810287474631000,2.052630859375,-7.129508972167969,-10.262933731079102,-0.1955927610397339
1772810287484331000,2.0623310546875,-6.67238712310791,-10.141228675842285,-0.22558367252349854
1772810287494030800,2.07203076171875,-6.08419942855835,-10.019399642944336,-0.35208338499069214
1772810287503731000,2.08173095703125,-5.4268670082092285,-9.93016242980957,-0.4830194115638733
1772810287513430800,2.0914306640625,-4.833462238311768,-9.716324806213379,-0.63450688123703
1772810287523130600,2.101130615234375,-4.286251068115234,-9.437691688537598,-0.8135362863540649
1772810287532830700,2.110830810546875,-3.881239891052246,-9.001575469970703,-0.9677464365959167
1772810287542530800,2.12053076171875,-3.6340088844299316,-8.559008598327637,-1.044381856918335
1772810287552230700,2.130230712890625,-3.5644779205322266,-8.218157768249512,-1.0587120056152344
1772810287561930800,2.1399306640625,-3.548478603363037,-7.835695266723633,-1.0155638456344604
1772810287571630600,2.149630615234375,-3.488471746444702,-7.493366241455078,-0.9705854654312134
1772810287581330400,2.159330322265625,-3.4903879165649414,-7.150087833404541,-0.8534815311431885
1772810287591030500,2.169030517578125,-3.3506526947021484,-6.854047775268555,-0.5001857280731201
1772810287600730400,2.17873046875,-3.237046241760254,-6.6253886222839355,-0.14329206943511963
1772810287610430500,2.188430419921875,-3.083699941635132,-6.315644264221191,0.15569910407066345
1772810287620130300,2.19813037109375,-2.852977752685547,-5.984715461730957,0.32561326026916504
1772810287629830400,2.207830322265625,-2.6320083141326904,-5.521024227142334,0.36936429142951965
1772810287639530200,2.2175302734375,-2.3887863159179688,-5.05190372467041,0.3993837535381317
1772810287649230300,2.227230224609375,-2.0450210571289062,-4.664815902709961,0.4921470284461975
1772810287658930200,2.23693017578125,-1.8117773532867432,-4.406190395355225,0.606964111328125
1772810287668630000,2.246630126953125,-1.3296270370483398,-4.121554374694824,0.522544264793396
1772810287678330000,2.256330078125,-0.7186336517333984,-3.3766942024230957,0.023176521062850952
1772810287688030200,2.2660302734375,-0.6251740455627441,-1.3094162940979004,-0.9219343662261963
1772810287697730000,2.27572998046875,-0.09922933578491211,1.9910907745361328,-2.4272236824035645
1772810287707430000,2.285429931640625,1.2338671684265137,5.076945781707764,-3.7470474243164062
1772810287717130000,2.2951298828125,3.627969264984131,8.220993041992188,-4.625970840454102
1772810287726829800,2.304829833984375,7.333587169647217,11.695837020874023,-4.962617874145508
1772810287736530000,2.314530029296875,11.253996849060059,15.761950492858887,-6.301530838012695
1772810287746229800,2.324229736328125,12.136821746826172,19.399147033691406,-8.502107620239258
1772810287755929900,2.333929931640625,9.620487213134766,20.943117141723633,-10.085137367248535
1772810287765629700,2.343629638671875,7.748456954956055,23.475662231445312,-10.626151084899902
1772810287775329800,2.353329833984375,8.016510963439941,24.268701553344727,-9.043288230895996
1772810287785029600,2.363029541015625,9.18537712097168,21.425785064697266,-5.068625450134277
1772810287794729500,2.3727294921875,11.105753898620605,17.098018646240234,-0.19965893030166626
1772810287804429600,2.3824296875,13.12182903289795,13.738518714904785,2.916545867919922
1772810287814129400,2.39212939453125,13.132834434509277,10.795472145080566,3.561225414276123
1772810287823829500,2.40182958984375,11.745340347290039,8.807857513427734,2.2065556049346924
1772810287833529600,2.411529541015625,10.289485931396484,7.169660568237305,0.660871148109436
1772810287843229400,2.4212294921875,8.198898315429688,5.2639360427856445,-0.16611015796661377
1772810287852929300,2.43092919921875,5.737203121185303,3.474884033203125,-0.8462079763412476
1772810287862629400,2.44062939453125,3.49521541595459,2.081934928894043,-1.6219898462295532
1772810287872329200,2.4503291015625,1.5188026428222656,1.2251462936401367,-2.42999005317688
1772810287882029300,2.460029296875,-0.32136964797973633,0.3289031982421875,-2.663099527359009
1772810287891729200,2.469729248046875,-1.821207046508789,-0.8115596771240234,-2.1219868659973145
1772810287901429200,2.47942919921875,-3.0210273265838623,-1.9724311828613281,-1.0465914011001587
1772810287911129000,2.489129150390625,-3.9925954341888428,-2.870541572570801,0.01752614974975586
1772810287920829200,2.4988291015625,-4.784948825836182,-3.345040798187256,0.8793831467628479
1772810287930529000,2.508529052734375,-5.341953277587891,-3.8173117637634277,1.6082103252410889
1772810287940228900,2.518228759765625,-5.719728469848633,-4.188529968261719,2.2253618240356445
1772810287949929000,2.527928955078125,-6.074863433837891,-4.549145698547363,2.8134500980377197
1772810287959628800,2.53762890625,-6.531318664550781,-5.011900424957275,3.163982391357422
1772810287969329000,2.547328857421875,-6.900781631469727,-5.48402214050293,3.1578617095947266
1772810287979028700,2.55702880859375,-7.093963146209717,-6.049446105957031,2.8279600143432617
1772810287988728800,2.566728759765625,-7.058516025543213,-6.583512783050537,2.281690835952759
1772810287998428700,2.5764287109375,-6.75607967376709,-7.132387638092041,1.498863935470581
1772810288008128800,2.586128662109375,-6.123405456542969,-7.6462721824646,0.673364520072937
1772810288017828600,2.59582861328125,-5.4104437828063965,-8.14337158203125,0.007780492305755615
1772810288027528700,2.60552880859375,-4.81980562210083,-8.554255485534668,-0.41353660821914673
1772810288037228500,2.615228515625,-4.377873420715332,-8.921331405639648,-0.5712608098983765
1772810288046928600,2.6249287109375,-4.126754283905029,-9.318597793579102,-0.3791810870170593
1772810288056628500,2.63462841796875,-4.017233371734619,-9.740229606628418,0.08895513415336609
1772810288066328300,2.644328369140625,-3.992623805999756,-10.12938117980957,0.6493703126907349
1772810288076028400,2.6540283203125,-4.109048366546631,-10.586183547973633,1.386720061302185
1772810288085728300,2.663728271484375,-4.411862850189209,-11.271961212158203,2.234868288040161
1772810288095428400,2.673428466796875,-5.001338481903076,-12.034046173095703,2.8741207122802734
1772810288105128200,2.683128173828125,-5.624627113342285,-12.567949295043945,3.1366779804229736
1772810288114828300,2.692828369140625,-6.195322036743164,-12.855180740356445,3.299593687057495
1772810288124528000,2.702528076171875,-6.615719795227051,-13.039072036743164,3.235136032104492
1772810288134228200,2.712228271484375,-7.12558650970459,-12.884048461914062,3.2620890140533447
1772810288143928000,2.721927978515625,-7.459671974182129,-12.422666549682617,3.3721206188201904
1772810288153628000,2.7316279296875,-7.5781683921813965,-11.71477222442627,3.2432196140289307
1772810288163328000,2.741327880859375,-7.512918949127197,-10.696846961975098,2.454828977584839
1772810288173028000,2.751028076171875,-6.983857154846191,-9.832322120666504,1.4607934951782227
1772810288182728000,2.76072802734375,-6.4133524894714355,-8.969554901123047,0.30973929166793823
1772810288192428000,2.770427978515625,-6.436671733856201,-8.053792953491211,-0.6553415060043335
1772810288202128000,2.7801279296875,-6.501060962677002,-6.836043834686279,-1.4230804443359375
1772810288211827700,2.78982763671875,-6.253115653991699,-4.808732032775879,-1.8498075008392334
1772810288221527800,2.79952783203125,-5.1920647621154785,-2.976263999938965,-1.538537621498108
1772810288231227600,2.8092275390625,-3.4934499263763428,-1.2286977767944336,-0.66806560754776
1772810288240927700,2.818927734375,-1.5404257774353027,0.6365761756896973,0.057901203632354736
1772810288250627600,2.828627685546875,1.5095105171203613,2.146702289581299,0.3550865650177002
1772810288260327700,2.83832763671875,6.182516574859619,4.504238605499268,-0.19660821557044983
1772810288270027500,2.848027587890625,12.616086959838867,8.147232055664062,-0.6439345479011536
1772810288279727600,2.8577275390625,20.6567325592041,11.851572036743164,0.5502612590789795
1772810288289427500,2.867427490234375,29.994911193847656,15.247655868530273,2.530182123184204
1772810288299127300,2.877127197265625,39.667301177978516,19.136764526367188,3.716555595397949
1772810288308827400,2.886827392578125,48.041725158691406,22.63010025024414,3.554400682449341
1772810288318527200,2.89652734375,52.93364334106445,25.985532760620117,3.158027172088623
1772810288328227300,2.906227294921875,54.38217544555664,27.1197509765625,4.172398567199707
1772810288337927200,2.91592724609375,51.96755599975586,26.070051193237305,6.1540656089782715
1772810288347627300,2.925627197265625,46.58647918701172,23.94640350341797,8.019866943359375
1772810288357327000,2.9353271484375,38.54242706298828,21.629901885986328,9.160881042480469
1772810288367027200,2.945027099609375,29.193618774414062,18.853599548339844,9.194263458251953
1772810288376727000,2.95472705078125,20.787965774536133,15.434905052185059,8.046243667602539
1772810288386427000,2.964427001953125,14.008630752563477,11.816701889038086,6.130226135253906
1772810288396127000,2.974126953125,8.58950424194336,8.412359237670898,4.110211372375488
1772810288405827000,2.9838271484375,4.5205607414245605,5.0591044425964355,2.349334239959717
1772810288415527000,2.99352685546875,2.5092344284057617,2.049741744995117,0.9353218078613281
1772810288425226800,3.003226806640625,2.442169189453125,-0.7154150009155273,0.5759105682373047
1772810288434926800,3.0129267578125,1.9194011688232422,-3.166680335998535,0.7867617607116699
1772810288444626700,3.022626708984375,0.7938761711120605,-5.18068790435791,1.0477311611175537
1772810288454326800,3.032326904296875,-1.0280113220214844,-6.855869293212891,1.185407280921936
1772810288464026600,3.042026611328125,-3.2178688049316406,-8.436102867126465,1.101585865020752
1772810288473726700,3.051726806640625,-4.960257053375244,-9.733959197998047,1.0654627084732056
1772810288483426600,3.061426513671875,-6.200883388519287,-11.410665512084961,1.4793190956115723
1772810288493126700,3.071126708984375,-7.116424560546875,-13.245134353637695,1.9076948165893555
1772810288502826500,3.080826416015625,-7.864789962768555,-14.820969581604004,2.1330742835998535
1772810288512526300,3.0905263671875,-8.878826141357422,-16.047090530395508,2.0802407264709473
1772810288522226400,3.100226318359375,-9.55002212524414,-16.678264617919922,1.4820311069488525
1772810288531926300,3.10992626953125,-9.69249153137207,-16.53687286376953,0.3812330961227417
1772810288541626400,3.11962646484375,-9.782795906066895,-16.17144012451172,-0.3480885624885559
1772810288551326200,3.129326171875,-10.073498725891113,-15.587433815002441,-0.775705099105835
1772810288561026300,3.1390263671875,-10.24544620513916,-14.824850082397461,-1.124394178390503
1772810288570726100,3.14872607421875,-10.091329574584961,-14.291200637817383,-1.3555279970169067
1772810288580426200,3.15842626953125,-9.702337265014648,-13.837671279907227,-1.4760475158691406
1772810288590126000,3.1681259765625,-8.708343505859375,-13.53858757019043,-1.609901785850525
1772810288599826000,3.177825927734375,-7.222701072692871,-13.322657585144043,-1.8069274425506592
1772810288609526000,3.187526123046875,-5.815400123596191,-13.221731185913086,-1.933982491493225
1772810288619225900,3.197225830078125,-4.783119201660156,-13.185270309448242,-1.9937567710876465
1772810288628926000,3.206926025390625,-4.092645645141602,-12.987804412841797,-2.1855878829956055
1772810288638626000,3.2166259765625,-3.7204184532165527,-12.749868392944336,-2.307365894317627
1772810288648326000,3.226325927734375,-3.7867250442504883,-12.543413162231445,-2.2996277809143066
1772810288658025700,3.236025634765625,-4.054378509521484,-12.347496032714844,-2.1670939922332764
1772810288667725800,3.245725830078125,-4.341585636138916,-11.973111152648926,-1.9821851253509521
1772810288677425700,3.25542578125,-4.6342573165893555,-11.568260192871094,-1.8102657794952393
1772810288687125800,3.265125732421875,-4.882811546325684,-11.384756088256836,-1.4433798789978027
1772810288696825600,3.27482568359375,-5.106511116027832,-11.273734092712402,-1.0566797256469727
1772810288706525700,3.284525634765625,-5.222616195678711,-11.228832244873047,-0.6537905931472778
1772810288716225500,3.2942255859375,-5.174053192138672,-11.435586929321289,-0.31978142261505127
1772810288725925600,3.303925537109375,-4.752880573272705,-11.5138578414917,-0.04537862539291382
1772810288735625500,3.31362548828125,-4.284399032592773,-11.549540519714355,0.14861851930618286
1772810288745325300,3.3233251953125,-3.8108067512512207,-11.713830947875977,0.3582870364189148
1772810288755025400,3.333025390625,-3.315850257873535,-11.883565902709961,0.557876706123352
1772810288764725200,3.342725341796875,-2.9554545879364014,-11.860577583312988,0.6927706003189087
1772810288774425300,3.35242529296875,-2.754074811935425,-11.69470500946045,0.7868413925170898
1772810288784125200,3.362125244140625,-2.7435879707336426,-11.577077865600586,0.9579317569732666
1772810288793825300,3.3718251953125,-2.9384407997131348,-11.370943069458008,1.1763070821762085
1772810288803525000,3.381525146484375,-3.1189489364624023,-11.171411514282227,1.404151201248169
1772810288813225200,3.39122509765625,-3.3447070121765137,-11.020973205566406,1.701626181602478
1772810288822925000,3.400925048828125,-3.3922595977783203,-10.733769416809082,1.9260344505310059
1772810288832625000,3.410625,-3.4255285263061523,-10.220324516296387,2.070171594619751
1772810288842325000,3.420324951171875,-3.4497814178466797,-9.468114852905273,1.9830867052078247
1772810288852024800,3.43002490234375,-3.544926643371582,-8.083831787109375,1.3271458148956299
1772810288861725000,3.439724853515625,-3.3919777870178223,-5.750369071960449,0.3040311932563782
1772810288871424800,3.4494248046875,-2.644498586654663,-2.4065189361572266,-0.8134483098983765
1772810288881124900,3.459124755859375,-0.6524419784545898,1.0905523300170898,-1.298946499824524
1772810288890824700,3.46882470703125,1.703216314315796,4.611759185791016,-0.8609616756439209
1772810288900524800,3.47852490234375,3.160369396209717,10.288448333740234,-0.8359655141830444
1772810288910224600,3.488224609375,4.9734697341918945,17.937822341918945,-2.3266732692718506
1772810288919924500,3.497924560546875,6.440268516540527,20.76654815673828,-2.1761934757232666
1772810288929624600,3.50762451171875,7.304052352905273,19.99980354309082,-1.0688157081604004
1772810288939324700,3.51732470703125,10.21860122680664,21.847951889038086,-0.5039194822311401
1772810288949024500,3.5270244140625,13.91689682006836,21.50782585144043,2.6097030639648438
1772810288958724400,3.536724365234375,17.439706802368164,17.743345260620117,6.769453048706055
1772810288968424400,3.546424560546875,22.29401206970215,15.178702354431152,8.716121673583984
1772810288978124300,3.556124267578125,25.128995895385742,14.522336959838867,8.026972770690918
1772810288987824400,3.565824462890625,25.54140853881836,14.595369338989258,4.930441856384277
1772810288997524200,3.575524169921875,23.740619659423828,14.732632637023926,1.359510064125061
1772810289007224000,3.58522412109375,20.831584930419922,14.873149871826172,-1.3757026195526123
1772810289016924200,3.594924072265625,17.21893882751465,14.400777816772461,-2.406404733657837
1772810289026624300,3.604624267578125,13.261043548583984,12.910472869873047,-1.6923924684524536
1772810289036324000,3.614323974609375,9.527009963989258,11.020265579223633,-0.3853386640548706
1772810289046024000,3.62402392578125,5.886082649230957,9.199508666992188,0.8776651620864868
1772810289055724000,3.63372412109375,2.189608573913574,7.369696617126465,1.9118931293487549
1772810289065424000,3.643423828125,-1.0712718963623047,5.612731456756592,2.509751558303833
1772810289075124000,3.6531240234375,-3.632697105407715,3.6858811378479004,2.7413573265075684
1772810289084823800,3.66282373046875,-5.255607604980469,1.899162769317627,2.6795756816864014
1772810289094524000,3.67252392578125,-6.273586750030518,0.1587977409362793,2.295764446258545
1772810289104223700,3.6822236328125,-6.854868412017822,-1.4990053176879883,1.6561088562011719
1772810289113923800,3.691923828125,-6.891706466674805,-2.924419403076172,0.8147745132446289
1772810289123623700,3.701623779296875,-6.572149276733398,-4.085280895233154,-0.362811803817749
1772810289133323500,3.711323486328125,-6.322758197784424,-4.968292713165283,-1.5053921937942505
1772810289143023600,3.721023681640625,-6.14600133895874,-5.868587970733643,-2.4231343269348145
1772810289152723500,3.730723388671875,-5.798227787017822,-6.754119873046875,-3.0091795921325684
1772810289162423600,3.740423583984375,-5.599167823791504,-7.343801021575928,-3.251054525375366
1772810289172123400,3.750123291015625,-5.538633823394775,-7.771358013153076,-3.2179372310638428
1772810289181823500,3.759823486328125,-5.604226112365723,-8.132476806640625,-3.0178632736206055
1772810289191523300,3.7695234375,-5.743722915649414,-8.443339347839355,-2.6726529598236084
1772810289201223400,3.779223388671875,-6.071022987365723,-8.613481521606445,-2.458178997039795
1772810289210923300,3.78892333984375,-6.424630165100098,-8.625142097473145,-2.448335886001587
1772810289220623000,3.798623046875,-6.8174729347229,-8.676433563232422,-2.5342133045196533
1772810289230323200,3.8083232421875,-7.329761505126953,-8.60660457611084,-2.6774635314941406
1772810289240023000,3.81802294921875,-7.703989028930664,-8.492480278015137,-2.775749683380127
1772810289249723100,3.82772314453125,-7.9302520751953125,-8.411311149597168,-2.8594536781311035
1772810289259423000,3.837423095703125,-8.110527038574219,-8.24244213104248,-2.923444986343384
1772810289269123000,3.847123046875,-8.19411849975586,-8.041772842407227,-3.0046792030334473
1772810289278823000,3.856822998046875,-8.103005409240723,-7.992770671844482,-3.057626962661743
1772810289288523000,3.86652294921875,-7.920437812805176,-8.003290176391602,-3.010688066482544
1772810289298222800,3.876222900390625,-7.650628089904785,-7.947780609130859,-2.803549289703369
1772810289307922700,3.885922607421875,-7.331208229064941,-7.936352729797363,-2.346564769744873
1772810289317622800,3.895622802734375,-6.943061351776123,-7.922506332397461,-1.7992022037506104
1772810289327322600,3.905322509765625,-6.627266883850098,-7.881689071655273,-1.322831153869629
1772810289337022700,3.915022705078125,-6.467319011688232,-7.743521690368652,-1.0378689765930176
1772810289346722600,3.92472265625,-6.315138816833496,-7.564419746398926,-0.9085757732391357
1772810289356422700,3.934422607421875,-6.1124396324157715,-7.314630031585693,-0.7533670663833618
1772810289366122500,3.94412255859375,-6.098276138305664,-6.782081604003906,-0.7901238203048706
1772810289375822600,3.953822509765625,-5.786616802215576,-6.093810081481934,-0.9173393845558167
1772810289385522400,3.9635224609375,-5.588466167449951,-4.969630241394043,-1.211948275566101
1772810289395222300,3.97322216796875,-5.562920093536377,-3.287092924118042,-1.5645802021026611
1772810289404922400,3.98292236328125,-5.373998641967773,-1.3103094100952148,-1.9105253219604492
1772810289414622200,3.992622314453125,-4.032195091247559,0.8086466789245605,-1.6324687004089355
1772810289424322300,4.002322265625,-0.9999194145202637,3.1141343116760254,-0.7021214962005615
1772810289434022100,4.012022216796875,3.561277389526367,5.60405158996582,1.1521984338760376
1772810289443722200,4.02172216796875,9.389416694641113,7.677525997161865,3.280402898788452
1772810289453422000,4.031422119140625,16.429977416992188,8.843551635742188,5.650437831878662
1772810289463122200,4.0411220703125,22.818639755249023,9.812564849853516,8.082518577575684
1772810289472822000,4.050822021484375,27.0573787689209,11.757648468017578,9.658746719360352
1772810289482521900,4.06052197265625,30.14922332763672,14.172293663024902,10.525209426879883
1772810289492222000,4.070221923828125,31.756202697753906,16.31927490234375,10.865996360778809
1772810289501921800,4.079921875,33.297454833984375,18.01690673828125,10.64925765991211
1772810289511622000,4.089621826171875,33.798561096191406,18.554758071899414,10.083203315734863
1772810289521321700,4.09932177734375,32.81850814819336,18.20771026611328,8.913187980651855
1772810289531021800,4.109021728515625,30.292129516601562,17.929271697998047,7.155226707458496
1772810289540721700,4.1187216796875,26.490568161010742,17.26292610168457,5.409115791320801
1772810289550421800,4.128421875,22.726730346679688,16.154300689697266,4.063127517700195
1772810289560121600,4.13812158203125,19.470455169677734,14.546730041503906,3.527010679244995
1772810289569821400,4.147821533203125,15.833078384399414,12.389892578125,4.142475128173828
1772810289579521500,4.157521484375,11.624488830566406,10.281440734863281,4.894373893737793
1772810289589221400,4.167221435546875,7.239691257476807,8.641403198242188,5.305127143859863
1772810289598921500,4.17692138671875,2.489546298980713,6.776038646697998,5.131553649902344
1772810289608621600,4.18662158203125,-1.4801430702209473,4.769051551818848,4.115472793579102
1772810289618321400,4.1963212890625,-4.617304801940918,2.6243462562561035,2.6909921169281006
1772810289628021200,4.206021240234375,-6.663259029388428,1.0213522911071777,0.8594822883605957
1772810289637721300,4.215721435546875,-7.769539833068848,0.08069419860839844,-1.4192367792129517
1772810289647421200,4.225421142578125,-8.502960205078125,-1.05256986618042,-3.5944504737854004
1772810289657121000,4.23512109375,-8.566879272460938,-2.292111396789551,-5.1695556640625
1772810289666821000,4.244821044921875,-8.15268611907959,-3.409165382385254,-5.604316234588623
1772810289676521000,4.25452099609375,-7.370562553405762,-4.768533706665039,-4.979254722595215
1772810289686221000,4.264220947265625,-6.076603412628174,-6.177494525909424,-3.9074971675872803
1772810289695921000,4.2739208984375,-5.0754523277282715,-7.472950458526611,-2.6716794967651367
1772810289705621000,4.28362109375,-4.939340591430664,-8.802104949951172,-1.276511788368225
1772810289715320800,4.29332080078125,-5.73960018157959,-9.668233871459961,-0.2572143077850342
1772810289725021000,4.30302099609375,-6.65775728225708,-9.717442512512207,-0.09398126602172852
1772810289734720800,4.312720703125,-7.333945274353027,-9.204879760742188,-0.6395763158798218
1772810289744420600,4.322420654296875,-8.028447151184082,-8.939443588256836,-1.4481854438781738
1772810289754120700,4.33212060546875,-8.431214332580566,-8.638494491577148,-2.238858222961426
1772810289763820500,4.341820556640625,-8.846467971801758,-8.088190078735352,-2.9320387840270996
1772810289773520600,4.351520751953125,-9.25680160522461,-7.80255126953125,-3.2457237243652344
1772810289783220500,4.361220458984375,-9.340171813964844,-7.992648124694824,-2.9563417434692383
1772810289792920600,4.370920654296875,-9.042710304260254,-8.383476257324219,-2.484117031097412
1772810289802620400,4.380620361328125,-8.424541473388672,-8.475330352783203,-1.9680027961730957
1772810289812320500,4.390320556640625,-7.802401542663574,-8.426579475402832,-1.555727243423462
1772810289822020400,4.400020263671875,-7.131437301635742,-8.48745059967041,-1.1236903667449951
1772810289831720200,4.40972021484375,-6.597030162811279,-8.548271179199219,-0.787664532661438
1772810289841420300,4.419420166015625,-6.253305435180664,-8.595520973205566,-0.6753976345062256
1772810289851120000,4.4291201171875,-5.980863571166992,-8.566600799560547,-0.7789245843887329
1772810289860820200,4.4388203125,-5.83773136138916,-8.503396987915039,-0.9719017744064331
1772810289870520000,4.44852001953125,-5.774002552032471,-8.479609489440918,-1.2291160821914673
1772810289880220200,4.45822021484375,-5.655453205108643,-8.463115692138672,-1.497385859489441
1772810289889920000,4.467919921875,-5.455777645111084,-8.467657089233398,-1.6719141006469727
1772810289899620000,4.4776201171875,-5.1545281410217285,-8.574113845825195,-1.6344014406204224
1772810289909320000,4.48731982421875,-4.750790596008301,-8.749225616455078,-1.4611108303070068
1772810289919019800,4.497019775390625,-4.301839828491211,-8.752012252807617,-1.2396788597106934
1772810289928720000,4.506719970703125,-3.9809892177581787,-8.782464981079102,-0.9248716235160828
1772810289938419700,4.516419677734375,-3.7674970626831055,-8.79257869720459,-0.6433348655700684
1772810289948119800,4.526119873046875,-3.733370065689087,-8.711182594299316,-0.5294899940490723
1772810289957819600,4.535819580078125,-3.909435272216797,-8.525508880615234,-0.4457240104675293
1772810289967519700,4.545519775390625,-4.28334379196167,-8.364669799804688,-0.3899250030517578
1772810289977219600,4.555219482421875,-4.663827896118164,-8.12559986114502,-0.42142146825790405
1772810289986919700,4.564919677734375,-5.030814170837402,-7.822554588317871,-0.5392748117446899
1772810289996619500,4.57461962890625,-5.3491387367248535,-7.538532733917236,-0.7069678902626038
1772810290006319400,4.5843193359375,-5.609949588775635,-7.224582195281982,-0.8634325265884399
1772810290016019500,4.59401953125,-5.640948295593262,-6.944056510925293,-0.9272382259368896
1772810290025719300,4.60371923828125,-5.442014694213867,-6.781477928161621,-0.8828190565109253
1772810290035419400,4.61341943359375,-5.133009910583496,-6.714310646057129,-0.6130404472351074
1772810290045119200,4.623119140625,-4.700423717498779,-6.666426658630371,-0.2787511348724365
1772810290054819300,4.6328193359375,-4.095818519592285,-6.342694282531738,-0.04215782880783081
1772810290064519200,4.642519287109375,-3.4384636878967285,-5.883676052093506,0.06810003519058228
1772810290074219300,4.65221923828125,-3.0416674613952637,-4.842522144317627,0.06727087497711182
1772810290083919000,4.661919189453125,-2.3849129676818848,-3.0726795196533203,-0.20605671405792236
1772810290093619000,4.671618896484375,-1.0677061080932617,-0.6959247589111328,-0.7830790877342224
1772810290103319000,4.681319091796875,0.9984116554260254,1.999488353729248,-1.1672652959823608
1772810290113019000,4.691018798828125,3.4765710830688477,5.022244453430176,-1.431084156036377
1772810290122719000,4.700718994140625,5.7300872802734375,8.661286354064941,-2.2850537300109863
1772810290132418800,4.710418701171875,6.951966285705566,11.643335342407227,-3.952226161956787
1772810290142119000,4.720118896484375,6.723417282104492,13.85535717010498,-5.054235935211182
1772810290151818800,4.72981884765625,6.730556488037109,12.133129119873047,-3.8575053215026855
1772810290161518800,4.739518798828125,8.720672607421875,13.31785774230957,-3.235321044921875
1772810290171218700,4.74921875,11.966314315795898,12.244647979736328,-0.2588082551956177
1772810290180918500,4.75891845703125,16.227148056030273,8.376843452453613,4.70557165145874
1772810290190618600,4.76861865234375,19.658193588256836,5.581393241882324,7.98586893081665
1772810290200318500,4.778318359375,21.723201751708984,4.755867958068848,8.632041931152344
1772810290210018600,4.7880185546875,22.320310592651367,5.198353290557861,7.8176188468933105
1772810290219718400,4.797718505859375,21.212242126464844,6.076659679412842,6.333310604095459
1772810290229418500,4.80741845703125,19.06402587890625,6.813999652862549,4.708077430725098
1772810290239118300,4.817118408203125,15.039285659790039,7.644012928009033,3.2179994583129883
1772810290248818400,4.826818359375,10.193681716918945,8.440871238708496,1.4183900356292725
1772810290258518300,4.836518310546875,5.847865104675293,9.016374588012695,-0.09809470176696777
1772810290268218000,4.846218017578125,2.302605152130127,8.894098281860352,-0.689156174659729
1772810290277918200,4.855918212890625,-0.16416454315185547,8.202424049377441,-0.4613136053085327
1772810290287618000,4.8656181640625,-1.4774589538574219,7.2031731605529785,0.47956109046936035
1772810290297318100,4.875318115234375,-1.6352648735046387,6.030430316925049,1.6393110752105713
1772810290307018000,4.88501806640625,-1.4061856269836426,4.958255767822266,2.467191219329834
1772810290316717800,4.8947177734375,-1.1210789680480957,3.8103036880493164,2.8150947093963623
1772810290326418000,4.90441796875,-1.2087836265563965,2.648831367492676,2.592256546020508
1772810290336118000,4.914117919921875,-1.4500584602355957,1.6933865547180176,1.8967769145965576
1772810290345817900,4.92381787109375,-1.900434970855713,0.7131261825561523,1.1830565929412842
1772810290355517700,4.933517578125,-2.514942169189453,-0.1954808235168457,0.5485134124755859
1772810290365217800,4.9432177734375,-3.171436309814453,-0.9592204093933105,0.024282217025756836
1772810290374917600,4.952917724609375,-3.8936023712158203,-1.555893898010254,-0.6191532611846924
1772810290384617700,4.96261767578125,-4.615615367889404,-1.9926860332489014,-1.2556219100952148
1772810290394317600,4.972317626953125,-5.309926986694336,-2.3753278255462646,-1.8053926229476929
1772810290404017400,4.982017333984375,-5.826536178588867,-2.754246234893799,-2.187584400177002
1772810290413717500,4.991717529296875,-6.239307403564453,-3.2383813858032227,-2.3735249042510986
1772810290423417300,5.001417236328125,-6.497000694274902,-3.6317596435546875,-2.4404098987579346
1772810290433117400,5.011117431640625,-6.468128204345703,-3.9227514266967773,-2.3926401138305664
1772810290442817300,5.0208173828125,-6.290796279907227,-4.237934112548828,-2.2566452026367188
1772810290452517400,5.030517333984375,-6.198108196258545,-4.5344743728637695,-2.1067254543304443
1772810290462217200,5.04021728515625,-6.280440807342529,-4.7803754806518555,-1.9510213136672974
1772810290471917300,5.049917236328125,-6.383308410644531,-4.92521858215332,-1.8279967308044434
1772810290481617200,5.0596171875,-6.627838611602783,-5.000824928283691,-1.6749632358551025
1772810290491317000,5.06931689453125,-7.104164123535156,-5.081336975097656,-1.5372813940048218
1772810290501017000,5.07901708984375,-7.618402004241943,-5.21580696105957,-1.4865999221801758
1772810290510717000,5.088717041015625,-8.16525936126709,-5.2994160652160645,-1.5325496196746826
1772810290520417000,5.0984169921875,-8.662845611572266,-5.404043674468994,-1.629001259803772
1772810290530116900,5.108116943359375,-8.945631980895996,-5.577242374420166,-1.7678046226501465
1772810290539817000,5.11781689453125,-9.210990905761719,-5.7802910804748535,-1.8452603816986084
1772810290549516800,5.127516845703125,-9.288450241088867,-5.945666313171387,-1.951246976852417
1772810290559217000,5.137216796875,-9.147865295410156,-6.139893531799316,-1.9139817953109741
1772810290568916700,5.146916748046875,-8.921919822692871,-6.3602118492126465,-1.7296967506408691
1772810290578616600,5.156616455078125,-8.569234848022461,-6.471624374389648,-1.3876652717590332
1772810290588316700,5.166316650390625,-7.949514389038086,-6.780693054199219,-1.0300304889678955
1772810290598016500,5.1760166015625,-7.246994972229004,-6.80085563659668,-0.7758493423461914
1772810290607716600,5.185716552734375,-6.594930171966553,-6.350329875946045,-0.8091959357261658
1772810290617416400,5.19541650390625,-6.015818119049072,-5.606684684753418,-0.9543660879135132
1772810290627116500,5.205116455078125,-5.678264617919922,-4.108986854553223,-1.7052943706512451
1772810290636816400,5.21481640625,-5.389246940612793,-1.1402478218078613,-3.207045555114746
1772810290646516500,5.2245166015625,-4.101419925689697,2.78364896774292,-4.908981800079346
1772810290656216300,5.23421630859375,-0.12231636047363281,6.00924015045166,-5.827781677246094
1772810290665916200,5.243916259765625,4.864346027374268,9.133394241333008,-5.116502285003662
1772810290675616300,5.2536162109375,10.654364585876465,13.25021743774414,-3.583441734313965
1772810290685316000,5.263316162109375,20.29677963256836,16.23504066467285,-1.4767318964004517
1772810290695016000,5.273015869140625,28.528369903564453,17.82927703857422,1.9097058773040771
1772810290704716000,5.282716064453125,34.673553466796875,19.259891510009766,6.252224922180176
1772810290714415900,5.292415771484375,39.31298065185547,19.710063934326172,10.704492568969727
1772810290724116000,5.302115966796875,40.11827850341797,19.079689025878906,14.597930908203125
1772810290733816000,5.311816162109375,37.29492950439453,17.22138786315918,16.33233070373535
1772810290743516000,5.321515869140625,30.20433235168457,15.683775901794434,14.41172981262207
1772810290753215700,5.3312158203125,21.48621940612793,14.719457626342773,9.786661148071289
1772810290762915800,5.340915771484375,13.608755111694336,14.043414115905762,4.766977787017822
1772810290772615700,5.35061572265625,8.558647155761719,12.405580520629883,1.146773338317871
1772810290782315500,5.3603154296875,6.039132595062256,10.457944869995117,-0.8025305271148682
1772810290792015600,5.370015625,4.191188335418701,8.783625602722168,-1.4785852432250977
1772810290801715500,5.379715576171875,2.830728054046631,6.951050758361816,-0.9107637405395508
1772810290811415600,5.38941552734375,2.166517734527588,4.902565956115723,0.4100170135498047
1772810290821115400,5.399115478515625,1.6665840148925781,2.998720169067383,2.1493725776672363
1772810290830815500,5.4088154296875,0.11596822738647461,2.092238426208496,3.238697052001953
1772810290840515300,5.418515380859375,-2.2886695861816406,2.300313949584961,3.6595816612243652
1772810290850215400,5.42821533203125,-4.815914630889893,2.1422595977783203,3.5490708351135254
1772810290859915300,5.437915283203125,-6.709705352783203,0.9562282562255859,3.0247206687927246
1772810290869615000,5.447614990234375,-7.646576881408691,-0.6416635513305664,2.0853404998779297
1772810290879315200,5.457315185546875,-7.548403739929199,-1.8509912490844727,0.5252318382263184
1772810290889015000,5.46701513671875,-6.603281021118164,-3.390146255493164,-0.9983072280883789
1772810290898715100,5.476715087890625,-5.084303379058838,-5.1489973068237305,-1.9857590198516846
1772810290908415000,5.4864150390625,-3.540280342102051,-6.91048526763916,-2.3057868480682373
1772810290918115000,5.496114990234375,-2.6940152645111084,-8.517346382141113,-2.1689531803131104
1772810290927815000,5.50581494140625,-2.974862575531006,-9.64735221862793,-2.0590271949768066
1772810290937515000,5.515514892578125,-3.78090763092041,-10.001877784729004,-2.222198486328125
1772810290947214800,5.52521484375,-4.783758163452148,-9.619757652282715,-2.296222686767578
1772810290956914700,5.534914794921875,-5.798247337341309,-9.283225059509277,-2.0605220794677734
1772810290966614800,5.54461474609375,-6.530000686645508,-9.109288215637207,-1.5606136322021484
1772810290976314600,5.554314697265625,-6.927892684936523,-9.113242149353027,-1.1137917041778564
1772810290986014500,5.564014404296875,-6.615670204162598,-9.378597259521484,-1.0531861782073975
1772810290995714600,5.573714599609375,-5.839473724365234,-9.558521270751953,-1.3028864860534668
1772810291005414400,5.583414306640625,-4.942012310028076,-9.609845161437988,-1.599388837814331
1772810291015114500,5.593114501953125,-4.1144795417785645,-9.75107479095459,-1.7478106021881104
1772810291024814300,5.602814453125,-3.526211738586426,-9.915175437927246,-1.8890477418899536
1772810291034514400,5.612514404296875,-3.345822811126709,-10.064702987670898,-2.1041836738586426
1772810291044214300,5.62221435546875,-3.419001579284668,-10.105401992797852,-2.426013946533203
1772810291053914400,5.631914306640625,-3.724012613296509,-10.057486534118652,-2.9204041957855225
1772810291063614200,5.6416142578125,-4.127797603607178,-10.012124061584473,-3.472813129425049
1772810291073314000,5.65131396484375,-4.522237777709961,-9.875654220581055,-3.6197288036346436
1772810291083014100,5.66101416015625,-5.063739776611328,-9.703592300415039,-3.4914181232452393
1772810291092714000,5.6707138671875,-5.644346237182617,-9.524423599243164,-3.182757616043091
1772810291102414000,5.6804140625,-6.00020170211792,-9.546358108520508,-2.651747226715088
1772810291112114000,5.690114013671875,-6.174319744110107,-9.64356803894043,-2.046721935272217
1772810291121814000,5.69981396484375,-5.883430004119873,-9.789749145507812,-1.5569945573806763
1772810291131513900,5.709513916015625,-5.120779514312744,-9.979915618896484,-1.258801817893982
1772810291141214000,5.7192138671875,-4.11648416519165,-10.076833724975586,-1.159729242324829
1772810291150913800,5.728913818359375,-3.4415979385375977,-10.06104564666748,-1.0421620607376099
1772810291160613600,5.738613525390625,-3.154881477355957,-9.897992134094238,-1.0042762756347656
1772810291170313700,5.748313720703125,-3.4204483032226562,-9.588388442993164,-1.095376968383789
1772810291180013600,5.758013671875,-3.916161298751831,-9.245756149291992,-1.1822335720062256
1772810291189713700,5.767713623046875,-4.366875648498535,-8.893302917480469,-1.1857467889785767
1772810291199413500,5.77741357421875,-4.708984851837158,-8.655525207519531,-0.9526538252830505
1772810291209113300,5.78711328125,-4.688510894775391,-8.594828605651855,-0.6002321839332581
1772810291218813400,5.7968134765625,-4.666955471038818,-8.470417976379395,-0.3201412558555603
1772810291228513300,5.80651318359375,-4.457906723022461,-8.400559425354004,-0.05419570207595825
1772810291238213400,5.81621337890625,-4.200895309448242,-8.430509567260742,0.116668701171875
1772810291247913200,5.825913330078125,-4.075613975524902,-8.342999458312988,0.24711504578590393
1772810291257613300,5.83561328125,-3.720341205596924,-8.033150672912598,0.13533449172973633
1772810291267313200,5.845313232421875,-2.8238542079925537,-7.5026044845581055,-0.04856331646442413
1772810291277013200,5.85501318359375,-1.5604956150054932,-6.511349678039551,-0.21424537897109985
1772810291286713000,5.864713134765625,-0.5864722728729248,-4.8466796875,-0.7619208097457886
1772810291296413000,5.874412841796875,0.19582891464233398,-2.4000062942504883,-1.6787114143371582
1772810291306113000,5.884113037109375,1.4591865539550781,0.06529426574707031,-2.168682813644409
1772810291315812900,5.893812744140625,2.3846898078918457,3.4590930938720703,-2.279296875
1772810291325512700,5.9035126953125,1.9832420349121094,8.013044357299805,-2.289051055908203
1772810291335212800,5.913212890625,1.9015312194824219,11.817070960998535,-1.9954172372817993
1772810291344912600,5.92291259765625,2.9219326972961426,12.32871150970459,-0.3710888624191284
1772810291354612700,5.93261279296875,4.417263031005859,13.760736465454102,0.08653731644153595
1772810291364312800,5.942312744140625,8.564458847045898,16.1971435546875,0.8061684966087341
1772810291374012700,5.9520126953125,15.069348335266113,16.191377639770508,3.682570219039917
1772810291383712500,5.96171240234375,21.4235782623291,14.661979675292969,6.167019844055176
1772810291393412600,5.97141259765625,25.983963012695312,13.349510192871094,6.621159553527832
1772810291403112400,5.981112548828125,28.083106994628906,13.455157279968262,4.896728992462158
1772810291412812300,5.990812255859375,27.22694969177246,13.922950744628906,2.6750524044036865
1772810291422512400,6.000512451171875,23.666397094726562,13.564848899841309,1.4423242807388306
1772810291432212200,6.010212158203125,18.19866180419922,12.772690773010254,0.7878724336624146
1772810291441912300,6.019912353515625,12.101253509521484,11.81222915649414,0.0728619396686554
1772810291451612200,6.029612060546875,6.574898719787598,10.860651969909668,-0.7520586252212524
1772810291461312300,6.039312255859375,2.2672224044799805,9.665313720703125,-1.082218050956726
1772810291471012000,6.04901220703125,-0.7852458953857422,7.965071201324463,-0.8043180704116821
1772810291480712200,6.058712158203125,-2.4807076454162598,5.977828502655029,-0.30917179584503174
1772810291490412000,6.068412109375,-2.858435869216919,4.3216552734375,0.44252967834472656
1772810291500112000,6.07811181640625,-2.8508424758911133,2.524251937866211,1.1289350986480713
1772810291509812000,6.08781201171875,-2.860172748565674,0.8231797218322754,1.5302469730377197
1772810291519511800,6.09751171875,-3.0949437618255615,-0.4943251609802246,1.3902742862701416
1772810291529211600,6.107211669921875,-3.5846829414367676,-1.5008544921875,0.9299345016479492
1772810291538911700,6.116911865234375,-4.2027387619018555,-2.463315963745117,0.3791385889053345
1772810291548611600,6.126611572265625,-4.746547698974609,-3.4171996116638184,-0.1469724178314209
1772810291558311700,6.136311767578125,-5.199057579040527,-4.259182453155518,-0.602327287197113
1772810291568011500,6.146011474609375,-5.429140090942383,-4.996146202087402,-1.023870587348938
1772810291577711600,6.155711669921875,-5.424242973327637,-5.641622066497803,-1.4462392330169678
1772810291587411500,6.165411376953125,-5.3442063331604,-6.177927017211914,-1.8220635652542114
1772810291597111600,6.175111572265625,-5.361936569213867,-6.559102535247803,-2.0540075302124023
1772810291606811400,6.184811279296875,-5.408677577972412,-6.803005695343018,-2.1096675395965576
1772810291616511200,6.19451123046875,-5.523801803588867,-6.88570499420166,-2.1389987468719482
1772810291626211300,6.20421142578125,-5.752707481384277,-6.9344563484191895,-2.1180553436279297
1772810291635911200,6.2139111328125,-6.009651184082031,-6.881834030151367,-2.1172122955322266
1772810291645611300,6.223611328125,-6.183498859405518,-6.816833019256592,-2.2827320098876953
1772810291655311000,6.23331103515625,-6.402288436889648,-6.628520488739014,-2.4079036712646484
1772810291665011000,6.243010986328125,-6.801580905914307,-6.503092288970947,-2.3586363792419434
1772810291674711000,6.2527109375,-7.1599578857421875,-6.377233505249023,-2.1780548095703125
1772810291684411000,6.262410888671875,-7.434731483459473,-6.2742204666137695,-1.8416714668273926
1772810291694111000,6.272111083984375,-7.617598056793213,-6.270954608917236,-1.3543009757995605
1772810291703810800,6.281810791015625,-7.631070613861084,-6.22480583190918,-0.906362771987915
1772810291713511000,6.291510986328125,-7.524288177490234,-6.215211391448975,-0.5787628889083862
1772810291723210800,6.301210693359375,-7.365136623382568,-6.157471179962158,-0.35490119457244873
1772810291732910800,6.310910888671875,-7.20347261428833,-6.175195217132568,-0.25711798667907715
1772810291742610700,6.320610595703125,-6.910674571990967,-6.25026798248291,-0.4051210880279541
1772810291752310500,6.330310546875,-6.599605560302734,-6.282171249389648,-0.6867964267730713
1772810291762010600,6.3400107421875,-6.3643388748168945,-6.340862274169922,-0.8901530504226685
1772810291771710500,6.34971044921875,-6.115694999694824,-6.313960075378418,-1.0349314212799072
1772810291781410300,6.359410400390625,-6.056102275848389,-6.16468620300293,-1.16629958152771
1772810291791110400,6.3691103515625,-6.133305549621582,-5.870304107666016,-1.368647575378418
1772810291800810200,6.378810302734375,-6.141435146331787,-5.415025234222412,-1.5185773372650146
1772810291810510300,6.38851025390625,-6.112525463104248,-4.823089122772217,-1.5746278762817383
1772810291820210200,6.398210205078125,-6.012760162353516,-3.662363052368164,-1.9569611549377441
1772810291829910300,6.40791015625,-5.768913269042969,-1.9204754829406738,-2.679375410079956
1772810291839610000,6.417610107421875,-4.811366558074951,0.4389767646789551,-3.521979331970215
1772810291849310200,6.427310302734375,-2.1272025108337402,3.497333526611328,-3.9859845638275146
1772810291859010000,6.437010009765625,2.8358078002929688,6.608972072601318,-3.2177867889404297
1772810291868710000,6.4467099609375,8.192963600158691,9.033827781677246,-0.8248641490936279
1772810291878410000,6.456409912109375,14.485662460327148,9.573766708374023,2.427746295928955
1772810291888109800,6.46610986328125,18.953765869140625,10.137929916381836,4.800239562988281
1772810291897809700,6.4758095703125,22.115427017211914,12.242293357849121,5.911748886108398
1772810291907509800,6.485509765625,25.55060386657715,14.205714225769043,6.449820518493652
1772810291917209900,6.4952099609375,29.160736083984375,15.497949600219727,5.839211940765381
1772810291926909700,6.50490966796875,32.19116973876953,15.609954833984375,4.26861047744751
1772810291936609800,6.51460986328125,33.21625900268555,14.497339248657227,2.3152682781219482
1772810291946309600,6.5243095703125,32.42679977416992,13.376222610473633,0.3009427785873413
1772810291956009500,6.534009521484375,30.268348693847656,12.013528823852539,-0.7745739221572876
1772810291965709600,6.54370947265625,27.386301040649414,10.373958587646484,-0.6205733418464661
1772810291975409400,6.553409423828125,23.71944236755371,9.007833480834961,0.467909574508667
1772810291985109200,6.563109130859375,19.08860206604004,7.897529602050781,1.8661023378372192
1772810291994809300,6.572809326171875,13.69275951385498,7.057694911956787,2.7068705558776855
1772810292004509200,6.58250927734375,8.418641090393066,6.519649028778076,2.860177993774414
1772810292014209300,6.592209228515625,3.564763069152832,5.923442363739014,2.57755446434021
1772810292023909000,6.6019091796875,-0.2030172348022461,5.61015510559082,1.7352192401885986
1772810292033609200,6.611609130859375,-2.370025634765625,5.170793056488037,0.9357280731201172
1772810292043309000,6.62130908203125,-3.881222724914551,4.117738246917725,0.7358288764953613
1772810292053009200,6.631009033203125,-5.586296558380127,2.9536995887756348,0.7572183609008789
1772810292062709000,6.640708984375,-6.84035062789917,1.716944694519043,0.3211395740509033
1772810292072408800,6.650408935546875,-7.154311180114746,0.6042428016662598,-0.44452428817749023
1772810292082109000,6.66010888671875,-7.263242721557617,-0.5040221214294434,-1.1463475227355957
1772810292091808800,6.669808837890625,-6.750124931335449,-1.6741836071014404,-1.7221148014068604
1772810292101508900,6.6795087890625,-6.381331920623779,-2.903714418411255,-1.6449440717697144
1772810292111208700,6.689208740234375,-6.4171295166015625,-4.2127909660339355,-1.199082851409912
1772810292120908500,6.698908447265625,-6.834331512451172,-5.297586917877197,-1.0072249174118042
1772810292130608600,6.708608642578125,-7.460435390472412,-6.194851398468018,-1.0964499711990356
1772810292140308500,6.71830859375,-8.391571044921875,-6.544447422027588,-1.4103262424468994
1772810292150008600,6.728008544921875,-9.672436714172363,-6.415182113647461,-1.8721157312393188
1772810292159708400,6.73770849609375,-10.953893661499023,-6.036064147949219,-2.0320205688476562
1772810292169408500,6.747408447265625,-11.809215545654297,-5.618724346160889,-2.087447166442871
1772810292179108400,6.7571083984375,-12.103660583496094,-5.335123538970947,-1.855101466178894
1772810292188808400,6.766808349609375,-12.049578666687012,-5.26291036605835,-1.3917272090911865
1772810292198508300,6.77650830078125,-11.777990341186523,-5.22882604598999,-1.0364999771118164
1772810292208208100,6.7862080078125,-11.010818481445312,-5.161874771118164,-0.837607741355896
1772810292217908200,6.795908203125,-10.171977996826172,-5.175275802612305,-0.4830362796783447
1772810292227608000,6.805608154296875,-9.349251747131348,-5.143601417541504,-0.16853094100952148
1772810292237308000,6.815307861328125,-8.596260070800781,-4.955904006958008,-0.07093405723571777
1772810292247008000,6.825008056640625,-8.002073287963867,-4.956204414367676,0.008960604667663574
1772810292256707800,6.834707763671875,-7.582360744476318,-4.983808517456055,-0.0050209760665893555
1772810292266408000,6.844407958984375,-7.351568222045898,-4.851391315460205,-0.16144084930419922
1772810292276107800,6.854107666015625,-7.119863510131836,-4.672786235809326,-0.44667816162109375
1772810292285807600,6.8638076171875,-6.769824028015137,-4.592838287353516,-0.4992232322692871
1772810292295507700,6.8735078125,-6.242466449737549,-4.64473819732666,-0.34100115299224854
1772810292305207600,6.88320751953125,-5.432340145111084,-4.610459327697754,0.017003536224365234
1772810292314907600,6.89290771484375,-4.749378681182861,-4.695974349975586,0.4620119333267212
1772810292324607500,6.902607421875,-4.22091817855835,-4.887568950653076,0.9218616485595703
1772810292334307600,6.9123076171875,-3.95599627494812,-5.097604751586914,1.250994324684143
1772810292344007400,6.92200732421875,-3.878706455230713,-5.155575752258301,1.3633140325546265
1772810292353707500,6.93170751953125,-3.85442852973938,-5.225172519683838,1.4496368169784546
1772810292363407400,6.941407470703125,-3.951435089111328,-5.226240158081055,1.2804374694824219
1772810292373107200,6.951107177734375,-4.216120719909668,-5.15629768371582,1.036423921585083
1772810292392507100,6.970507080078125,-4.949213027954102,-5.2144575119018555,0.6517114639282227
1772810292402207000,6.98020703125,-5.156309127807617,-5.1319074630737305,0.48794126510620117
1772810292411907000,6.989906982421875,-5.354130268096924,-5.091247081756592,0.45004165172576904
1772810292421607000,6.99960693359375,-5.554207801818848,-5.118803977966309,0.589817225933075
1772810292431307000,7.00930712890625,-5.689002990722656,-5.197944164276123,0.8324573040008545
1772810292441006800,7.0190068359375,-5.469379901885986,-5.221198558807373,0.9936068654060364
1772810292450707000,7.02870703125,-5.057967185974121,-5.230454444885254,1.2089252471923828
1772810292460406800,7.03840673828125,-4.280669689178467,-5.138101577758789,1.4134324789047241
1772810292470107000,7.04810693359375,-3.6170079708099365,-4.697203636169434,1.5197046995162964
1772810292479806700,7.057806640625,-3.0966544151306152,-3.9672441482543945,1.526335597038269
1772810292489506600,7.067506591796875,-2.2958335876464844,-2.551344156265259,1.2400251626968384
1772810292499206700,7.07720654296875,-1.2776908874511719,-0.4342937469482422,0.8925624489784241
1772810292508906500,7.086906494140625,0.03299093246459961,1.4206781387329102,0.44163885712623596
1772810292518606300,7.0966064453125,1.746199607849121,3.3786191940307617,-0.4147195816040039
1772810292528306400,7.106306396484375,4.24423360824585,5.687244415283203,-1.49506676197052
1772810292538006300,7.11600634765625,6.589686870574951,8.027456283569336,-2.8204028606414795
1772810292547706400,7.125706298828125,8.81362533569336,7.995580196380615,-2.5183844566345215
1772810292557406200,7.13540625,8.994485855102539,6.2126851081848145,-1.6902085542678833
1772810292567106300,7.145106201171875,8.861400604248047,7.762977600097656,-2.520533561706543
1772810292576806100,7.15480615234375,9.913166046142578,8.9564208984375,-2.899266481399536
1772810292586506200,7.16450634765625,10.687810897827148,9.100908279418945,-2.9985036849975586
1772810292596206000,7.1742060546875,11.435125350952148,8.735292434692383,-3.0777509212493896
1772810292605906000,7.183906005859375,12.194522857666016,8.281108856201172,-3.2326903343200684
1772810292615606000,7.19360595703125,12.692571640014648,7.880353927612305,-3.7053868770599365
1772810292625305900,7.203305908203125,13.351469039916992,7.579771518707275,-4.477135181427002
1772810292635006000,7.213005859375,14.551263809204102,7.044247627258301,-5.116240978240967
1772810292644705800,7.222705810546875,14.867532730102539,6.429373741149902,-5.2739787101745605
1772810292654405600,7.232405517578125,13.976198196411133,5.673951625823975,-4.919238567352295
1772810292664105700,7.242105712890625,12.184205055236816,4.977132320404053,-4.265600204467773
1772810292673805600,7.2518056640625,9.896444320678711,4.301816940307617,-3.3673901557922363
1772810292683505700,7.261505615234375,7.266742706298828,3.6931886672973633,-2.3016960620880127
1772810292693205500,7.27120556640625,4.771866798400879,3.047433376312256,-1.0641119480133057
1772810292702905600,7.280905517578125,2.128117561340332,2.6956162452697754,0.021205782890319824
1772810292712605400,7.29060546875,-0.7205400466918945,2.5094070434570312,0.7536575794219971
1772810292722305500,7.300305419921875,-3.5025978088378906,2.2871670722961426,1.3513764142990112
1772810292732005400,7.31000537109375,-5.747646331787109,1.981062412261963,1.5914125442504883
1772810292741705200,7.319705322265625,-7.177681922912598,1.4285645484924316,1.6044384241104126
1772810292751405300,7.3294052734375,-7.335236549377441,0.6953001022338867,1.2546958923339844
1772810292761105200,7.339105224609375,-6.6722517013549805,0.04638051986694336,0.7759748697280884
1772810292770805000,7.348804931640625,-5.651528835296631,-0.4567575454711914,0.22323405742645264
1772810292780505000,7.358505126953125,-4.958200454711914,-1.0472369194030762,-0.16952383518218994
1772810292790205000,7.368204833984375,-4.312652587890625,-1.639798879623413,-0.4040273427963257
1772810292799904800,7.37790478515625,-3.785642623901367,-1.9893510341644287,-0.631615400314331
1772810292809604900,7.38760498046875,-3.7133641242980957,-2.1133172512054443,-0.90004563331604
1772810292819304700,7.3973046875,-3.7765026092529297,-2.2735719680786133,-0.9247301816940308
1772810292829004800,7.4070048828125,-4.086125373840332,-2.2918503284454346,-0.9283881187438965
1772810292838704600,7.41670458984375,-4.7280378341674805,-2.221137762069702,-0.9856700897216797
1772810292848404700,7.42640478515625,-5.420315742492676,-2.1605329513549805,-0.927264928817749
1772810292858104600,7.4361044921875,-6.19333553314209,-2.124661445617676,-0.9115967750549316
1772810292867804700,7.4458046875,-6.758833885192871,-1.977846384048462,-1.014390230178833
1772810292877504500,7.45550439453125,-6.978909492492676,-1.9207106828689575,-1.0399645566940308
1772810292887204400,7.465204345703125,-7.008687496185303,-1.948625087738037,-1.0170032978057861
1772810292896904400,7.474904541015625,-6.921257019042969,-1.948432207107544,-1.0156199932098389
1772810292906604300,7.484604248046875,-6.803742408752441,-2.0436315536499023,-1.068941354751587
1772810292916304400,7.494304443359375,-6.787079811096191,-2.1108531951904297,-1.1563273668289185
1772810292926004200,7.504004150390625,-6.717171669006348,-2.1935715675354004,-1.2211147546768188
1772810292935704000,7.5137041015625,-6.6742730140686035,-2.3452630043029785,-1.2102477550506592
1772810292945404200,7.523404052734375,-6.789071559906006,-2.4963011741638184,-1.1547144651412964
1772810292955104000,7.53310400390625,-6.875166893005371,-2.720891237258911,-0.9727180004119873
1772810292964804000,7.54280419921875,-6.939451217651367,-2.9731526374816895,-0.8373221158981323
1772810292974504000,7.55250390625,-6.922544479370117,-3.220304250717163,-0.7034976482391357
1772810292984203800,7.562203857421875,-6.83712100982666,-3.4962406158447266,-0.5822433233261108
1772810292993903900,7.57190380859375,-6.359702110290527,-3.830366611480713,-0.31978535652160645
1772810293003603700,7.581603759765625,-5.820436477661133,-4.010687828063965,-0.12527525424957275
1772810293013303800,7.5913037109375,-5.468696594238281,-3.8336992263793945,-0.15847480297088623
1772810293023003600,7.601003662109375,-5.210697174072266,-3.1358747482299805,-0.5448745489120483
1772810293032703700,7.610703857421875,-4.862615585327148,-1.7104387283325195,-1.0960842370986938
1772810293042403600,7.620403564453125,-3.918307304382324,0.6216020584106445,-1.7775168418884277
1772810293052103400,7.630103515625,-1.257845401763916,3.673916816711426,-2.009183168411255
1772810293071503400,7.64950341796875,7.925949573516846,6.789717674255371,0.6389305591583252
1772810293081203500,7.659203369140625,11.77202033996582,8.144750595092773,2.257924795150757
1772810293090903300,7.6689033203125,15.364757537841797,8.871830940246582,3.7881345748901367
1772810293100603100,7.67860302734375,18.650697708129883,8.820632934570312,5.086338996887207
1772810293110303200,7.68830322265625,22.266407012939453,11.176567077636719,5.123765468597412
1772810293120003000,7.698003173828125,26.236976623535156,13.01773738861084,5.511404037475586
1772810293129703200,7.707703125,30.67363929748535,14.189212799072266,4.772443771362305
1772810293139403000,7.717403076171875,34.03009796142578,14.02672004699707,4.068187713623047
1772810293149103000,7.72710302734375,35.347633361816406,11.8370361328125,4.309638500213623
1772810293158803000,7.736802978515625,34.914730072021484,9.472604751586914,4.534669876098633
1772810293168502800,7.746502685546875,31.995119094848633,7.643254280090332,4.257519721984863
1772810293178203000,7.756202880859375,26.219890594482422,6.949316501617432,3.1555070877075195
1772810293187902700,7.76590283203125,18.944644927978516,7.097745895385742,1.4652440547943115
1772810293197602800,7.775602783203125,11.794698715209961,7.389944076538086,-0.06984817981719971
1772810293207302700,7.785302734375,5.408004283905029,7.806692600250244,-1.3322550058364868
1772810293217002500,7.79500244140625,-0.20799636840820312,7.9800896644592285,-2.8348379135131836
1772810293226702600,7.80470263671875,-5.466501712799072,7.1721343994140625,-3.8699121475219727
1772810293236402400,7.81440234375,-9.556097030639648,5.014331817626953,-3.445770025253296
1772810293246102300,7.824102294921875,-11.549849510192871,2.150467872619629,-2.6542835235595703
1772810293255802400,7.83380224609375,-11.401443481445312,-0.09640884399414062,-2.387661933898926
1772810293265502200,7.843502197265625,-9.49685287475586,-1.907425880432129,-2.2492339611053467
1772810293275202300,7.853202392578125,-6.027526378631592,-3.843750476837158,-1.3564317226409912
1772810293284902100,7.862902099609375,-2.8450236320495605,-5.58308219909668,-0.04785311222076416
1772810293294602200,7.872602294921875,-0.3024001121520996,-7.159884452819824,1.134040117263794
1772810293304302000,7.882302001953125,0.47187089920043945,-8.39136028289795,1.9627292156219482
1772810293314002200,7.892002197265625,-0.2115774154663086,-9.311514854431152,2.076676368713379
1772810293323702000,7.901701904296875,-1.6804590225219727,-9.444828033447266,1.6288478374481201
1772810293333401900,7.91140185546875,-3.514526128768921,-9.209330558776855,0.7674150466918945
1772810293343102000,7.92110205078125,-5.270613670349121,-9.108169555664062,-0.039673447608947754
1772810293352801800,7.9308017578125,-6.576866626739502,-9.012584686279297,-0.8868696689605713
1772810293362502000,7.940501953125,-7.404925346374512,-8.806794166564941,-1.481698751449585
1772810293372201700,7.95020166015625,-7.9336771965026855,-8.727787971496582,-1.5954365730285645
1772810293381901600,7.959901611328125,-7.675538539886475,-8.836263656616211,-1.329944133758545
1772810293391601700,7.9696015625,-6.563218116760254,-9.385847091674805,-0.6972893476486206
1772810293401301500,7.979301513671875,-5.050553798675537,-10.127551078796387,-0.08292317390441895
1772810293411001300,7.98900146484375,-3.9015254974365234,-10.681346893310547,0.28743916749954224
1772810293420701400,7.998701416015625,-3.306746006011963,-10.958395957946777,0.404305636882782
1772810293430401300,8.0084013671875,-3.2839295864105225,-11.049983024597168,0.26461705565452576
1772810293440101400,8.018101318359374,-3.767855644226074,-10.877607345581055,-0.1565549373626709
1772810293449801200,8.02780126953125,-4.535628318786621,-10.623250961303711,-0.6297725439071655
1772810293459501300,8.037501220703126,-5.3323211669921875,-10.405736923217773,-0.9083790183067322
1772810293469201200,8.047201171875,-6.122377872467041,-10.28158950805664,-0.9411553144454956
1772810293478901000,8.05690087890625,-6.655283451080322,-10.323243141174316,-0.8283801078796387
1772810293488601000,8.06660107421875,-6.857438087463379,-10.40863037109375,-0.7060302495956421
1772810293498301000,8.076301025390626,-6.857319355010986,-10.551074981689453,-0.5830031633377075
1772810293508001000,8.0860009765625,-6.844090461730957,-10.723459243774414,-0.4629451632499695
1772810293517700900,8.095700927734375,-6.6909284591674805,-10.846598625183105,-0.39737430214881897
1772810293527401000,8.10540087890625,-6.379123687744141,-10.870810508728027,-0.42647281289100647
1772810293537100800,8.115100830078125,-6.038054466247559,-10.815483093261719,-0.5432958602905273
1772810293556500700,8.134500732421875,-5.475287437438965,-10.409933090209961,-0.8553950786590576
1772810293566200600,8.14420068359375,-5.34681510925293,-10.172465324401855,-0.9400461316108704
1772810293575900400,8.153900390625,-5.267800331115723,-9.871420860290527,-0.9483339190483093
1772810293585600500,8.1636005859375,-5.087150573730469,-9.598543167114258,-0.8845179080963135
1772810293595300400,8.17330029296875,-5.065139293670654,-9.40927505493164,-0.6532369256019592
1772810293605000400,8.18300048828125,-4.858307838439941,-9.267911911010742,-0.5215252637863159
1772810293614700300,8.1927001953125,-4.389188289642334,-9.132316589355469,-0.5286827087402344
1772810293624400100,8.202400146484376,-4.047948360443115,-8.724949836730957,-0.46879324316978455
1772810293634100200,8.212100341796875,-3.8832430839538574,-8.317408561706543,-0.26622000336647034
1772810293643800000,8.221800048828126,-3.639470338821411,-7.893363952636719,0.0004566609859466553
1772810293653500200,8.231500244140625,-3.278973340988159,-7.323042869567871,0.3390256464481354
1772810293663200000,8.241199951171875,-3.134941577911377,-6.2163166999816895,0.5607211589813232
1772810293672900000,8.250900146484375,-3.281742572784424,-4.471413612365723,0.20625829696655273
1772810293682600000,8.260599853515625,-2.826892852783203,-1.879812240600586,-0.9955058693885803
1772810293692299800,8.2702998046875,-1.9436023235321045,1.4478607177734375,-2.1560778617858887
1772810293701999900,8.279999755859375,-0.6859664916992188,5.1551103591918945,-2.789482355117798
1772810293711699700,8.28969970703125,0.9671587944030762,9.349955558776855,-2.443071126937866
1772810293721399800,8.29939990234375,4.065785884857178,12.662692070007324,-0.8290302753448486
1772810293731099600,8.309099609375,6.953840255737305,14.774784088134766,0.8794232606887817
1772810293740799500,8.318799560546875,9.171672821044922,13.849748611450195,4.214687347412109
1772810293750499600,8.32849951171875,11.777597427368164,14.214649200439453,5.381659984588623
1772810293760199400,8.338199462890625,15.075461387634277,15.043281555175781,5.7394304275512695
1772810293769899300,8.347899169921876,18.617332458496094,13.674750328063965,6.433346271514893
1772810293779599400,8.357599365234375,21.60586166381836,12.309356689453125,6.135250091552734
1772810293789299200,8.36729931640625,23.46966552734375,12.30537223815918,4.604303359985352
1772810293798999300,8.376999267578125,22.75949478149414,13.392219543457031,2.320864200592041
1772810293808699100,8.38669921875,19.728790283203125,14.358686447143555,0.5912163853645325
1772810293818399200,8.396399169921875,15.206307411193848,14.571331024169922,-0.09887585043907166
1772810293828099000,8.40609912109375,10.595333099365234,14.25502872467041,-0.3854742646217346
1772810293837799200,8.415799072265624,6.299004077911377,13.21585464477539,-0.04478068649768829
1772810293847499000,8.4254990234375,2.4701147079467773,11.514654159545898,0.6874051094055176
1772810293857198800,8.43519873046875,-0.2348165512084961,9.527969360351562,1.182836890220642
1772810293866899000,8.44489892578125,-1.539419174194336,7.6249918937683105,1.0504841804504395
1772810293876598800,8.454598876953124,-1.5081062316894531,5.898117542266846,0.34797200560569763
1772810293886298600,8.464298583984375,-0.7596225738525391,3.928675651550293,-0.3846469223499298
1772810293895998700,8.473998779296876,-0.0816354751586914,1.983248233795166,-0.8737316131591797
1772810293905698600,8.483698486328125,0.12373971939086914,0.3971991539001465,-1.0016576051712036
1772810293915398700,8.493398681640626,-0.38056373596191406,-0.8543896675109863,-0.563984215259552
1772810293925098500,8.503098388671875,-1.456763744354248,-1.885962963104248,0.1317022144794464
1772810293934798300,8.51279833984375,-2.7230091094970703,-2.658740520477295,0.5064877271652222
1772810293944498400,8.52249853515625,-4.043808937072754,-3.317753791809082,0.7078391909599304
1772810293954198300,8.5321982421875,-5.235827445983887,-4.090035438537598,0.8305308818817139
1772810293963898000,8.541898193359375,-5.88618278503418,-4.9561357498168945,0.7862997651100159
1772810293973598200,8.55159814453125,-5.999395847320557,-5.759571075439453,0.6707088947296143
1772810293983298000,8.561298095703124,-6.01017951965332,-6.419112205505371,0.5305594205856323
1772810293992998100,8.570998046875,-5.9409284591674805,-7.063122749328613,0.23046758770942688
1772810294002698000,8.580697998046874,-5.81641960144043,-7.603793144226074,-0.2789456248283386
1772810294012398000,8.590398193359375,-5.550889492034912,-7.933543682098389,-0.8018192648887634
1772810294022098000,8.600097900390624,-5.221828937530518,-8.193809509277344,-1.1682604551315308
1772810294031798000,8.609798095703125,-5.139917373657227,-8.29111099243164,-1.3068830966949463
1772810294041497900,8.619497802734376,-5.310356140136719,-8.263012886047363,-1.183556318283081
1772810294051197700,8.62919775390625,-5.809206485748291,-8.122408866882324,-0.8878523111343384
1772810294060897800,8.638897705078126,-6.635327339172363,-7.8740105628967285,-0.5918542742729187
1772810294070597600,8.64859765625,-7.33464241027832,-7.679166793823242,-0.4101502299308777
1772810294080297700,8.658297607421876,-7.821987152099609,-7.427410125732422,-0.29884636402130127
1772810294089997600,8.66799755859375,-8.242524147033691,-7.211245536804199,-0.18353570997714996
1772810294099697400,8.677697509765625,-8.281927108764648,-7.149949073791504,-0.14360588788986206
1772810294109397500,8.6873974609375,-7.951467514038086,-7.0580949783325195,-0.08512818813323975
1772810294119097300,8.697097412109375,-7.605008125305176,-6.916741371154785,-0.05428418517112732
1772810294128797200,8.706797119140624,-7.230468273162842,-6.848019599914551,-0.027688205242156982
1772810294138497300,8.716497314453125,-6.801239967346191,-6.790728569030762,-0.14697790145874023
1772810294148197000,8.726197021484374,-6.365379810333252,-6.6095075607299805,-0.3057789206504822
1772810294157897000,8.73589697265625,-5.94980525970459,-6.246461391448975,-0.23717975616455078
1772810294167597000,8.74559716796875,-5.338147163391113,-5.952392578125,0.13595932722091675
1772810294177297000,8.755296875,-4.510978698730469,-5.382619857788086,0.4953363537788391
1772810294186997000,8.7649970703125,-3.6732122898101807,-3.9925284385681152,0.4671483039855957
1772810294196696800,8.77469677734375,-3.1436119079589844,-1.9847917556762695,0.0574336051940918
1772810294206397000,8.78439697265625,-3.075878620147705,0.5326509475708008,-0.6934154629707336
1772810294216096800,8.7940966796875,-1.489262580871582,2.894045352935791,-1.542784333229065
1772810294225796900,8.803796875,1.8606925010681152,5.485890865325928,-2.2179925441741943
1772810294235496700,8.81349658203125,4.86483907699585,8.435855865478516,-2.513333320617676
1772810294245196500,8.823196533203125,7.499894142150879,10.286145210266113,-2.0924830436706543
1772810294254896600,8.832896728515625,10.93880844116211,10.976789474487305,-1.2193701267242432
1772810294264596500,8.842596435546875,14.472333908081055,11.542757034301758,-0.7840267419815063
1772810294274296600,8.852296630859374,18.226726531982422,12.651216506958008,-1.5583429336547852
1772810294283996400,8.861996337890625,21.264110565185547,13.470340728759766,-1.9924416542053223
1772810294293696300,8.8716962890625,23.51300811767578,14.225580215454102,-2.3142852783203125
1772810294303396400,8.881396240234375,25.539079666137695,15.298044204711914,-3.0320606231689453
1772810294313096200,8.89109619140625,25.843278884887695,15.397635459899902,-3.470006227493286
1772810294322796000,8.900796142578125,24.659221649169922,14.174508094787598,-2.365522623062134
1772810294332496100,8.91049609375,22.886388778686523,12.35357666015625,-0.3365413546562195
1772810294342196000,8.920196044921875,21.267948150634766,10.760406494140625,1.1623923778533936
1772810294351896000,8.92989599609375,19.738025665283203,9.299224853515625,1.915433645248413
1772810294361596000,8.939595947265625,17.591764450073242,8.213727951049805,1.5446059703826904
1772810294371295700,8.949295654296876,15.27739143371582,7.700960636138916,-0.36007028818130493
1772810294380995800,8.958995849609375,12.51567268371582,7.2120561599731445,-2.6820907592773438
1772810294390695700,8.96869580078125,10.022266387939453,6.507561206817627,-4.619781017303467
1772810294400395800,8.978395751953125,7.700198650360107,5.4337944984436035,-5.551558971405029
1772810294410095600,8.988095703125,5.110937118530273,4.042626857757568,-5.42268180847168
1772810294419795500,8.99779541015625,2.806960105895996,2.580660343170166,-4.550649642944336
1772810294429495600,9.00749560546875,0.575650691986084,0.5491571426391602,-3.18471622467041
1772810294439195400,9.0171953125,-1.370213508605957,-1.0645904541015625,-1.4535855054855347
1772810294448895500,9.0268955078125,-3.1333532333374023,-3.0824856758117676,0.2933284640312195
1772810294458595300,9.03659521484375,-4.497949600219727,-5.514471054077148,1.5845086574554443
1772810294468295400,9.04629541015625,-5.555654525756836,-6.9981160163879395,2.182382583618164
1772810294477995300,9.055995361328126,-6.259990692138672,-7.981011390686035,1.7944811582565308
1772810294487695000,9.065695068359375,-7.466634750366211,-8.61502456665039,0.7748167514801025
1772810294497395200,9.075395263671876,-7.845499515533447,-9.77846908569336,-0.7770351767539978
1772810294507095000,9.085094970703125,-8.2556791305542,-10.794700622558594,-2.08832049369812
1772810294516795000,9.094794921875,-8.040011405944824,-10.953178405761719,-2.847058057785034
1772810294526495000,9.104494873046875,-7.581074237823486,-11.025420188903809,-3.2070083618164062
1772810294536194800,9.11419482421875,-7.889742374420166,-10.929254531860352,-2.8833887577056885
1772810294545895000,9.12389501953125,-8.733380317687988,-10.64675521850586,-2.7509777545928955
1772810294555594800,9.1335947265625,-9.553475379943848,-10.170943260192871,-2.8305816650390625
1772810294565294600,9.143294677734374,-10.073493003845215,-9.519460678100586,-2.7730422019958496
1772810294574994700,9.15299462890625,-10.367996215820312,-8.778404235839844,-2.491393566131592
1772810294584694500,9.162694580078124,-10.193931579589844,-8.159842491149902,-2.1457040309906006
1772810294594394400,9.172394287109375,-9.637144088745117,-7.722853660583496,-1.4561270475387573
1772810294604094500,9.182094482421874,-8.302840232849121,-7.5761027336120605,-0.7984225749969482
1772810294613794300,9.191794189453125,-6.209810733795166,-7.614161014556885,-0.3795788884162903
1772810294623494400,9.201494384765626,-4.514387130737305,-7.500323295593262,-0.07243798673152924
1772810294633194200,9.2111943359375,-3.0223889350891113,-7.535001754760742,0.24788324534893036
1772810294642894000,9.22089404296875,-1.8631348609924316,-7.470291614532471,0.3632480204105377
1772810294652594200,9.23059423828125,-1.364461898803711,-7.262890338897705,0.3964320123195648
1772810294662294000,9.2402939453125,-1.739509105682373,-7.297886371612549,0.48617732524871826
1772810294671994000,9.249994140625,-2.5778040885925293,-7.245067119598389,0.7050642967224121
1772810294681694000,9.25969384765625,-3.099301815032959,-6.539481163024902,0.8258320093154907
1772810294691394000,9.26939404296875,-3.8575847148895264,-6.295979022979736,0.8246068358421326
1772810294701094000,9.279093994140625,-4.4366607666015625,-6.297321319580078,0.9424269199371338
1772810294710793700,9.288793701171874,-5.388552665710449,-6.4185404777526855,0.7761724591255188
1772810294720493800,9.298493896484375,-5.784068584442139,-6.18309211730957,1.0179134607315063
1772810294730193700,9.308193603515624,-6.084322929382324,-6.372974872589111,1.4095617532730103
1772810294739893800,9.317893798828125,-5.651832103729248,-6.5314226150512695,1.4828038215637207
1772810294749593600,9.327593505859374,-3.9445276260375977,-5.842270374298096,2.2967309951782227
1772810294759293400,9.33729345703125,-1.476426601409912,-4.063390254974365,4.100054740905762
1772810294768993500,9.34699365234375,-1.2837672233581543,-1.2408456802368164,5.797464847564697
1772810294778693400,9.356693359375,-2.4791340827941895,-1.4705204963684082,5.143861293792725
1772810294788393200,9.366393310546876,-3.7032108306884766,-0.9543881416320801,4.847448825836182
1772810294798093300,9.37609326171875,-3.1531286239624023,1.5535855293273926,3.263530731201172
1772810294807793200,9.385793212890626,-3.778764486312866,1.3746089935302734,-0.05232596397399902
1772810294817493200,9.3954931640625,-2.6299848556518555,0.8628206253051758,-1.206904411315918
1772810294827193000,9.405193115234376,-1.0468416213989258,3.6026721000671387,-2.24609375
1772810294836893000,9.414892822265625,-2.4499123096466064,4.9330644607543945,-2.0134940147399902
1772810294846593000,9.424593017578125,-0.5651006698608398,4.737354755401611,-0.3571028709411621
1772810294856292900,9.43429296875,1.3617205619812012,4.733170986175537,-0.36900007724761963
1772810294865992700,9.44399267578125,3.388214111328125,4.643003463745117,-0.7408760190010071
1772810294875692800,9.45369287109375,3.8280458450317383,5.673605918884277,-1.5149459838867188
1772810294885392600,9.463392578125,3.5361766815185547,6.367176532745361,-1.5864486694335938
1772810294895092700,9.4730927734375,2.7969131469726562,6.216147422790527,-1.1863319873809814
1772810294904792600,9.48279248046875,2.2054648399353027,7.348517894744873,-0.9533945918083191
1772810294914492700,9.49249267578125,2.689568042755127,7.570036888122559,-0.4514840841293335
1772810294924192500,9.502192626953125,3.5025858879089355,7.5158610343933105,0.0760437548160553
1772810294933892400,9.511892333984376,4.255590915679932,6.653130531311035,0.7971453666687012
1772810294943592400,9.521592529296875,5.0572309494018555,6.251494884490967,1.4195287227630615
1772810294953292300,9.531292236328126,5.261221408843994,6.2784953117370605,1.6866261959075928
1772810294962992400,9.540992431640625,5.4953837394714355,6.109039306640625,1.4878246784210205
1772810294972692200,9.550692138671875,5.362154006958008,5.709550380706787,0.8600143194198608
1772810294982392000,9.56039208984375,4.858071327209473,4.375797748565674,0.26115453243255615
1772810294992092200,9.570092041015625,4.67194128036499,3.055797576904297,-0.3792950212955475
1772810295001792000,9.5797919921875,4.5208353996276855,2.020297050476074,-0.852863073348999
1772810295011492000,9.5894921875,4.159224987030029,1.3915553092956543,-1.0158827304840088
1772810295021192000,9.59919189453125,3.520336151123047,0.9930167198181152,-0.6092677712440491
1772810295030891800,9.608891845703125,2.7821435928344727,0.9516482353210449,0.20594745874404907
1772810295040592000,9.618591796875,1.9149971008300781,0.8682265281677246,1.0595989227294922
1772810295050291700,9.628291748046875,0.7669978141784668,0.6628646850585938,1.7367783784866333
1772810295059991600,9.637991455078126,-0.2712540626525879,0.4172244071960449,1.9414808750152588
1772810295069691600,9.647691650390625,-1.217803955078125,0.12786245346069336,1.6624634265899658
1772810295079391500,9.6573916015625,-1.971311092376709,-0.26436662673950195,1.1265957355499268
1772810295089091600,9.667091552734375,-2.5887680053710938,-0.6414556503295898,0.4740055203437805
1772810295098791400,9.67679150390625,-3.1006455421447754,-0.9358763694763184,-0.15745751559734344
1772810295108491300,9.6864912109375,-3.3728508949279785,-1.256697654724121,-0.8068350553512573
1772810295118191400,9.69619140625,-3.2515597343444824,-1.563626766204834,-1.342059850692749
1772810295127891200,9.70589111328125,-3.043671131134033,-1.7789087295532227,-1.6329294443130493
1772810295137591000,9.715591064453125,-2.623295783996582,-1.858424186706543,-1.6802468299865723
1772810295147291100,9.725291015625,-2.2385268211364746,-1.65639066696167,-1.524945855140686
1772810295156991000,9.734990966796875,-1.8761591911315918,-1.2377405166625977,-1.0806188583374023
1772810295166691000,9.744691162109374,-1.4986968040466309,-0.6750664710998535,-0.3834444582462311
1772810295176391000,9.754390869140625,-1.253626823425293,-0.1734638214111328,0.44437193870544434
1772810295186091000,9.764091064453124,-1.3124990463256836,0.19443178176879883,1.1114716529846191
1772810295195790800,9.773790771484375,-1.5795512199401855,0.3532414436340332,1.4261505603790283
1772810295205490700,9.78349072265625,-1.7490143775939941,0.4757809638977051,1.3502147197723389
1772810295215190800,9.793190673828125,-1.689126968383789,0.5223326683044434,1.2152209281921387
1772810295224890600,9.802890625,-1.3427352905273438,0.4618110656738281,1.1354461908340454
1772810295234590700,9.8125908203125,-0.7705440521240234,0.02037525177001953,0.9570761919021606
1772810295244290600,9.82229052734375,-0.49980783462524414,-0.5239882469177246,0.771662175655365
1772810295253990400,9.831990478515625,-0.21697092056274414,-0.8776798248291016,0.45741409063339233
1772810295263690500,9.8416904296875,-0.2594485282897949,-1.1115469932556152,0.10235577821731567
1772810295273390300,9.851390380859375,-0.5871973037719727,-1.226513385772705,-0.14148125052452087
1772810295283090400,9.86109033203125,-0.9069676399230957,-1.0015606880187988,-0.22159555554389954
1772810295292790300,9.870790283203124,-1.1371636390686035,-0.5863752365112305,-0.06304292380809784
1772810295302490000,9.880489990234375,-1.309922218322754,-0.1341557502746582,0.3008929193019867
