time,seconds_elapsed,z,y,x
1772810436329801000,0.109801025390625,0.2977965772151947,-0.23678645491600037,0.30978479981422424
1772810436349201000,0.129200927734375,0.37201663851737976,-0.016035201027989388,0.1631772518157959
1772810436358900700,0.138900634765625,0.4214966893196106,0.09789107739925385,0.10881029069423676
1772810436368600600,0.1486005859375,0.4257727563381195,0.18463388085365295,0.09292780607938766
1772810436378300400,0.158300537109375,0.36682429909706116,0.22647811472415924,0.10483966767787933
1772810436388000300,0.168000244140625,0.2507599890232086,0.19960007071495056,0.1268308013677597
1772810436397700000,0.1777001953125,0.10659590363502502,0.09850194305181503,0.14362958073616028
1772810436407400000,0.18739990234375,0.03237583488225937,-0.027259841561317444,0.14515674114227295
1772810436417099800,0.197099853515625,0.0922405794262886,-0.183030366897583,0.15615230798721313
1772810436426799600,0.206799560546875,-0.048563748598098755,-0.38705918192863464,0.131717711687088
1772810436436499700,0.216499755859375,-0.2886336147785187,-0.5730675458908081,0.16165009140968323
1772810436446199600,0.226199462890625,-0.41233372688293457,-0.7816778421401978,0.23617559671401978
1772810436455899400,0.2358994140625,-0.33200499415397644,-0.9777654409408569,0.21571162343025208
1772810436465599200,0.24559912109375,-0.11117739230394363,-0.9585232138633728,0.021151192486286163
1772810436475299000,0.255299072265625,0.16737695038318634,-0.7599921226501465,-0.21464261412620544
1772810436484999000,0.2649990234375,0.3952295184135437,-0.6146063208580017,-0.3927097022533417
1772810436494699000,0.274698974609375,0.5192350745201111,-0.7337249517440796,-0.5130500793457031
1772810436504398600,0.284398681640625,0.547029435634613,-1.068784236907959,-0.6089558005332947
1772810436514098700,0.2940986328125,0.609948456287384,-1.4017056226730347,-0.6486620306968689
1772810436523798500,0.303798583984375,0.6982184648513794,-1.3235149383544922,-0.5564214587211609
1772810436533498400,0.313498291015625,0.739757239818573,-0.9001855850219727,-0.35789039731025696
1772810436543198200,0.3231982421875,0.6905826330184937,-0.5932260751724243,-0.18348850309848785
1772810436552898000,0.33289794921875,0.5558869242668152,-0.47319114208221436,-0.08666644245386124
1772810436562598000,0.342597900390625,0.39736753702163696,-0.4243219494819641,-0.032910339534282684
1772810436572297700,0.352297607421875,0.23793183267116547,-0.44173160195350647,-0.003894262947142124
1772810436581997800,0.361997802734375,0.10842850059270859,-0.4566977918148041,0.019013166427612305
1772810436591697700,0.37169775390625,0.03481929376721382,-0.45333802700042725,0.03367391973733902
1772810436601397500,0.3813974609375,-0.016798781231045723,-0.45242172479629517,-0.003894262947142124
1772810436611097300,0.391097412109375,-0.07422006875276566,-0.5196168422698975,-0.1395062506198883
1772810436620797200,0.400797119140625,-0.15302163362503052,-0.6005564332008362,-0.35330891609191895
1772810436630497000,0.4104970703125,-0.22754712402820587,-0.6143009066581726,-0.6052906513214111
1772810436640196900,0.42019677734375,-0.19914191961288452,-0.6607266068458557,-0.9043089747428894
1772810436649896700,0.429896728515625,-0.11178825795650482,-0.7798452377319336,-1.2448660135269165
1772810436659596800,0.4395966796875,0.007635809946805239,-0.9539417028427124,-1.5961133241653442
1772810436669296600,0.449296630859375,0.11209368705749512,-0.6332377195358276,-2.048764228820801
1772810436678996500,0.45899658203125,0.20372340083122253,0.14248420298099518,-2.4617087841033936
1772810436688696300,0.4686962890625,0.4059196412563324,0.8336777091026306,-2.6104543209075928
1772810436698396200,0.478396240234375,0.7443387508392334,1.355356216430664,-2.6874232292175293
1772810436708096000,0.488095947265625,1.2339468002319336,1.4799726009368896,-2.734154462814331
1772810436717796000,0.497796142578125,1.7403537034988403,1.3480257987976074,-2.714912176132202
1772810436727496000,0.507495849609375,1.9926408529281616,1.224936604499817,-2.6764276027679443
1772810436737195800,0.51719580078125,2.023489475250244,1.3156499862670898,-2.6440517902374268
1772810436746895600,0.5268955078125,1.9031492471694946,1.772576928138733,-2.5979316234588623
1772810436756595500,0.536595458984375,1.6884303092956543,2.022420644760132,-2.46293044090271
1772810436766295300,0.54629541015625,1.4450006484985352,2.1284055709838867,-2.192622661590576
1772810436775995100,0.5559951171875,1.1771364212036133,2.324493169784546,-1.815108299255371
1772810436785695000,0.565695068359375,0.9049961566925049,2.349538564682007,-1.4226276874542236
1772810436795394800,0.575394775390625,0.7351757884025574,1.6983567476272583,-1.0448077917099
1772810436805095000,0.585094970703125,0.664926290512085,0.7292198538780212,-0.751592755317688
1772810436814794800,0.594794677734375,0.6209440231323242,-0.19677481055259705,-0.5356520414352417
1772810436824494600,0.60449462890625,0.5595521330833435,-0.821384072303772,-0.3346775472164154
1772810436834194400,0.6141943359375,0.49144071340560913,-1.1683552265167236,-0.08758273720741272
1772810436843894300,0.623894287109375,0.4526508152484894,-1.3684134483337402,0.2514472007751465
1772810436853594000,0.633593994140625,0.4612029194831848,-1.3137410879135132,0.7499128580093384
1772810436863294200,0.643294189453125,0.5595521330833435,-0.7719039916992188,1.393153429031372
1772810436872994000,0.652994140625,0.6450732350349426,0.01359174121171236,1.994855284690857
1772810436882694000,0.66269384765625,0.5696313977241516,0.35934120416641235,2.2269840240478516
1772810436892393700,0.672393798828125,0.318871408700943,0.2441931962966919,2.0058507919311523
1772810436902093600,0.682093505859375,0.03543015569448471,-0.16103923320770264,1.5003602504730225
1772810436911793400,0.69179345703125,-0.22663083672523499,-0.7612138986587524,0.9744057059288025
1772810436921493500,0.701493408203125,-0.3543015718460083,-1.077412724494934,0.7074577808380127
1772810436931193300,0.711193359375,-0.1029307171702385,-0.7792344093322754,0.8345176577568054
1772810436940893200,0.72089306640625,0.40836310386657715,0.019700389355421066,1.2340232133865356
1772810436950593000,0.730593017578125,0.8442151546478271,0.8953750729560852,1.486310362815857
1772810436960292900,0.74029296875,0.9224058389663696,1.215773582458496,1.310686707496643
1772810436969992700,0.74999267578125,0.6175842881202698,0.8697187304496765,0.9576069116592407
1772810436979692500,0.759692626953125,0.4523453712463379,0.27320927381515503,1.0388518571853638
1772810436989392600,0.769392578125,0.31123560667037964,-0.5125918984413147,1.6466623544692993
1772810436999092500,0.779092529296875,0.13072505593299866,-1.2709804773330688,2.3198354244232178
1772810437008792300,0.788792236328125,0.10506874322891235,-1.6552144289016724,2.849149703979492
1772810437018492200,0.7984921875,0.20311254262924194,-1.838473916053772,3.147862672805786
1772810437028192000,0.80819189453125,0.37659814953804016,-2.11397385597229,3.172908067703247
1772810437037891800,0.817891845703125,0.5290089249610901,-2.4985132217407227,3.0647850036621094
1772810437047592000,0.827592041015625,0.5219839811325073,-2.7162866592407227,2.910236120223999
1772810437057291800,0.837291748046875,0.314289927482605,-2.7639341354370117,2.6154940128326416
1772810437066991600,0.84699169921875,-0.027488915249705315,-2.8888559341430664,2.0486114025115967
1772810437076691500,0.85669140625,-0.30146175622940063,-2.907181739807129,1.108185052871704
1772810437086391300,0.866391357421875,-0.34086254239082336,-2.3057854175567627,-0.2170860767364502
1772810437096091100,0.876091064453125,-0.06291907280683517,-1.2019528150558472,-1.5780928134918213
1772810437105791000,0.885791015625,0.29596397280693054,-0.14454588294029236,-2.737208604812622
1772810437115491000,0.895490966796875,0.6169734001159668,0.7383828163146973,-3.3364670276641846
1772810437125191000,0.90519091796875,0.9217949509620667,1.3480257987976074,-3.395720958709717
1772810437134890800,0.914890869140625,1.2089014053344727,1.715766429901123,-3.024315118789673
1772810437144590600,0.924590576171875,1.3866630792617798,1.9094105958938599,-2.3355650901794434
1772810437154290700,0.934290771484375,1.3588687181472778,1.967137336730957,-1.4424808025360107
1772810437163990300,0.943990234375,1.1172716617584229,1.845575213432312,-0.4635699987411499
1772810437173690400,0.9536904296875,0.7754928469657898,1.550527572631836,0.4600575268268585
1772810437183390200,0.96339013671875,0.448069304227829,1.1568251848220825,1.226998209953308
1772810437193090000,0.973090087890625,0.19120067358016968,0.781143307685852,1.792659044265747
1772810437202790000,0.982789794921875,-0.0030543238390237093,0.4857902228832245,2.1313836574554443
1772810437212489700,0.99248974609375,-0.1288924664258957,0.24572035670280457,2.273409605026245
1772810437222189800,1.00218994140625,-0.1740964651107788,0.05849030241370201,2.2547781467437744
1772810437231889700,1.0118896484375,-0.1701258420944214,-0.08956804871559143,2.1038947105407715
1772810437241589500,1.021589599609375,-0.1591302752494812,-0.22395829856395721,1.8293108940124512
1772810437251289300,1.031289306640625,-0.16768237948417664,-0.3272708058357239,1.4887537956237793
1772810437260989200,1.0409892578125,-0.1740964651107788,-0.4200458824634552,1.1255947351455688
1772810437270689000,1.05068896484375,-0.1853974610567093,-0.4869355857372284,0.7758746147155762
1772810437280389000,1.06038916015625,-0.2306014597415924,-0.49884745478630066,0.4518108665943146
1772810437290089000,1.0700888671875,-0.29474225640296936,-0.42126762866973877,0.17050762474536896
1772810437299788800,1.079788818359375,-0.3488037884235382,-0.235564723610878,-0.043600473552942276
1772810437309488600,1.089488525390625,-0.38728827238082886,0.011148282326757908,-0.16974404454231262
1772810437319188500,1.0991884765625,-0.4214966893196106,0.3040579557418823,-0.2015090137720108
1772810437328888300,1.108888427734375,-0.4407389461994171,0.6079631447792053,-0.15905392169952393
1772810437338588200,1.118588134765625,-0.44868019223213196,0.8626937866210938,-0.051847148686647415
1772810437348288300,1.128288330078125,-0.4535670876502991,1.0581705570220947,0.1066722646355629
1772810437357988000,1.137988037109375,-0.44898560643196106,1.215162754058838,0.30459246039390564
1772810437367688000,1.14768798828125,-0.42271843552589417,1.3205369710922241,0.5000692009925842
1772810437377387800,1.1573876953125,-0.37812530994415283,1.3400845527648926,0.6692787408828735
1772810437387088000,1.167087890625,-0.35613417625427246,1.271056890487671,0.8042798638343811
1772810437396787700,1.17678759765625,-0.364991694688797,1.1305580139160156,0.9169843792915344
1772810437406487600,1.186487548828125,-0.3802633285522461,0.9274454712867737,1.0165553092956543
1772810437416187400,1.1961875,-0.42271843552589417,0.6922625303268433,1.108185052871704
1772810437425887200,1.20588720703125,-0.5088503360748291,0.471129447221756,1.1885137557983398
1772810437435587000,1.215587158203125,-0.5803215503692627,0.33001968264579773,1.2737294435501099
1772810437445287000,1.225286865234375,-0.5983420610427856,0.2490801066160202,1.3638319969177246
1772810437454987000,1.234987060546875,-0.5772672295570374,0.15775582194328308,1.4377466440200806
1772810437464686800,1.244686767578125,-0.5216785073280334,0.09239330142736435,1.4560725688934326
1772810437474386700,1.25438671875,-0.4046979248523712,0.0896444097161293,1.4096468687057495
1772810437484086500,1.26408642578125,-0.2922987937927246,0.1617264449596405,1.2618175745010376
1772810437493786600,1.27378662109375,-0.28954991698265076,0.30833399295806885,1.026940107345581
1772810437503486500,1.283486572265625,-0.3659079968929291,0.3312414288520813,0.7416661977767944
1772810437513186300,1.293186279296875,-0.4321868419647217,0.08750637620687485,0.4059959948062897
1772810437522886100,1.30288623046875,-0.5030471682548523,-0.24442227184772491,0.03306305781006813
1772810437532586000,1.3125859375,-0.5342012643814087,-0.36109745502471924,-0.2638172209262848
1772810437542285800,1.322285888671875,-0.5216785073280334,-0.11003202199935913,-0.2842811942100525
1772810437551985700,1.331985595703125,-0.6151408553123474,0.40149086713790894,-0.18379394710063934
1772810437561685800,1.341685791015625,-0.7861829996109009,0.7121156454086304,-0.2693150043487549
1772810437571385600,1.351385498046875,-0.8998038172721863,0.34315329790115356,-1.1373538970947266
1772810437581085400,1.36108544921875,-0.8457422852516174,-0.5871174335479736,-2.5475351810455322
1772810437590785300,1.370785400390625,-0.517707884311676,-1.300912857055664,-3.580812931060791
1772810437600485400,1.3804853515625,-0.07788526266813278,-1.570304274559021,-3.9109854698181152
1772810437610185200,1.390185302734375,0.2202167510986328,-1.6491057872772217,-3.655949354171753
1772810437619885000,1.399885009765625,0.379347026348114,-1.45698881149292,-2.792491912841797
1772810437629585000,1.4095849609375,0.4526508152484894,-0.9072105288505554,-1.4601958990097046
1772810437639284700,1.41928466796875,0.45509424805641174,-0.32597270607948303,-0.03779725730419159
1772810437648984800,1.42898486328125,0.4101957082748413,-0.040088001638650894,1.0235803127288818
1772810437658684700,1.4386845703125,0.3292561173439026,-0.10453423857688904,1.488142967224121
1772810437668384500,1.448384521484375,0.2626718580722809,-0.3876700699329376,1.3919317722320557
1772810437678084400,1.45808447265625,0.29413139820098877,-0.5452731847763062,0.8800270557403564
1772810437687784200,1.4677841796875,0.5015199780464172,-0.4457022249698639,0.11430807411670685
1772810437697484000,1.477484130859375,0.8881973624229431,-0.19585852324962616,-0.6819541454315186
1772810437707184000,1.48718408203125,1.3738348484039307,0.09453132748603821,-1.316031813621521
1772810437716884000,1.496884033203125,1.7513493299484253,0.2799287736415863,-1.6336815357208252
1772810437726583800,1.506583740234375,1.886350393295288,0.3868301212787628,-1.5652645826339722
1772810437736283600,1.51628369140625,1.7901391983032227,0.44241881370544434,-1.186223030090332
1772810437745983500,1.5259833984375,1.5381574630737305,0.43631017208099365,-0.6236165761947632
1772810437755683600,1.53568359375,1.2162318229675293,0.378888875246048,0.013515383005142212
1772810437765383400,1.545383544921875,0.8811724185943604,0.2955058515071869,0.6292670965194702
1772810437775083300,1.555083251953125,0.5794052481651306,0.2234237939119339,1.1200969219207764
1772810437784783000,1.564783203125,0.3491092324256897,0.1565341055393219,1.4285836219787598
1772810437794483000,1.57448291015625,0.17592905461788177,0.10247256606817245,1.5544217824935913
1772810437804183000,1.58418310546875,0.04550942778587341,0.08781181275844574,1.5299872159957886
1772810437813883000,1.5938828125,-0.018325943499803543,0.10399972647428513,1.4185043573379517
1772810437823582700,1.603582763671875,-0.008552107028663158,0.12690715491771698,1.2639555931091309
1772810437833282600,1.613282470703125,0.06444623321294785,0.10583232343196869,1.1234567165374756
1772810437842982700,1.622982666015625,0.1432477980852127,0.06062832847237587,1.032437801361084
1772810437852682500,1.6326826171875,0.18081597983837128,0.008093958720564842,1.0006728172302246
1772810437862382300,1.64238232421875,0.15638138353824615,-0.08681915700435638,1.0388518571853638
1772810437872082200,1.652082275390625,0.08429934084415436,-0.16470441222190857,1.1594977378845215
1772810437881782000,1.661781982421875,-0.004581485874950886,-0.16684244573116302,1.3244311809539795
1772810437891482000,1.671482177734375,-0.11362084746360779,-0.12774710357189178,1.4844777584075928
1772810437901182000,1.681181884765625,-0.25320345163345337,-0.07612902671098709,1.616424560546875
1772810437910881800,1.6908818359375,-0.4169152081012726,0.02367101050913334,1.6796491146087646
1772810437920581600,1.70058154296875,-0.5968148708343506,0.1721111536026001,1.6546036005020142
1772810437930281500,1.710281494140625,-0.8002328872680664,0.3306305706501007,1.544037103652954
1772810437939981300,1.719981201171875,-0.9896009564399719,0.49800750613212585,1.328401803970337
1772810437949681400,1.729681396484375,-1.173471212387085,0.6858484148979187,0.9905936121940613
1772810437959381200,1.73938134765625,-1.3304635286331177,0.8822414875030518,0.5577958822250366
1772810437969081000,1.7490810546875,-1.4214823246002197,1.067333459854126,0.17081306874752045
1772810437978781000,1.758781005859375,-1.4917317628860474,1.141553521156311,-0.04848739132285118
1772810437988480800,1.768480712890625,-1.6172645092010498,0.8840740323066711,-0.15661045908927917
1772810437998180900,1.778180908203125,-1.8102977275848389,0.23991714417934418,-0.24335326254367828
1772810438007880700,1.787880615234375,-1.913839340209961,-0.40782859921455383,-0.2687041461467743
1772810438017580500,1.79758056640625,-1.7324124574661255,-0.6310997009277344,-0.07444914430379868
1772810438027280400,1.8072802734375,-1.3417644500732422,-0.3898080885410309,0.31955865025520325
1772810438036980500,1.81698046875,-0.8912517428398132,0.2234237939119339,0.7847321629524231
1772810438046680300,1.826680419921875,-0.46425724029541016,0.8571959733963013,1.22638738155365
1772810438056380200,1.836380126953125,-0.16218459606170654,1.16079580783844,1.5764129161834717
1772810438066080000,1.846080078125,-0.013133592903614044,1.1568251848220825,1.8235076665878296
1772810438075779800,1.85577978515625,0.017104214057326317,0.8019127249717712,1.948734998703003
1772810438085480000,1.86547998046875,-0.07422006875276566,0.17302745580673218,1.9288818836212158
1772810438095179800,1.8751796875,-0.20311254262924194,-0.4673879146575928,1.7187443971633911
1772810438104879600,1.884879638671875,-0.33108872175216675,-0.8833868503570557,1.3070214986801147
1772810438114579500,1.894579345703125,-0.4978547990322113,-1.097800374031067,0.8387936949729919
1772810438124279300,1.904279296875,-0.5958985686302185,-1.0281617641448975,0.6216312646865845
1772810438133979400,1.9139794921875,-0.5882627964019775,-0.81099933385849,0.7080686092376709
1772810438143679200,1.92367919921875,-0.500298261642456,-0.5095375776290894,0.96890789270401
1772810438153379000,1.933379150390625,-0.3631591200828552,-0.152487114071846,1.1979821920394897
1772810438163079000,1.943078857421875,-0.1844811588525772,0.15378521382808685,1.292360782623291
1772810438172779000,1.952779052734375,0.0616973415017128,0.300392746925354,1.300607442855835
1772810438182478800,1.962478759765625,0.39828383922576904,0.2536616027355194,1.3094650506973267
1772810438192178700,1.9721787109375,0.7431169748306274,0.061850059777498245,1.3733004331588745
1772810438201878500,1.98187841796875,0.9413426518440247,-0.18150319159030914,1.4872266054153442
1772810438211578400,1.991578369140625,0.9676098227500916,-0.38736462593078613,1.5889356136322021
1772810438221278500,2.001278564453125,0.8903354406356812,-0.49365508556365967,1.5910736322402954
1772810438230978300,2.010978271484375,0.7641918659210205,-0.5208385586738586,1.4478259086608887
1772810438240678100,2.02067822265625,0.6236929297447205,-0.4307360351085663,1.2245547771453857
1772810438250378000,2.0303779296875,0.5012145638465881,-0.23067781329154968,1.022663950920105
1772810438260078000,2.040078125,0.39736753702163696,-0.01259908638894558,0.9065997004508972
1772810438269778000,2.04977783203125,0.2669478952884674,0.24022257328033447,0.8980475664138794
1772810438279477800,2.059477783203125,0.13927717506885529,0.541989803314209,0.9252310395240784
1772810438289177600,2.069177490234375,0.07422006875276566,0.8981239199638367,0.8913280963897705
1772810438298877400,2.07887744140625,0.04520399495959282,1.1818705797195435,0.757243275642395
1772810438308577500,2.08857763671875,0.07880155742168427,1.2765547037124634,0.5626828074455261
1772810438318277400,2.09827734375,0.16646064817905426,1.1742348670959473,0.32352927327156067
1772810438327977200,2.107977294921875,0.27855435013771057,0.967457115650177,0.05261072888970375
1772810438337677000,2.117677001953125,0.4111120104789734,0.7185297012329102,-0.19478951394557953
1772810438347377000,2.127376953125,0.5476402640342712,0.4494437575340271,-0.3914879560470581
1772810438357077000,2.137076904296875,0.6420188546180725,0.18555018305778503,-0.5127446055412292
1772810438366776800,2.14677685546875,0.6966912746429443,-0.06940951198339462,-0.5610029697418213
1772810438376476700,2.1564765625,0.7431169748306274,-0.29878923296928406,-0.546953022480011
1772810438386176500,2.166176513671875,0.794124186038971,-0.474718302488327,-0.5136609077453613
1772810438395876600,2.175876708984375,0.8432988524436951,-0.5599339008331299,-0.5188532471656799
1772810438405576400,2.185576416015625,0.8845322132110596,-0.5489383339881897,-0.585437536239624
1772810438415276300,2.1952763671875,0.9095776677131653,-0.48968449234962463,-0.704861581325531
1772810438424976100,2.20497607421875,0.934012234210968,-0.3888917863368988,-0.8511636853218079
1772810438434676000,2.214676025390625,0.952949047088623,-0.249920055270195,-1.0261764526367188
1772810438444376000,2.2243759765625,0.963333785533905,-0.13019055128097534,-1.2250128984451294
1772810438454076000,2.234075927734375,0.9544762372970581,-0.04253146052360535,-1.4342341423034668
1772810438463775700,2.243775634765625,0.9217949509620667,0.03375028073787689,-1.659948706626892
1772810438473475800,2.253475830078125,0.8726203441619873,0.0795651376247406,-1.8914663791656494
1772810438483175700,2.26317578125,0.8097012639045715,0.09544762223958969,-2.1019093990325928
1772810438492875500,2.27287548828125,0.7525854110717773,0.07620538026094437,-2.2714242935180664
1772810438502575400,2.282575439453125,0.7076868414878845,0.015729768201708794,-2.387488603591919
1772810438512275500,2.292275390625,0.6459894776344299,-0.08529199659824371,-2.4342198371887207
1772810438521975300,2.301975341796875,0.5513054728507996,-0.19555309414863586,-2.3939027786254883
1772810438531675100,2.311675048828125,0.42882707715034485,-0.31009024381637573,-2.253403902053833
1772810438541375000,2.321375,0.3197877109050751,-0.474718302488327,-2.032576084136963
1772810438551074800,2.33107470703125,0.3029889166355133,-0.6350703239440918,-1.7747912406921387
1772810438560775000,2.34077490234375,0.5006036758422852,-0.6579777002334595,-1.5814526081085205
1772810438570474800,2.350474853515625,0.9169080257415771,-0.4869355857372284,-1.6174936294555664
1772810438580174600,2.360174560546875,1.3713914155960083,-0.25236350297927856,-2.0698390007019043
1772810438589874400,2.36987451171875,1.61085045337677,-0.12408190965652466,-3.043862819671631
1772810438599574500,2.379574462890625,1.498756766319275,-0.1482110619544983,-4.334314823150635
1772810438609274400,2.3892744140625,1.1340705156326294,-0.1992182731628418,-5.4176836013793945
1772810438618974200,2.39897412109375,0.8271108865737915,-0.28443390130996704,-5.940278053283691
1772810438628674000,2.408674072265625,0.8936951756477356,-0.256334125995636,-6.090550899505615
1772810438638374000,2.418373779296875,1.2614357471466064,-0.13507747650146484,-5.909429550170898
1772810438648074000,2.428073974609375,1.6600250005722046,0.26618432998657227,-5.1941070556640625
1772810438657773800,2.43777392578125,1.932165265083313,1.1418589353561401,-3.876471519470215
1772810438667473700,2.4474736328125,1.9929463863372803,2.0444116592407227,-2.269591808319092
1772810438677173500,2.457173583984375,1.9309436082839966,2.2093451023101807,-0.8713222742080688
1772810438686873600,2.46687353515625,1.8811581134796143,1.59664785861969,-0.0035888305865228176
1772810438696573400,2.476573486328125,1.9773693084716797,0.6107120513916016,0.3482692837715149
1772810438706273300,2.486273193359375,2.171318769454956,-0.46799877285957336,0.3672060966491699
1772810438715973400,2.495973388671875,2.318842649459839,-1.3699406385421753,0.31528258323669434
1772810438725673200,2.505673095703125,2.3121232986450195,-1.9438481330871582,0.3940841555595398
1772810438735373000,2.515373046875,2.145357131958008,-2.157956123352051,0.6121628880500793
1772810438745073000,2.525072998046875,1.9144501686096191,-2.0623557567596436,0.866893470287323
1772810438754772700,2.534772705078125,1.6960660219192505,-1.8015166521072388,1.0706168413162231
1772810438774172700,2.554172607421875,1.2082905769348145,-0.9643264412879944,1.2859467267990112
1772810438783872500,2.56387255859375,0.9153808951377869,-0.5293906927108765,1.2890009880065918
1772810438793572400,2.573572265625,0.5995637774467468,-0.1219438835978508,1.1866811513900757
1772810438803272400,2.5832724609375,0.31459537148475647,0.2542724609375,1.0110576152801514
1772810438812972300,2.59297216796875,0.09865466505289078,0.5349648594856262,0.8137482404708862
1772810438822672100,2.602672119140625,-0.05955931544303894,0.69012451171875,0.6424006819725037
1772810438832372000,2.6123720703125,-0.16554436087608337,0.7283035516738892,0.5358047485351562
1772810438842071800,2.62207177734375,-0.2257145345211029,0.7014254927635193,0.5043452382087708
1772810438851772000,2.63177197265625,-0.2632827162742615,0.6553052067756653,0.5144245028495789
1772810438861471700,2.6414716796875,-0.2782489061355591,0.6247619390487671,0.5614610910415649
1772810438871171600,2.651171630859375,-0.25870123505592346,0.653167188167572,0.654617965221405
1772810438880871700,2.66087158203125,-0.21288637816905975,0.7243329286575317,0.7880918979644775
1772810438890571500,2.670571533203125,-0.14813470840454102,0.7967203855514526,0.9359211921691895
1772810438900271400,2.680271240234375,-0.07330377399921417,0.864831805229187,1.0742820501327515
1772810438909971200,2.68997119140625,0.007635809946805239,0.9268345832824707,1.188819169998169
1772810438919671300,2.69967138671875,0.07635809481143951,0.9497420191764832,1.254487156867981
1772810438929371100,2.70937109375,0.12247838824987411,0.9518800377845764,1.2804489135742188
1772810438939071000,2.719071044921875,0.14569124579429626,0.9320269227027893,1.2621229887008667
1772810438948770800,2.728770751953125,0.15515965223312378,0.9082031846046448,1.2150864601135254
1772810438958470700,2.738470703125,0.15057817101478577,0.8895718455314636,1.1393392086029053
1772810438968170800,2.748170654296875,0.14630211889743805,0.8718567490577698,1.033964991569519
1772810438977870600,2.75787060546875,0.14691297709941864,0.846505880355835,0.9197332859039307
1772810438987570700,2.76757080078125,0.13469567894935608,0.800385594367981,0.8042798638343811
1772810438997270500,2.7772705078125,0.11117739230394363,0.7286089658737183,0.6967676281929016
1772810439006970400,2.786970458984375,0.08796452730894089,0.6549997329711914,0.5929206013679504
1772810439016670200,2.796670166015625,0.0616973415017128,0.5899426341056824,0.5031235218048096
1772810439026370000,2.8063701171875,0.02260199747979641,0.559399425983429,0.4258491098880768
1772810439036070100,2.816070068359375,-0.035124726593494415,0.5731438994407654,0.33910632133483887
1772810439045770000,2.82577001953125,-0.11117739230394363,0.5914698243141174,0.2352592945098877
1772810439055469800,2.8354697265625,-0.2098320573568344,0.651639997959137,0.14149154722690582
1772810439065169700,2.845169677734375,-0.3231474757194519,0.8290961980819702,0.07826705276966095
1772810439074869500,2.854869384765625,-0.44501498341560364,1.1378883123397827,0.023594651371240616
1772810439084569600,2.864569580078125,-0.5534434914588928,1.4814997911453247,-0.05917752534151077
1772810439094269400,2.87426953125,-0.6462949514389038,1.8022037744522095,-0.15966477990150452
1772810439103969500,2.883969482421875,-0.6875283122062683,2.1192426681518555,-0.20486877858638763
1772810439113669400,2.89366943359375,-0.5677987933158875,2.3620615005493164,-0.22319471836090088
1772810439123369200,2.903369140625,-0.231212317943573,2.2621850967407227,-0.4177551567554474
1772810439133069000,2.913069091796875,0.13194678723812103,1.5254820585250854,-1.0057125091552734
1772810439142769000,2.922768798828125,0.23884813487529755,0.028863361105322838,-1.8169409036636353
1772810439152469000,2.932468994140625,0.13622283935546875,-1.587103009223938,-2.2292747497558594
1772810439162168800,2.9421689453125,0.06841685622930527,-2.5421900749206543,-2.0334925651550293
1772810439171868700,2.95186865234375,0.12644900381565094,-2.3726751804351807,-1.5044835805892944
1772810439181568800,2.96156884765625,0.406530499458313,-1.0822232961654663,-1.0390046834945679
1772810439191268600,2.9712685546875,0.7742711305618286,0.753654420375824,-0.9342412948608398
1772810439200968400,2.980968505859375,0.8848376274108887,2.4628541469573975,-1.0096831321716309
1772810439210668300,2.990668212890625,0.637742817401886,3.5828745365142822,-0.9678388833999634
1772810439220368400,3.000368408203125,0.3185659945011139,3.939619779586792,-0.6645445227622986
1772810439230068200,3.010068115234375,0.25534147024154663,3.7096290588378906,-0.20609050989151
1772810439239768000,3.01976806640625,0.4419606626033783,3.0669994354248047,0.2801578640937805
1772810439249468000,3.029468017578125,0.860708475112915,1.965915560722351,0.8131373524665833
1772810439259167700,3.039167724609375,1.4385865926742554,0.57008957862854,1.4802017211914062
1772810439268867800,3.048867919921875,1.9193371534347534,-0.7480802536010742,2.3134212493896484
1772810439278567700,3.058567626953125,2.104123830795288,-1.8812344074249268,3.203451156616211
1772810439288267500,3.068267578125,1.9822561740875244,-2.505232810974121,3.8952555656433105
1772810439297967600,3.077967529296875,1.6966769695281982,-2.487823247909546,4.0711846351623535
1772810439307667500,3.08766748046875,1.4144574403762817,-2.0257039070129395,3.754145860671997
1772810439317367300,3.0973671875,1.2311979532241821,-1.4371356964111328,3.175962448120117
1772810439327067100,3.107067138671875,1.130099892616272,-0.8406262993812561,2.535165309906006
1772810439336767200,3.116767333984375,1.0906990766525269,-0.5354993343353271,2.005239963531494
1772810439346467000,3.126467041015625,1.06443190574646,-0.7288380265235901,1.6842305660247803
1772810439356167000,3.1361669921875,0.9969313144683838,-1.1326196193695068,1.672318696975708
1772810439365867000,3.145866943359375,0.8894191384315491,-1.5754966735839844,1.929187297821045
1772810439375566800,3.15556689453125,0.7082977294921875,-2.0812926292419434,2.20865797996521
1772810439385266700,3.1652666015625,0.4981602132320404,-2.5403575897216797,2.3726751804351807
1772810439394966500,3.174966552734375,0.28954991698265076,-2.8354053497314453,2.4023020267486572
1772810439404666600,3.18466650390625,0.09865466505289078,-2.8024184703826904,2.3500730991363525
1772810439414366500,3.194366455078125,-0.025045456364750862,-2.3882522583007812,2.3586251735687256
1772810439424066300,3.20406640625,-0.09560033679008484,-1.6576579809188843,2.5085926055908203
1772810439433766400,3.213766357421875,-0.17806708812713623,-0.7951168417930603,2.7321691513061523
1772810439443466200,3.22346630859375,-0.3087921440601349,-0.014508038759231567,2.9193990230560303
1772810439453166000,3.233166015625,-0.4566214084625244,0.5383245944976807,3.0229406356811523
1772810439462866000,3.242865966796875,-0.5626064538955688,0.8217658400535583,3.035463333129883
1772810439472565800,3.252565673828125,-0.5482511520385742,0.7945823669433594,2.9615488052368164
1772810439482265900,3.262265869140625,-0.4043924808502197,0.5099193453788757,2.778594732284546
1772810439491965700,3.271965576171875,-0.1649334877729416,0.11194097250699997,2.5030946731567383
1772810439501665500,3.28166552734375,0.1078176349401474,-0.26855143904685974,2.183612585067749
1772810439511365600,3.29136572265625,0.36193737387657166,-0.5171734094619751,1.8418337106704712
1772810439521065500,3.3010654296875,0.5800161361694336,-0.6219366788864136,1.4896701574325562
1772810439530765300,3.310765380859375,0.7418952584266663,-0.6036107540130615,1.1582759618759155
1772810439540465200,3.320465087890625,0.8133664727210999,-0.46891507506370544,0.8855248689651489
1772810439550165200,3.330165283203125,0.7993165850639343,-0.2697731554508209,0.6482039093971252
1772810439559865000,3.339864990234375,0.7266236543655396,-0.06604975461959839,0.41118836402893066
1772810439569565000,3.34956494140625,0.602007269859314,0.17302745580673218,0.15615230798721313
1772810439579265000,3.35926513671875,0.4465421438217163,0.49281516671180725,-0.12301289290189743
1772810439588964900,3.36896484375,0.2861901521682739,0.8559742569923401,-0.4012618064880371
1772810439598664700,3.378664794921875,0.12980876863002777,1.169347882270813,-0.6504946351051331
1772810439608364500,3.388364501953125,-0.02871064469218254,1.374903917312622,-0.9015600681304932
1772810439618064600,3.398064697265625,-0.16859868168830872,1.53983736038208,-1.151098370552063
1772810439627764500,3.407764404296875,-0.2776380479335785,1.615279197692871,-1.4125484228134155
1772810439637464300,3.41746435546875,-0.3433060050010681,1.6042835712432861,-1.677663803100586
1772810439647164200,3.4271640625,-0.36254823207855225,1.5935934782028198,-1.8951315879821777
1772810439656864300,3.4368642578125,-0.34727662801742554,1.6161954402923584,-2.0423500537872314
1772810439666564000,3.446564208984375,-0.31490078568458557,1.6290236711502075,-2.1184027194976807
1772810439676264000,3.456263916015625,-0.27519458532333374,1.632077932357788,-2.146807909011841
1772810439685963800,3.4659638671875,-0.23915356397628784,1.6522364616394043,-2.1541383266448975
1772810439695663900,3.475663818359375,-0.2360992431640625,1.652541995048523,-2.1431427001953125
1772810439705363700,3.48536376953125,-0.25870123505592346,1.6546800136566162,-2.097327947616577
1772810439715063800,3.495063720703125,-0.281914085149765,1.6940807104110718,-2.024634838104248
1772810439724763600,3.504763671875,-0.3042106628417969,1.7597486972808838,-1.9519420862197876
1772810439734463500,3.51446337890625,-0.29596397280693054,1.835801362991333,-1.8939099311828613
1772810439744163300,3.524163330078125,-0.1997527778148651,1.8580979108810425,-1.796782374382019
1772810439753863200,3.53386328125,-0.016187917441129684,1.7621921300888062,-1.6926299333572388
1772810439763563300,3.543563232421875,0.13958260416984558,1.482110619544983,-1.6871321201324463
1772810439773263000,3.55326318359375,0.16126830875873566,1.0987930297851562,-1.732641577720642
1772810439782963000,3.562962890625,0.06444623321294785,0.8718567490577698,-1.6590323448181152
1772810439792663000,3.5726630859375,-0.15302163362503052,0.975703775882721,-1.4290417432785034
1772810439802363000,3.58236279296875,-0.4877755343914032,1.2466223239898682,-1.151403784751892
1772810439812062700,3.592062744140625,-0.8573487401008606,1.1372774839401245,-1.0945932865142822
1772810439821762600,3.601762451171875,-0.953559935092926,0.5648971796035767,-1.5918372869491577
1772810439831462700,3.611462646484375,-0.6957749724388123,-0.10392337292432785,-2.5255441665649414
1772810439841162500,3.62116259765625,-0.37110036611557007,-0.17020219564437866,-3.1550402641296387
1772810439850862300,3.6308623046875,-0.12583814561367035,0.605519711971283,-3.0478334426879883
1772810439860562400,3.6405625,0.026572618633508682,1.54930579662323,-2.4030656814575195
1772810439870262300,3.65026220703125,0.14813470840454102,1.8968878984451294,-1.508759617805481
1772810439879962000,3.659962158203125,0.291687935590744,1.7234022617340088,-0.5970439910888672
1772810439889662000,3.669661865234375,0.5381718873977661,1.3242021799087524,0.1378263682126999
1772810439899362000,3.679362060546875,0.8652899861335754,0.7035635113716125,0.5971966981887817
1772810439909062000,3.689061767578125,1.1853830814361572,-0.03917170315980911,0.8149699568748474
1772810439918761700,3.69876171875,1.390328288078308,-0.6369028687477112,0.8601739406585693
1772810439928461800,3.7084619140625,1.4486658573150635,-0.8534544706344604,0.7905353903770447
1772810439938161700,3.71816162109375,1.425147533416748,-0.6674461364746094,0.6246855854988098
1772810439947861500,3.727861572265625,1.3866630792617798,-0.19066616892814636,0.3580431044101715
1772810439957561600,3.7375615234375,1.3319905996322632,0.45310893654823303,0.0025198173243552446
1772810439967261400,3.747261474609375,1.248913049697876,1.1198678016662598,-0.35269805788993835
1772810439976961300,3.756961181640625,1.1575887203216553,1.705687165260315,-0.5961276888847351
1772810439986661000,3.7666611328125,1.0711513757705688,2.1116068363189697,-0.6788998246192932
1772810439996361000,3.77636083984375,0.9691369533538818,2.293644428253174,-0.6016254425048828
1772810440006061000,3.78606103515625,0.84177166223526,2.2728750705718994,-0.4131736755371094
1772810440015761000,3.795760986328125,0.685390293598175,2.0743441581726074,-0.1764635592699051
1772810440025461000,3.8054609375,0.49541133642196655,1.7695225477218628,0.061162836849689484
1772810440035160800,3.815160888671875,0.29962918162345886,1.4448479413986206,0.27985242009162903
1772810440044860700,3.824860595703125,0.12950333952903748,1.1717913150787354,0.4554760456085205
1772810440054560500,3.834560546875,0.010995565913617611,1.0034980773925781,0.5904771685600281
1772810440064260600,3.844260498046875,-0.0616973415017128,0.9421061873435974,0.69096440076828
1772810440073960400,3.85396044921875,-0.09346231073141098,0.9512691497802734,0.766406238079071
1772810440083660300,3.863660400390625,-0.08674279600381851,0.9799798130989075,0.8543707728385925
1772810440093360000,3.873360107421875,-0.05253437161445618,1.0013600587844849,0.9524145722389221
1772810440103060200,3.883060302734375,-0.013133592903614044,0.9839504361152649,1.0391573905944824
1772810440112760000,3.892760009765625,0.005803215317428112,0.9204205274581909,1.1002438068389893
1772810440122460200,3.902460205078125,-0.008552107028663158,0.7866411209106445,1.1145991086959839
1772810440132160000,3.912159912109375,-0.04673115536570549,0.578336238861084,1.0642027854919434
1772810440141859800,3.92185986328125,-0.09346231073141098,0.34498587250709534,0.9432515501976013
1772810440151559700,3.9315595703125,-0.1340848207473755,0.11346813291311264,0.7505237460136414
1772810440161259500,3.941259521484375,-0.16707152128219604,-0.09201150387525558,0.5049561262130737
1772810440170959600,3.950959716796875,-0.1951712965965271,-0.24808746576309204,0.24167338013648987
1772810440180659500,3.960659423828125,-0.20922118425369263,-0.3488801419734955,-0.003894262947142124
1772810440190359300,3.970359375,-0.20219624042510986,-0.3940841555595398,-0.20761767029762268
1772810440200059400,3.980059326171875,-0.17318016290664673,-0.4087449014186859,-0.3612501621246338
1772810440209759200,3.98975927734375,-0.13988803327083588,-0.42248934507369995,-0.4672352075576782
1772810440219459000,3.999458984375,-0.11759147047996521,-0.4600575268268585,-0.528932511806488
1772810440229159200,4.0091591796875,-0.1026252806186676,-0.524503767490387,-0.5521454215049744
1772810440238859000,4.01885888671875,-0.0766635313630104,-0.5828413367271423,-0.5533671379089355
1772810440248558800,4.028558837890625,-0.029626941308379173,-0.6048324704170227,-0.5539780259132385
1772810440258258700,4.0382587890625,0.03817904740571976,-0.5926151871681213,-0.565889835357666
1772810440267958800,4.047958740234375,0.1130099818110466,-0.533666729927063,-0.5787180066108704
1772810440277658600,4.05765869140625,0.15302163362503052,-0.47288569808006287,-0.5600866675376892
1772810440287358500,4.0673583984375,0.12400554865598679,-0.4716639816761017,-0.46143198013305664
1772810440297058600,4.07705859375,0.07116574794054031,-0.506483256816864,-0.3340666890144348
1772810440306758400,4.08675830078125,0.12644900381565094,-0.591088056564331,-0.4223366379737854
1772810440316458200,4.096458251953125,0.3995055556297302,-0.895604133605957,-1.2014946937561035
1772810440326158300,4.106158447265625,0.7736602425575256,-1.4575997591018677,-2.834947109222412
1772810440335858200,4.115858154296875,1.0751219987869263,-1.7746385335922241,-4.717327117919922
1772810440345558000,4.12555810546875,1.2800670862197876,-1.3998730182647705,-6.091161727905273
1772810440355257900,4.1352578125,1.3515383005142212,-0.6482039093971252,-6.582296848297119
1772810440364958000,4.1449580078125,1.2861758470535278,0.13484840095043182,-6.072225093841553
1772810440374657800,4.15465771484375,1.1001675128936768,0.9228639602661133,-4.846219539642334
1772810440384357600,4.164357666015625,0.9578359723091125,1.6504039764404297,-3.4699411392211914
1772810440394057700,4.1740576171875,1.257465124130249,2.1894919872283936,-2.3212099075317383
1772810440403757600,4.183757568359375,1.830456256866455,2.536768674850464,-1.3313034772872925
1772810440413457400,4.19345751953125,2.3072361946105957,2.4610214233398438,-0.3966803252696991
1772810440423157500,4.203157470703125,2.550665855407715,1.687972068786621,0.4151589870452881
1772810440432857300,4.212857421875,2.604422092437744,0.3984365463256836,1.0034217834472656
1772810440442557200,4.22255712890625,2.545168161392212,-0.9145409464836121,1.3323724269866943
1772810440452257000,4.232257080078125,2.4202463626861572,-1.9478187561035156,1.4035382270812988
1772810440461957000,4.24195703125,2.213163137435913,-2.5767040252685547,1.252959966659546
1772810440471657000,4.251656982421875,1.9544618129730225,-2.801196813583374,0.9108757376670837
1772810440481356800,4.261356689453125,1.7012584209442139,-2.7156758308410645,0.395305871963501
1772810440491057000,4.271056884765625,1.4581341743469238,-2.356792688369751,-0.20853395760059357
1772810440500756700,4.2807568359375,1.239139199256897,-1.707137942314148,-0.7464004158973694
1772810440510456800,4.290456787109375,1.0293071269989014,-0.9224821925163269,-1.1364375352859497
1772810440520156700,4.30015673828125,0.7965676784515381,-0.12347104400396347,-1.342604398727417
1772810440529856500,4.3098564453125,0.5583304166793823,0.5514581799507141,-1.381699800491333
1772810440539556400,4.319556396484375,0.3271180987358093,0.9808961153030396,-1.327332854270935
1772810440549256200,4.329256103515625,0.12034036219120026,1.1531599760055542,-1.2231804132461548
1772810440558956300,4.338956298828125,-0.022296564653515816,1.1287254095077515,-1.0579414367675781
1772810440568656100,4.34865625,-0.06200277432799339,0.9836450219154358,-0.8001564741134644
1772810440578356000,4.35835595703125,-0.006414080038666725,0.8019127249717712,-0.45685049891471863
1772810440588056000,4.36805615234375,0.09590577334165573,0.6235402226448059,-0.04818195849657059
1772810440597756000,4.377755859375,0.210442915558815,0.48792824149131775,0.40202537178993225
1772810440607456000,4.3874560546875,0.3295615613460541,0.425009161233902,0.8656717538833618
1772810440617155800,4.39715576171875,0.46364638209342957,0.39049530029296875,1.3042726516723633
1772810440626855700,4.406855712890625,0.5977311730384827,0.3633118271827698,1.698891282081604
1772810440636555500,4.416555419921875,0.7183769941329956,0.32818710803985596,2.04128098487854
1772810440646255600,4.426255615234375,0.8265000581741333,0.2692386507987976,2.315253973007202
1772810440655955500,4.43595556640625,0.9056070446968079,0.16875138878822327,2.476827621459961
1772810440665655300,4.4456552734375,0.9483675956726074,0.01908952370285988,2.5113415718078613
1772810440675355100,4.455355224609375,0.9728021621704102,-0.08895718306303024,2.4676647186279297
1772810440685055200,4.46505517578125,0.999069333076477,-0.11278090626001358,2.354654550552368
1772810440694755000,4.474755126953125,1.0198386907577515,-0.07460185885429382,2.1680355072021484
1772810440704455200,4.484455078125,1.0106757879257202,-0.011682788841426373,1.9023092985153198
1772810440714155000,4.494155029296875,0.9636391997337341,-0.0013744457392022014,1.570304274559021
1772810440723854800,4.503854736328125,0.8542944192886353,-0.03917170315980911,1.234939455986023
1772810440733555000,4.513554931640625,0.66645348072052,-0.08437569439411163,0.9380592107772827
1772810440743254800,4.5232548828125,0.4508182108402252,-0.12713623046875,0.6934078931808472
1772810440752954600,4.53295458984375,0.26450446248054504,-0.18028147518634796,0.4967094361782074
1772810440762654500,4.542654541015625,0.12553271651268005,-0.22212570905685425,0.377285361289978
1772810440772354600,4.5523544921875,0.034208428114652634,-0.245338574051857,0.343993216753006
1772810440782054400,4.562054443359375,-0.023518294095993042,-0.2346484363079071,0.3641517758369446
1772810440791754200,4.571754150390625,-0.06872228533029556,-0.20807582139968872,0.40721774101257324
1772810440801454300,4.581454345703125,-0.1233946830034256,-0.1937204897403717,0.45791950821876526
1772810440811154200,4.591154296875,-0.18692462146282196,-0.1628718227148056,0.5077049732208252
1772810440820854000,4.60085400390625,-0.24434591829776764,-0.10819942504167557,0.5403862595558167
1772810440830554000,4.61055419921875,-0.27855435013771057,-0.0602465383708477,0.553214430809021
1772810440840254000,4.62025390625,-0.28466299176216125,0.0007635809597559273,0.5654317140579224
1772810440849953800,4.629953857421875,-0.2660316228866577,0.10430516302585602,0.5800924897193909
1772810440859654000,4.63965380859375,-0.20799945294857025,0.24022257328033447,0.6020836234092712
1772810440869353700,4.649353759765625,-0.10018182545900345,0.39416050910949707,0.6579777002334595
1772810440879053600,4.659053466796875,0.02718348242342472,0.5456549525260925,0.7502183318138123
1772810440888753700,4.668753662109375,0.1279761642217636,0.6919570565223694,0.8791107535362244
1772810440898453500,4.67845361328125,0.1695149689912796,0.8019127249717712,1.0122792720794678
1772810440908153300,4.6881533203125,0.11942406743764877,0.8373429179191589,1.117653489112854
1772810440917853200,4.697853271484375,0.01954767294228077,0.8245147466659546,1.2077560424804688
1772810440927553300,4.70755322265625,-0.12431098520755768,0.6446150541305542,1.265788197517395
1772810440937253000,4.717253173828125,-0.2974911332130432,0.2130390852689743,1.1591923236846924
1772810440946953000,4.726952880859375,-0.4526508152484894,-0.3375791609287262,0.7282271981239319
1772810440956653000,4.736653076171875,-0.6185005903244019,-0.9432515501976013,-0.08727730810642242
1772810440966353000,4.746352783203125,-0.8585704565048218,-1.535485029220581,-1.156596064567566
1772810440976052700,4.756052734375,-0.962722897529602,-1.6833142042160034,-2.071976900100708
1772810440985752800,4.7657529296875,-0.9202677607536316,-1.4017056226730347,-2.653520345687866
1772810440995452700,4.77545263671875,-0.9373720288276672,-0.9337831735610962,-3.091204881668091
1772810441005152800,4.78515283203125,-0.7938187718391418,-0.5202277302742004,-3.6748862266540527
1772810441014852600,4.7948525390625,-0.45998117327690125,-0.36506807804107666,-4.3587493896484375
1772810441024552400,4.804552490234375,-0.23426663875579834,-0.2251800298690796,-4.693808555603027
1772810441034252300,4.814252197265625,-0.21502439677715302,0.10705405473709106,-4.464428901672363
1772810441043952400,4.823952392578125,-0.24281874299049377,0.4641045033931732,-3.862727165222168
1772810441053652200,4.83365234375,-0.1585194170475006,0.7188351154327393,-3.1238861083984375
1772810441063352000,4.84335205078125,0.04978547990322113,0.838259220123291,-2.387794017791748
1772810441073052000,4.853052001953125,0.3124573230743408,0.8321505188941956,-1.751578450202942
1772810441082752000,4.862751953125,0.5488619804382324,0.670576810836792,-1.2473095655441284
1772810441092451800,4.872451904296875,0.7425061464309692,0.32940882444381714,-0.8734602928161621
1772810441102152000,4.88215185546875,0.9208786487579346,-0.13965895771980286,-0.5946004986763
1772810441111851800,4.891851806640625,1.102000117301941,-0.5654317140579224,-0.4009563624858856
1772810441121551600,4.901551513671875,1.293811559677124,-0.820773184299469,-0.2775616943836212
1772810441131251700,4.911251708984375,1.5121957063674927,-0.8332959413528442,-0.20578506588935852
1772810441140951600,4.92095166015625,1.7699806690216064,-0.6256018877029419,-0.17310380935668945
1772810441150651400,4.9306513671875,2.0696098804473877,-0.26763513684272766,-0.1914297491312027
1772810441160351500,4.9403515625,2.341750144958496,0.1207985132932663,-0.2580140233039856
1772810441170051300,4.95005126953125,2.5198171138763428,0.41095927357673645,-0.3386481702327728
1772810441179751200,4.959751220703125,2.5610506534576416,0.5480984449386597,-0.40523242950439453
1772810441189451000,4.969450927734375,2.4287984371185303,0.5151117444038391,-0.4583776593208313
1772810441199151000,4.979151123046875,2.073275089263916,0.29886558651924133,-0.49197521805763245
1772810441208851000,4.988850830078125,1.524107575416565,-0.08926261961460114,-0.478841632604599
1772810441218550800,4.99855078125,0.8906408548355103,-0.5825359225273132,-0.4116465151309967
1772810441228251000,5.0082509765625,0.32070401310920715,-1.0635919570922852,-0.30077454447746277
1772810441237950700,5.01795068359375,-0.04673115536570549,-1.3885719776153564,-0.21067199110984802
1772810441247650600,5.027650634765625,-0.17776164412498474,-1.4710386991500854,-0.18379394710063934
1772810441257350700,5.0373505859375,-0.11759147047996521,-1.3271801471710205,-0.20456334948539734
1772810441267050500,5.047050537109375,0.04764745384454727,-0.9939533472061157,-0.21830779314041138
1772810441276750300,5.056750244140625,0.22479823231697083,-0.5394699573516846,-0.18532110750675201
1772810441286450400,5.066450439453125,0.34636032581329346,-0.09506583213806152,-0.09246965497732162
1772810441296150300,5.076150390625,0.3790415823459625,0.23105959594249725,0.07154753804206848
1772810441305850400,5.085850341796875,0.33047783374786377,0.40057456493377686,0.3058141767978668
1772810441315550200,5.09555029296875,0.25534147024154663,0.44577857851982117,0.5920043587684631
1772810441325250000,5.10525,0.1792888194322586,0.40485063195228577,0.903239905834198
1772810441334950100,5.1149501953125,0.10965022444725037,0.3251327872276306,1.180267095565796
1772810441344650000,5.12464990234375,0.03817904740571976,0.22036947309970856,1.3952915668487549
1772810441354349800,5.134349853515625,-0.04153880476951599,0.11255183815956116,1.5199079513549805
1772810441364049700,5.144049560546875,-0.11148282140493393,0.0102319847792387,1.5360958576202393
1772810441373749800,5.153749755859375,-0.20341797173023224,-0.07521272450685501,1.4655410051345825
1772810441383449600,5.16344970703125,-0.3280344009399414,-0.11339177191257477,1.347949504852295
1772810441393149400,5.1731494140625,-0.47036588191986084,-0.12530364096164703,1.2150864601135254
1772810441402849500,5.182849609375,-0.6093376278877258,-0.1011744812130928,1.0806961059570312
1772810441412549400,5.19254931640625,-0.7241802215576172,0.0023671009112149477,0.9560797214508057
1772810441422249200,5.202249267578125,-0.7867938280105591,0.19043709337711334,0.859257698059082
1772810441431949300,5.21194921875,-0.8069523572921753,0.3263545036315918,0.766406238079071
1772810441441649200,5.221649169921875,-0.8237511515617371,0.3254382014274597,0.663475513458252
1772810441451349000,5.231348876953125,-0.8665117025375366,0.19868376851081848,0.5764272809028625
1772810441461049000,5.241049072265625,-0.9138537049293518,-0.0019853105768561363,0.5364156365394592
1772810441470749000,5.2507490234375,-0.9654718041419983,-0.21571162343025208,0.497320294380188
1772810441480449000,5.260448974609375,-1.0421353578567505,-0.4518108665943146,0.34613126516342163
1772810441490148900,5.27014892578125,-1.0961968898773193,-0.6298779249191284,0.13599377870559692
1772810441499848700,5.2798486328125,-1.0589340925216675,-0.5562687516212463,0.08773545175790787
1772810441509548800,5.289548828125,-0.9275981783866882,-0.23861905932426453,0.24197880923748016
1772810441519248600,5.29924853515625,-0.6774490475654602,0.08781181275844574,0.43898269534111023
1772810441528948500,5.308948486328125,-0.2971857190132141,0.11499529331922531,0.5767326951026917
1772810441538648300,5.3186484375,0.057726722210645676,-0.28412848711013794,0.6616429090499878
1772810441548348400,5.328348388671875,0.28496840596199036,-0.9075160026550293,0.7312815189361572
1772810441558048300,5.33804833984375,0.45387253165245056,-1.4279727935791016,0.7948114275932312
1772810441567748000,5.347748046875,0.6059778332710266,-1.7422627210617065,0.8045852780342102
1772810441577448200,5.3574482421875,0.7003564834594727,-1.7636430263519287,0.8436806201934814
1772810441587148000,5.36714794921875,0.7461713552474976,-1.441717267036438,1.025107502937317
1772810441596847900,5.376847900390625,0.7528908252716064,-0.9230930209159851,1.3171007633209229
1772810441606548000,5.3865478515625,0.6979129910469055,-0.3592648506164551,1.5794672966003418
1772810441616247800,5.396247802734375,0.5852084755897522,0.20601414144039154,1.6747621297836304
1772810441625947600,5.40594775390625,0.46395179629325867,0.7311288118362427,1.5947388410568237
1772810441635647700,5.415647705078125,0.39339691400527954,1.2246311902999878,1.4444661140441895
1772810441645347600,5.42534765625,0.36682429909706116,1.5990912914276123,1.3155736923217773
1772810441655047400,5.43504736328125,0.32559093832969666,1.8199188709259033,1.2303580045700073
1772810441664747500,5.44474755859375,0.2767217457294464,1.9310963153839111,1.1848485469818115
1772810441674447400,5.454447265625,0.24220788478851318,1.9341505765914917,1.1408662796020508
1772810441684147500,5.4641474609375,0.1853974610567093,1.8529056310653687,1.078863501548767
1772810441693847300,5.473847412109375,0.001832594396546483,1.714239239692688,1.014111876487732
1772810441703547100,5.483547119140625,-0.36193737387657166,1.5798490047454834,0.9814306497573853
1772810441713247200,5.493247314453125,-0.8142827749252319,1.4772237539291382,0.9634101390838623
1772810441722947000,5.502947021484375,-1.1963787078857422,1.4298816919326782,0.9151517748832703
1772810441732647000,5.51264697265625,-1.4062107801437378,1.511737585067749,0.8323796391487122
1772810441742347000,5.522346923828125,-1.4508038759231567,1.698967695236206,0.7065414786338806
1772810441752046800,5.532046875,-1.385746717453003,1.9329289197921753,0.5321395993232727
1772810441761746700,5.54174658203125,-1.258992314338684,2.1281001567840576,0.37117671966552734
1772810441771446800,5.55144677734375,-1.1032217741012573,2.1726932525634766,0.28290674090385437
1772810441781146600,5.561146728515625,-0.9636391997337341,2.014173984527588,0.2764926850795746
1772810441790846500,5.570846435546875,-0.8830050230026245,1.6687299013137817,0.326583594083786
1772810441800546300,5.58054638671875,-0.8677334189414978,1.1659882068634033,0.3846157491207123
1772810441810246400,5.590246337890625,-0.8744529485702515,0.6119337677955627,0.4548651874065399
1772810441819946200,5.5999462890625,-0.880256175994873,0.08200860023498535,0.5248091816902161
1772810441829646000,5.60964599609375,-0.8875865340232849,-0.3623191714286804,0.5874228477478027
1772810441839346200,5.61934619140625,-0.8854485154151917,-0.7062360644340515,0.6234638690948486
1772810441849046000,5.6290458984375,-0.8799507021903992,-0.9466113448143005,0.6457604169845581
1772810441858745900,5.638745849609375,-0.9184352159500122,-1.088026523590088,0.6625592112541199
1772810441868446000,5.648446044921875,-1.0192278623580933,-1.124678373336792,0.6821069121360779
1772810441878145800,5.658145751953125,-1.1713331937789917,-1.1115448474884033,0.6952404975891113
1772810441887846000,5.667845947265625,-1.3625339269638062,-1.1332305669784546,0.6958513259887695
1772810441897545700,5.677545654296875,-1.5806126594543457,-1.2221113443374634,0.6912698745727539
1772810441907245600,5.68724560546875,-1.8066326379776,-1.3702460527420044,0.6775254011154175
1772810441916945700,5.696945556640625,-2.022878646850586,-1.5431207418441772,0.6701950430870056
1772810441926645500,5.7066455078125,-2.1841471195220947,-1.6924772262573242,0.6585885882377625
1772810441936345300,5.716345458984375,-2.271500587463379,-1.8109849691390991,0.6143009066581726
1772810441946045400,5.72604541015625,-2.2785255908966064,-1.920940637588501,0.5348884463310242
1772810441955745300,5.735745361328125,-2.22996187210083,-2.0012693405151367,0.45730865001678467
1772810441965445400,5.7454453125,-2.123671293258667,-1.9911900758743286,0.38156139850616455
1772810441975145200,5.755145263671875,-1.9956952333450317,-1.9050581455230713,0.29420775175094604
1772810441984845000,5.764844970703125,-1.8842123746871948,-1.7526473999023438,0.2092975378036499
1772810441994545200,5.774545166015625,-1.7873903512954712,-1.5385392904281616,0.14607304334640503
1772810442004245000,5.784244873046875,-1.7012584209442139,-1.2859467267990112,0.09689842909574509
1772810442013944800,5.79394482421875,-1.6413936614990234,-1.062981128692627,0.06238456442952156
1772810442023645000,5.80364501953125,-1.5845832824707031,-0.8699477910995483,0.07460185885429382
1772810442033344800,5.8133447265625,-1.5109740495681763,-0.6836340427398682,0.1476002037525177
1772810442043044600,5.823044677734375,-1.4028509855270386,-0.5138136148452759,0.2755763828754425
1772810442052744700,5.83274462890625,-1.2428044080734253,-0.2807687222957611,0.44875654578208923
1772810442062444500,5.842444580078125,-1.018311619758606,-0.012904518283903599,0.6579777002334595
1772810442072144400,5.852144287109375,-0.7260127663612366,0.27687445282936096,0.8357393741607666
1772810442081844500,5.861844482421875,-0.44501498341560364,0.2845102846622467,0.839709997177124
1772810442091544300,5.87154443359375,-0.42302384972572327,-0.7010436654090881,0.13446660339832306
1772810442101244200,5.881244140625,-0.6023126840591431,-2.3280820846557617,-1.1889718770980835
1772810442110944300,5.8909443359375,-0.5665770769119263,-3.837528944015503,-2.479729175567627
1772810442120644000,5.90064404296875,-0.1029307171702385,-4.701291561126709,-3.583561897277832
1772810442130344000,5.910343994140625,0.5253437161445618,-4.4370927810668945,-4.405786037445068
1772810442140043800,5.920043701171875,0.9550870656967163,-2.7294201850891113,-4.764974117279053
1772810442149743900,5.929743896484375,1.1154390573501587,0.226859912276268,-4.461374759674072
1772810442159443700,5.939443603515625,1.0931425094604492,2.861443281173706,-3.6489243507385254
1772810442169143800,5.949143798828125,1.1499528884887695,4.037052631378174,-2.530431032180786
1772810442178843600,5.95884375,1.285259485244751,3.7285659313201904,-1.2824342250823975
1772810442188543500,5.96854345703125,1.4486658573150635,2.349538564682007,-0.07994692772626877
1772810442198243600,5.97824365234375,1.6325361728668213,0.5096139311790466,0.9117920398712158
1772810442207943400,5.987943359375,1.7919718027114868,-1.055039882659912,1.533652424812317
1772810442217643300,5.997643310546875,1.9569053649902344,-1.960036039352417,1.7141629457473755
1772810442227343400,6.00734326171875,2.151465654373169,-2.2275948524475098,1.552283763885498
1772810442237043200,6.017043212890625,2.3545782566070557,-1.967060923576355,1.200425624847412
1772810442246743000,6.026742919921875,2.5353941917419434,-1.440190076828003,0.7691551446914673
1772810442256443100,6.036443115234375,2.6398520469665527,-0.8565087914466858,0.3580431044101715
1772810442266143000,6.04614306640625,2.584263563156128,-0.34093889594078064,-0.024052800610661507
1772810442275843000,6.055843017578125,2.319148063659668,0.07773254066705704,-0.4284452795982361
1772810442285543000,6.06554296875,1.8967351913452148,0.47723811864852905,-0.9149990677833557
1772810442295242800,6.07524267578125,1.4395028352737427,0.8684970140457153,-1.511508584022522
1772810442304942800,6.08494287109375,1.0393863916397095,1.2680025100708008,-2.157803535461426
1772810442314642700,6.094642578125,0.7492256760597229,1.6653701066970825,-2.739652156829834
1772810442324342500,6.104342529296875,0.5891790986061096,2.008676052093506,-3.1266350746154785
1772810442334042600,6.114042724609375,0.5687150955200195,2.240499258041382,-3.236590623855591
1772810442343742500,6.123742431640625,0.6869174242019653,2.294255495071411,-3.0490550994873047
1772810442353442600,6.133442626953125,0.8949168920516968,2.19682240486145,-2.5909066200256348
1772810442363142400,6.143142333984375,1.1163554191589355,1.9717187881469727,-1.9299509525299072
1772810442372842200,6.15284228515625,1.29503333568573,1.6274964809417725,-1.148349404335022
1772810442382542300,6.162542236328125,1.4025455713272095,1.1879792213439941,-0.34170249104499817
1772810442392242200,6.1722421875,1.4486658573150635,0.7044798135757446,0.4087449014186859
1772810442401942000,6.18194189453125,1.416900873184204,0.19868376851081848,1.0467931032180786
1772810442411642000,6.19164208984375,1.2925899028778076,-0.36628979444503784,1.559003233909607
1772810442421342000,6.201342041015625,1.1129956245422363,-0.9383646845817566,1.9398775100708008
1772810442431041800,6.211041748046875,0.9468404054641724,-1.373376727104187,2.169562578201294
1772810442440742000,6.220741943359375,0.8436042666435242,-1.5935171842575073,2.2236242294311523
1772810442450441700,6.230441650390625,0.8063415288925171,-1.6533818244934082,2.1121413707733154
1772810442460141800,6.240141845703125,0.813060998916626,-1.6032909154891968,1.9035309553146362
1772810442469841700,6.249841552734375,0.8292489647865295,-1.440190076828003,1.635972261428833
1772810442479541500,6.25954150390625,0.8374956250190735,-1.1158208847045898,1.2969422340393066
1772810442489241600,6.26924169921875,0.8387173414230347,-0.7044034600257874,0.8904117941856384
1772810442498941400,6.27894140625,0.8329141139984131,-0.27313292026519775,0.46250098943710327
1772810442508641300,6.288641357421875,0.8216131329536438,0.1519526094198227,0.053832460194826126
1772810442518341400,6.29834130859375,0.8020654320716858,0.5151117444038391,-0.3084103465080261
1772810442528041200,6.308041259765625,0.7822123765945435,0.7704532146453857,-0.5723039507865906
1772810442537741000,6.317740966796875,0.7266236543655396,0.8758273720741272,-0.73204505443573
1772810442547441200,6.327441162109375,0.565049946308136,0.845894992351532,-0.7882446646690369
1772810442557141000,6.33714111328125,0.3326158821582794,0.7392991185188293,-0.7176897525787354
1772810442566840800,6.3468408203125,0.11087195575237274,0.6018545031547546,-0.5283216834068298
1772810442576541000,6.356541015625,-0.06444623321294785,0.4454731345176697,-0.24335326254367828
1772810442586240800,6.36624072265625,-0.1649334877729416,0.25274530053138733,0.13416117429733276
1772810442595940600,6.375940673828125,-0.17318016290664673,-0.050778135657310486,0.6112465858459473
1772810442605640700,6.385640625,-0.03848448023200035,-0.48449212312698364,1.1317033767700195
1772810442615340500,6.395340576171875,0.2675587832927704,-1.060537576675415,1.4398846626281738
1772810442625040400,6.405040283203125,0.5962040424346924,-2.150014877319336,1.098105788230896
1772810442634740500,6.414740478515625,0.7464767694473267,-3.650909662246704,0.03367391973733902
1772810442644440300,6.4244404296875,0.7834340929985046,-4.261468887329102,-1.0677152872085571
1772810442654140400,6.434140380859375,0.6371319890022278,-3.234910726547241,-1.8102214336395264
1772810442663840300,6.44384033203125,0.374765545129776,-1.1087958812713623,-2.2946372032165527
1772810442673540000,6.4535400390625,0.3228420317173004,1.2411245107650757,-2.6015968322753906
1772810442683240200,6.463240234375,0.42943793535232544,3.0080509185791016,-2.7414848804473877
1772810442692940000,6.47293994140625,0.4511236250400543,3.8464627265930176,-2.515770196914673
1772810442702639900,6.482639892578125,0.47036588191986084,3.81103253364563,-1.7625739574432373
1772810442712340000,6.492340087890625,0.6685914993286133,2.9778130054473877,-0.6144536137580872
1772810442722039800,6.502039794921875,1.0106757879257202,1.7829616069793701,0.7832050323486328
1772810442731740000,6.511739990234375,1.349705696105957,0.5484038591384888,2.1231369972229004
1772810442741439700,6.521439697265625,1.6545273065567017,-0.7160098552703857,3.0794456005096436
1772810442751139600,6.5311396484375,1.866497278213501,-1.6634612083435059,3.58585262298584
1772810442760839700,6.540839599609375,1.8921536207199097,-2.04433536529541,3.6576292514801025
1772810442770539500,6.55053955078125,1.7253875732421875,-1.774027705192566,3.3778531551361084
1772810442780239400,6.5602392578125,1.4089596271514893,-0.9854012727737427,2.882441759109497
1772810442789939500,6.569939453125,1.0754274129867554,0.05696314200758934,2.286848545074463
1772810442799639300,6.579639404296875,0.8313869833946228,1.0230457782745361,1.6866739988327026
1772810442809339100,6.589339111328125,0.6282744407653809,1.5978695154190063,1.127427339553833
1772810442819039200,6.599039306640625,0.3964512348175049,1.8238894939422607,0.6179660558700562
1772810442828739000,6.608739013671875,0.1130099818110466,1.7869322299957275,0.11766783148050308
1772810442838439200,6.618439208984375,-0.19364413619041443,1.5874848365783691,-0.34781113266944885
1772810442848139000,6.628138916015625,-0.4379900395870209,1.3721550703048706,-0.7018072605133057
1772810442857838800,6.6378388671875,-0.5503891706466675,1.2567015886306763,-0.8581886291503906
1772810442867539000,6.6475390625,-0.5293143391609192,1.2344050407409668,-0.7766382098197937
1772810442877238800,6.65723876953125,-0.416304349899292,1.2325724363327026,-0.4421897530555725
1772810442886938600,6.666938720703125,-0.2733619809150696,1.1754565238952637,0.10025817900896072
1772810442896638700,6.676638671875,-0.14782927930355072,1.0077741146087646,0.7398335933685303
1772810442906338600,6.686338623046875,-0.023518294095993042,0.7649554014205933,1.3659700155258179
1772810442916038700,6.69603857421875,0.10720676928758621,0.4754055142402649,1.8794018030166626
1772810442925738500,6.705738525390625,0.20616686344146729,0.1305723488330841,2.2217915058135986
1772810442935438300,6.715438232421875,0.2519817352294922,-0.24320054054260254,2.3717589378356934
1772810442945138400,6.725138427734375,0.268169641494751,-0.5785652995109558,2.3522112369537354
1772810442954838300,6.73483837890625,0.28588470816612244,-0.8293253183364868,2.200716733932495
1772810442964538000,6.7445380859375,0.28557929396629333,-0.9789871573448181,1.9533164501190186
1772810442974238200,6.75423828125,0.23273947834968567,-1.0135010480880737,1.6298636198043823
1772810442983938000,6.76393798828125,0.15179990231990814,-0.8998801708221436,1.265788197517395
1772810442993638000,6.773637939453125,0.07757982611656189,-0.625907301902771,0.8931606411933899
1772810443003338000,6.783337890625,0.02718348242342472,-0.2450331300497055,0.5400808453559875
1772810443013037800,6.793037841796875,0.018325943499803543,0.14309507608413696,0.24442227184772491
1772810443022738000,6.802738037109375,0.04153880476951599,0.476321816444397,0.02695440873503685
1772810443032437800,6.812437744140625,0.04978547990322113,0.7307469844818115,-0.09827287495136261
1772810443042137600,6.8221376953125,0.03940077871084213,0.9069814682006836,-0.1340084671974182
1772810443051837700,6.831837646484375,0.02626718580722809,1.0151045322418213,-0.10315979272127151
1772810443061537500,6.84153759765625,0.012522728182375431,1.0728312730789185,-0.039018988609313965
1772810443071237600,6.851237548828125,-0.0015271619195118546,1.067333459854126,0.046807512640953064
1772810443080937500,6.8609375,-0.0204639695584774,1.0013600587844849,0.15584687888622284
1772810443090637300,6.87063720703125,-0.032070402055978775,0.9051488637924194,0.30367615818977356
1772810443100337400,6.88033740234375,-0.033597562462091446,0.8235984444618225,0.47288569808006287
1772810443110037200,6.890037353515625,-0.020158538594841957,0.7692314982414246,0.6243801712989807
1772810443119737000,6.899737060546875,0.007330377586185932,0.735023021697998,0.7465531229972839
1772810443129437200,6.909437255859375,0.04825831577181816,0.7286089658737183,0.8427643179893494
1772810443139137000,6.919136962890625,0.15729768574237823,0.7661771774291992,0.9114866256713867
1772810443148837000,6.928837158203125,0.31001389026641846,0.8275690674781799,0.9664644598960876
1772810443158537000,6.938536865234375,0.4676169753074646,0.8923207521438599,1.0486257076263428
1772810443168236800,6.94823681640625,0.6643154621124268,0.9521854519844055,1.2025636434555054
1772810443177937000,6.95793701171875,0.8680388331413269,1.030987024307251,1.4093414545059204
1772810443187636700,6.96763671875,1.0067051649093628,1.2008074522018433,1.6521601676940918
1772810443197336600,6.977336669921875,1.0027345418930054,1.4246894121170044,1.9191080331802368
1772810443207036700,6.98703662109375,0.7880155444145203,1.5080723762512207,2.141768217086792
1772810443216736500,6.996736572265625,0.3090975880622864,1.2176061868667603,2.214766502380371
1772810443226436600,7.0064365234375,-0.35094180703163147,0.47143489122390747,1.9863032102584839
1772810443236136400,7.016136474609375,-1.0210604667663574,-0.4463130831718445,1.2679262161254883
1772810443245836300,7.025836181640625,-1.468213438987732,-1.2126429080963135,0.10392337292432785
1772810443255536400,7.035536376953125,-1.6865977048873901,-2.021733283996582,-1.3080905675888062
1772810443265236200,7.045236328125,-1.7947207689285278,-3.15305495262146,-2.5734970569610596
1772810443274936000,7.05493603515625,-1.644142508506775,-3.95542573928833,-3.2772130966186523
1772810443284636200,7.06463623046875,-1.2977821826934814,-3.8674612045288086,-2.998964309692383
1772810443294336000,7.0743359375,-1.0439679622650146,-2.452087640762329,-1.5835906267166138
1772810443304036000,7.0840361328125,-0.9984585046768188,-0.17478369176387787,0.44295331835746765
1772810443313736000,7.09373583984375,-1.06443190574646,1.6216932535171509,2.242866277694702
1772810443323435800,7.103435791015625,-1.1087195873260498,2.269209861755371,3.233689069747925
1772810443333136000,7.113135986328125,-1.1609485149383545,1.993709921836853,3.449629783630371
1772810443342835700,7.122835693359375,-1.3445134162902832,1.2197442054748535,3.136256217956543
1772810443352535600,7.13253564453125,-1.6044363975524902,0.45219266414642334,2.469191789627075
1772810443362235600,7.142235595703125,-1.7434080839157104,0.05940660089254379,1.5678608417510986
1772810443371935500,7.151935546875,-1.7376048564910889,0.1769980639219284,0.5843685269355774
1772810443381635600,7.161635498046875,-1.5754202604293823,0.7063124179840088,-0.33315038681030273
1772810443391335400,7.17133544921875,-1.275791049003601,1.3865103721618652,-1.092760682106018
1772810443401035300,7.18103515625,-0.7852666974067688,1.9704970121383667,-1.6174936294555664
1772810443410735400,7.1907353515625,-0.2733619809150696,2.1412336826324463,-1.9247585535049438
1772810443420435200,7.200435302734375,0.0665842592716217,1.7875430583953857,-1.933310627937317
1772810443430135000,7.210135009765625,0.2577849328517914,1.1467459201812744,-1.5289181470870972
1772810443439835100,7.219835205078125,0.3704894781112671,0.42164942622184753,-0.8022945523262024
1772810443449535000,7.229534912109375,0.43310311436653137,-0.23373213410377502,0.02023489587008953
1772810443459234800,7.23923486328125,0.425467312335968,-0.6478984355926514,0.6982948184013367
1772810443468935000,7.248934814453125,0.37293294072151184,-0.792062520980835,1.1087958812713623
1772810443478634800,7.258634765625,0.2889390289783478,-0.7489965558052063,1.2471568584442139
1772810443488334800,7.2683349609375,0.18661919236183167,-0.516257107257843,1.1778236627578735
1772810443498034700,7.27803466796875,0.13011419773101807,-0.09750928729772568,0.9948696494102478
1772810443507734500,7.287734619140625,0.13439024984836578,0.3529271185398102,0.7737365961074829
1772810443517434600,7.2974345703125,0.1737910360097885,0.7157807946205139,0.5904771685600281
1772810443527134500,7.307134521484375,0.21930044889450073,0.9610430002212524,0.47807803750038147
1772810443536834300,7.316834228515625,0.25503605604171753,1.0404554605484009,0.4398989975452423
1772810443546534400,7.326534423828125,0.21777328848838806,0.8544471263885498,0.4515054225921631
1772810443556234200,7.336234130859375,0.09682206809520721,0.4173733592033386,0.4860192835330963
1772810443565934300,7.345934326171875,-0.011606430634856224,-0.11552979797124863,0.5052615404129028
1772810443575634200,7.35563427734375,-0.05283980444073677,-0.5700132250785828,0.4820486605167389
1772810443585334000,7.365333984375,-0.01893680728971958,-0.8085559010505676,0.4105774760246277
1772810443595034000,7.3750341796875,0.06261363625526428,-0.8329904675483704,0.27252206206321716
1772810443604734000,7.38473388671875,0.1441640853881836,-0.7321978211402893,0.08162680268287659
1772810443614433800,7.394433837890625,0.17623448371887207,-0.5855902433395386,-0.14592032134532928
1772810443624134000,7.4041337890625,0.13683371245861053,-0.4502837061882019,-0.3804923892021179
1772810443633833700,7.413833740234375,0.05406153202056885,-0.3220020830631256,-0.6037634611129761
1772810443643533800,7.423533935546875,-0.056810423731803894,-0.15615230798721313,-0.8108466267585754
1772810443653233700,7.433233642578125,-0.17867794632911682,-0.008399390615522861,-0.9956332445144653
1772810443662933800,7.442933837890625,-0.2874118685722351,0.06337722390890121,-1.1199442148208618
1772810443672633600,7.452633544921875,-0.383928507566452,0.052687086164951324,-1.1911100149154663
1772810443682333400,7.46233349609375,-0.5027416944503784,-0.057497646659612656,-1.2311216592788696
1772810443692033500,7.472033447265625,-0.6386591196060181,-0.2557232677936554,-1.217071771621704
1772810443701733400,7.4817333984375,-0.7354812026023865,-0.43898269534111023,-1.1352158784866333
1772810443711433500,7.49143359375,-0.7574723362922668,-0.5373319387435913,-1.0255656242370605
1772810443721133300,7.50113330078125,-0.7250964641571045,-0.5220603346824646,-0.8927025198936462
1772810443730833200,7.510833251953125,-0.6511818766593933,-0.36659523844718933,-0.7192169427871704
1772810443740533200,7.520533203125,-0.5345066785812378,-0.15065452456474304,-0.5891027450561523
1772810443750233000,7.530233154296875,-0.44440412521362305,-0.0038179049734026194,-0.5817723274230957
1772810443759933200,7.53993310546875,-0.4862483739852905,-0.09567669779062271,-0.6596575975418091
1772810443769633000,7.549633056640625,-0.7330377101898193,-0.6036107540130615,-0.8804852366447449
1772810443779332900,7.559332763671875,-1.0274745225906372,-1.3387864828109741,-1.2815179824829102
1772810443789033000,7.569032958984375,-1.1731657981872559,-1.8940626382827759,-1.6520074605941772
1772810443798732800,7.57873291015625,-1.1881320476531982,-2.0935099124908447,-1.8154137134552002
1772810443808432600,7.5884326171875,-1.0540472269058228,-2.027231216430664,-1.7192025184631348
1772810443818132700,7.5981328125,-0.8671225309371948,-1.9640066623687744,-1.6312379837036133
1772810443827832600,7.60783251953125,-0.7244856357574463,-2.091066598892212,-1.78700852394104
1772810443837532400,7.617532470703125,-0.5400044918060303,-2.1490986347198486,-2.0585379600524902
1772810443847232500,7.627232421875,-0.35582873225212097,-1.9927172660827637,-2.3001348972320557
1772810443856932400,7.636932373046875,-0.3069595396518707,-1.5953497886657715,-2.3248748779296875
1772810443866632400,7.646632568359375,-0.3903425931930542,-0.506483256816864,-1.8551199436187744
1772810443876332300,7.656332275390625,-0.39400777220726013,1.0838267803192139,-0.8722385764122009
1772810443886032100,7.6660322265625,-0.20799945294857025,2.3596179485321045,0.353767067193985
1772810443895732200,7.675732177734375,0.06291907280683517,2.8684682846069336,1.4710386991500854
1772810443905432000,7.68543212890625,0.2406807243824005,2.62626051902771,2.3079235553741455
1772810443915132000,7.6951318359375,0.2861901521682739,1.8113667964935303,2.843346357345581
1772810443924832000,7.70483203125,0.2629773020744324,0.7887791395187378,3.1160976886749268
1772810443934531800,7.71453173828125,0.2779434621334076,0.010537417605519295,3.215057611465454
1772810443944232000,7.72423193359375,0.3656025826931,-0.2969566285610199,3.119457244873047
1772810443953931800,7.733931884765625,0.42363473773002625,-0.1689804643392563,2.7697372436523438
1772810443963631900,7.7436318359375,0.4425715208053589,0.263435423374176,2.2025492191314697
1772810443973331700,7.753331787109375,0.4633409380912781,0.8755219578742981,1.5580869913101196
1772810443983031600,7.763031494140625,0.42455101013183594,1.4723368883132935,1.0083086490631104
1772810443992731600,7.772731689453125,0.2776380479335785,1.9255985021591187,0.6585885882377625
1772810444002431500,7.782431396484375,0.07849612087011337,2.1421501636505127,0.49457138776779175
1772810444012131600,7.792131591796875,-0.11972949653863907,2.104276418685913,0.4566977918148041
1772810444021831400,7.80183154296875,-0.33536475896835327,1.8037309646606445,0.48418670892715454
1772810444031531300,7.81153125,-0.48991355299949646,1.3434443473815918,0.5898662805557251
1772810444041231400,7.8212314453125,-0.5143481492996216,0.8205441236495972,0.8039743900299072
1772810444050931200,7.83093115234375,-0.38301220536231995,0.4637990891933441,1.1506401300430298
1772810444060631300,7.84063134765625,-0.18692462146282196,0.43203410506248474,1.5464805364608765
1772810444070331100,7.8503310546875,0.02412915788590908,0.5325213670730591,1.9160537719726562
1772810444080031000,7.860031005859375,0.25503605604171753,0.5994110703468323,2.1985785961151123
1772810444089731000,7.86973095703125,0.4575377106666565,0.6583595275878906,2.3641231060028076
1772810444099431000,7.879430908203125,0.5571087002754211,0.6907353401184082,2.4472007751464844
1772810444109130800,7.889130859375,0.4831940531730652,0.6659952998161316,2.494237184524536
1772810444118830800,7.898830810546875,0.3231474757194519,0.6171261668205261,2.501873016357422
1772810444128530700,7.90853076171875,0.2006690800189972,0.5948295593261719,2.4557528495788574
1772810444138230800,7.918230712890625,0.12217295914888382,0.5771145224571228,2.339383125305176
1772810444147930600,7.9279306640625,0.08399390429258347,0.5352702736854553,2.1930809020996094
1772810444157630500,7.93763037109375,0.0818558782339096,0.5300779342651367,2.06327223777771
1772810444167330600,7.94733056640625,0.034208428114652634,0.47357290983200073,1.9325470924377441
1772810444177030400,7.957030517578125,-0.11667517572641373,0.3153589367866516,1.7819689512252808
1772810444186730200,7.966730224609375,-0.2977965772151947,0.07131846249103546,1.6231440305709839
1772810444196430300,7.976430419921875,-0.4474584460258484,-0.131717711687088,1.4408009052276611
1772810444206130200,7.986130126953125,-0.5537489056587219,-0.2819904685020447,1.2245547771453857
1772810444215830300,7.995830322265625,-0.6175842881202698,-0.3876700699329376,0.9939533472061157
1772810444225530000,8.005530029296875,-0.6517927050590515,-0.4001927971839905,0.7712931632995605
1772810444235230200,8.015230224609375,-0.68386310338974,-0.34460410475730896,0.5486329197883606
1772810444244930000,8.024929931640624,-0.7363975048065186,-0.3226129710674286,0.34643667936325073
1772810444254630000,8.0346298828125,-0.7834340929985046,-0.35101816058158875,0.2251800298690796
1772810444264330000,8.044330078125,-0.7922916412353516,-0.42310020327568054,0.21235187351703644
1772810444274029800,8.05402978515625,-0.7620537877082825,-0.5635991096496582,0.2804632782936096
1772810444283730000,8.06372998046875,-0.7312051653862,-0.7254782915115356,0.35590508580207825
1772810444293429800,8.0734296875,-0.6692023873329163,-0.8516218662261963,0.3782016634941101
1772810444303129900,8.0831298828125,-0.5531380772590637,-0.9331722855567932,0.31009024381637573
1772810444312829700,8.09282958984375,-0.44348782300949097,-0.9618829488754272,0.14973822236061096
1772810444322529500,8.102529541015626,-0.39889469742774963,-0.8415426015853882,-0.06528617441654205
1772810444332229600,8.112229736328125,-0.3656025826931,-0.5067886710166931,-0.22838707268238068
1772810444341929500,8.121929443359376,-0.31001389026641846,-0.18639011681079865,-0.3441459536552429
1772810444351629300,8.13162939453125,-0.21868959069252014,-0.17203480005264282,-0.5927678942680359
1772810444361329400,8.141329345703125,-0.12034036219120026,-0.48296496272087097,-1.0417535305023193
1772810444371029200,8.151029296875,-0.1029307171702385,-0.9145409464836121,-1.4650827646255493
1772810444380729000,8.16072900390625,-0.15668681263923645,-1.1393392086029053,-1.5490766763687134
1772810444390429200,8.17042919921875,-0.1490510106086731,-1.0813833475112915,-1.2146282196044922
1772810444400129000,8.18012890625,0.03756818547844887,-0.9627992510795593,-0.7653372287750244
1772810444409829000,8.1898291015625,0.4379900395870209,-0.8500946760177612,-0.3807978332042694
1772810444419529000,8.199529052734375,0.9126319885253906,-0.7633519172668457,-0.11232276260852814
1772810444429228800,8.209228759765624,1.2165372371673584,-0.719369649887085,-0.015195261687040329
1772810444438929000,8.218928955078125,1.2519673109054565,-0.9062942862510681,-0.21555891633033752
1772810444448628700,8.228628662109376,0.9049961566925049,-1.2880847454071045,-0.705472469329834
1772810444458328800,8.238328857421875,0.34086254239082336,-1.50738525390625,-1.3694825172424316
1772810444468028700,8.248028564453126,-0.0873536616563797,-1.263039231300354,-2.0808346271514893
1772810444477728800,8.257728759765625,-0.25961753726005554,-0.6469821333885193,-2.6825363636016846
1772810444487428600,8.2674287109375,-0.17318016290664673,0.21487168967723846,-2.8890085220336914
1772810444497128700,8.277128662109375,0.08032871782779694,1.0618356466293335,-2.577162027359009
1772810444506828500,8.28682861328125,0.26419901847839355,1.6177226305007935,-1.871918797492981
1772810444516528400,8.2965283203125,0.26908594369888306,1.726456642150879,-1.0399209260940552
1772810444526228500,8.306228515625,0.13958260416984558,1.253036379814148,-0.28580835461616516
1772810444535928300,8.31592822265625,0.019242240116000175,0.4912880063056946,0.2664133906364441
1772810444545628200,8.325628173828125,0.035124726593494415,-0.23892448842525482,0.5116755962371826
1772810444555328300,8.335328369140624,0.19120067358016968,-0.6375137567520142,0.49334967136383057
1772810444565028000,8.345028076171875,0.40836310386657715,-0.6640864014625549,0.36506807804107666
1772810444574728200,8.354728271484374,0.5763509273529053,-0.4200458824634552,0.24808746576309204
1772810444584428000,8.364427978515625,0.6542361974716187,-0.023365577682852745,0.1527925580739975
1772810444594128000,8.3741279296875,0.6829468011856079,0.31932955980300903,0.03764454275369644
1772810444603828000,8.383827880859375,0.6921098232269287,0.5884155035018921,-0.10835213959217072
1772810444613527800,8.39352783203125,0.7073814272880554,0.8061888217926025,-0.2842811942100525
1772810444623227600,8.4032275390625,0.7104357481002808,1.0010546445846558,-0.4831176698207855
1772810444632927700,8.412927734375,0.6841685771942139,1.2090541124343872,-0.6730966567993164
1772810444642627600,8.422627685546875,0.6258309483528137,1.3880374431610107,-0.8334486484527588
1772810444652327700,8.43232763671875,0.5192350745201111,1.4891356229782104,-0.9708932042121887
1772810444662027500,8.442027587890625,0.3601047992706299,1.4903573989868164,-1.0994802713394165
1772810444671727600,8.4517275390625,0.17592905461788177,1.3791799545288086,-1.2195152044296265
1772810444681427500,8.461427490234374,-0.007941242307424545,1.1837031841278076,-1.3239730596542358
1772810444691127600,8.47112744140625,-0.15179990231990814,0.9717331528663635,-1.3749802112579346
1772810444700827400,8.480827392578124,-0.24006985127925873,0.8000801205635071,-1.3484076261520386
1772810444710527200,8.49052734375,-0.27855435013771057,0.6491965651512146,-1.2396737337112427
1772810444720227300,8.500227294921874,-0.2782489061355591,0.538706362247467,-1.0408371686935425
1772810444729927200,8.50992724609375,-0.2617555558681488,0.4540252387523651,-0.7824414372444153
1772810444739627000,8.519626953125,-0.24342961609363556,0.3480401933193207,-0.5060251355171204
1772810444749327000,8.5293271484375,-0.23457208275794983,0.24694208800792694,-0.23327398300170898
1772810444759027000,8.53902685546875,-0.22999058663845062,0.17638720571994781,0.003741546766832471
1772810444768727000,8.54872705078125,-0.20922118425369263,0.07254019379615784,0.17569997906684875
1772810444788126700,8.568126708984375,-0.1337793916463852,-0.40691229701042175,0.3323867917060852
1772810444797826800,8.577826904296876,-0.04459312930703163,-0.581008791923523,0.3073413372039795
1772810444807526700,8.587526611328125,0.09987638890743256,-0.6503419280052185,0.14882193505764008
1772810444817226800,8.597226806640625,0.23548837006092072,-0.7028762698173523,-0.12576179206371307
1772810444826926600,8.606926513671874,0.32131487131118774,-0.6808851361274719,-0.4162279963493347
1772810444836626400,8.61662646484375,0.3390299379825592,-0.5559632778167725,-0.6471349000930786
1772810444846326500,8.626326416015624,0.24251331388950348,-0.3950004279613495,-0.8349757790565491
1772810444856026400,8.6360263671875,0.023823726922273636,-0.3262781500816345,-0.9742529392242432
1772810444865726500,8.6457265625,-0.20922118425369263,-0.3422369956970215,-1.0243438482284546
1772810444875426300,8.65542626953125,-0.3231474757194519,-0.5217548608779907,-0.9989929795265198
1772810444885126400,8.66512646484375,-0.26450446248054504,-0.941724419593811,-0.9806670546531677
1772810444894826200,8.674826171875,-0.08338304609060287,-1.3112976551055908,-1.0338122844696045
1772810444904526000,8.684526123046876,0.047036588191986084,-1.4353032112121582,-1.207297921180725
1772810444914226200,8.69422607421875,0.02932151034474373,-1.4377466440200806,-1.443091630935669
1772810444923926000,8.703926025390626,-0.0772743970155716,-1.3980404138565063,-1.5838960409164429
1772810444933625900,8.7136259765625,-0.4221075773239136,-1.4151445627212524,-1.5567125082015991
1772810444943326000,8.723325927734376,-0.9743293523788452,-1.329928994178772,-1.3597086668014526
1772810444953025800,8.73302587890625,-1.257465124130249,-1.107574224472046,-1.1657590866088867
1772810444962726000,8.742725830078125,-1.1527018547058105,-0.6668352484703064,-1.325500249862671
1772810444972425700,8.75242578125,-0.82436203956604,-0.029474224895238876,-1.8102214336395264
1772810444982125600,8.76212548828125,-0.48472121357917786,0.37491825222969055,-2.3447279930114746
1772810444991825700,8.77182568359375,-0.26480987668037415,0.2683223485946655,-2.5817437171936035
1772810445001525500,8.781525390625,-0.13988803327083588,-0.43684467673301697,-2.2381322383880615
1772810445011225600,8.7912255859375,-0.06475166976451874,-1.2697588205337524,-1.2570834159851074
1772810445020925400,8.800925537109375,-0.03695731982588768,-1.7966296672821045,0.02848157100379467
1772810445030625500,8.81062548828125,0.07574722915887833,-1.9252166748046875,1.2120320796966553
1772810445040325400,8.820325439453125,0.3326158821582794,-1.6622394323349,2.010432243347168
1772810445050025500,8.830025390625,0.6869174242019653,-1.2526545524597168,2.340604782104492
1772810445059725300,8.839725341796875,0.9911280870437622,-1.0162498950958252,2.3693153858184814
1772810445069425200,8.849425048828126,1.1044435501098633,-1.0837504863739014,2.381838083267212
1772810445079125200,8.859125244140625,1.249218463897705,-0.8812488317489624,2.231260061264038
1772810445088825000,8.8688251953125,1.2592977285385132,-0.23159411549568176,1.7651700973510742
1772810445098525000,8.87852490234375,1.045189619064331,0.305585116147995,1.2276091575622559
1772810445108225000,8.88822509765625,0.9120211005210876,0.6369792222976685,0.8824705481529236
1772810445117924900,8.8979248046875,1.0332777500152588,1.2191333770751953,0.5012909173965454
1772810445127625000,8.907625,1.0958913564682007,1.8953607082366943,0.26916229724884033
1772810445137324800,8.91732470703125,1.1814124584197998,2.437197685241699,0.16165009140968323
1772810445147025000,8.92702490234375,1.2263110876083374,2.5471534729003906,0.11583523452281952
1772810445156724700,8.936724853515624,1.1988221406936646,2.351142168045044,0.07521272450685501
1772810445166424800,8.9464248046875,1.2510510683059692,2.014479398727417,0.21021384000778198
1772810445176124700,8.956124755859374,1.3927717208862305,1.679114580154419,0.4701367914676666
1772810445185824500,8.965824462890625,1.5326597690582275,1.3150391578674316,0.7661007642745972
1772810445195524600,8.975524658203126,1.5873321294784546,0.8315396904945374,1.134452223777771
1772810445205224400,8.985224365234375,1.4285073280334473,0.2530507445335388,1.5580869913101196
1772810445214924500,8.994924560546876,1.025336503982544,-0.4359283745288849,1.912388563156128
1772810445224624400,9.004624267578125,0.5430588126182556,-1.0413717031478882,2.0895392894744873
1772810445234324200,9.01432421875,0.16707152128219604,-1.3448951244354248,2.0840415954589844
1772810445244024300,9.0240244140625,0.02779434807598591,-1.2411245107650757,1.8687117099761963
1772810445253724200,9.03372412109375,0.0513126403093338,-0.7755692005157471,1.4560725688934326
1772810445263424000,9.043424072265625,0.10323614627122879,-0.13996438682079315,0.9304234385490417
1772810445273124000,9.0531240234375,0.1484401375055313,0.4864010810852051,0.4133263826370239
1772810445282824000,9.062823974609374,0.2006690800189972,1.0004438161849976,-0.04390590637922287
1772810445292524000,9.07252392578125,0.2009745091199875,1.337030291557312,-0.37407833337783813
1772810445302224000,9.082223876953124,0.14721840620040894,1.51448655128479,-0.5408443808555603
1772810445311924000,9.091924072265625,0.029932374134659767,1.486386775970459,-0.5164098143577576
1772810445321623800,9.101623779296874,-0.07605266571044922,1.3535236120224,-0.3285689055919647
1772810445331324000,9.111323974609375,-0.17348559200763702,1.1733185052871704,-0.07903063297271729
1772810445341023700,9.121023681640626,-0.2510654330253601,1.0111339092254639,0.13416117429733276
1772810445350723600,9.1307236328125,-0.3124573230743408,0.9231693744659424,0.28840452432632446
1772810445360423700,9.140423583984376,-0.3970620930194855,0.8526145219802856,0.3995819091796875
1772810445370123500,9.15012353515625,-0.4987711012363434,0.7780889868736267,0.4918225109577179
1772810445379823400,9.1598232421875,-0.5378664135932922,0.7576250433921814,0.5535198450088501
1772810445389523500,9.1695234375,-0.528092622756958,0.7570141553878784,0.5303069949150085
1772810445399223300,9.179223388671875,-0.4712821841239929,0.7218894362449646,0.5000692009925842
1772810445408923400,9.18892333984375,-0.4358520209789276,0.6284271478652954,0.4545597434043884
1772810445418623200,9.198623291015625,-0.4508182108402252,0.3923279047012329,0.4600575268268585
1772810445428323300,9.2083232421875,-0.5213730931282043,0.04841103404760361,0.5510764122009277
1772810445438023200,9.218023193359375,-0.5696313977241516,-0.2297615110874176,0.6051379442214966
1772810445447723300,9.22772314453125,-0.5485565662384033,-0.2923751473426819,0.5959749221801758
1772810445457423000,9.237423095703125,-0.4251618981361389,-0.11430807411670685,0.5602393746376038
1772810445467123000,9.247123046875,-0.23518294095993042,0.11988221108913422,0.4774671792984009
1772810445476823000,9.256822998046875,-0.11362084746360779,0.17608177661895752,0.20196716487407684
1772810445486523000,9.26652294921875,-0.08796452730894089,0.0948367565870285,-0.29069527983665466
1772810445496223000,9.276222900390625,-0.17898337543010712,-0.08712458610534668,-0.9635628461837769
1772810445505922800,9.2859228515625,-0.33139413595199585,-0.3384954333305359,-1.6507856845855713
1772810445515622700,9.29562255859375,-0.38881543278694153,-0.4768563210964203,-2.05242919921875
1772810445525322800,9.30532275390625,-0.28557929396629333,-0.43684467673301697,-2.192622661590576
1772810445535022600,9.315022705078125,-0.06780599057674408,-0.34093889594078064,-2.2457680702209473
1772810445544722700,9.32472265625,0.20402882993221283,-0.3742310404777527,-2.2359941005706787
1772810445554422500,9.334422607421875,0.4046979248523712,-0.56298828125,-2.2610397338867188
1772810445564122400,9.344122314453125,0.3814850449562073,-0.9307288527488708,-2.4036765098571777
1772810445573822500,9.353822509765624,0.14110976457595825,-1.2370775938034058,-2.78180193901062
1772810445583522300,9.363522216796875,-0.06352993845939636,-1.1039090156555176,-3.5068984031677246
1772810445593222400,9.373222412109374,-0.1432477980852127,-0.5639045238494873,-4.49405574798584
1772810445602922200,9.382922119140625,-0.13041962683200836,0.48823368549346924,-5.262523651123047
1772810445612622300,9.392622314453124,-0.06872228533029556,1.7347033023834229,-5.312614440917969
1772810445622322200,9.402322265625,-0.1130099818110466,2.618319272994995,-4.56674861907959
1772810445632022000,9.41202197265625,-0.27091851830482483,2.79394268989563,-3.2026877403259277
1772810445641722000,9.42172216796875,-0.3698786199092865,2.3150248527526855,-1.3966659307479858
1772810445651422000,9.431421875,-0.3903425931930542,1.2851067781448364,0.3540725111961365
1772810445661121800,9.441121826171875,-0.43279770016670227,0.06582067906856537,1.691560983657837
1772810445670822000,9.45082177734375,-0.4309650957584381,-1.1112394332885742,2.5458552837371826
1772810445680521700,9.460521728515625,-0.3692677617073059,-2.0037128925323486,2.926424026489258
1772810445690221800,9.470221923828126,-0.3549124300479889,-2.491488456726074,2.918788194656372
1772810445699921700,9.479921630859375,-0.3836230933666229,-2.5595998764038086,2.5791473388671875
1772810445709621800,9.489621826171875,-0.43279770016670227,-2.426431179046631,1.9533164501190186
1772810445719321600,9.499321533203124,-0.4627300798892975,-2.155512809753418,1.1946223974227905
1772810445729021700,9.509021728515625,-0.4584540128707886,-1.782885193824768,0.44173160195350647
1772810445738721500,9.518721435546874,-0.4731147587299347,-1.4343868494033813,-0.16760602593421936
1772810445748421400,9.52842138671875,-0.49480047821998596,-1.2722022533416748,-0.5356520414352417
1772810445758121500,9.53812158203125,-0.5045742988586426,-1.3149627447128296,-0.5548942685127258
1772810445767821300,9.5478212890625,-0.47097674012184143,-1.4802017211914062,-0.2677878439426422
1772810445777521400,9.557521484375,-0.3546070158481598,-1.5364012718200684,0.1170569658279419
1772810445787221200,9.56722119140625,-0.1695149689912796,-1.1895064115524292,0.43226319551467896
1772810445796921000,9.576921142578126,0.06597339361906052,-0.6570614576339722,0.6326268315315247
1772810445806621200,9.58662109375,0.314289927482605,-0.22762349247932434,0.7181479334831238
1772810445816321000,9.596321044921876,0.5421425104141235,-0.1014799103140831,0.7352521419525146
1772810445826021000,9.606021240234375,0.6976075768470764,-0.2716057598590851,0.6848557591438293
1772810445835721000,9.615720947265626,0.7275399565696716,-0.48998990654945374,0.5581013560295105
1772810445845421000,9.625421142578125,0.6331613659858704,-0.6314051151275635,0.3476584255695343
1772810445855121000,9.635120849609375,0.46608981490135193,-0.6882155537605286,0.07765618711709976
1772810445864821000,9.644821044921875,0.3090975880622864,-0.6491202116012573,-0.11629338562488556
1772810445874520800,9.654520751953125,0.2315177470445633,-0.5300015807151794,-0.20059272646903992
1772810445884220700,9.664220703125,0.23243404924869537,-0.36567893624305725,-0.16302454471588135
1772810445893920800,9.673920654296875,0.2632827162742615,-0.1992182731628418,-0.04298960790038109
1772810445903620600,9.68362060546875,0.2568686306476593,0.015729768201708794,0.11125374585390091
1772810445913320700,9.69332080078125,0.19181154668331146,0.21914774179458618,0.22670719027519226
1772810445923020500,9.7030205078125,0.035124726593494415,0.2597702443599701,0.22670719027519226
1772810445932720600,9.712720703125,-0.1747073233127594,0.11316270381212234,0.1118646115064621
1772810445942420500,9.72242041015625,-0.3536907136440277,-0.095982126891613,-0.05948295816779137
1772810445952120600,9.73212060546875,-0.41386088728904724,-0.2505309283733368,-0.25557056069374084
1772810445961820400,9.7418203125,-0.364991694688797,-0.2294560819864273,-0.4232529401779175
1772810445971520300,9.751520263671875,-0.2868010103702545,-0.051389001309871674,-0.493196964263916
1772810445981220400,9.761220458984376,-0.22937972843647003,0.07742711156606674,-0.38385215401649475
1772810445990920200,9.770920166015625,-0.1844811588525772,0.15378521382808685,-0.04085158184170723
1772810446000620000,9.7806201171875,-0.20769402384757996,0.26740604639053345,0.3986656367778778
1772810446010320100,9.790320068359375,-0.36835145950317383,0.44089165329933167,0.7178424596786499
1772810446020020000,9.80002001953125,-0.5229002237319946,0.6818777918815613,0.7996983528137207
1772810446029720000,9.809719970703124,-0.5244274139404297,0.7344121932983398,0.5516872406005859
1772810446039420000,9.819419921875,-0.4062250852584839,0.3156643807888031,-0.009086613543331623
1772810446049120000,9.8291201171875,-0.17195843160152435,-0.37117671966552734,-0.7497601509094238
1772810446058819800,9.83881982421875,0.054672397673130035,-1.0263291597366333,-1.6324597597122192
1772810446068520000,9.84852001953125,0.13500112295150757,-1.0330487489700317,-2.4220025539398193
1772810446078219800,9.8582197265625,0.09865466505289078,-0.1943313628435135,-2.7549238204956055
1772810446087919600,9.867919677734376,-0.0054977829568088055,0.38530296087265015,-2.99988055229187
1772810446097619700,9.87761962890625,-0.10109812021255493,0.44608399271965027,-3.306534767150879
1772810446107319600,9.887319580078126,-0.1740964651107788,0.578336238861084,-3.3746461868286133
1772810446117019600,9.89701953125,-0.2788597643375397,0.9311106204986572,-3.1825292110443115
1772810446126719500,9.906719482421876,-0.29046618938446045,1.290910005569458,-2.700862169265747
1772810446136419300,9.91641943359375,-0.10445787757635117,1.5581632852554321,-1.7662391662597656
1772810446146119400,9.926119384765625,0.060781046748161316,1.522733211517334,-0.4489092528820038
1772810446155819300,9.9358193359375,0.0565049909055233,1.0108284950256348,0.9756274223327637
1772810446165519400,9.945519287109375,-0.07360920310020447,0.16752967238426208,2.435594320297241
1772810446175219200,9.95521923828125,-0.25350889563560486,-0.8006146550178528,3.6909213066101074
1772810446184919300,9.964919189453125,-0.37354379892349243,-1.4970004558563232,4.525362491607666
1772810446194619100,9.974619140625,-0.41325002908706665,-1.6967532634735107,4.894630432128906
1772810446204319200,9.9843193359375,-0.4147771894931793,-1.3824633359909058,4.87111234664917
1772810446214019000,9.99401904296875,-0.4224129915237427,-0.8369610905647278,4.6524224281311035
1772810446223719000,10.003718994140625,-0.430659681558609,-0.3736201822757721,4.360734462738037
1772810446233419000,10.0134189453125,-0.39217519760131836,-0.012904518283903599,4.0039896965026855
1772810446243118800,10.023118896484375,-0.33231043815612793,0.26282456517219543,3.5620288848876953
1772810446252819000,10.03281884765625,-0.3225366175174713,0.3993528485298157,2.996368169784546
1772810446262518800,10.042518798828125,-0.3900371491909027,0.40607234835624695,2.328998327255249
1772810446272219000,10.052218994140626,-0.5186241865158081,0.3874409794807434,1.7596724033355713
1772810446281918700,10.061918701171875,-0.5479456782341003,0.47235119342803955,1.413922905921936
1772810446291618800,10.071618896484376,-0.4685332775115967,0.5291616320610046,1.31160306930542
1772810446301318700,10.081318603515625,-0.3075704276561737,0.5535961985588074,1.468595266342163
1772810446311018500,10.0910185546875,-0.10018182545900345,0.5306887626647949,1.7318780422210693
1772810446320718600,10.100718505859374,0.11331541836261749,0.3575085997581482,1.9774456024169922
1772810446330418400,10.11041845703125,0.24526220560073853,0.007483093533664942,2.1402411460876465
1772810446340118300,10.1201181640625,0.2516762912273407,-0.36598435044288635,2.180863618850708
1772810446349818400,10.129818359375,0.17134757339954376,-0.5654317140579224,2.080070972442627
1772810446359518200,10.139518310546874,0.037262752652168274,-0.5745946764945984,1.831754446029663
1772810446369218300,10.14921826171875,-0.10842850059270859,-0.46036297082901,1.524183988571167
1772810446378918100,10.158918212890624,-0.2309068888425827,-0.316809743642807,1.2492948770523071
1772810446388618200,10.1686181640625,-0.33689191937446594,-0.15401428937911987,1.0217477083206177
1772810446398318000,10.178318115234376,-0.4205803871154785,0.06887500733137131,0.7996983528137207
1772810446408018200,10.18801806640625,-0.4269944727420807,0.3813323378562927,0.5645154118537903
1772810446417718000,10.197718017578126,-0.3695732057094574,0.7023417949676514,0.3226129710674286
1772810446427417900,10.20741796875,-0.29993459582328796,0.902400016784668,0.1066722646355629
1772810446437118000,10.217117919921876,-0.2733619809150696,0.9146173000335693,-0.07689260691404343
1772810446446817800,10.22681787109375,-0.3133736252784729,0.7215840220451355,-0.20303617417812347
1772810446456518000,10.236517822265625,-0.3946186602115631,0.42562004923820496,-0.2323576956987381
1772810446466217700,10.2462177734375,-0.4566214084625244,0.16264274716377258,-0.1813504844903946
1772810446475917800,10.255917724609375,-0.472198486328125,-0.0001527161948615685,-0.10499238222837448
1772810446485617700,10.26561767578125,-0.45478883385658264,-0.06177370250225067,-0.04909825697541237
1772810446495317800,10.27531787109375,-0.4166097939014435,-0.06643154472112656,-0.023747367784380913
1772810446505017600,10.285017578125,-0.37781986594200134,-0.0758235901594162,-0.03138317912817001
1772810446514717400,10.294717529296875,-0.3433060050010681,-0.11736239492893219,-0.06406444311141968
1772810446524417500,10.30441748046875,-0.31551164388656616,-0.2047160565853119,-0.1242346242070198
1772810446534117400,10.314117431640625,-0.30970844626426697,-0.27771440148353577,-0.19845469295978546
1772810446543817200,10.323817138671876,-0.31123560667037964,-0.2795470058917999,-0.2986365258693695
1772810446553517300,10.333517333984375,-0.27488914132118225,-0.19585852324962616,-0.44127345085144043
1772810446563217200,10.343217041015626,-0.17592905461788177,-0.07429642975330353,-0.5713876485824585
1772810446572917200,10.352917236328125,-0.06230820715427399,0.04535670951008797,-0.5933787822723389
1772810446582617000,10.3626171875,-0.011911863461136818,0.08109229803085327,-0.46173742413520813
1772810446592317200,10.372317138671875,-0.08124501258134842,-0.23709189891815186,-0.37316203117370605
1772810446602017000,10.38201708984375,-0.17134757339954376,-0.7978657484054565,-0.5417606830596924
1772810446611717000,10.391717041015625,-0.23029601573944092,-1.3238203525543213,-1.0500001907348633
1772810446621417000,10.4014169921875,-0.27519458532333374,-1.3794090747833252,-1.7894519567489624
1772810446631116800,10.41111669921875,-0.38850998878479004,-0.7694605588912964,-2.387488603591919
1772810446640817000,10.42081689453125,-0.457843154668808,-0.32414013147354126,-2.7375142574310303
1772810446650516700,10.430516845703124,-0.4459312856197357,-0.2099084109067917,-3.0508878231048584
1772810446660216800,10.440216796875,-0.43340855836868286,-0.1784488707780838,-3.434816360473633
1772810446669916700,10.449916748046874,-0.4153880476951599,-0.24930918216705322,-3.787285327911377
1772810446679616800,10.45961669921875,-0.39797839522361755,-0.29878923296928406,-3.9115962982177734
1772810446689316600,10.469316650390626,-0.370184063911438,-0.18272492289543152,-3.765294075012207
1772810446699016700,10.4790166015625,-0.2617555558681488,-0.037033677101135254,-3.52736234664917
1772810446708716500,10.488716552734376,-0.10720676928758621,0.10705405473709106,-3.2888195514678955
1772810446718416400,10.49841650390625,0.004886918235570192,0.15561780333518982,-2.921384334564209
1772810446728116500,10.508116455078126,-0.009162971749901772,0.07345648854970932,-2.3196825981140137
1772810446737816300,10.51781640625,-0.0360410213470459,0.005650499369949102,-1.3777291774749756
1772810446747516400,10.527516357421876,0.03329212963581085,-0.047723811119794846,-0.2882518172264099
1772810446757216300,10.53721630859375,0.1893680840730667,-0.12988512217998505,0.7001274228096008
1772810446766916400,10.546916259765625,0.24801109731197357,-0.368122398853302,1.5223513841629028
1772810446776616200,10.5566162109375,0.18570289015769958,-0.6753873825073242,1.902920126914978
1772810446786316300,10.56631640625,0.03909534588456154,-0.91362464427948,2.0983967781066895
1772810446796016000,10.57601611328125,-0.10537417232990265,-1.1014655828475952,2.037921190261841
1772810446805716000,10.585716064453125,-0.2009745091199875,-1.0813833475112915,1.7899101972579956
1772810446815416000,10.595416015625,-0.2360992431640625,-0.9484439492225647,1.4527127742767334
1772810446825116000,10.605115966796875,-0.2415970265865326,-0.747469425201416,1.0971895456314087
1772810446834816000,10.61481591796875,-0.27916520833969116,-0.5416079759597778,0.7905353903770447
1772810446844515800,10.624515869140625,-0.3549124300479889,-0.3476584255695343,0.5626828074455261
1772810446854215700,10.634215576171876,-0.4416552484035492,-0.25121814012527466,0.385532021522522
1772810446863915800,10.643915771484375,-0.5152644515037537,-0.235564723610878,0.25847217440605164
1772810446873616000,10.653615966796876,-0.5311469435691833,-0.25205808877944946,0.1680641770362854
1772810446883315700,10.663315673828125,-0.48472121357917786,-0.260915607213974,0.08498656004667282
1772810446893015600,10.673015625,-0.4248564541339874,-0.30367615818977356,-0.015500693581998348
1772810446902715600,10.682715576171875,-0.37354379892349243,-0.3800342381000519,-0.09094249457120895
1772810446912415500,10.69241552734375,-0.3237583339214325,-0.38217228651046753,-0.13248129189014435
1772810446922115600,10.702115478515625,-0.27916520833969116,-0.32421648502349854,-0.11232276260852814
1772810446931815400,10.7118154296875,-0.2571740746498108,-0.26427537202835083,-0.023136503994464874
1772810446941515300,10.721515380859374,-0.25534147024154663,-0.2395353466272354,0.09812015295028687
1772810446951215400,10.73121533203125,-0.27916520833969116,-0.2612210512161255,0.22334744036197662
1772810446960915500,10.74091552734375,-0.32100942730903625,-0.30428701639175415,0.3314704895019531
1772810446970615300,10.750615234375,-0.34666576981544495,-0.36018115282058716,0.3904189467430115
1772810446980315100,10.760315185546874,-0.35063639283180237,-0.4200458824634552,0.3928624093532562
1772810446990015200,10.77001513671875,-0.33689191937446594,-0.4508945643901825,0.3644571900367737
1772810446999715000,10.779715087890626,-0.3228420317173004,-0.44722938537597656,0.3021489977836609
1772810447009415200,10.789415283203125,-0.33536475896835327,-0.4148535430431366,0.21510076522827148
1772810447019115000,10.799114990234376,-0.36132651567459106,-0.39805474877357483,0.15706861019134521
1772810447028814800,10.80881494140625,-0.389120876789093,-0.42248934507369995,0.17050762474536896
1772810447038515000,10.818514892578126,-0.3964512348175049,-0.5419133901596069,0.3116174042224884
1772810447048214800,10.82821484375,-0.4147771894931793,-0.5477166175842285,0.22792892158031464
1772810447057915000,10.837914794921875,-0.3903425931930542,-0.3797288239002228,0.10056361556053162
1772810447067614700,10.84761474609375,-0.3943132162094116,-0.2343430072069168,-0.08819360285997391
1772810447077314800,10.857314697265625,-0.42852163314819336,-0.08437569439411163,-0.27664539217948914
1772810447087014700,10.8670146484375,-0.4731147587299347,0.04321868345141411,-0.40401068329811096
1772810447096714800,10.87671484375,-0.5048797130584717,0.08659008145332336,-0.4537961781024933
1772810447106414600,10.88641455078125,-0.5122101306915283,0.04657844081521034,-0.44127345085144043
1772810447116114400,10.896114501953125,-0.5122101306915283,-0.0755181610584259,-0.422947496175766
1772810447125814500,10.905814453125,-0.517707884311676,-0.21876594424247742,-0.4996110200881958
