time,seconds_elapsed,z,y,x
1772810316089415400,0.09641552734375,-1.422093152999878,-1.3668862581253052,0.8546761870384216
1772810316099115500,0.106115478515625,-1.3109158277511597,-1.3500875234603882,0.8461240530014038
1772810316108815400,0.1158154296875,-1.0705405473709106,-1.3895646333694458,0.8552870750427246
1772810316118515200,0.12551513671875,-0.8594867587089539,-1.5251002311706543,0.7737365961074829
1772810316128215000,0.135215087890625,-0.6633991599082947,-1.559308648109436,0.6665298342704773
1772810316137915000,0.144914794921875,-0.5079340934753418,-1.4722604751586914,0.5241983532905579
1772810316147615000,0.154614990234375,-0.4108065664768219,-1.4337760210037231,0.31955865025520325
1772810316157314800,0.164314697265625,-0.3500255048274994,-1.5284600257873535,0.06360629200935364
1772810316167014700,0.1740146484375,-0.2919933497905731,-1.662850260734558,-0.1856265366077423
1772810316176714500,0.183714599609375,-0.22815799713134766,-1.7947970628738403,-0.4076758921146393
1772810316186414600,0.19341455078125,-0.1649334877729416,-2.1298563480377197,-0.6434696912765503
1772810316196114400,0.203114501953125,-0.06047561392188072,-2.7550764083862305,-0.9739475250244141
1772810316205814300,0.212814208984375,0.08643736690282822,-3.1429755687713623,-1.317559003829956
1772810316215514000,0.22251416015625,0.2605338394641876,-3.106323719024658,-1.610774040222168
1772810316225214000,0.2322138671875,0.5054906010627747,-2.5379140377044678,-1.7961715459823608
1772810316234914000,0.2419140625,0.8225294351577759,-1.598404049873352,-1.8276311159133911
1772810316244614000,0.25161376953125,1.165224552154541,-0.6240747570991516,-1.7353904247283936
1772810316254313700,0.261313720703125,1.3377938270568848,0.1818849891424179,-1.5838960409164429
1772810316293113300,0.30011328125,-0.3390299379825592,-0.07307469844818115,-0.38324129581451416
1772810316302813200,0.309813232421875,-0.8271108865737915,-0.49854201078414917,0.10789398849010468
1772810316312513000,0.319512939453125,-1.2186752557754517,-0.9295071363449097,0.571234941482544
1772810316322213000,0.329213134765625,-1.5317434072494507,-1.2416590452194214,0.9484439492225647
1772810316331913000,0.338912841796875,-1.8603886365890503,-1.3711624145507812,1.2141700983047485
1772810316341612800,0.34861279296875,-2.151465654373169,-1.1631629467010498,1.2343286275863647
1772810316351313000,0.35831298828125,-2.142913579940796,-0.6659189462661743,0.8006146550178528
1772810316361012700,0.3680126953125,-1.6960660219192505,-0.96890789270401,0.6026944518089294
1772810316370712600,0.377712646484375,-0.9789108037948608,-1.3781872987747192,0.32994332909584045
1772810316380412400,0.387412353515625,-0.36743515729904175,-1.698585867881775,-0.08788817375898361
1772810316390112500,0.397112548828125,0.01282816007733345,-1.8308380842208862,-0.4574613571166992
1772810316399812400,0.406812255859375,0.12034036219120026,-1.8195371627807617,-0.8624647259712219
1772810316409512200,0.41651220703125,0.11148282140493393,-1.4380520582199097,-1.3682607412338257
1772810316419212000,0.4262119140625,0.2162461280822754,-0.43195775151252747,-2.049680471420288
1772810316428911900,0.435911865234375,0.5665770769119263,0.6675224900245667,-2.8474698066711426
1772810316438612000,0.445612060546875,1.0571014881134033,1.383150577545166,-3.4143524169921875
1772810316448311800,0.455311767578125,1.53510320186615,1.59664785861969,-3.572871685028076
1772810316458011600,0.46501171875,1.9737040996551514,1.2686134576797485,-3.2100181579589844
1772810316467711500,0.47471142578125,2.2843289375305176,0.53221595287323,-2.39023756980896
1772810316477411600,0.48441162109375,2.3732097148895264,-0.6750819683074951,-1.3569597005844116
1772810316487111400,0.494111328125,2.3903138637542725,-2.2764639854431152,-0.40339982509613037
1772810316496811300,0.503811279296875,2.433685302734375,-3.9847474098205566,0.26916229724884033
1772810316506511000,0.513510986328125,2.612057685852051,-4.752298831939697,0.8598685264587402
1772810316516211000,0.5232109375,2.903134822845459,-5.084914684295654,1.2538763284683228
1772810316525911000,0.5329111328125,3.07967472076416,-4.603858947753906,1.4637084007263184
1772810316535611000,0.54261083984375,3.0549347400665283,-3.398927927017212,1.5101341009140015
1772810316545310700,0.552310791015625,2.8829762935638428,-1.8702389001846313,1.3268746137619019
1772810316555010600,0.562010498046875,2.6169447898864746,-0.3995819091796875,0.9093486070632935
1772810316564710400,0.57171044921875,2.2791364192962646,0.6290380358695984,0.3992764949798584
1772810316574410500,0.581410400390625,1.8655810356140137,1.1931716203689575,-0.09980003535747528
1772810316584110300,0.5911103515625,1.3796380758285522,1.4659227132797241,-0.4953349828720093
1772810316593810200,0.60081005859375,0.8869756460189819,1.6491822004318237,-0.6990583539009094
1772810316603510000,0.610510009765625,0.4153880476951599,1.7676899433135986,-0.7198277711868286
1772810316613210000,0.620210205078125,-0.0054977829568088055,1.70721435546875,-0.5521454215049744
1772810316622910000,0.629909912109375,-0.31551164388656616,1.557552456855774,-0.15783219039440155
1772810316632609800,0.63960986328125,-0.4862483739852905,1.427743673324585,0.43867728114128113
1772810316642310000,0.649309814453125,-0.5464185476303101,1.2484549283981323,1.116431713104248
1772810316652009700,0.659009765625,-0.5534434914588928,0.9808961153030396,1.7303508520126343
1772810316661709600,0.66870947265625,-0.5513054728507996,0.615293562412262,2.145128011703491
1772810316671409400,0.678409423828125,-0.5424479246139526,0.23167046904563904,2.387336015701294
1772810316681109200,0.688109130859375,-0.4981602132320404,-0.015729768201708794,2.525085926055908
1772810316690809300,0.697809326171875,-0.416304349899292,-0.16073378920555115,2.5962517261505127
1772810316700509200,0.70750927734375,-0.30024003982543945,-0.2193768173456192,2.5901429653167725
1772810316710209000,0.717208984375,-0.1750127524137497,-0.19005531072616577,2.4890449047088623
1772810316719908900,0.726908935546875,-0.06505709886550903,-0.12835796177387238,2.314642906188965
1772810316729609000,0.73660888671875,-0.0009162971982732415,-0.04589121788740158,2.096869707107544
1772810316739308800,0.746308837890625,0.004276053514331579,0.060322895646095276,1.8613812923431396
1772810316749008600,0.756008544921875,-0.04520399495959282,0.1818849891424179,1.6280310153961182
1772810316758708500,0.76570849609375,-0.12370011955499649,0.2747364342212677,1.404149055480957
1772810316768408300,0.775408203125,-0.21288637816905975,0.2738201320171356,1.1766018867492676
1772810316778108400,0.7851083984375,-0.3084867000579834,0.19349141418933868,0.9120974540710449
1772810316787808300,0.794808349609375,-0.4016436040401459,0.09239330142736435,0.6026944518089294
1772810316797508000,0.804508056640625,-0.4764745235443115,0.03955349326133728,0.23831361532211304
1772810316807208000,0.8142080078125,-0.5115992426872253,0.05543597787618637,-0.15905392169952393
1772810316816908000,0.823907958984375,-0.5021308660507202,0.10613775253295898,-0.5551997423171997
1772810316826607900,0.83360791015625,-0.45417797565460205,0.2179260104894638,-0.9073632955551147
1772810316836307700,0.8433076171875,-0.3799578845500946,0.41157013177871704,-1.1376593112945557
1772810316846007600,0.853007568359375,-0.282524973154068,0.6333140730857849,-1.2341759204864502
1772810316855707400,0.862707275390625,-0.21349723637104034,0.8944587707519531,-1.2033272981643677
1772810316865407500,0.872407470703125,-0.20433427393436432,1.1760674715042114,-1.102534532546997
1772810316875107300,0.882107421875,-0.2162461280822754,1.4595086574554443,-0.9220240116119385
1772810316884807200,0.89180712890625,-0.23335035145282745,1.743866205215454,-0.6361393332481384
1772810316894507000,0.901507080078125,-0.2828303873538971,2.029139995574951,-0.2738964855670929
1772810316904207000,0.91120703125,-0.38270679116249084,2.3092215061187744,0.08926261961460114
1772810316913907000,0.920906982421875,-0.5088503360748291,2.6057963371276855,0.38156139850616455
1772810316923606800,0.930606689453125,-0.6352993845939636,3.0282094478607178,0.5865065455436707
1772810316933306600,0.940306640625,-0.7287616729736328,3.492161273956299,0.7224239706993103
1772810316943006700,0.9500068359375,-0.7724385261535645,3.740783214569092,0.8442915081977844
1772810316952706600,0.95970654296875,-0.7999274134635925,3.453371286392212,0.9441678524017334
1772810316962406400,0.969406494140625,-0.9547816514968872,2.140928268432617,0.7633519172668457
1772810316972106200,0.979106201171875,-1.2996147871017456,-0.5278635025024414,-0.09338594973087311
1772810316981806300,0.988806396484375,-1.518609881401062,-3.396790027618408,-1.388724684715271
1772810316991506200,0.998506103515625,-1.3374884128570557,-4.603553295135498,-2.2066726684570312
1772810317001206000,1.0082060546875,-1.018617033958435,-4.076071739196777,-2.5460081100463867
1772810317010905900,1.01790576171875,-0.7861829996109009,-2.146960735321045,-2.611675977706909
1772810317020606000,1.02760595703125,-0.7632755637168884,0.3556760251522064,-2.638554096221924
1772810317030305800,1.037305908203125,-0.9297361969947815,2.8376195430755615,-2.6183955669403076
1772810317040005600,1.047005615234375,-1.0809252262115479,4.883405685424805,-2.509967088699341
1772810317049705500,1.05670556640625,-1.0137300491333008,5.986627578735352,-2.418337345123291
1772810317059405300,1.0664052734375,-0.7254019379615784,6.077951908111572,-2.3056328296661377
1772810317069105400,1.07610546875,-0.291687935590744,5.340638160705566,-2.1593306064605713
1772810317078805200,1.08580517578125,0.21258094906806946,4.043466567993164,-2.0197479724884033
1772810317088505000,1.095505126953125,0.7498365044593811,2.4048218727111816,-1.907348871231079
1772810317098205000,1.105204833984375,1.1789690256118774,0.7218894362449646,-1.8627557754516602
1772810317107904800,1.11490478515625,1.4062107801437378,-0.859257698059082,-1.8468732833862305
1772810317117604900,1.12460498046875,1.406516194343567,-1.9918010234832764,-1.6966005563735962
1772810317127304700,1.1343046875,1.2119556665420532,-2.4844634532928467,-1.3691771030426025
1772810317137004500,1.144004638671875,0.8594867587089539,-2.3720643520355225,-0.9055306911468506
1772810317146704400,1.153704345703125,0.4407389461994171,-1.7886884212493896,-0.3713294267654419
1772810317156404500,1.163404541015625,0.03787361457943916,-0.9844849705696106,0.1014799103140831
1772810317166104300,1.173104248046875,-0.29474225640296936,-0.2141844630241394,0.40569058060646057
1772810317175804200,1.18280419921875,-0.5088503360748291,0.34865108132362366,0.5287798047065735
1772810317185504000,1.19250390625,-0.6441569328308105,0.6824886798858643,0.5739838480949402
1772810317195203800,1.202203857421875,-0.7015781998634338,0.8025236129760742,0.6237692832946777
1772810317204904000,1.211904052734375,-0.6582068204879761,0.7026472091674805,0.718758761882782
1772810317214603800,1.221603759765625,-0.5351175665855408,0.45310893654823303,0.8720858097076416
1772810317224303600,1.2313037109375,-0.3845393657684326,0.14248420298099518,1.0660353899002075
1772810317234003500,1.24100341796875,-0.2608392536640167,-0.1320231556892395,1.2609012126922607
1772810317243703600,1.25070361328125,-0.17134757339954376,-0.3540725111961365,1.431943416595459
1772810317253403400,1.2604033203125,-0.11545344442129135,-0.4915170669555664,1.58954656124115
1772810317263103200,1.270103271484375,-0.07941242307424545,-0.4765508770942688,1.7486767768859863
1772810317272803300,1.27980322265625,-0.05864302068948746,-0.3830885887145996,1.8821507692337036
1772810317282503200,1.289503173828125,-0.04764745384454727,-0.2761872410774231,1.9713369607925415
1772810317292203000,1.299203125,-0.050090912729501724,-0.1680641770362854,2.0336451530456543
1772810317301902800,1.30890283203125,-0.06811141967773438,-0.11064288020133972,2.088928461074829
1772810317311602700,1.318602783203125,-0.0870482325553894,-0.15157082676887512,2.1228315830230713
1772810317321302800,1.328302734375,-0.09315688163042068,-0.3274998664855957,2.1426844596862793
1772810317331002600,1.338002685546875,-0.09957095980644226,-0.6543125510215759,2.169257164001465
1772810317340702500,1.347702392578125,-0.12461641430854797,-1.14422607421875,2.189415693283081
1772810317350402300,1.35740234375,-0.20402882993221283,-1.6481895446777344,2.2043819427490234
1772810317360102400,1.367102294921875,-0.32009315490722656,-1.9432371854782104,2.2349252700805664
1772810317369802200,1.37680224609375,-0.45051276683807373,-2.057468891143799,2.2385902404785156
1772810317379502000,1.386502197265625,-0.5427533388137817,-2.04433536529541,2.161621332168579
1772810317389202000,1.396201904296875,-0.5977311730384827,-1.9160537719726562,1.985386848449707
1772810317398901800,1.40590185546875,-0.61117023229599,-1.7010293006896973,1.7104977369308472
1772810317408601900,1.415601806640625,-0.5708531141281128,-1.4414118528366089,1.3473386764526367
1772810317418301700,1.4253017578125,-0.46364638209342957,-1.1533890962600708,0.9426407217979431
1772810317428001500,1.43500146484375,-0.3430005609989166,-0.8562033176422119,0.49365508556365967
1772810317437701400,1.444701416015625,-0.2364046722650528,-0.6112465858459473,-0.01030834298580885
1772810317447401500,1.4544013671875,-0.11026109009981155,-0.3891972303390503,-0.5472584962844849
1772810317457101300,1.464101318359375,0.018325943499803543,-0.24717116355895996,-1.1312452554702759
1772810317466801200,1.47380126953125,0.12278381735086441,-0.33483025431632996,-1.8795545101165771
1772810317476501000,1.4835009765625,0.21410810947418213,-0.6723330616950989,-2.8581600189208984
1772810317486200800,1.493200927734375,0.41355544328689575,-1.062981128692627,-4.081111431121826
1772810317495901000,1.50290087890625,0.768467903137207,-1.377271056175232,-5.434176921844482
1772810317505600800,1.512600830078125,1.2993093729019165,-1.4966950416564941,-6.616199970245361
1772810317515300600,1.522300537109375,1.9498803615570068,-1.6823979616165161,-7.4830169677734375
1772810317525000400,1.53200048828125,2.4886631965637207,-2.6912410259246826,-8.01233196258545
1772810317534700500,1.541700439453125,3.012479543685913,-4.801778793334961,-8.519654273986816
1772810317544400400,1.551400390625,3.5836381912231445,-5.3701887130737305,-8.918854713439941
1772810317554100200,1.561100341796875,3.6639668941497803,-2.5928919315338135,-8.026381492614746
1772810317563800000,1.570800048828125,2.6691737174987793,2.0862560272216797,-4.952509880065918
1772810317573500000,1.5805,1.258992314338684,5.009549140930176,-0.40462157130241394
1772810317583200000,1.590199951171875,0.639270007610321,4.731300354003906,3.829587697982788
1772810317592899800,1.59989990234375,0.7788525819778442,3.160461664199829,6.445921421051025
1772810317602599700,1.609599609375,0.9755510687828064,1.966831922531128,7.560138702392578
1772810317612299500,1.619299560546875,0.7852666974067688,1.0346522331237793,7.924825191497803
1772810317621999400,1.628999267578125,0.2974911332130432,0.35445427894592285,7.810287952423096
1772810317631699500,1.638699462890625,-0.3237583339214325,0.04718930274248123,7.105655670166016
1772810317641399300,1.6483994140625,-0.8148936033248901,0.04108065739274025,5.902251720428467
1772810317651099100,1.65809912109375,-1.100778341293335,0.02519817277789116,4.629515171051025
1772810317660799000,1.667799072265625,-1.3054180145263672,0.014813470654189587,3.5769951343536377
1772810317670499000,1.6774990234375,-1.5870267152786255,0.014508038759231567,2.7214789390563965
1772810317680199000,1.687198974609375,-1.9819507598876953,0.007483093533664942,2.032118082046509
1772810317689898800,1.696898681640625,-2.386648654937744,0.2386954128742218,1.560835838317871
1772810317699598800,1.706598876953125,-2.7950117588043213,0.6571378111839294,1.4007892608642578
1772810317709298700,1.716298583984375,-3.0970845222473145,0.7735075354576111,1.6833142042160034
1772810317718998500,1.72599853515625,-3.138317823410034,0.6919570565223694,2.4896557331085205
1772810317728698400,1.735698486328125,-2.9688029289245605,0.6519454121589661,3.602956771850586
1772810317738398200,1.745398193359375,-2.629162073135376,0.6406444311141968,4.679605960845947
1772810317748098300,1.755098388671875,-2.263559341430664,0.5554288029670715,5.538787364959717
1772810317757798100,1.764798095703125,-2.0100505352020264,0.19532401859760284,6.139267444610596
1772810317767498000,1.774498046875,-1.860694169998169,-0.31375542283058167,6.441950798034668
1772810317777197800,1.78419775390625,-1.757763385772705,-0.8607848286628723,6.373228549957275
1772810317786898000,1.79389794921875,-1.6924008131027222,-1.2902227640151978,5.985634803771973
1772810317796597800,1.80359765625,-1.6001602411270142,-1.5168535709381104,5.387292861938477
1772810317806297600,1.813297607421875,-1.4294235706329346,-1.5177699327468872,4.626155376434326
1772810317815997400,1.82299755859375,-1.1936297416687012,-1.261283040046692,3.7859108448028564
1772810317825697300,1.832697265625,-0.9654718041419983,-0.7777072191238403,2.9526913166046143
1772810317835397400,1.8423974609375,-0.750141978263855,-0.21479532122612,2.1542909145355225
1772810317845097200,1.85209716796875,-0.5711585879325867,0.3526217043399811,1.3974295854568481
1772810317854797000,1.861797119140625,-0.4459312856197357,0.8816305994987488,0.6750819683074951
1772810317864497000,1.871496826171875,-0.34208428859710693,1.233794093132019,0.02084576152265072
1772810317874197000,1.881197021484375,-0.2666424810886383,1.3703224658966064,-0.5173261165618896
1772810317883896800,1.890896728515625,-0.2306014597415924,1.3235912322998047,-0.9317978620529175
1772810317893596700,1.9005966796875,-0.1493564397096634,1.1449133157730103,-1.2680789232254028
1772810317903296500,1.910296630859375,0.03298669680953026,0.9482148289680481,-1.536553978919983
1772810317912996400,1.919996337890625,0.2666424810886383,0.8052725195884705,-1.7329469919204712
1772810317922696400,1.929696533203125,0.5122101306915283,0.6953168511390686,-1.8447352647781372
1772810317932396300,1.939396240234375,0.758694052696228,0.6543889045715332,-1.871002435684204
1772810317942096100,1.94909619140625,0.9908226728439331,0.6632464528083801,-1.8416810035705566
1772810317951796000,1.9587958984375,1.2037090063095093,0.6534726023674011,-1.7729586362838745
1772810317961496000,1.96849609375,1.37078058719635,0.5606211423873901,-1.705458164215088
1772810317971196000,1.97819580078125,1.450192928314209,0.39477136731147766,-1.6700279712677002
1772810317980895700,1.987895751953125,1.444389820098877,0.1879936307668686,-1.6691116094589233
1772810317990595600,1.997595703125,1.4312561750411987,-0.0550541877746582,-1.6956843137741089
1772810318000295400,2.00729541015625,1.462715744972229,-0.224569171667099,-1.7479132413864136
1772810318009995500,2.01699560546875,1.5586215257644653,-0.2804632782936096,-1.860617756843567
1772810318019695400,2.0266953125,1.6936225891113281,-0.22273656725883484,-2.0310490131378174
1772810318029395200,2.036395263671875,1.796858787536621,-0.05627591907978058,-2.244851589202881
1772810318039095000,2.046094970703125,1.8338160514831543,0.13393209874629974,-2.471177101135254
1772810318048795000,2.055794921875,1.8280128240585327,0.30314165353775024,-2.6489386558532715
1772810318058495000,2.065494873046875,1.7959424257278442,0.4958694875240326,-2.7460663318634033
1772810318068194800,2.07519482421875,1.7272201776504517,0.7163916826248169,-2.781496524810791
1772810318077894700,2.084894775390625,1.627343773841858,0.9243911504745483,-2.784550666809082
1772810318087594500,2.094594482421875,1.6236785650253296,1.0056360960006714,-2.7048327922821045
1772810318097294600,2.104294677734375,1.7925827503204346,0.5190823674201965,-2.5670828819274902
1772810318106994400,2.113994384765625,2.0412046909332275,-0.6607266068458557,-2.5121049880981445
1772810318116694300,2.1236943359375,2.3115122318267822,-2.4117705821990967,-2.6241986751556396
1772810318126394000,2.13339404296875,2.7259840965270996,-4.315530776977539,-2.980332851409912
1772810318136094000,2.143093994140625,3.408931016921997,-5.328039169311523,-3.5875325202941895
1772810318145794000,2.1527939453125,4.016130447387695,-4.952968120574951,-4.4622907638549805
1772810318155494000,2.162493896484375,4.087601661682129,-3.340285062789917,-5.178835391998291
1772810318165193700,2.17219384765625,3.5048365592956543,-1.4899755716323853,-5.704789638519287
1772810318174893600,2.1818935546875,2.455676317214966,0.14401137828826904,-6.039543628692627
1772810318184593700,2.19159375,1.4547744989395142,1.7710497379302979,-5.808636665344238
1772810318194293500,2.20129345703125,0.7840449213981628,3.0056073665618896,-4.941208839416504
1772810318203993300,2.210993408203125,0.5088503360748291,3.467421293258667,-3.5374414920806885
1772810318213693200,2.220693115234375,0.47067132592201233,2.9713990688323975,-1.7384448051452637
1772810318223393000,2.23039306640625,0.5390881896018982,1.5712969303131104,0.15676318109035492
1772810318233093000,2.240093017578125,0.6374374032020569,-0.20654866099357605,1.8433607816696167
1772810318242793000,2.24979296875,0.7205150127410889,-1.781358003616333,3.1047966480255127
1772810318252492800,2.259492919921875,0.7391464114189148,-2.7697372436523438,3.8552439212799072
1772810318262193000,2.26919287109375,0.5830704569816589,-2.8616724014282227,4.05652379989624
1772810318271892700,2.278892822265625,0.2412915825843811,-2.212017774581909,3.799349784851074
1772810318281592600,2.288592529296875,-0.09407317638397217,-1.2960259914398193,3.2437684535980225
1772810318291292400,2.29829248046875,-0.34055712819099426,-0.44264790415763855,2.602360248565674
1772810318300992500,2.307992431640625,-0.5497782826423645,0.14737112820148468,2.015319347381592
1772810318310692400,2.3176923828125,-0.767551600933075,0.4699077308177948,1.5382338762283325
1772810318320392200,2.32739208984375,-0.9767727851867676,0.541989803314209,1.175074815750122
1772810318330092000,2.337092041015625,-1.1462877988815308,0.4176788032054901,0.9475276470184326
1772810318339792000,2.3467919921875,-1.2339468002319336,0.17638720571994781,0.8784999251365662
1772810318349492000,2.356491943359375,-1.257465124130249,-0.1573740392923355,0.9389755129814148
1772810318359191800,2.36619189453125,-1.2483022212982178,-0.5077049732208252,1.1002438068389893
1772810318368891600,2.3758916015625,-1.2000439167022705,-0.7526617646217346,1.3363430500030518
1772810318378591500,2.385591552734375,-1.1493420600891113,-0.7712931632995605,1.5269328355789185
1772810318388291600,2.39529150390625,-1.127350926399231,-0.6414843797683716,1.6133702993392944
1772810318397991400,2.404991455078125,-1.125823736190796,-0.5073995590209961,1.599931240081787
1772810318407691300,2.414691162109375,-1.0937533378601074,-0.3739255964756012,1.517464518547058
1772810318417391000,2.42439111328125,-0.9999856352806091,-0.23312127590179443,1.3904045820236206
1772810318427091000,2.434091064453125,-0.8924734592437744,-0.07490729540586472,1.2089776992797852
1772810318436791000,2.443791015625,-0.7547234296798706,0.09758564829826355,0.9924262166023254
1772810318446491000,2.453490966796875,-0.5775726437568665,0.21212279796600342,0.7419716119766235
1772810318456190700,2.463190673828125,-0.4465421438217163,0.15286891162395477,0.455781489610672
1772810318465890600,2.472890625,-0.38331764936447144,-0.07185296714305878,0.1735619604587555
1772810318475590400,2.48259033203125,-0.35613417625427246,-0.385532021522522,-0.06039925664663315
1772810318485290500,2.49229052734375,-0.374765545129776,-0.7062360644340515,-0.28092142939567566
1772810318494990300,2.501990234375,-0.3955349326133728,-0.9249256253242493,-0.4876991808414459
1772810318504690200,2.511690185546875,-0.3949240744113922,-1.0287725925445557,-0.6633228063583374
1772810318514390000,2.52139013671875,-0.3585776388645172,-0.9881501197814941,-0.7842740416526794
1772810318524090000,2.531090087890625,-0.2886336147785187,-0.7969494462013245,-0.8844558596611023
1772810318533790000,2.5407900390625,-0.1695149689912796,-0.4713585376739502,-0.9046143889427185
1772810318543489800,2.55048974609375,-0.007330377586185932,-0.07673988491296768,-0.8047379851341248
1772810318553189600,2.560189697265625,0.10140355676412582,0.16325360536575317,-0.714024543762207
1772810318562889500,2.569889404296875,0.13500112295150757,0.2286161482334137,-0.7036398649215698
1772810318572589600,2.579589599609375,0.14110976457595825,0.18341214954853058,-0.7265473008155823
1772810318582289400,2.589289306640625,0.1182023361325264,0.004123337101191282,-0.8212313652038574
1772810318591989200,2.5989892578125,0.08032871782779694,-0.2404516488313675,-1.0057125091552734
1772810318601689000,2.608689208984375,0.0818558782339096,-0.4857138693332672,-1.2176826000213623
1772810318611389200,2.61838916015625,0.12705987691879272,-0.7581595778465271,-1.4339287281036377
1772810318621089000,2.628089111328125,0.23762640357017517,-1.016860842704773,-1.6926299333572388
1772810318630788900,2.637788818359375,0.40775224566459656,-1.2865575551986694,-2.0197479724884033
1772810318640488700,2.64748876953125,0.6249146461486816,-1.6781219244003296,-2.427194833755493
1772810318650188500,2.6571884765625,0.9862411618232727,-2.091066598892212,-2.926271438598633
1772810318659888600,2.666888671875,1.6187916994094849,-2.3974151611328125,-3.5988335609436035
1772810318669588500,2.67658837890625,2.3927574157714844,-2.4285693168640137,-4.409451007843018
1772810318679288300,2.686288330078125,2.9382596015930176,-2.0363941192626953,-5.204185962677002
1772810318688988200,2.69598828125,3.054629325866699,-1.7746385335922241,-5.835515022277832
1772810318698688000,2.70568798828125,2.7568328380584717,-1.2896119356155396,-5.950663089752197
1772810318708388000,2.71538818359375,2.185063362121582,0.08567378669977188,-5.458916664123535
1772810318718088000,2.725087890625,1.490510106086731,1.8535164594650269,-4.517268657684326
1772810318727787800,2.734787841796875,0.8652899861335754,3.280496597290039,-2.806541919708252
1772810318737487600,2.744487548828125,0.5332849621772766,3.6146395206451416,-0.2738964855670929
1772810318747187700,2.754187744140625,0.4783071279525757,2.5419609546661377,2.613355875015259
1772810318756887600,2.763887451171875,0.48472121357917786,0.6412553191184998,5.279780864715576
1772810318766587400,2.77358740234375,0.5064069032669067,-1.2321906089782715,7.280668258666992
1772810318776287200,2.783287353515625,0.5467239618301392,-2.331136465072632,8.500870704650879
1772810318785987000,2.792987060546875,0.3390299379825592,-2.527224063873291,8.835319519042969
1772810318795687200,2.802687255859375,-0.0870482325553894,-1.9181917905807495,8.297146797180176
1772810318805387000,2.812386962890625,-0.508544921875,-0.756632387638092,7.060451507568359
1772810318815086800,2.8220869140625,-0.7153226733207703,0.45158177614212036,5.5030517578125
1772810318824786700,2.83178662109375,-0.9566142559051514,1.3278672695159912,3.736736297607422
1772810318834486800,2.84148681640625,-1.0045671463012695,1.9384266138076782,2.1100032329559326
1772810318844186600,2.8511865234375,-0.8765909671783447,2.085034132003784,0.6705004572868347
1772810318853886500,2.860886474609375,-0.7339540123939514,1.697440505027771,-0.5463421940803528
1772810318863586300,2.87058642578125,-0.581848680973053,1.0056360960006714,-1.240895390510559
1772810318873286100,2.8802861328125,-0.5235111117362976,0.5105302333831787,-1.309312343597412
1772810318882986200,2.889986328125,-0.6056724190711975,0.5520690679550171,-0.7961859107017517
1772810318892686000,2.89968603515625,-0.8518509268760681,0.7579304575920105,0.049861837178468704
1772810318902386000,2.909385986328125,-1.110857605934143,0.8391754627227783,1.004643440246582
1772810318912085800,2.919085693359375,-1.2922844886779785,0.9405790567398071,1.849774956703186
1772810318921785900,2.928785888671875,-1.370475172996521,1.1760674715042114,2.474689483642578
1772810318931485700,2.938485595703125,-1.285259485244751,1.3678789138793945,2.839986801147461
1772810318941185500,2.948185546875,-1.0305289030075073,1.3205369710922241,2.9056546688079834
1772810318950885400,2.957885498046875,-0.6325504779815674,1.0633628368377686,2.7327799797058105
1772810318960585200,2.967585205078125,-0.1545487940311432,0.7655662894248962,2.3659555912017822
1772810318970285300,2.977285400390625,0.2938259541988373,0.449138343334198,1.8540509939193726
1772810318979985200,2.986985107421875,0.5794052481651306,0.13912445306777954,1.3424516916275024
1772810318989685000,2.99668505859375,0.703410804271698,-0.0758235901594162,0.9432515501976013
1772810318999384800,3.006384765625,0.7180715203285217,-0.12255474925041199,0.6564505696296692
1772810319009084700,3.016084716796875,0.6224712133407593,-0.05933023989200592,0.43226319551467896
1772810319018784800,3.02578466796875,0.4263836145401001,0.04627300798892975,0.25786128640174866
1772810319028484600,3.035484619140625,0.2205221801996231,0.10186170041561127,0.11308634281158447
1772810319038184400,3.045184326171875,0.0772743970155716,0.11927134543657303,-0.037491824477910995
1772810319047884300,3.05488427734375,0.02779434807598591,0.1207985132932663,-0.2063959389925003
1772810319057584400,3.06458447265625,0.060781046748161316,0.11713331937789917,-0.3856847584247589
1772810319067284200,3.0742841796875,0.12400554865598679,0.08200860023498535,-0.5735256671905518
1772810319076984000,3.083984130859375,0.17104214429855347,0.04657844081521034,-0.7497601509094238
1772810319086684000,3.093683837890625,0.18295399844646454,0.05940660089254379,-0.8890373110771179
1772810319096383700,3.1033837890625,0.18417572975158691,0.11255183815956116,-0.9791398644447327
1772810319106083800,3.113083740234375,0.19333870708942413,0.16997312009334564,-1.0277036428451538
1772810319115783700,3.12278369140625,0.22510367631912231,0.24083344638347626,-1.0356448888778687
1772810319125483500,3.1324833984375,0.27977606654167175,0.3263545036315918,-1.0093777179718018
1772810319135183400,3.142183349609375,0.3481929302215576,0.4286743700504303,-0.9589813351631165
1772810319144883500,3.151883544921875,0.4211912751197815,0.5539016127586365,-0.8988111615180969
1772810319154583300,3.161583251953125,0.5042688846588135,0.689513623714447,-0.8459713459014893
1772810319164283100,3.171283203125,0.5601630210876465,0.7942769527435303,-0.7955750226974487
1772810319173983000,3.18098291015625,0.5409207344055176,0.8257364630699158,-0.7332668304443359
1772810319183682800,3.190682861328125,0.46883872151374817,0.7927497625350952,-0.6611847877502441
1772810319193383000,3.2003828125,0.34727662801742554,0.6476693749427795,-0.5836049318313599
1772810319203082800,3.210082763671875,0.1588248461484909,0.41462448239326477,-0.4843394160270691
1772810319212782600,3.219782470703125,0.008552107028663158,0.14523309469223022,-0.3804923892021179
1772810319222482400,3.229482421875,-0.07544180005788803,-0.14546217024326324,-0.320933073759079
1772810319232182300,3.239182373046875,-0.04581485688686371,-0.3638463318347931,-0.31177011132240295
1772810319241882400,3.24888232421875,0.08063415437936783,-0.48265954852104187,-0.32826346158981323
1772810319251582200,3.258582275390625,0.2315177470445633,-0.5700132250785828,-0.3087157905101776
1772810319261282000,3.268281982421875,0.4379900395870209,-0.7602975964546204,-0.19234605133533478
1772810319270982000,3.27798193359375,0.6310232877731323,-1.5205187797546387,-0.15294526517391205
1772810319280682000,3.287681884765625,0.8188642263412476,-2.705596446990967,-0.23113596439361572
1772810319290381800,3.2973818359375,1.18446683883667,-3.5849363803863525,-0.32337653636932373
1772810319300081700,3.30708154296875,1.663690209388733,-4.019261360168457,-0.6434696912765503
1772810319309781500,3.316781494140625,2.4599523544311523,-3.9038076400756836,-1.5243366956710815
1772810319319481300,3.3264814453125,3.6560256481170654,-3.58890700340271,-3.214599609375
1772810319329181400,3.336181396484375,4.654484272003174,-3.1765732765197754,-5.675468444824219
1772810319338881300,3.34588134765625,4.7766571044921875,-2.3250277042388916,-8.029129981994629
1772810319348581000,3.3555810546875,4.036289215087891,-1.1210895776748657,-9.35745620727539
1772810319358281000,3.365281005859375,2.6090035438537598,0.5303833484649658,-8.960393905639648
1772810319367981000,3.37498095703125,0.9728021621704102,2.5728096961975098,-6.6168107986450195
1772810319377681000,3.384680908203125,-0.007635809946805239,3.04012131690979,-3.444284677505493
1772810319387380700,3.394380615234375,-0.19272783398628235,2.0520474910736084,-0.38934993743896484
1772810319397080600,3.40408056640625,0.09040798991918564,0.6843212842941284,1.9328525066375732
1772810319406780400,3.413780517578125,0.49968740344047546,-0.37087127566337585,3.3503642082214355
1772810319416480500,3.42348046875,0.7599157691001892,-1.0916917324066162,3.8552439212799072
1772810319426180400,3.433180419921875,0.8646790981292725,-1.4475204944610596,3.748648166656494
1772810319435880200,3.442880126953125,0.8249728679656982,-1.2715914249420166,3.2978298664093018
1772810319445580000,3.452580078125,0.5528326034545898,-0.6127737164497375,2.628016710281372
1772810319455279900,3.46227978515625,0.13775001466274261,0.15836669504642487,1.9438481330871582
1772810319464980000,3.47197998046875,-0.2968802750110626,0.7163916826248169,1.3537527322769165
1772810319474679800,3.4816796875,-0.6575959324836731,1.021213173866272,0.8394045829772949
1772810319484379600,3.491379638671875,-0.9141591191291809,1.1055124998092651,0.42187848687171936
1772810319494079500,3.50107958984375,-1.1233803033828735,0.8972076177597046,0.10056361556053162
1772810319503779600,3.510779541015625,-1.2803726196289062,0.5664243698120117,-0.15722131729125977
1772810319513479400,3.5204794921875,-1.375972867012024,0.31902414560317993,-0.3462839722633362
1772810319523179300,3.53017919921875,-1.407127022743225,0.2435823380947113,-0.41897687315940857
1772810319532879000,3.539879150390625,-1.3698642253875732,0.2032652497291565,-0.35850125551223755
1772810319542579000,3.549578857421875,-1.2996147871017456,0.09330959618091583,-0.21403174102306366
1772810319552279000,3.559279052734375,-1.2214241027832031,-0.11339177191257477,-0.053985174745321274
1772810319561979000,3.568978759765625,-1.112079381942749,-0.33971717953681946,0.11400263756513596
1772810319571678700,3.5786787109375,-0.988990068435669,-0.49396052956581116,0.24228423833847046
1772810319581378600,3.588378662109375,-0.8252783417701721,-0.5067886710166931,0.3785070776939392
1772810319591078700,3.59807861328125,-0.602007269859314,-0.44906195998191833,0.581314206123352
1772810319600778500,3.607778564453125,-0.3912588953971863,-0.39622217416763306,0.7523563504219055
1772810319610478300,3.617478271484375,-0.21930044889450073,-0.38736462593078613,0.8629228472709656
1772810319620178200,3.62717822265625,-0.06108647957444191,-0.4548651874065399,0.9273691177368164
1772810319629878000,3.6368779296875,0.05711585655808449,-0.5547415614128113,0.931950569152832
1772810319639578000,3.646578125,0.1432477980852127,-0.5926151871681213,0.8513164520263672
1772810319649278000,3.65627783203125,0.19761475920677185,-0.6081922650337219,0.6616429090499878
1772810319658977800,3.665977783203125,0.21471896767616272,-0.6582831740379333,0.36109745502471924
1772810319668677600,3.675677734375,0.17684535682201385,-0.6854666471481323,-0.015500693581998348
1772810319678377700,3.685377685546875,0.10079269111156464,-0.6256018877029419,-0.4168388545513153
1772810319688077600,3.69507763671875,0.02626718580722809,-0.439364492893219,-0.8218421936035156
1772810319697777400,3.70477734375,-0.010690134018659592,-0.20807582139968872,-1.2069923877716064
1772810319707477200,3.714477294921875,-0.05253437161445618,-0.05482511222362518,-1.5359431505203247
1772810319717177000,3.724177001953125,-0.1130099818110466,-0.025121813639998436,-1.8071670532226562
1772810319726877200,3.733877197265625,-0.16646064817905426,-0.05108356848359108,-2.032270669937134
1772810319736577000,3.743576904296875,-0.20219624042510986,-0.08926261961460114,-2.2271366119384766
1772810319746276900,3.75327685546875,-0.18387030065059662,-0.07338013499975204,-2.325485944747925
1772810319755976700,3.762976806640625,-0.09193515032529831,-0.008399390615522861,-2.1877357959747314
1772810319765676500,3.772676513671875,0.006719512399286032,0.008093958720564842,-1.9122358560562134
1772810319775376600,3.782376708984375,0.02718348242342472,-0.10606139898300171,-1.5933644771575928
1772810319785076500,3.792076416015625,-0.032070402055978775,-0.2856556475162506,-1.1718677282333374
1772810319794776300,3.8017763671875,-0.021380268037319183,-0.5083158612251282,-0.7256309986114502
1772810319804476200,3.81147607421875,0.22999058663845062,-0.9768491387367249,-0.5542834401130676
1772810319814176300,3.82117626953125,0.9511164426803589,-1.645440697669983,-0.9412662386894226
1772810319823876000,3.8308759765625,2.0124940872192383,-2.3027310371398926,-1.7360013723373413
1772810319833576000,3.840575927734375,2.7592761516571045,-2.2999823093414307,-2.1709370613098145
1772810319843275800,3.85027587890625,2.752556800842285,-1.9362123012542725,-1.796782374382019
1772810319852975600,3.8599755859375,1.9834779500961304,-1.5562543869018555,-0.7900772094726562
1772810319862675700,3.86967578125,0.878728985786438,-0.6897426843643188,0.2343430072069168
1772810319872375600,3.87937548828125,-0.1747073233127594,0.7841976881027222,0.8177188634872437
1772810319882075400,3.889075439453125,-0.9929606914520264,2.5523457527160645,1.201341986656189
1772810319891775200,3.898775146484375,-1.4175117015838623,3.7594146728515625,1.6646828651428223
1772810319901475300,3.908475341796875,-1.4996730089187622,3.797593593597412,2.340604782104492
1772810319911175200,3.918175048828125,-1.4202606678009033,2.9011495113372803,3.220555543899536
1772810319920875000,3.927875,-1.268460750579834,1.898414969444275,4.164036273956299
1772810319930574800,3.937574951171875,-1.1911863088607788,1.0639737844467163,4.9428887367248535
1772810319940274700,3.947274658203125,-1.2428044080734253,0.42562004923820496,5.435245513916016
1772810319949974800,3.956974853515625,-1.3738348484039307,0.24174973368644714,5.485336780548096
1772810319959674600,3.966674560546875,-1.5696170330047607,0.4195113778114319,5.020773887634277
1772810319969374500,3.97637451171875,-1.792277216911316,0.7325795888900757,4.182056427001953
1772810319979074300,3.98607421875,-1.990808367729187,1.1299470663070679,3.186347007751465
1772810319988774100,3.995774169921875,-2.087019443511963,1.4118611812591553,2.197967767715454
1772810319998474200,4.00547412109375,-2.0497567653656006,1.5462514162063599,1.313130259513855
1772810320008174000,4.015174072265625,-1.897346019744873,1.566104531288147,0.5425242781639099
1772810320017874000,4.0248740234375,-1.6447534561157227,1.4811943769454956,0.01626427471637726
1772810320027573800,4.03457373046875,-1.3826924562454224,1.2655590772628784,-0.0888044685125351
1772810320037273900,4.04427392578125,-1.2467750310897827,1.1000148057937622,0.2569449841976166
1772810320046973700,4.0539736328125,-1.3008365631103516,1.0077741146087646,0.9316451549530029
1772810320056673500,4.063673583984375,-1.472489595413208,0.9421061873435974,1.698585867881775
1772810320066373400,4.073373291015625,-1.6804890632629395,0.9506583213806152,2.365650177001953
1772810320076073200,4.0830732421875,-1.8747440576553345,0.9695951342582703,2.8506767749786377
1772810320085773300,4.092773193359375,-1.988364815711975,0.930499792098999,3.1374778747558594
1772810320095473200,4.10247314453125,-2.00577449798584,0.7799215912818909,3.230940103530884
1772810320105173000,4.112173095703125,-1.9608759880065918,0.5022835731506348,3.1487789154052734
1772810320114872800,4.121872802734375,-1.833205223083496,0.1721111536026001,2.9252023696899414
1772810320124573000,4.131572998046875,-1.6496403217315674,-0.0965929925441742,2.635652542114258
1772810320134272800,4.141272705078125,-1.4410300254821777,-0.24228423833847046,2.3335797786712646
1772810320143972600,4.15097265625,-1.2675443887710571,-0.25786128640174866,2.005239963531494
1772810320153672400,4.16067236328125,-1.109025001525879,-0.23128867149353027,1.6234495639801025
1772810320163372300,4.170372314453125,-0.9963204264640808,-0.21723878383636475,1.2492948770523071
1772810320173072400,4.180072265625,-0.9233221411705017,-0.173256516456604,0.9826523661613464
1772810320182772200,4.189772216796875,-0.880256175994873,-0.14454588294029236,0.8183297514915466
1772810320192472000,4.19947216796875,-0.8808670043945312,-0.1784488707780838,0.7126501202583313
1772810320202172000,4.209171875,-0.8964440822601318,-0.22395829856395721,0.6286562085151672
1772810320211872000,4.2188720703125,-0.8949168920516968,-0.24747659265995026,0.5104538798332214
1772810320221571800,4.22857177734375,-0.8552106618881226,-0.2582430839538574,0.3424660563468933
1772810320231271700,4.238271728515625,-0.7446441650390625,-0.2404516488313675,0.1430187225341797
1772810320240971500,4.247971435546875,-0.5488619804382324,-0.25358524918556213,-0.03168861195445061
1772810320250671400,4.25767138671875,-0.28588470816612244,-0.307646781206131,-0.13828451931476593
1772810320260371200,4.26737109375,-0.001832594396546483,-0.3782016634941101,-0.17890702188014984
1772810320270071300,4.2770712890625,0.25473061203956604,-0.4542543292045593,-0.20059272646903992
1772810320279771100,4.286771240234375,0.49602219462394714,-0.5419133901596069,-0.23480114340782166
1772810320289471000,4.296470947265625,0.7614429593086243,-0.6359865665435791,-0.29069527983665466
1772810320299170800,4.3061708984375,1.035110354423523,-0.6763036847114563,-0.354225218296051
1772810320308870700,4.31587060546875,1.320078730583191,-0.6729438900947571,-0.40523242950439453
1772810320318570500,4.325570556640625,1.6172645092010498,-0.6515636444091797,-0.4021781086921692
1772810320328270600,4.3352705078125,1.8643592596054077,-0.6262127757072449,-0.38476845622062683
1772810320337970400,4.344970458984375,2.017991781234741,-0.654007077217102,-0.39912378787994385
1772810320347670300,4.354670166015625,2.042120933532715,-0.7230347990989685,-0.46112653613090515
1772810320357370000,4.3643701171875,1.9889757633209229,-0.756632387638092,-0.5741365551948547
1772810320367070200,4.3740703125,1.8884884119033813,-0.6879100799560547,-0.7604503035545349
1772810320376770000,4.38377001953125,1.7314962148666382,-0.524503767490387,-1.0313688516616821
1772810320386470000,4.393469970703125,1.5567889213562012,-0.2764926850795746,-1.4122430086135864
1772810320396169700,4.403169677734375,1.4190388917922974,-0.034895651042461395,-1.8639775514602661
1772810320405869600,4.41286962890625,1.3112212419509888,0.27320927381515503,-2.1990368366241455
1772810320415569700,4.422569580078125,1.2253947257995605,0.5850557684898376,-2.2381322383880615
1772810320425269500,4.43226953125,1.2644901275634766,0.4247037470340729,-2.121457099914551
1772810320434969300,4.44196923828125,1.5916081666946411,-0.326583594083786,-2.1287872791290283
1772810320444669200,4.451669189453125,2.316399335861206,-1.4197261333465576,-2.2692863941192627
1772810320454369300,4.461369384765625,3.4242024421691895,-2.8974080085754395,-2.6938374042510986
1772810320464069000,4.471069091796875,4.508792877197266,-4.207407474517822,-3.214905023574829
1772810320473769000,4.48076904296875,4.903411388397217,-4.411130905151367,-3.480631113052368
1772810320483468800,4.49046875,4.620275974273682,-3.508578300476074,-3.7808711528778076
1772810320493168600,4.500168701171875,3.7253589630126953,-1.8641302585601807,-4.335536479949951
1772810320502868700,4.50986865234375,2.3826780319213867,-0.010537417605519295,-4.982442378997803
1772810320512568600,4.519568603515625,0.9056070446968079,2.1861324310302734,-5.295815944671631
1772810320522268400,4.529268310546875,-0.34147340059280396,4.214203357696533,-4.944262981414795
1772810320531968300,4.53896826171875,-1.163697361946106,5.023904800415039,-3.9867327213287354
1772810320541668400,4.54866845703125,-1.4566071033477783,4.384023666381836,-2.6400811672210693
1772810320551368200,4.5583681640625,-1.3066397905349731,2.8568618297576904,-1.3111449480056763
1772810320561068000,4.568068115234375,-0.8738420605659485,1.1397209167480469,-0.32276567816734314
1772810320570768000,4.577767822265625,-0.2938259541988373,-0.31039565801620483,0.3180314898490906
1772810320580467700,4.5874677734375,0.20433427393436432,-1.2468513250350952,0.7227293848991394
1772810320590167800,4.597167724609375,0.5216785073280334,-1.5278491973876953,0.9652426838874817
1772810320599867600,4.60686767578125,0.6249146461486816,-1.1848485469818115,0.9673807621002197
1772810320609567500,4.6165673828125,0.481361448764801,-0.6039161682128906,0.6512582302093506
1772810320619267300,4.626267333984375,0.235793799161911,-0.08468113094568253,0.11400263756513596
1772810320628967200,4.63596728515625,0.007330377586185932,0.3831649422645569,-0.48067423701286316
1772810320638667300,4.645667236328125,-0.18631376326084137,0.7200568318367004,-1.0790163278579712
1772810320648367000,4.6553671875,-0.24342961609363556,0.9008728265762329,-1.575649380683899
1772810320658067000,4.66506689453125,-0.19089524447917938,1.1433861255645752,-1.8658101558685303
1772810320667766800,4.674766845703125,-0.1288924664258957,1.3141229152679443,-1.9046000242233276
1772810320677467000,4.684466796875,-0.13927717506885529,1.3351976871490479,-1.566180944442749
1772810320687166700,4.694166748046875,-0.1802051067352295,1.2215768098831177,-0.825812816619873
1772810320696866600,4.703866455078125,-0.2309068888425827,0.9274454712867737,0.12560907006263733
1772810320706566400,4.71356640625,-0.27000224590301514,0.4637990891933441,1.0183879137039185
1772810320716266200,4.723266357421875,-0.3087921440601349,-0.010842849500477314,1.6940044164657593
1772810320725966300,4.73296630859375,-0.37720900774002075,-0.37056586146354675,2.1100032329559326
1772810320735666200,4.742666259765625,-0.4269944727420807,-0.58039790391922,2.2443935871124268
1772810320745366000,4.752365966796875,-0.4361574649810791,-0.6277399063110352,2.146960735321045
1772810320755065900,4.76206591796875,-0.4205803871154785,-0.5825359225273132,1.8937572240829468
1772810320764765700,4.771765625,-0.36743515729904175,-0.5944477915763855,1.495167851448059
1772810320774465500,4.781465576171875,-0.31612253189086914,-0.5929206013679504,1.0119738578796387
1772810320784165600,4.79116552734375,-0.2632827162742615,-0.4313468933105469,0.5461894869804382
1772810320793865500,4.800865478515625,-0.19089524447917938,-0.23128867149353027,0.15004366636276245
1772810320803565300,4.8105654296875,-0.16646064817905426,-0.0550541877746582,-0.1407279670238495
1772810320813265200,4.82026513671875,-0.20433427393436432,0.0334448479115963,-0.29161158204078674
1772810320822965000,4.829965087890625,-0.2984074354171753,-0.059024810791015625,-0.3004691004753113
1772810320832665000,4.8396650390625,-0.42394015192985535,-0.33055421710014343,-0.23052509129047394
1772810320842365000,4.849364990234375,-0.545502245426178,-0.6420952677726746,-0.14836378395557404
1772810320852064800,4.859064697265625,-0.6298015713691711,-0.8351284861564636,-0.13920080661773682
1772810320861764600,4.8687646484375,-0.6881392002105713,-0.8562033176422119,-0.252210795879364
1772810320871464700,4.878464599609375,-0.7370083332061768,-0.8152754306793213,-0.4650971591472626
1772810320881164500,4.88816455078125,-0.732121467590332,-0.6659189462661743,-0.60406893491745
1772810320890864400,4.897864501953125,-0.6181951761245728,-0.44356417655944824,-0.6724857687950134
1772810320900564200,4.907564208984375,-0.4465421438217163,-0.44173160195350647,-0.7940478324890137
1772810320910264000,4.91726416015625,-0.2003636509180069,-0.6478984355926514,-1.038088321685791
1772810320919964200,4.926964111328125,0.16584978997707367,-0.9304234385490417,-1.427514672279358
1772810320929664000,4.9366640625,0.5641336441040039,-1.236772060394287,-1.9238423109054565
1772810320939363800,4.94636376953125,0.8744529485702515,-1.3613885641098022,-2.3777148723602295
1772810320949063700,4.956063720703125,1.1047489643096924,-1.0013600587844849,-2.628474712371826
1772810320958763500,4.965763427734375,1.194546103477478,-0.33024877309799194,-2.7103307247161865
1772810320968463600,4.975463623046875,1.05496346950531,0.24480405449867249,-2.7906594276428223
1772810320978163500,4.98516357421875,0.7086031436920166,0.5361865758895874,-2.8074581623077393
1772810320987863300,4.99486328125,0.0772743970155716,0.3000873327255249,-2.6602396965026855
1772810320997563100,5.004563232421875,-0.5534434914588928,-0.09781472384929657,-2.34594988822937
1772810321007263200,5.01426318359375,-0.776714563369751,-0.17692171037197113,-2.113210439682007
1772810321016963000,5.023963134765625,-0.7296779751777649,0.11957678198814392,-2.0008113384246826
1772810321026663000,5.033662841796875,-0.6893609166145325,0.7017309069633484,-1.6996549367904663
1772810321036362800,5.04336279296875,-0.8176425099372864,1.3489421606063843,-0.7903826832771301
1772810321046062600,5.0530625,-1.2409718036651611,1.5343396663665771,0.8882737755775452
1772810321055762700,5.0627626953125,-1.7510439157485962,0.7402154207229614,3.1182355880737305
1772810321065462500,5.072462646484375,-2.0576980113983154,-1.099327564239502,5.298717498779297
1772810321075162400,5.082162353515625,-2.13527774810791,-3.233994483947754,6.789227485656738
1772810321084862200,5.0918623046875,-2.148716926574707,-4.627987861633301,7.185068130493164
1772810321094562300,5.101562255859375,-2.114813804626465,-4.887910842895508,6.469134330749512
1772810321104262100,5.11126220703125,-1.9950844049453735,-3.743455648422241,4.842401504516602
1772810321113962000,5.1209619140625,-1.8603886365890503,-1.5828269720077515,2.8112759590148926
1772810321123661800,5.130661865234375,-1.9343032836914062,0.5193877816200256,0.9255365133285522
1772810321133361700,5.140361572265625,-2.154520034790039,1.7179044485092163,-0.6981421113014221
1772810321143061800,5.150061767578125,-2.210719585418701,2.4356706142425537,-2.110766887664795
1772810321152761600,5.15976171875,-2.039677381515503,2.953683853149414,-3.2072691917419434
1772810321162461400,5.16946142578125,-1.592829942703247,3.0920448303222656,-3.664806842803955
1772810321172161300,5.179161376953125,-0.8371901512145996,2.9469645023345947,-3.2714099884033203
1772810321181861000,5.188861083984375,-0.1588248461484909,2.3764166831970215,-2.177656650543213
1772810321191561000,5.19856103515625,0.10354158282279968,1.4625630378723145,-0.6566032767295837
1772810321201261000,5.208260986328125,-0.1130099818110466,0.3318522870540619,0.9218713045120239
1772810321210961000,5.2179609375,-0.6398808360099792,-0.885219395160675,2.2324817180633545
1772810321220660700,5.22766064453125,-1.2253947257995605,-1.7392083406448364,3.10265851020813
1772810321230360600,5.237360595703125,-1.612377643585205,-2.111225128173828,3.525071620941162
1772810321240060400,5.247060302734375,-1.7067562341690063,-2.1118359565734863,3.5180466175079346
1772810321249760500,5.256760498046875,-1.590997338294983,-1.7382920980453491,3.1438920497894287
1772810321259460400,5.26646044921875,-1.375972867012024,-1.2676208019256592,2.5015676021575928
1772810321269160200,5.27616015625,-1.1786636114120483,-0.9343940615653992,1.7309616804122925
1772810321278860000,5.285860107421875,-1.061682939529419,-0.7321978211402893,0.9731839299201965
1772810321288559900,5.295559814453125,-1.0122029781341553,-0.6701950430870056,0.3055087625980377
1772810321298260000,5.305260009765625,-1.0250310897827148,-0.6979893445968628,-0.2277761995792389
1772810321307959800,5.314959716796875,-1.0641264915466309,-0.617660641670227,-0.6046797633171082
1772810321317659600,5.32465966796875,-1.1059707403182983,-0.35498878359794617,-0.8450550436973572
1772810321327359500,5.334359375,-1.146898627281189,0.02153298258781433,-0.9629519581794739
1772810321337059600,5.3440595703125,-1.1939351558685303,0.36422812938690186,-0.9672279953956604
1772810321346759400,5.353759521484375,-1.2287545204162598,0.6033816933631897,-0.8749874234199524
1772810321356459300,5.363459228515625,-1.2250893115997314,0.7322741746902466,-0.7219657897949219
1772810321366159000,5.3731591796875,-1.1899645328521729,0.6470585465431213,-0.530154287815094
1772810321375859000,5.38285888671875,-1.186299443244934,0.3568977415561676,-0.31726789474487305
1772810321385559000,5.39255908203125,-1.2021819353103638,-0.005650499369949102,-0.10590868443250656
1772810321395259000,5.4022587890625,-1.173471212387085,-0.2764926850795746,0.060551971197128296
1772810321404958700,5.411958740234375,-1.1249074935913086,-0.385532021522522,0.1738673895597458
1772810321414658600,5.421658447265625,-1.0711513757705688,-0.4191296100616455,0.23587016761302948
1772810321424358700,5.431358642578125,-1.0238093137741089,-0.41179922223091125,0.26305365562438965
1772810321434058200,5.441058349609375,-1.0027345418930054,-0.3687332570552826,0.2761872410774231
1772810321443758300,5.45075830078125,-0.9816597104072571,-0.2856556475162506,0.2822958827018738
1772810321453458200,5.460458251953125,-0.9547816514968872,-0.10331250727176666,0.29970553517341614
1772810321463158000,5.470157958984375,-0.9685261249542236,0.0902552679181099,0.31955865025520325
1772810321472857900,5.47985791015625,-1.0693187713623047,0.19837833940982819,0.34460410475730896
1772810321482557700,5.4895576171875,-1.230892539024353,0.22128576040267944,0.36628979444503784
1772810321492257800,5.4992578125,-1.3942989110946655,0.22678354382514954,0.3898080885410309
1772810321501957600,5.50895751953125,-1.5427390336990356,0.2438877671957016,0.40721774101257324
1772810321511657500,5.518657470703125,-1.6649119853973389,0.24022257328033447,0.4001927971839905
1772810321521357300,5.528357421875,-1.700342059135437,0.2799287736415863,0.31528258323669434
1772810321531057400,5.538057373046875,-1.6346741914749146,0.3718639314174652,0.19219332933425903
1772810321540757200,5.54775732421875,-1.471267819404602,0.4961749315261841,0.183030366897583
1772810321550457000,5.55745703125,-1.0803143978118896,0.21945317089557648,0.25877758860588074
1772810321560157000,5.567156982421875,-0.4453204274177551,-0.36109745502471924,0.0449749194085598
1772810321569856800,5.576856689453125,0.11026109009981155,-0.922176718711853,-0.5500074028968811
1772810321579556900,5.586556884765625,0.328645259141922,-0.8186351656913757,-1.1733949184417725
1772810321589256700,5.596256591796875,0.250149130821228,0.09880737960338593,-1.5444952249526978
1772810321598956500,5.60595654296875,0.23487751185894012,0.2845102846622467,-2.3102142810821533
1772810321608656400,5.615656494140625,0.7984002828598022,-0.45333802700042725,-3.723755359649658
1772810321618356500,5.6253564453125,1.6676608324050903,-1.9789727926254272,-5.691961765289307
1772810321628056300,5.635056396484375,2.5222606658935547,-2.410548686981201,-7.196216106414795
1772810321637756200,5.644756103515625,3.128849506378174,-1.14422607421875,-7.515393257141113
1772810321647456000,5.6544560546875,3.160614252090454,0.8471167087554932,-6.51235294342041
1772810321657155800,5.66415576171875,2.794400930404663,2.0300564765930176,-4.532540321350098
1772810321666856000,5.67385595703125,2.3463315963745117,1.816253662109375,-2.2631776332855225
1772810321676555800,5.6835556640625,1.9123121500015259,0.6149880886077881,-0.24426954984664917
1772810321686255600,5.693255615234375,1.6481131315231323,-0.8164971470832825,1.3244311809539795
1772810321695955500,5.70295556640625,1.592829942703247,-1.8815398216247559,2.3109779357910156
1772810321705655300,5.7126552734375,1.747989535331726,-2.474689483642578,2.580980062484741
1772810321715355100,5.722355224609375,1.9733986854553223,-2.561126947402954,2.2239296436309814
1772810321725055000,5.732054931640625,2.017075538635254,-2.0000476837158203,1.5037200450897217
1772810321734755000,5.741755126953125,1.7434080839157104,-0.9942587614059448,0.6497310400009155
1772810321744455000,5.751454833984375,1.2311979532241821,0.064598947763443,-0.19998185336589813
1772810321754154800,5.76115478515625,0.6698132157325745,0.9372192621231079,-0.9406554102897644
1772810321763854600,5.7708544921875,0.2049451321363449,1.6406301259994507,-1.4608067274093628
1772810321773554700,5.7805546875,-0.15699224174022675,2.165057420730591,-1.742110013961792
1772810321783254500,5.790254638671875,-0.4269944727420807,2.408792495727539,-1.817551851272583
1772810321792954400,5.799954345703125,-0.5852084755897522,2.405738115310669,-1.721035122871399
1772810321802654200,5.809654296875,-0.6175842881202698,2.190103054046631,-1.510286808013916
1772810321812354000,5.81935400390625,-0.5207622051239014,1.7460042238235474,-1.242117166519165
1772810321822054100,5.82905419921875,-0.33322674036026,1.116202712059021,-0.9715040922164917
1772810321831754000,5.83875390625,-0.10567960888147354,0.4094321131706238,-0.715246319770813
1772810321841453800,5.848453857421875,0.11759147047996521,-0.1885281354188919,-0.46631890535354614
1772810321851153700,5.858153564453125,0.2883281707763672,-0.553214430809021,-0.2534325122833252
1772810321860853800,5.867853759765625,0.38728827238082886,-0.7447205185890198,-0.07200568914413452
1772810321870553600,5.8775537109375,0.43310311436653137,-0.783815860748291,0.09903645515441895
1772810321880253400,5.88725341796875,0.46395179629325867,-0.6970730423927307,0.2807687222957611
1772810321889953300,5.896953369140625,0.4663952589035034,-0.5749000906944275,0.4664716124534607
1772810321899653000,5.906653076171875,0.42332929372787476,-0.5199222564697266,0.6133846044540405
1772810321919052800,5.926052734375,0.30146175622940063,-0.7792344093322754,0.7022654414176941
1772810321928753000,5.9357529296875,0.231212317943573,-0.9963968396186829,0.6851612329483032
1772810321938452700,5.94545263671875,0.20861032605171204,-1.1197915077209473,0.6234638690948486
1772810321948152600,5.955152587890625,0.2562577724456787,-1.0248019695281982,0.47319114208221436
1772810321957852400,5.964852294921875,0.37751442193984985,-0.6375137567520142,0.1842520833015442
1772810321967552500,5.974552490234375,0.5329795479774475,-0.07070759683847427,-0.1960112303495407
1772810321977252400,5.98425244140625,0.6887500286102295,0.5228238701820374,-0.5454258918762207
1772810321986952200,5.9939521484375,0.7938187718391418,0.966235339641571,-0.7604503035545349
1772810321996652000,6.003652099609375,0.8142827749252319,1.0022764205932617,-0.8252019882202148
1772810322006352000,6.013351806640625,0.78648841381073,0.36544984579086304,-0.7317396402359009
1772810322016052000,6.023052001953125,0.8158099055290222,-1.0266345739364624,-0.5362629294395447
1772810322025751800,6.032751708984375,1.1682789325714111,-2.4948480129241943,-0.4162279963493347
1772810322035451600,6.04245166015625,1.9767584800720215,-3.1686320304870605,-0.6059014797210693
1772810322045151500,6.0521513671875,2.8490734100341797,-3.0983824729919434,-1.5057053565979004
1772810322054851600,6.0618515625,3.140150308609009,-2.5684573650360107,-3.128467559814453
1772810322064551400,6.071551513671875,2.53967022895813,-1.2605957984924316,-4.710912704467773
1772810322074251300,6.081251220703125,1.5265511274337769,0.2493855506181717,-5.58353328704834
1772810322083951000,6.090951171875,0.5045742988586426,1.8770347833633423,-5.306506156921387
1772810322093651000,6.10065087890625,-0.36621344089508057,3.682445526123047,-3.729253053665161
1772810322103351000,6.11035107421875,-0.8698714375495911,4.479318618774414,-1.1407135725021362
1772810322113051000,6.12005078125,-0.9850194454193115,3.719403028488159,1.9068907499313354
1772810322122750700,6.129750732421875,-0.8103121519088745,1.7139338254928589,4.516199588775635
1772810322132450600,6.139450439453125,-0.4523453712463379,-0.6014727354049683,6.157898902893066
1772810322142150400,6.149150390625,0.011300998739898205,-2.222707748413086,6.799612045288086
1772810322151850200,6.158850341796875,0.30085089802742004,-2.9423065185546875,6.585809707641602
1772810322161550300,6.16855029296875,0.22327107191085815,-2.7498841285705566,5.730293273925781
1772810322171250200,6.178250244140625,-0.1178968995809555,-1.7685298919677734,4.422126293182373
1772810322180950000,6.187949951171875,-0.5656607747077942,-0.35040730237960815,2.7828707695007324
1772810322190649900,6.19764990234375,-0.9911280870437622,1.1045962572097778,0.9921207427978516
1772810322200349700,6.207349609375,-1.388495683670044,2.1952953338623047,-0.8401681184768677
1772810322210049800,6.2170498046875,-1.6829324960708618,2.8159339427948,-2.5176029205322266
1772810322219749600,6.22674951171875,-1.6795727014541626,2.990335702896118,-3.6211299896240234
1772810322229449500,6.236449462890625,-1.4257583618164062,2.77470064163208,-3.966268539428711
1772810322239149300,6.2461494140625,-1.0552688837051392,2.4063491821289062,-3.4708573818206787
1772810322248849200,6.25584912109375,-0.7538071274757385,2.0972514152526855,-2.205756425857544
1772810322258549200,6.26554931640625,-0.6487383842468262,1.864817500114441,-0.6993638277053833
1772810322268249000,6.2752490234375,-0.7024945020675659,1.6901100873947144,0.6885209679603577
1772810322277949000,6.284948974609375,-0.7663298845291138,1.576183795928955,1.8729877471923828
1772810322287648800,6.294648681640625,-0.7250964641571045,1.3739875555038452,2.7599635124206543
1772810322297348900,6.304348876953125,-0.6212494969367981,1.022740364074707,3.2804203033447266
1772810322307048700,6.314048583984375,-0.4786125421524048,0.5572614073753357,3.4361908435821533
1772810322316748500,6.32374853515625,-0.3032943606376648,0.12996147572994232,3.2801148891448975
1772810322326448400,6.333448486328125,-0.14569124579429626,-0.1369100660085678,2.910236120223999
1772810322336148200,6.343148193359375,-0.06047561392188072,-0.1885281354188919,2.4429244995117188
1772810322345848000,6.35284814453125,-0.06444623321294785,-0.037949975579977036,2.013486623764038
1772810322355548000,6.3625478515625,-0.15241076052188873,0.17883066833019257,1.662850260734558
1772810322365248000,6.372248046875,-0.3075704276561737,0.40118545293807983,1.3784927129745483
1772810322374947800,6.38194775390625,-0.45417797565460205,0.6641627550125122,1.1744638681411743
1772810322384647700,6.391647705078125,-0.5482511520385742,0.9469931125640869,1.034881353378296
1772810322394347500,6.401347412109375,-0.6038398146629333,1.1223113536834717,0.9313397407531738
1772810322404047600,6.411047607421875,-0.6273581385612488,1.1574360132217407,0.8665880560874939
1772810322413747500,6.42074755859375,-0.6029235124588013,1.1449133157730103,0.8500946760177612
1772810322423447300,6.430447265625,-0.5458076596260071,1.1085668802261353,0.8901063203811646
1772810322433147100,6.440147216796875,-0.5064069032669067,1.042288064956665,0.9414190053939819
1772810322442847000,6.449846923828125,-0.4828886091709137,0.9787580966949463,0.9673807621002197
1772810322452547000,6.459547119140625,-0.46486809849739075,0.9549343585968018,0.9484439492225647
1772810322462247000,6.469246826171875,-0.45448338985443115,1.0099122524261475,0.8922443389892578
1772810322471946800,6.47894677734375,-0.45326167345046997,1.105207085609436,0.8064178824424744
1772810322481646600,6.488646484375,-0.4572322964668274,1.1653772592544556,0.7242565751075745
1772810322491346700,6.4983466796875,-0.5012145638465881,1.1638500690460205,0.6747764945030212
1772810322501046500,6.508046630859375,-0.5876519083976746,1.1403318643569946,0.6573668718338013
1772810322510746400,6.517746337890625,-0.6319395899772644,1.1742348670959473,0.6601157784461975
1772810322520446200,6.5274462890625,-0.6102539300918579,1.3205369710922241,0.6533962488174438
1772810322530146000,6.53714599609375,-0.5360338687896729,1.5123485326766968,0.617660641670227
1772810322539846000,6.546845947265625,-0.44990190863609314,1.680641770362854,0.5825359225273132
1772810322549545700,6.556545654296875,-0.40927940607070923,1.764635682106018,0.5584067702293396
1772810322559245800,6.566245849609375,-0.40744680166244507,1.7539454698562622,0.5584067702293396
1772810322568945700,6.575945556640625,-0.4205803871154785,1.6507093906402588,0.6063596606254578
1772810322578645500,6.5856455078125,-0.48563748598098755,1.4033091068267822,0.6827177405357361
1772810322588345300,6.595345458984375,-0.5403099060058594,1.1177297830581665,0.7810669541358948
1772810322598045200,6.605045166015625,-0.5259546041488647,0.8975130915641785,0.9304234385490417
1772810322607745300,6.614745361328125,-0.49968740344047546,0.6528617143630981,1.1298707723617554
1772810322617445000,6.624445068359375,-0.4303542375564575,0.27717989683151245,1.2801434993743896
1772810322627145000,6.63414501953125,-0.23304490745067596,-0.12560907006263733,1.2795326709747314
1772810322636844800,6.6438447265625,0.013439024798572063,-0.3943895697593689,1.1546107530593872
1772810322646545000,6.653544921875,0.2629773020744324,-0.8195514678955078,0.8980475664138794
1772810322656244700,6.66324462890625,0.48105600476264954,-1.7022510766983032,0.19677481055259705
1772810322665944600,6.672944580078125,0.7379246354103088,-2.932838201522827,-1.1633156538009644
1772810322675644400,6.68264453125,1.2507456541061401,-4.658531188964844,-3.524613380432129
1772810322685344300,6.69234423828125,1.908647060394287,-5.5940704345703125,-6.269228935241699
1772810322695044000,6.702044189453125,2.5042402744293213,-4.198244571685791,-8.174821853637695
1772810322704744000,6.711743896484375,2.501185894012451,-0.8598685264587402,-8.818673133850098
1772810322714444000,6.721444091796875,1.8267911672592163,2.9720098972320557,-7.8764142990112305
1772810322724143900,6.731143798828125,1.2565488815307617,5.169290542602539,-5.8565897941589355
1772810322733843700,6.74084375,0.9453132748603821,5.057196617126465,-3.6354854106903076
1772810322743543600,6.75054345703125,0.8338304162025452,3.4796385765075684,-1.4501166343688965
1772810322753243600,6.76024365234375,0.8582650423049927,1.4039199352264404,0.38736462593078613
1772810322762943500,6.769943603515625,0.9630283117294312,-0.3888917863368988,1.5116612911224365
1772810322772643300,6.779643310546875,1.273958444595337,-1.597182273864746,1.829005479812622
1772810322782343200,6.78934326171875,1.6893465518951416,-2.0983967781066895,1.5364012718200684
1772810322792043000,6.79904296875,1.9178099632263184,-1.8800127506256104,0.9463059306144714
1772810322801743000,6.8087431640625,1.7486004829406738,-1.2816706895828247,0.3161988854408264
1772810322811443000,6.81844287109375,1.1881320476531982,-0.5348884463310242,-0.2375500351190567
1772810322821142800,6.828142822265625,0.5061014890670776,0.31780239939689636,-0.6675988435745239
1772810322830842600,6.837842529296875,-0.056199558079242706,1.1018472909927368,-0.9247729182243347
1772810322840542500,6.84754248046875,-0.4376846253871918,1.6577342748641968,-0.9681442975997925
1772810322850242300,6.8572421875,-0.6527090072631836,1.9243767261505127,-0.8084031939506531
1772810322859942400,6.8669423828125,-0.7382301092147827,1.9185734987258911,-0.4672352075576782
1772810322869642200,6.876642333984375,-0.7284562587738037,1.7206534147262573,0.06146826967597008
1772810322879342000,6.886342041015625,-0.6520981788635254,1.3535236120224,0.7749583125114441
1772810322889042000,6.8960419921875,-0.5574141144752502,0.781143307685852,1.570304274559021
1772810322898741800,6.90574169921875,-0.46364638209342957,0.08872810751199722,2.320751667022705
1772810322908441900,6.91544189453125,-0.39767298102378845,-0.5703186392784119,2.904738426208496
1772810322918141700,6.9251416015625,-0.3738492429256439,-1.1008546352386475,3.239492177963257
1772810322937541400,6.944541259765625,-0.4685332775115967,-1.5504511594772339,3.214752197265625
1772810322947241500,6.954241455078125,-0.5812378525733948,-1.4032328128814697,2.941084861755371
1772810322956941300,6.96394140625,-0.7070759534835815,-1.0901645421981812,2.544022798538208
1772810322966641200,6.97364111328125,-0.8387173414230347,-0.701349139213562,2.08556866645813
1772810322976341000,6.983341064453125,-0.963333785533905,-0.3018435537815094,1.6631556749343872
1772810322986040800,6.993040771484375,-1.0934479236602783,0.037720900028944016,1.3238203525543213
1772810322995740700,7.00274072265625,-1.2275327444076538,0.249690979719162,1.062981128692627
1772810323005440500,7.0124404296875,-1.334128737449646,0.337350070476532,0.9065997004508972
1772810323015140600,7.022140625,-1.4043781757354736,0.3681987524032593,0.8537598848342896
1772810323024840400,7.03184033203125,-1.423925757408142,0.3620901107788086,0.8888846039772034
1772810323034540300,7.041540283203125,-1.4217877388000488,0.28206682205200195,1.0037271976470947
1772810323044240100,7.051240234375,-1.4007129669189453,0.11591159552335739,1.1946223974227905
1772810323053940200,7.060940185546875,-1.359479546546936,-0.12774710357189178,1.423391342163086
1772810323063640000,7.07064013671875,-1.331379771232605,-0.5138136148452759,1.6231440305709839
1772810323073340000,7.08033984375,-1.2806780338287354,-0.9420298337936401,1.774027705192566
1772810323083039700,7.090039794921875,-1.156977891921997,-1.2395210266113281,1.8448879718780518
1772810323092739600,7.099739501953125,-0.9251546859741211,-1.5055526494979858,1.700418472290039
1772810323102439700,7.109439697265625,-0.6450732350349426,-2.107865333557129,1.0208313465118408
1772810323112139500,7.119139404296875,-0.43463030457496643,-2.8757224082946777,-0.2671769857406616
1772810323121839400,7.12883935546875,-0.291687935590744,-2.7465243339538574,-1.5527418851852417
1772810323131539200,7.138539306640625,-0.25900667905807495,-1.550756573677063,-2.415282964706421
1772810323141239000,7.148239013671875,-0.3799578845500946,-0.21296273171901703,-2.8526620864868164
1772810323150939000,7.15793896484375,-0.5210676789283752,0.781754195690155,-2.814483165740967
1772810323160639000,7.167638916015625,-0.5458076596260071,1.4130829572677612,-2.3841288089752197
1772810323170338800,7.1773388671875,-0.46547895669937134,1.5581632852554321,-1.832823395729065
1772810323180038700,7.18703857421875,-0.2733619809150696,1.2386810779571533,-1.3649009466171265
1772810323189738500,7.196738525390625,-0.019853105768561363,0.625067412853241,-0.8893427848815918
1772810323199438300,7.206438232421875,0.18692462146282196,-0.06666062027215958,-0.20028728246688843
1772810323209138400,7.216138427734375,0.32589635252952576,-0.7050142884254456,0.7260891199111938
1772810323218838300,7.22583837890625,0.26908594369888306,-1.0855830907821655,1.6827033758163452
1772810323228538000,7.2355380859375,0.010690134018659592,-1.0806961059570312,2.356487274169922
1772810323238238000,7.245238037109375,-0.1279761642217636,-0.7080686092376709,2.6072473526000977
1772810323247937800,7.254937744140625,-0.05345066636800766,-0.2612210512161255,2.4526984691619873
1772810323257638000,7.264637939453125,0.1487455666065216,0.1055268943309784,2.0651047229766846
1772810323267337700,7.274337646484375,0.3289506733417511,0.15286891162395477,1.644524335861206
1772810323277037600,7.28403759765625,0.38850998878479004,0.008704823441803455,1.3601667881011963
1772810323286737400,7.2937373046875,0.31184646487236023,-0.12774710357189178,1.209894061088562
1772810323296437200,7.303437255859375,0.3078758418560028,-0.2645808160305023,1.2480731010437012
1772810323306137000,7.31313720703125,0.28557929396629333,-0.18516838550567627,1.3070214986801147
1772810323315837200,7.322837158203125,0.04734202101826668,0.08323032408952713,1.1961495876312256
1772810323325537000,7.332537109375,-0.29474225640296936,0.4488328993320465,0.9881501197814941
1772810323335236900,7.34223681640625,-0.45448338985443115,0.8501710295677185,0.840320885181427
1772810323344936700,7.351936767578125,-0.4373791813850403,1.159574031829834,0.7874810695648193
1772810323354636500,7.361636474609375,-0.36743515729904175,1.2594504356384277,0.8504001498222351
1772810323364336600,7.371336669921875,-0.3066541254520416,1.1409426927566528,1.0220531225204468
1772810323374036500,7.381036376953125,-0.31184646487236023,1.1669044494628906,1.2318851947784424
1772810323383736300,7.390736328125,-0.2919933497905731,1.1180353164672852,1.4905864000320435
1772810323393436200,7.400436279296875,-0.1899789422750473,0.7133373618125916,1.8039600849151611
1772810323403136300,7.41013623046875,-0.10201441496610641,0.1406516134738922,2.0647993087768555
1772810323412835800,7.4198359375,-0.059864748269319534,-0.46830421686172485,2.18666672706604
1772810323422536000,7.429535888671875,-0.04428769648075104,-0.9258419275283813,2.0849578380584717
1772810323432235800,7.43923583984375,-0.014660755172371864,-1.0819178819656372,1.7960188388824463
1772810323441935600,7.448935546875,-0.010079269297420979,-0.9939533472061157,1.347949504852295
1772810323451635500,7.458635498046875,-0.08307760953903198,-0.7404444813728333,0.7780126333236694
1772810323461335300,7.468335205078125,-0.2000582218170166,-0.36628979444503784,0.13843722641468048
1772810323471035400,7.478035400390625,-0.31001389026641846,-0.050778135657310486,-0.4159225523471832
1772810323480735200,7.4877353515625,-0.3808741867542267,0.21151192486286163,-0.8496365547180176
1772810323490435000,7.49743505859375,-0.43463030457496643,0.48731738328933716,-1.1129192113876343
1772810323500135000,7.507135009765625,-0.46364638209342957,0.8425352573394775,-1.0692424774169922
1772810323509835000,7.5168349609375,-0.467006117105484,1.068860650062561,-0.7873283624649048
1772810323519534800,7.526534912109375,-0.4786125421524048,1.019685983657837,-0.40309441089630127
1772810323529234700,7.536234619140625,-0.5018253922462463,0.8590285778045654,0.0009926552884280682
1772810323538934500,7.5459345703125,-0.5100721120834351,0.6641627550125122,0.38033968210220337
1772810323548634400,7.55563427734375,-0.5152644515037537,0.47174033522605896,0.6811906099319458
1772810323558334200,7.565334228515625,-0.5250383019447327,0.3110828995704651,0.8513164520263672
1772810323568034000,7.575033935546875,-0.5430588126182556,0.16966769099235535,0.866893470287323
1772810323577734100,7.584734130859375,-0.5348120927810669,-0.0062613640911877155,0.7639627456665039
1772810323587434000,7.59443408203125,-0.5119046568870544,-0.06757691502571106,0.5767326951026917
1772810323597133800,7.6041337890625,-0.472198486328125,0.021227551624178886,0.28443390130996704
1772810323616533800,7.62353369140625,-0.3756818473339081,0.35353797674179077,-0.5555051565170288
1772810323626233600,7.633233642578125,-0.2877173125743866,0.6858484148979187,-0.8810960650444031
1772810323635933400,7.642933349609375,-0.1233946830034256,1.2188279628753662,-1.0515273809432983
1772810323645633300,7.65263330078125,0.07086031138896942,1.744782567024231,-1.1113921403884888
1772810323655333000,7.6623330078125,0.2110537886619568,1.9869904518127441,-1.1449897289276123
1772810323665033000,7.672032958984375,0.3081812858581543,1.8727587461471558,-1.1737003326416016
1772810323674732800,7.68173291015625,0.43921178579330444,1.5056289434432983,-1.1892774105072021
1772810323684433000,7.691432861328125,0.6053670048713684,0.8770490884780884,-1.2647191286087036
1772810323694132700,7.7011328125,0.7785471677780151,0.12202023714780807,-1.381394386291504
1772810323703832600,7.71083251953125,1.0015127658843994,-0.17905974388122559,-1.304730772972107
1772810323713532400,7.720532470703125,1.2424989938735962,0.24174973368644714,-0.9314924478530884
1772810323723232500,7.730232421875,1.3374884128570557,0.9033163189888,-0.48617202043533325
1772810323732932400,7.739932373046875,1.1640028953552246,1.215162754058838,-0.22838707268238068
1772810323742632200,7.749632080078125,0.8252783417701721,1.1574360132217407,-0.12209659814834595
1772810323752332000,7.75933203125,0.6169734001159668,0.4384481906890869,-0.4076758921146393
1772810323762031900,7.769031982421875,0.6780598759651184,-0.7734311819076538,-1.2195152044296265
1772810323771731700,7.778731689453125,0.9642500281333923,-1.5345686674118042,-2.1654393672943115
1772810323781431600,7.788431640625,1.3713914155960083,-1.5293763875961304,-2.9510114192962646
1772810323791131600,7.798131591796875,1.6994258165359497,-0.949971079826355,-3.418323040008545
1772810323800831500,7.80783154296875,1.8225150108337402,-0.20532692968845367,-3.4308457374572754
1772810323810531300,7.81753125,1.6804890632629395,0.48792824149131775,-2.8868706226348877
1772810323820231200,7.827231201171875,1.3249657154083252,0.8101593852043152,-1.9217042922973633
1772810323829931300,7.83693115234375,0.9587522745132446,1.113759160041809,-1.2479203939437866
1772810323839631000,7.846631103515625,0.4120282828807831,1.5028800964355469,-1.0066287517547607
1772810323849331000,7.8563310546875,0.021380268037319183,1.5462514162063599,-0.9815833568572998
1772810323859030800,7.86603076171875,0.08826996386051178,0.6620246767997742,-0.7173843383789062
1772810323868730600,7.875730712890625,0.3704894781112671,-0.4295142889022827,-0.6831759214401245
1772810323878430700,7.8854306640625,0.6652317643165588,-1.0657299757003784,-0.9259946346282959
1772810323888130600,7.895130615234375,1.0543526411056519,-1.098411202430725,-1.3416881561279297
1772810323897830400,7.904830322265625,1.480736255645752,-0.6582831740379333,-1.7842596769332886
1772810323907530200,7.9145302734375,1.7623448371887207,-0.11522436887025833,-2.009974241256714
1772810323917230000,7.92422998046875,1.7122539281845093,0.22159120440483093,-1.9330052137374878
1772810323926930000,7.933929931640625,1.4584397077560425,0.30222535133361816,-1.5796200037002563
1772810323936630000,7.943630126953125,1.1789690256118774,0.25579962134361267,-1.067104458808899
1772810323946329900,7.953329833984375,0.8881973624229431,0.06368265300989151,-0.5451204776763916
1772810323956029700,7.96302978515625,0.6805033683776855,-0.2722166180610657,-0.170965775847435
1772810323965729500,7.9727294921875,0.5473348498344421,-0.5284743905067444,0.00007635809743078426
1772810323975429400,7.982429443359375,0.4868592321872711,-0.5681806206703186,-0.04482220485806465
1772810323985129500,7.99212939453125,0.5137372612953186,-0.5003746151924133,-0.15233440697193146
1772810323994829300,8.001829345703126,0.5784889459609985,-0.3363574147224426,-0.2629009187221527
1772810324004529200,8.011529052734375,0.5925388336181641,-0.029703300446271896,-0.44524407386779785
1772810324014229000,8.02122900390625,0.5610793232917786,0.2234237939119339,-0.6550761461257935
1772810324023928800,8.0309287109375,0.4679224193096161,0.30833399295806885,-0.8032108545303345
1772810324033628700,8.040628662109375,0.3384190797805786,0.1821904182434082,-0.8016836643218994
1772810324053028600,8.060028564453125,0.09101885557174683,-0.1274416595697403,-0.4534907341003418
1772810324062728400,8.069728515625,0.013439024798572063,-0.11308634281158447,-0.3132972717285156
1772810324072428300,8.07942822265625,-0.03023780696094036,-0.03214675933122635,-0.2677878439426422
1772810324082128100,8.089128173828126,-0.06780599057674408,0.07223475724458694,-0.3245982825756073
1772810324091828200,8.098828125,-0.06108647957444191,0.2237292230129242,-0.4369973838329315
1772810324101528000,8.108528076171876,-0.07238747924566269,0.37980517745018005,-0.5246564745903015
1772810324111228000,8.118227783203125,-0.0717766135931015,0.45188722014427185,-0.5448150038719177
1772810324120927700,8.127927734375,-0.04214967042207718,0.45738500356674194,-0.47761988639831543
1772810324130627600,8.137627685546875,0.007941242307424545,0.40546149015426636,-0.3242928385734558
1772810324140327400,8.147327392578125,0.06536252796649933,0.2689332067966461,-0.1037706509232521
1772810324150027500,8.157027587890624,0.10109812021255493,0.12171480804681778,0.10850485414266586
1772810324159727400,8.166727294921875,0.11759147047996521,-0.008017600513994694,0.2700785994529724
1772810324169427200,8.17642724609375,0.11056652665138245,-0.08468113094568253,0.36140286922454834
1772810324179127000,8.186126953125,0.08613193035125732,-0.09781472384929657,0.3375791609287262
1772810324188827000,8.195826904296876,0.0720820426940918,-0.016875140368938446,0.19799654185771942
1772810324198527000,8.20552685546875,0.07360920310020447,0.15409064292907715,-0.01000291109085083
1772810324208226800,8.215226806640626,0.08063415437936783,0.3116937577724457,-0.24579671025276184
1772810324217926700,8.2249267578125,0.09621120244264603,0.4079049527645111,-0.4586831033229828
1772810324227626500,8.23462646484375,0.13225223124027252,0.4815141558647156,-0.6000983119010925
1772810324237326300,8.244326416015625,0.18570289015769958,0.5658134818077087,-0.6581304669380188
1772810324247026200,8.254026123046875,0.24465134739875793,0.6248382925987244,-0.6327795386314392
1772810324256726300,8.263726318359375,0.3017672002315521,0.6305651664733887,-0.5329031348228455
1772810324266426000,8.273426025390625,0.3430005609989166,0.6052142977714539,-0.3701077103614807
1772810324276126000,8.2831259765625,0.37232208251953125,0.5203040838241577,-0.16943861544132233
1772810324285825800,8.29282568359375,0.43951719999313354,0.3917170464992523,0.05719221383333206
1772810324295525600,8.302525634765624,0.49632763862609863,0.26190826296806335,0.27282747626304626
1772810324305225700,8.312225830078125,0.5134318470954895,0.09575305134057999,0.4154644012451172
1772810324314925600,8.321925537109376,0.500298261642456,-0.02237292192876339,0.46860963106155396
1772810324324625400,8.33162548828125,0.48441576957702637,-0.03061959706246853,0.4307360351085663
1772810324334325200,8.3413251953125,0.47433650493621826,0.036804601550102234,0.33544111251831055
1772810324344025000,8.351025146484375,0.4789179861545563,0.10980294644832611,0.23770275712013245
1772810324353725000,8.360724853515626,0.49082985520362854,0.15073087811470032,0.17417281866073608
1772810324363424800,8.3704248046875,0.5103775262832642,0.17455461621284485,0.17600540816783905
1772810324373124900,8.380124755859375,0.5354229807853699,0.21426081657409668,0.21571162343025208
1772810324382824700,8.38982470703125,0.5564978122711182,0.23044873774051666,0.2511417865753174
1772810324392524500,8.399524658203125,0.5671879649162292,0.2231183648109436,0.28901541233062744
1772810324402224400,8.409224365234374,0.5619956254959106,0.24694208800792694,0.2969566285610199
1772810324411924500,8.418924560546875,0.5516108870506287,0.29306238889694214,0.2719111740589142
1772810324421624300,8.428624267578124,0.4935787320137024,0.3468184769153595,0.21265730261802673
1772810324431324200,8.43832421875,0.4309650957584381,0.35017824172973633,0.1323285847902298
1772810324441024000,8.44802392578125,0.39309149980545044,0.3520108163356781,0.07460185885429382
1772810324450723800,8.457723876953125,0.40744680166244507,0.26099199056625366,0.17600540816783905
1772810324460423700,8.467423583984376,0.4105011224746704,0.26221370697021484,0.05169443041086197
1772810324470123500,8.47712353515625,0.43890634179115295,0.4289797842502594,-0.11049016565084457
1772810324479823600,8.48682373046875,0.4535670876502991,0.6122392416000366,-0.2998582422733307
1772810324489523500,8.4965234375,0.4098902642726898,0.8107702732086182,-0.5130500793457031
1772810324499223300,8.506223388671875,0.3341430425643921,0.864831805229187,-0.6162862181663513
