time,seconds_elapsed,z,y,x
1772811948724030500,0.117030517578125,0,0,0
1772811948743431700,0.136431640625,0.4007258415222168,-0.8586087226867676,0.1628953367471695
1772811948753132500,0.146132568359375,1.4895687103271484,-1.683973789215088,-0.051873356103897095
1772811948762833200,0.155833251953125,2.076563835144043,-2.5036027431488037,-0.21713030338287354
1772811948772533800,0.16553369140625,1.9002361297607422,-3.0279040336608887,-0.06769105046987534
1772811948782234400,0.175234375,1.3814921379089355,-3.4772512912750244,0.49589571356773376
1772811948791935000,0.18493505859375,0.3605222702026367,-2.324122667312622,0.12180909514427185
1772811948801635600,0.194635498046875,-0.19201135635375977,-1.7882157564163208,-0.22659066319465637
1772811948811336400,0.20433642578125,-0.42910194396972656,-1.283517599105835,-0.6759886741638184
1772811948821037000,0.214037109375,-0.404843807220459,-0.9205827713012695,-1.1109024286270142
1772811948830737700,0.223737548828125,0.4432973861694336,-0.9521942138671875,-1.3544394969940186
1772811948840438300,0.233438232421875,0.8502416610717773,-1.0930209159851074,-0.7329596281051636
1772811948850139000,0.243138916015625,-0.22353696823120117,-0.978123664855957,0.7869852781295776
1772811948859839700,0.25283984375,0.3825678825378418,-2.2423453330993652,1.8233979940414429
1772811948869540400,0.262540283203125,1.5299172401428223,-2.390746593475342,2.631894111633301
1772811948879241000,0.272240966796875,4.098880290985107,-0.715319812297821,3.1946396827697754
1772811948888941600,0.281941650390625,7.241336345672607,1.2283939123153687,2.9204699993133545
1772811948898642200,0.29164208984375,7.844324588775635,1.9132980108261108,2.5615241527557373
1772811948908342800,0.3013427734375,7.8466715812683105,2.3890466690063477,2.382084846496582
1772811948918043400,0.31104345703125,8.730932235717773,3.45542573928833,1.8997536897659302
1772811948927744300,0.320744140625,9.854127883911133,4.33726692199707,0.9788120985031128
1772811948937444900,0.33044482421875,10.46186637878418,4.054568290710449,0.5954686403274536
1772811948947145500,0.3401455078125,11.058257102966309,2.8161873817443848,1.7443008422851562
1772811948956846300,0.349846435546875,11.08561897277832,0.7459620237350464,3.6713743209838867
1772811948966547000,0.359546875,11.208928108215332,-0.00406336784362793,4.679686546325684
1772811948976247600,0.36924755859375,13.349732398986816,0.8922450542449951,4.535174369812012
1772811948985948200,0.3789482421875,15.347793579101562,2.076228618621826,3.405211925506592
1772811948995648800,0.388648681640625,16.814964294433594,3.2241086959838867,1.944424033164978
1772811949005349400,0.398349365234375,16.67275047302246,4.005509376525879,0.49167513847351074
1772811949015050000,0.408050048828125,14.725255966186523,4.560658931732178,-1.051623821258545
1772811949024750800,0.417750732421875,12.199716567993164,4.7474470138549805,-2.4016523361206055
1772811949034451500,0.427451416015625,10.102909088134766,4.98936653137207,-3.5535194873809814
1772811949044152000,0.437152099609375,8.854330062866211,4.89601993560791,-4.296006202697754
1772811949053852700,0.446852783203125,7.697800636291504,4.417070388793945,-4.3133931159973145
1772811949063553300,0.45655322265625,6.844167709350586,3.7191920280456543,-4.120698928833008
1772811949073254100,0.466254150390625,5.349063873291016,2.8065638542175293,-3.6149685382843018
1772811949082954800,0.475954833984375,2.8246870040893555,2.3715877532958984,-3.2951812744140625
1772811949092655400,0.4856552734375,0.04409503936767578,2.5394186973571777,-3.127955198287964
1772811949102356000,0.49535595703125,-3.151364326477051,2.608067512512207,-2.887258529663086
1772811949112056600,0.505056640625,-6.743228912353516,0.4940974712371826,-0.9259969592094421
1772811949121757200,0.514757080078125,-7.084638595581055,4.7142181396484375,-2.4862163066864014
1772811949131458000,0.5244580078125,-10.040926933288574,6.126910209655762,-1.2380585670471191
1772811949141158700,0.53415869140625,-11.089981079101562,3.387535810470581,0.7678099870681763
1772811949150859300,0.543859375,-11.728909492492676,2.7554354667663574,2.261284112930298
1772811949160559900,0.553559814453125,-11.958980560302734,2.357224702835083,2.6210341453552246
1772811949170260500,0.563260498046875,-11.662933349609375,1.9703007936477661,2.680997371673584
1772811949179961300,0.57296142578125,-11.733356475830078,1.591742753982544,2.725224256515503
1772811949189662000,0.582661865234375,-12.325567245483398,1.113393783569336,2.8918941020965576
1772811949199362600,0.592362548828125,-12.78691291809082,0.7251354455947876,2.7222445011138916
1772811949209063200,0.602063232421875,-13.227519989013672,0.5476418733596802,2.2879865169525146
1772811949218763800,0.611763671875,-13.78318977355957,0.050092101097106934,2.0490293502807617
1772811949228464400,0.62146435546875,-13.637543678283691,0.22164225578308105,1.7340004444122314
1772811949238165200,0.631165283203125,-13.949925422668457,0.2535223960876465,1.3141354322433472
1772811949247865900,0.640865966796875,-14.350021362304688,-0.1527094841003418,1.1964097023010254
1772811949257566500,0.65056640625,-14.12140941619873,-0.4019191265106201,1.2989104986190796
1772811949267267000,0.66026708984375,-13.611557960510254,-0.6639264822006226,1.4473316669464111
1772811949276967700,0.6699677734375,-13.152778625488281,-0.9890955686569214,1.5484673976898193
1772811949286668300,0.679668212890625,-12.365689277648926,-1.1666008234024048,1.6819058656692505
1772811949296369200,0.689369140625,-11.170331001281738,-1.0435295104980469,1.7296167612075806
1772811949306069800,0.69906982421875,-10.038243293762207,-0.9366674423217773,1.6670749187469482
1772811949315770400,0.708770263671875,-9.100513458251953,-1.06850004196167,1.5521442890167236
1772811949325471000,0.718470947265625,-8.069815635681152,-1.0633281469345093,1.2205036878585815
1772811949335171600,0.728171630859375,-7.227508544921875,-0.9514318704605103,0.8862289190292358
1772811949344872400,0.73787255859375,-7.245358943939209,-1.4815254211425781,0.9682357311248779
1772811949354573000,0.747572998046875,-6.77718448638916,-1.893054723739624,0.8682160377502441
1772811949364273700,0.757273681640625,-6.380962371826172,-1.8137691020965576,0.7809973955154419
1772811949373974300,0.766974365234375,-6.584875583648682,-1.6839659214019775,0.7189226150512695
1772811949383675000,0.7766748046875,-6.812067031860352,-1.6850359439849854,0.5628061294555664
1772811949393375500,0.78637548828125,-6.863249778747559,-1.6813790798187256,0.3726309537887573
1772811949403076000,0.796076171875,-6.90041446685791,-1.6975772380828857,0.2104349136352539
1772811949412777000,0.80577685546875,-6.85030460357666,-1.6580920219421387,0.07748258113861084
1772811949422477600,0.8154775390625,-6.781884670257568,-1.673470139503479,0.025683283805847168
1772811949432178200,0.82517822265625,-6.601778507232666,-1.7461011409759521,0.0808098316192627
1772811949441878800,0.834878662109375,-6.285696029663086,-1.8056347370147705,0.1635662317276001
1772811949451579600,0.84457958984375,-6.115665435791016,-1.8787848949432373,0.23282098770141602
1772811949461280300,0.8542802734375,-5.933864593505859,-1.8768023252487183,0.292834997177124
1772811949470980900,0.86398095703125,-5.551699638366699,-2.0473508834838867,0.44405698776245117
1772811949480681500,0.873681396484375,-5.2550458908081055,-2.2556257247924805,0.4947444200515747
1772811949490382000,0.883382080078125,-5.130395889282227,-2.135589122772217,0.5106861591339111
1772811949500082700,0.893082763671875,-4.765049934387207,-1.8581552505493164,0.6079668998718262
1772811949509783300,0.902783203125,-3.8550643920898438,-1.6329901218414307,0.37417030334472656
1772811949519484000,0.91248388671875,-2.327195644378662,-1.4483681917190552,0.2816823720932007
1772811949529184800,0.922184814453125,0.24500608444213867,-0.9804345369338989,0.3497610092163086
1772811949538885400,0.931885498046875,3.4498891830444336,0.612290620803833,0.4317408800125122
1772811949548586000,0.9415859375,8.194412231445312,2.5499727725982666,1.0838171243667603
1772811949558286600,0.95128662109375,13.235677719116211,4.121920585632324,1.56714928150177
1772811949567987500,0.960987548828125,17.972591400146484,3.7821156978607178,3.0114898681640625
1772811949577688000,0.97068798828125,22.819507598876953,0.7323806285858154,7.025420188903809
1772811949587388700,0.980388671875,26.52022933959961,0.0835258960723877,10.698431015014648
1772811949597089300,0.99008935546875,29.209699630737305,0.017864465713500977,13.65414047241211
1772811949606790000,0.999789794921875,28.660871505737305,-0.5625479221343994,15.076578140258789
1772811949616490500,1.009490478515625,26.54966163635254,0.14617908000946045,13.243569374084473
1772811949626191000,1.019191162109375,23.774526596069336,1.970900297164917,9.065470695495605
1772811949635892000,1.02889208984375,19.89769172668457,3.639822006225586,4.620763778686523
1772811949645592600,1.038592529296875,16.00243377685547,4.770421504974365,1.1594884395599365
1772811949655293200,1.048293212890625,13.06080150604248,5.907834053039551,-1.3775858879089355
1772811949664993800,1.057993896484375,10.85263729095459,7.0702056884765625,-3.1092867851257324
1772811949674694700,1.067694580078125,8.674995422363281,7.464166641235352,-3.7448129653930664
1772811949684395300,1.077395263671875,6.178139686584473,7.198389530181885,-3.2907960414886475
1772811949694096000,1.087095947265625,3.487278938293457,6.523361682891846,-2.49733304977417
1772811949703796500,1.09679638671875,1.1321115493774414,5.811849594116211,-1.9212533235549927
1772811949713497000,1.1064970703125,-0.40689849853515625,5.0797953605651855,-1.500746250152588
1772811949723197700,1.11619775390625,-1.3348617553710938,4.084918022155762,-1.2169079780578613
1772811949732898300,1.125898193359375,-2.002096176147461,2.823047637939453,-1.2987174987792969
1772811949742599000,1.135598876953125,-2.511005401611328,1.8313515186309814,-1.758300542831421
1772811949752299800,1.1452998046875,-3.0453948974609375,1.1277962923049927,-2.3919661045074463
1772811949762000400,1.15500048828125,-3.860823631286621,-0.21798813343048096,-2.610135078430176
1772811949771701000,1.164700927734375,-4.27072811126709,0.39572572708129883,-3.7650399208068848
1772811949781401600,1.174401611328125,-5.411789894104004,0.498860239982605,-3.989349365234375
1772811949791102500,1.1841025390625,-5.982204437255859,-0.5233910083770752,-3.8069803714752197
1772811949800803000,1.193802978515625,-6.631275177001953,-1.1182440519332886,-3.7365174293518066
1772811949810503700,1.203503662109375,-7.352820873260498,-1.1084966659545898,-3.8158648014068604
1772811949820204300,1.213204345703125,-7.984428882598877,-1.182328462600708,-3.9162843227386475
1772811949829905000,1.22290478515625,-8.591116905212402,-1.5090315341949463,-3.903484344482422
1772811949839605500,1.23260546875,-9.136926651000977,-1.928523063659668,-3.7823872566223145
1772811949849306000,1.24230615234375,-9.616958618164062,-2.293182134628296,-3.6965503692626953
1772811949859006700,1.2520068359375,-9.946457862854004,-2.4939637184143066,-3.808397054672241
1772811949868707600,1.26170751953125,-10.231929779052734,-2.478947401046753,-4.104916572570801
1772811949878408200,1.271408203125,-10.55179500579834,-2.267606735229492,-4.3722758293151855
1772811949888108800,1.28110888671875,-10.926813125610352,-2.0410778522491455,-4.488002300262451
1772811949897809400,1.290809326171875,-11.23877239227295,-1.9416171312332153,-4.429841995239258
1772811949907510300,1.30051025390625,-11.275293350219727,-1.8363728523254395,-4.66892147064209
1772811949917211000,1.3102109375,-11.252309799194336,-1.877202033996582,-4.61865758895874
1772811949926911500,1.319911376953125,-11.203533172607422,-1.7176754474639893,-4.389299392700195
1772811949936612000,1.329612060546875,-10.997861862182617,-1.6210287809371948,-4.376018524169922
1772811949946312700,1.339312744140625,-10.760168075561523,-1.8984756469726562,-4.247862815856934
1772811949956013300,1.349013427734375,-10.397424697875977,-2.0711326599121094,-4.078972339630127
1772811949965714000,1.3587138671875,-9.798202514648438,-2.0765860080718994,-3.962728977203369
1772811949975414500,1.36841455078125,-9.20184326171875,-2.200030565261841,-3.803542375564575
1772811949985115400,1.378115478515625,-8.770133018493652,-2.4078481197357178,-3.5974059104919434
1772811949994816000,1.38781591796875,-8.295546531677246,-2.5239713191986084,-3.2863993644714355
1772811950004516600,1.3975166015625,-7.715310573577881,-2.663877248764038,-2.736969232559204
1772811950014217200,1.40721728515625,-7.154724597930908,-2.9966626167297363,-2.375283718109131
1772811950023917800,1.416917724609375,-6.605936050415039,-3.270585536956787,-2.3147168159484863
1772811950033618700,1.42661865234375,-6.13975715637207,-3.3115506172180176,-2.3845715522766113
1772811950043319300,1.4363193359375,-5.577757835388184,-3.2281594276428223,-2.435804605484009
1772811950053020000,1.44602001953125,-5.252309322357178,-3.010204553604126,-2.5139060020446777
1772811950062720500,1.455720458984375,-4.979095458984375,-2.651766061782837,-2.643256425857544
1772811950072421000,1.465421142578125,-4.452691078186035,-1.9857224225997925,-2.8631012439727783
1772811950082121700,1.475121826171875,-3.356112003326416,-0.7067983150482178,-3.0979630947113037
1772811950091822600,1.484822509765625,-1.1654248237609863,0.8573319911956787,-2.936530828475952
1772811950101523200,1.494523193359375,2.8439512252807617,2.560281276702881,-1.705550193786621
1772811950111223800,1.504223876953125,7.885005474090576,4.041596412658691,1.2485220432281494
1772811950120924400,1.51392431640625,12.988123893737793,4.9500250816345215,6.921923637390137
1772811950130625000,1.523625,17.875530242919922,3.2025363445281982,13.991477966308594
1772811950140325600,1.53332568359375,20.4283390045166,2.6278820037841797,18.072555541992188
1772811950150026500,1.543026611328125,22.294292449951172,4.43373966217041,19.47039031982422
1772811950159727000,1.55272705078125,24.91500473022461,5.890746116638184,19.58665657043457
1772811950169427700,1.562427734375,27.712440490722656,7.037461280822754,19.4058780670166
1772811950179128300,1.57212841796875,30.476768493652344,8.252389907836914,18.593097686767578
1772811950188829000,1.581828857421875,31.637516021728516,8.936803817749023,17.219810485839844
1772811950198529500,1.591529541015625,30.900062561035156,8.113024711608887,16.060039520263672
1772811950208230400,1.60123046875,28.136917114257812,6.950031757354736,14.935505867004395
1772811950217931000,1.610930908203125,23.889324188232422,6.5516037940979,13.778340339660645
1772811950227631600,1.620631591796875,18.326513290405273,6.103597640991211,13.00047779083252
1772811950237332200,1.630332275390625,12.399170875549316,5.409174919128418,11.876287460327148
1772811950247032800,1.64003271484375,7.365752220153809,4.845239162445068,10.017830848693848
1772811950256733400,1.6497333984375,3.852634906768799,4.1675028800964355,6.840724945068359
1772811950266434300,1.659434326171875,1.9937515258789062,3.1495718955993652,2.730168342590332
1772811950276135000,1.669135009765625,1.5396575927734375,2.2198572158813477,-2.676581859588623
1772811950285835500,1.67883544921875,0.6187305450439453,1.3206801414489746,-8.157301902770996
1772811950295536000,1.6885361328125,-0.9002799987792969,0.47687578201293945,-11.135616302490234
1772811950305236700,1.69823681640625,-2.213428497314453,-0.37740373611450195,-11.343385696411133
1772811950314937300,1.707937255859375,-2.9030208587646484,-1.1006190776824951,-10.912040710449219
1772811950324638200,1.71763818359375,-2.674921989440918,-1.8659286499023438,-10.486566543579102
1772811950334338800,1.7273388671875,-2.1760611534118652,-1.7359766960144043,-9.832290649414062
1772811950344039400,1.737039306640625,-2.030547618865967,-1.1244988441467285,-9.152891159057617
1772811950353740000,1.746739990234375,-2.4255828857421875,-0.9259419441223145,-7.767714023590088
1772811950363440600,1.756440673828125,-3.246274471282959,-1.7568838596343994,-6.349426746368408
1772811950373141200,1.766141357421875,-4.3910346031188965,-2.4734530448913574,-5.110938549041748
1772811950382841900,1.775841796875,-5.37254524230957,-3.643507480621338,-4.12592077255249
1772811950392542700,1.785542724609375,-5.9175825119018555,-4.794906139373779,-4.347816467285156
1772811950402243300,1.795243408203125,-6.737183570861816,-5.152982234954834,-5.382547855377197
1772811950411944000,1.80494384765625,-7.713613986968994,-5.212480068206787,-6.635524272918701
1772811950421644500,1.81464453125,-8.209059715270996,-5.107409954071045,-7.986612796783447
1772811950431345200,1.82434521484375,-8.214509963989258,-5.060642242431641,-8.711010932922363
1772811950441046000,1.8340458984375,-8.528803825378418,-5.233410358428955,-8.542479515075684
1772811950450746600,1.84374658203125,-8.63254165649414,-5.483943462371826,-7.666831016540527
1772811950460447200,1.853447265625,-8.417318344116211,-5.635085105895996,-6.366302490234375
1772811950470147800,1.86314794921875,-8.068796157836914,-5.628593921661377,-4.99683952331543
1772811950479848400,1.872848388671875,-7.520872592926025,-5.53646183013916,-3.9669909477233887
1772811950489549000,1.882549072265625,-7.037342548370361,-5.517012596130371,-3.2921571731567383
1772811950499249700,1.892249755859375,-6.641761779785156,-5.723880767822266,-2.8208017349243164
1772811950508950300,1.9019501953125,-6.283339977264404,-6.008975028991699,-2.622222423553467
1772811950518651100,1.911651123046875,-6.2655415534973145,-6.295008659362793,-2.508747100830078
1772811950528351700,1.921351806640625,-6.340583801269531,-6.498838424682617,-2.254185199737549
1772811950538052400,1.93105224609375,-6.50272274017334,-6.455132484436035,-2.2005398273468018
1772811950547753000,1.9407529296875,-6.715965270996094,-6.2769551277160645,-2.2742795944213867
1772811950557453600,1.95045361328125,-6.883697032928467,-6.214258193969727,-2.3306076526641846
1772811950567154400,1.960154541015625,-7.048759937286377,-6.06286096572876,-2.2360761165618896
1772811950576855000,1.96985498046875,-7.136716842651367,-5.914604663848877,-1.8917992115020752
1772811950586555600,1.9795556640625,-7.254784107208252,-5.732474327087402,-1.7003452777862549
1772811950596256300,1.98925634765625,-7.267730236053467,-5.521862506866455,-1.6219308376312256
1772811950605956900,1.998956787109375,-7.263497829437256,-5.320769309997559,-1.6556510925292969
1772811950615657500,2.008657470703125,-7.2826972007751465,-5.129817485809326,-1.8058967590332031
1772811950625358000,2.018358154296875,-7.312887191772461,-4.682429313659668,-2.1755268573760986
1772811950635059000,2.028058837890625,-7.23317289352417,-4.170571804046631,-2.5040574073791504
1772811950644759600,2.037759521484375,-7.1215081214904785,-3.755173444747925,-2.700599193572998
1772811950654460200,2.047460205078125,-7.085930347442627,-3.3987321853637695,-2.810245990753174
1772811950664160800,2.057160888671875,-7.15150260925293,-3.0270514488220215,-2.9277472496032715
1772811950673861400,2.066861328125,-7.164985656738281,-2.712075710296631,-3.0445494651794434
1772811950683562000,2.07656201171875,-7.226741313934326,-2.5027191638946533,-3.145089626312256
1772811950693262800,2.086262939453125,-7.284488677978516,-2.370014190673828,-3.124835252761841
1772811950702963500,2.09596337890625,-7.202332973480225,-2.2276406288146973,-3.115488052368164
1772811950712664000,2.1056640625,-7.037341594696045,-2.045823574066162,-3.1001060009002686
1772811950722364700,2.11536474609375,-6.785190582275391,-2.0069799423217773,-2.89898943901062
1772811950732065300,2.125065185546875,-6.110073089599609,-1.942060947418213,-2.6939597129821777
1772811950741766000,2.134765869140625,-5.21440315246582,-1.7960844039916992,-2.532839059829712
1772811950751466800,2.144466796875,-4.40532922744751,-1.3395600318908691,-2.463238477706909
1772811950761167400,2.15416748046875,-3.314268112182617,-0.3999292850494385,-2.016469717025757
1772811950770868000,2.163867919921875,-1.1442174911499023,0.5046777725219727,-1.1443240642547607
1772811950780568600,2.173568603515625,2.1069793701171875,1.0938591957092285,-0.01156759262084961
1772811950790269200,2.183269287109375,5.525009632110596,2.1332736015319824,1.4467391967773438
1772811950799969800,2.1929697265625,8.24820327758789,4.197238445281982,2.492579460144043
1772811950809670400,2.20267041015625,10.44188117980957,6.399959564208984,2.8493905067443848
1772811950819371000,2.21237109375,12.302579879760742,4.428758144378662,6.552018642425537
1772811950829071600,2.222071533203125,15.110132217407227,2.4798598289489746,12.119975090026855
1772811950838772500,2.2317724609375,19.808006286621094,3.368720769882202,16.01459503173828
1772811950848473000,2.24147314453125,22.044570922851562,2.7417240142822266,19.700448989868164
1772811950858173700,2.251173583984375,22.167951583862305,1.1271202564239502,21.38357925415039
1772811950867874300,2.260874267578125,21.853904724121094,1.0809056758880615,19.049331665039062
1772811950877575200,2.2705751953125,20.75406265258789,2.3888344764709473,14.110067367553711
1772811950887275800,2.28027587890625,18.863916397094727,4.332465648651123,9.084564208984375
1772811950896976400,2.289976318359375,16.58833122253418,5.877296447753906,5.799000263214111
1772811950906677000,2.299677001953125,13.744481086730957,6.73154354095459,4.445217132568359
1772811950916377600,2.309377685546875,10.709866523742676,6.547856330871582,4.280980110168457
1772811950926078200,2.319078125,7.463264465332031,6.121726036071777,4.4755473136901855
1772811950935778800,2.32877880859375,4.049803733825684,5.431273460388184,4.9604668617248535
1772811950945479400,2.3384794921875,0.9088802337646484,4.739408493041992,4.856298923492432
1772811950955180300,2.34818017578125,-1.3819341659545898,4.221367359161377,3.8340506553649902
1772811950964881000,2.357880859375,-2.8672571182250977,3.807046890258789,2.1022939682006836
1772811950974581500,2.36758154296875,-3.667727470397949,3.459031105041504,-0.00017213821411132812
1772811950984282000,2.3772822265625,-4.043564796447754,2.809691905975342,-1.9450130462646484
1772811950993982700,2.386982666015625,-4.299566745758057,2.1553657054901123,-3.5376784801483154
1772811951003683300,2.396683349609375,-4.444693565368652,1.5922267436981201,-4.945409774780273
1772811951013384000,2.406384033203125,-4.743709564208984,1.0463626384735107,-5.998331069946289
1772811951023084800,2.416084716796875,-5.153768062591553,0.5534014701843262,-6.68748664855957
1772811951032785400,2.425785400390625,-5.483893394470215,0.053040504455566406,-6.950292110443115
1772811951042486000,2.435486083984375,-5.92585563659668,-0.4618978500366211,-6.981313705444336
1772811951052186600,2.4451865234375,-6.479460716247559,-0.8414756059646606,-6.766989707946777
1772811951061887200,2.45488720703125,-7.190822124481201,-1.2153397798538208,-6.469496726989746
1772811951071588000,2.464588134765625,-7.916825771331787,-1.458484411239624,-6.345832824707031
1772811951081288700,2.474288818359375,-8.505763053894043,-1.55275297164917,-6.310849189758301
1772811951090989300,2.4839892578125,-9.034534454345703,-1.6366586685180664,-6.237303256988525
1772811951100690000,2.49368994140625,-9.445573806762695,-1.70493483543396,-6.141626358032227
1772811951110390500,2.503390625,-9.69205093383789,-1.693009614944458,-5.994665622711182
1772811951120091100,2.513091064453125,-9.913548469543457,-1.5974245071411133,-5.882699012756348
1772811951129791700,2.522791748046875,-10.042610168457031,-1.4657093286514282,-5.8121538162231445
1772811951139492400,2.532492431640625,-10.118476867675781,-1.3816097974777222,-5.701719284057617
1772811951149193200,2.542193115234375,-10.120841979980469,-1.3510582447052002,-5.5277838706970215
1772811951158893800,2.551893798828125,-10.014822959899902,-1.2911279201507568,-5.352718353271484
1772811951168594400,2.561594482421875,-9.734249114990234,-1.2697956562042236,-5.218987941741943
1772811951178295000,2.571294921875,-9.328968048095703,-1.2443374395370483,-5.124311923980713
1772811951187995600,2.58099560546875,-8.76842212677002,-1.2736999988555908,-4.945858478546143
1772811951197696300,2.5906962890625,-8.166229248046875,-1.389662265777588,-4.654134273529053
1772811951207396900,2.60039697265625,-7.441363334655762,-1.513667106628418,-4.258900165557861
1772811951217097700,2.61009765625,-6.552981376647949,-1.6317665576934814,-3.8552746772766113
1772811951226798300,2.61979833984375,-5.734112739562988,-1.7450342178344727,-3.4494974613189697
1772811951236499000,2.6294990234375,-5.014452934265137,-1.751948356628418,-3.0060720443725586
1772811951246199600,2.639199462890625,-4.280816555023193,-1.7947410345077515,-2.3595643043518066
1772811951255900200,2.648900146484375,-3.2419161796569824,-1.7728307247161865,-1.9239215850830078
1772811951265601000,2.65860107421875,-2.063136577606201,-1.5381548404693604,-1.5911507606506348
1772811951275301600,2.668301513671875,-1.354757308959961,-0.9239879250526428,-1.1326098442077637
1772811951285002200,2.678002197265625,-0.5696396827697754,-0.41969430446624756,0.25010108947753906
1772811951294702800,2.687702880859375,1.374743938446045,-0.1562567949295044,2.7118725776672363
1772811951304403500,2.697403564453125,6.404031276702881,1.3827074766159058,5.2504706382751465
1772811951314104000,2.70710400390625,13.234187126159668,3.4590225219726562,9.185248374938965
1772811951323804700,2.7168046875,18.80995750427246,4.279505729675293,15.742409706115723
1772811951333505300,2.72650537109375,23.639057159423828,1.9934964179992676,23.19048309326172
1772811951343206000,2.736205810546875,28.53057098388672,0.824655294418335,27.830141067504883
1772811951352906800,2.74590673828125,33.537872314453125,0.2277551293373108,29.582977294921875
1772811951362607400,2.755607421875,36.373863220214844,0.04142993688583374,26.954059600830078
1772811951372308000,2.765307861328125,37.28440475463867,0.6454201936721802,22.0804443359375
1772811951382008600,2.775008544921875,35.13785171508789,0.8095366954803467,16.722408294677734
1772811951391709200,2.784709228515625,30.304597854614258,0.8896647691726685,12.480620384216309
1772811951401409800,2.794409912109375,23.630233764648438,1.637957215309143,9.773113250732422
1772811951411110400,2.8041103515625,15.850299835205078,2.5987606048583984,8.893815994262695
1772811951420811300,2.813811279296875,7.616534233093262,2.7180678844451904,9.068967819213867
1772811951430511900,2.823511962890625,-0.7530899047851562,2.8177099227905273,8.400838851928711
1772811951440212500,2.83321240234375,-8.925085067749023,3.4743456840515137,4.613687038421631
1772811951449913000,2.8429130859375,-15.219791412353516,5.742758750915527,-0.7001399993896484
1772811951459613700,2.85261376953125,-18.86256980895996,7.901252746582031,-5.476607322692871
1772811951469314600,2.862314453125,-19.487499237060547,2.1744420528411865,-9.060352325439453
1772811951479015200,2.87201513671875,-13.075287818908691,-0.8636335134506226,-12.491167068481445
1772811951488715800,2.8817158203125,-7.479732990264893,-0.15730643272399902,-15.102592468261719
1772811951498416400,2.89141650390625,-2.2712063789367676,-2.117828369140625,-13.838068008422852
1772811951508117000,2.901116943359375,-0.2839221954345703,-2.9939231872558594,-11.400638580322266
1772811951517817600,2.910817626953125,0.01674652099609375,-3.227433204650879,-8.921600341796875
1772811951527518200,2.920518310546875,-2.4775352478027344,-4.383602142333984,-6.835222244262695
1772811951537218800,2.93021875,-5.203311920166016,-4.895467758178711,-5.142274856567383
1772811951546919400,2.93991943359375,-8.364986419677734,-4.86606502532959,-4.683838367462158
1772811951556620300,2.949620361328125,-11.314924240112305,-4.367203712463379,-5.247581481933594
1772811951566321000,2.95932080078125,-13.130727767944336,-3.405207633972168,-6.235382556915283
1772811951576021500,2.969021484375,-14.567131042480469,-2.459001064300537,-7.783483505249023
1772811951585722000,2.97872216796875,-14.838380813598633,-2.2943224906921387,-8.088773727416992
1772811951595422700,2.988422607421875,-14.694952964782715,-2.0726077556610107,-7.968648910522461
1772811951605123300,2.998123291015625,-13.726377487182617,-1.9752081632614136,-7.835805892944336
1772811951614824000,3.007823974609375,-11.930402755737305,-2.1437923908233643,-7.3867387771606445
1772811951624524500,3.017524658203125,-10.395895957946777,-2.373265027999878,-6.848790645599365
1772811951634225400,3.027225341796875,-8.970437049865723,-2.870306968688965,-6.267125129699707
1772811951643926000,3.036926025390625,-6.757407188415527,-3.308238983154297,-6.074506759643555
1772811951653626600,3.046626708984375,-6.114477157592773,-3.2501277923583984,-5.880366802215576
1772811951663327200,3.0563271484375,-5.569535732269287,-3.859342098236084,-5.67891263961792
1772811951673027800,3.06602783203125,-5.117124080657959,-4.087244033813477,-5.669583320617676
1772811951682728700,3.075728759765625,-4.774655342102051,-3.982130527496338,-5.70858907699585
1772811951692429300,3.08542919921875,-4.604182243347168,-3.9112112522125244,-5.639005661010742
1772811951702130000,3.0951298828125,-4.55366325378418,-3.8611698150634766,-5.463244438171387
1772811951711830500,3.10483056640625,-4.619894027709961,-3.8180041313171387,-5.1625471115112305
1772811951721531100,3.11453125,-4.707818984985352,-3.6595373153686523,-4.95101261138916
1772811951731231700,3.124231689453125,-4.690874099731445,-3.378014087677002,-4.74780797958374
1772811951740932400,3.133932373046875,-4.828574180603027,-3.183541774749756,-4.4886064529418945
1772811951750633200,3.14363330078125,-4.937569618225098,-2.9404704570770264,-4.292977333068848
1772811951760333800,3.153333740234375,-5.09397554397583,-2.6937167644500732,-4.132101058959961
1772811951770034400,3.163034423828125,-5.157216548919678,-2.4215400218963623,-3.9948556423187256
1772811951779735000,3.172735107421875,-5.190108299255371,-2.17185640335083,-3.8540897369384766
1772811951789435600,3.182435546875,-5.296908855438232,-2.0255815982818604,-3.5937044620513916
1772811951799136300,3.19213623046875,-5.16369104385376,-1.9380202293395996,-3.378671407699585
1772811951808836900,3.2018369140625,-5.100212574005127,-1.7172958850860596,-3.032053232192993
1772811951818537500,3.211537353515625,-4.931765079498291,-1.314042568206787,-2.5648820400238037
1772811951828238000,3.221238037109375,-4.59405517578125,-0.9276981353759766,-1.6313934326171875
1772811951837939000,3.23093896484375,-4.316631317138672,-0.5257501602172852,-0.31372785568237305
1772811951847639600,3.2406396484375,-3.991147518157959,0.43802952766418457,1.15073823928833
1772811951857340200,3.250340087890625,-3.296276092529297,1.9794888496398926,2.798483371734619
1772811951867040800,3.260040771484375,-1.5959782600402832,3.340057849884033,5.228382587432861
1772811951876741400,3.269741455078125,2.598954200744629,4.105701923370361,8.47836685180664
1772811951886442000,3.27944189453125,9.569753646850586,4.658654689788818,11.006072044372559
1772811951896142600,3.289142578125,17.718368530273438,3.533111810684204,12.749715805053711
1772811951905843200,3.29884326171875,25.981544494628906,-0.8836480379104614,15.25706672668457
1772811951915544000,3.3085439453125,32.458499908447266,-2.508713483810425,15.4490385055542
1772811951925244700,3.31824462890625,36.3463020324707,-1.3766809701919556,13.558138847351074
1772811951934945300,3.3279453125,36.389060974121094,-1.072532296180725,12.072525978088379
1772811951944646000,3.33764599609375,33.27809524536133,-0.2786398231983185,10.5314359664917
1772811951954346500,3.347346435546875,29.50792694091797,0.7384956479072571,8.840190887451172
1772811951964047000,3.357047119140625,25.146371841430664,1.384476661682129,7.23130464553833
1772811951973748000,3.366748046875,20.479087829589844,2.7666687965393066,4.976709365844727
1772811951983448600,3.376448486328125,16.268404006958008,4.371867656707764,2.3066606521606445
1772811951993149200,3.386149169921875,12.323324203491211,5.2064056396484375,-0.07554364204406738
1772811952002849800,3.395849853515625,8.25111198425293,5.811185836791992,-1.7787072658538818
1772811952012550400,3.40555029296875,3.759140968322754,5.989801406860352,-2.0356650352478027
1772811952022251000,3.4152509765625,-1.4526472091674805,5.842417240142822,-1.6311991214752197
1772811952031951600,3.42495166015625,-5.770580768585205,5.285431861877441,-1.242825984954834
1772811952041652500,3.434652587890625,-8.062572479248047,4.184182643890381,-1.661426305770874
1772811952051353000,3.44435302734375,-9.43087100982666,2.808638572692871,-2.8208768367767334
1772811952061053700,3.4540537109375,-10.364489555358887,1.8678923845291138,-4.321386814117432
1772811952070754300,3.46375439453125,-11.035003662109375,1.2445952892303467,-5.5066680908203125
1772811952080455000,3.473454833984375,-11.850791931152344,0.7216126918792725,-6.157732963562012
1772811952090155500,3.483155517578125,-12.638798713684082,0.4097508192062378,-6.425819396972656
1772811952099856100,3.492856201171875,-13.287336349487305,0.20075011253356934,-6.509988307952881
1772811952109556700,3.502556640625,-13.541133880615234,0.015003085136413574,-6.349565505981445
1772811952119257300,3.51225732421875,-13.574493408203125,-0.22987723350524902,-5.812543869018555
1772811952128958200,3.521958251953125,-13.366636276245117,-0.6864043474197388,-4.989602565765381
1772811952138658800,3.531658935546875,-12.830188751220703,-1.010021686553955,-4.336686134338379
1772811952148359400,3.541359375,-12.068159103393555,-1.2356752157211304,-3.8945465087890625
1772811952158060000,3.55106005859375,-11.280890464782715,-1.410771131515503,-3.7157788276672363
1772811952167760600,3.5607607421875,-10.582986831665039,-1.554194450378418,-3.647477626800537
1772811952177461200,3.570461181640625,-10.098860740661621,-1.5895004272460938,-3.696560859680176
1772811952187161900,3.580161865234375,-9.714396476745605,-1.6282049417495728,-3.7922637462615967
1772811952196862500,3.589862548828125,-9.367552757263184,-1.5898783206939697,-3.852295398712158
1772811952206563000,3.59956298828125,-9.035904884338379,-1.4560613632202148,-3.9206037521362305
1772811952216264000,3.609263916015625,-8.76338005065918,-1.3558743000030518,-3.8671762943267822
1772811952225964500,3.618964599609375,-8.61294174194336,-1.2758901119232178,-3.8113067150115967
1772811952235665200,3.6286650390625,-8.535154342651367,-1.154301643371582,-3.7315421104431152
1772811952245365800,3.63836572265625,-8.602073669433594,-1.0456857681274414,-3.5889909267425537
1772811952255066400,3.64806640625,-8.79211711883545,-1.0147372484207153,-3.38370943069458
1772811952264767000,3.65776708984375,-8.8060302734375,-0.9917665123939514,-2.9858031272888184
1772811952274467600,3.667467529296875,-8.802009582519531,-1.035588026046753,-2.36315655708313
1772811952284168400,3.67716845703125,-8.596728324890137,-1.047369360923767,-1.8343045711517334
1772811952293869000,3.686869140625,-8.185340881347656,-0.9688873291015625,-1.7567062377929688
1772811952303569700,3.696569580078125,-8.000288009643555,-0.7710708379745483,-1.8063874244689941
1772811952313270300,3.706270263671875,-7.861651420593262,-0.813630223274231,-1.8769316673278809
1772811952322971000,3.715970947265625,-7.7173614501953125,-0.8881452083587646,-1.9711980819702148
1772811952332671500,3.72567138671875,-7.504368305206299,-0.7435669898986816,-2.1668691635131836
1772811952342372000,3.7353720703125,-7.154458999633789,-0.603350818157196,-1.9196679592132568
1772811952352073000,3.745072998046875,-6.375843524932861,-0.6805527806282043,-1.3572864532470703
1772811952361773600,3.754773681640625,-5.100593566894531,-0.32261961698532104,-0.9385876655578613
1772811952371474200,3.76447412109375,-3.5654296875,0.256472647190094,-0.5687997341156006
1772811952381174800,3.7741748046875,-1.224654197692871,0.7044461369514465,-0.2568836212158203
1772811952390875400,3.78387548828125,2.0581512451171875,1.288257122039795,0.651677131652832
1772811952400576000,3.793575927734375,6.60109806060791,1.2825052738189697,2.9955835342407227
1772811952410276900,3.80327685546875,13.485469818115234,-0.0910205990076065,6.539550304412842
1772811952419977500,3.8129775390625,21.004209518432617,-1.6023060083389282,10.099233627319336
1772811952429678000,3.822677978515625,26.35737419128418,-2.7481813430786133,13.993047714233398
1772811952439378700,3.832378662109375,29.47759437561035,-5.95528507232666,18.521766662597656
1772811952449079300,3.842079345703125,29.31012725830078,-7.060304164886475,20.44549560546875
1772811952458780000,3.85177978515625,28.1911678314209,-5.659741401672363,19.36808967590332
1772811952468480500,3.86148046875,27.20598030090332,-4.800654888153076,16.335323333740234
1772811952478181000,3.87118115234375,27.46695327758789,-3.4483389854431152,12.075847625732422
1772811952487881700,3.8808818359375,28.519699096679688,-2.715104341506958,8.522541046142578
1772811952497582600,3.89058251953125,28.63806915283203,-2.731835126876831,6.477044582366943
1772811952507283200,3.900283203125,26.61865234375,-2.4897313117980957,5.846558570861816
1772811952516983800,3.90998388671875,22.660982131958008,-2.6365010738372803,6.746068000793457
1772811952526684400,3.919684326171875,16.9880428314209,-2.492192029953003,8.030008316040039
1772811952536385000,3.929385009765625,9.843636512756348,-1.7665514945983887,8.26313591003418
1772811952546085600,3.939085693359375,2.428691864013672,-0.42958128452301025,6.686172008514404
1772811952555786200,3.9487861328125,-4.14125394821167,1.0483306646347046,3.4664993286132812
1772811952565486800,3.95848681640625,-10.073150634765625,2.6039323806762695,-0.8845281600952148
1772811952575187500,3.9681875,-15.699027061462402,3.0417492389678955,-6.042288780212402
1772811952584888300,3.977888427734375,-19.39967918395996,3.453474521636963,-11.152294158935547
1772811952594589000,3.9875888671875,-21.057270050048828,2.366095781326294,-14.118646621704102
1772811952604289500,3.99728955078125,-20.7779541015625,0.32503658533096313,-13.312887191772461
1772811952613990100,4.006990234375,-14.85449504852295,-1.8847345113754272,-9.177675247192383
1772811952623690800,4.016690673828125,-6.435693740844727,-0.4214070439338684,-4.064333438873291
1772811952633391400,4.026391357421875,-0.9654960632324219,-1.7876657247543335,1.9103736877441406
1772811952643092000,4.036092041015625,1.6863889694213867,-1.8975443840026855,4.002963066101074
1772811952652792600,4.04579248046875,2.181624412536621,-0.3466053009033203,2.0979795455932617
1772811952662493200,4.0554931640625,0.6264915466308594,0.21484190225601196,-0.6709623336791992
1772811952672194000,4.065194091796875,-1.4574270248413086,0.08533234894275665,-2.0962984561920166
1772811952681894700,4.074894775390625,-2.2999801635742188,-0.12681658565998077,-2.013359546661377
1772811952691595300,4.08459521484375,-3.045093536376953,-0.9546781778335571,-0.4353656768798828
1772811952701295900,4.0942958984375,-4.0101470947265625,-1.3358991146087646,0.44724130630493164
1772811952710996500,4.10399658203125,-5.287789344787598,-1.236150860786438,-0.21034812927246094
1772811952720697000,4.113697021484375,-6.80036735534668,-0.8243811726570129,-1.859541654586792
1772811952730397700,4.123397705078125,-7.805212020874023,-0.2189742475748062,-3.7329063415527344
1772811952740098300,4.133098388671875,-8.436395645141602,0.18451929092407227,-5.021463871002197
1772811952749799000,4.142798828125,-8.662803649902344,0.3023377060890198,-5.462833404541016
1772811952759499800,4.152499755859375,-8.964973449707031,0.2085479497909546,-5.220341205596924
1772811952769200400,4.162200439453125,-9.446901321411133,0.24979618191719055,-4.691376209259033
1772811952778901000,4.17190087890625,-9.8746919631958,0.399844229221344,-4.508167266845703
1772811952788601600,4.1816015625,-10.325182914733887,0.4470168352127075,-4.509823799133301
1772811952798302200,4.19130224609375,-10.674818992614746,0.42578673362731934,-4.703526496887207
1772811952808002800,4.2010029296875,-10.955400466918945,0.3214270770549774,-4.859842300415039
1772811952817703400,4.210703369140625,-10.84701919555664,0.06855601072311401,-4.926219940185547
1772811952827404000,4.220404052734375,-10.32793140411377,-0.16788148880004883,-4.794041156768799
1772811952837104600,4.230104736328125,-9.512476921081543,-0.0631152093410492,-4.9225006103515625
1772811952846805500,4.239805419921875,-8.656839370727539,0.07480019330978394,-4.6295037269592285
1772811952856506000,4.249506103515625,-8.061260223388672,-0.09541907906532288,-4.121479034423828
1772811952866206700,4.259206787109375,-7.585976600646973,-0.2954496145248413,-3.7158396244049072
1772811952875907300,4.2689072265625,-7.280106544494629,-0.30263751745224,-3.284410238265991
1772811952885608000,4.27860791015625,-7.055362701416016,-0.172673761844635,-2.849905490875244
1772811952895308500,4.28830859375,-6.795499801635742,-0.05681978166103363,-2.61690616607666
1772811952905009200,4.298009033203125,-6.410494804382324,0.24619051814079285,-2.6422224044799805
1772811952914709800,4.307709716796875,-5.991182804107666,0.6264064311981201,-2.519784927368164
1772811952924410400,4.317410400390625,-5.554669380187988,0.7933375239372253,-2.315760850906372
1772811952934111200,4.327111328125,-4.927445411682129,0.7157838344573975,-1.874515175819397
1772811952943811800,4.336811767578125,-3.7533774375915527,0.8146934509277344,-1.2357819080352783
1772811952953512400,4.346512451171875,-1.7281131744384766,0.6994159817695618,-0.41780877113342285
1772811952963213000,4.356213134765625,0.013785362243652344,0.5946041345596313,0.7411298751831055
1772811952972913700,4.36591357421875,1.7943763732910156,0.5681831240653992,2.2952234745025635
1772811952982614300,4.3756142578125,3.805450439453125,0.6218857169151306,3.4711883068084717
1772811952992315000,4.38531494140625,5.514406204223633,1.3011841773986816,4.066335678100586
1772811953002015500,4.395015380859375,8.103194236755371,2.799823522567749,5.125716686248779
1772811953011716400,4.40471630859375,12.536260604858398,4.344542980194092,5.949244499206543
1772811953021417000,4.4144169921875,16.27798080444336,5.0648722648620605,5.956213474273682
1772811953031117600,4.42411767578125,19.861724853515625,5.2283501625061035,5.084342002868652
1772811953040818200,4.433818115234375,24.451316833496094,0.7212491035461426,7.318540573120117
1772811953050518800,4.443518798828125,28.549808502197266,-2.1930007934570312,7.680899620056152
1772811953060219400,4.453219482421875,32.169822692871094,-1.0693832635879517,5.572961807250977
1772811953069920000,4.462919921875,34.5595588684082,-3.18918514251709,5.271312236785889
1772811953079620600,4.47262060546875,34.43707275390625,-4.743870258331299,4.220353603363037
1772811953089321200,4.4823212890625,32.2916259765625,-3.4818010330200195,1.892967700958252
1772811953099022000,4.49202197265625,27.1044921875,-2.170097589492798,-0.21604008972644806
1772811953108722700,4.50172265625,20.48828125,-0.09353256225585938,-2.5058035850524902
1772811953118423300,4.51142333984375,14.452802658081055,2.276710033416748,-4.48164701461792
1772811953128124000,4.5211240234375,8.811680793762207,3.6936731338500977,-4.727185249328613
1772811953137824500,4.530824462890625,3.652684211730957,3.8714711666107178,-2.8855206966400146
1772811953147525000,4.540525146484375,-1.0553569793701172,3.2314400672912598,0.10629796981811523
1772811953157225700,4.550225830078125,-6.216397762298584,3.004031181335449,2.365324020385742
1772811953166926300,4.55992626953125,-11.22164535522461,3.19058895111084,3.6817522048950195
1772811953176627000,4.569626953125,-14.681343078613281,2.8605403900146484,4.178732872009277
1772811953186327800,4.579327880859375,-15.571215629577637,1.694119930267334,3.767134428024292
1772811953196028400,4.5890283203125,-14.150330543518066,0.9930901527404785,2.302229881286621
1772811953205729000,4.59872900390625,-12.050371170043945,0.18477630615234375,0.8145084381103516
1772811953215429600,4.6084296875,-10.311448097229004,-1.133223533630371,-0.2641987204551697
1772811953225130200,4.618130126953125,-8.77087116241455,-2.311220169067383,-1.1650974750518799
1772811953234830800,4.627830810546875,-7.951744556427002,-3.3024518489837646,-1.746687650680542
1772811953254232000,4.647232177734375,-7.86171817779541,-5.419253349304199,-1.9354069232940674
1772811953263932700,4.6569326171875,-8.554789543151855,-5.985820770263672,-1.7115492820739746
1772811953273633500,4.666633544921875,-9.377447128295898,-6.381202220916748,-1.539500117301941
1772811953283334100,4.676334228515625,-10.231914520263672,-6.600963592529297,-1.4378793239593506
1772811953293034800,4.68603466796875,-10.926275253295898,-6.598268985748291,-1.4723342657089233
1772811953302735400,4.6957353515625,-11.287836074829102,-6.463833808898926,-1.5148236751556396
1772811953312436000,4.70543603515625,-11.536873817443848,-6.253912925720215,-1.7564787864685059
1772811953322136600,4.715136474609375,-11.373783111572266,-6.0995965003967285,-1.953122854232788
1772811953331837200,4.724837158203125,-11.093305587768555,-6.00454044342041,-2.16933536529541
1772811953341537800,4.734537841796875,-10.534984588623047,-5.989595890045166,-2.155057668685913
1772811953351238400,4.74423828125,-9.98623275756836,-6.058393955230713,-1.8947330713272095
1772811953360939000,4.75393896484375,-9.384777069091797,-6.045164585113525,-1.6351327896118164
1772811953370640000,4.763639892578125,-8.766139030456543,-6.094569206237793,-1.2221401929855347
1772811953380340500,4.773340576171875,-8.49039077758789,-6.106579780578613,-0.7985711693763733
1772811953390041000,4.783041015625,-8.4234037399292,-6.082949638366699,-0.3437753915786743
1772811953399741700,4.79274169921875,-8.492587089538574,-5.961989879608154,-0.06693148612976074
1772811953409442300,4.8024423828125,-8.460901260375977,-5.663699150085449,-0.09357118606567383
1772811953419143000,4.812142822265625,-8.334251403808594,-5.335233211517334,-0.1564745306968689
1772811953428843500,4.821843505859375,-8.015266418457031,-5.305609226226807,-0.12716597318649292
1772811953438544100,4.831544189453125,-7.4937520027160645,-5.162392616271973,-0.14223593473434448
1772811953448244700,4.84124462890625,-6.631772994995117,-4.823124885559082,-0.0628630518913269
1772811953457945600,4.850945556640625,-5.713657379150391,-4.605255603790283,0.21319198608398438
1772811953467646200,4.860646240234375,-4.800223350524902,-4.155328273773193,0.5883296728134155
1772811953477346800,4.870346923828125,-3.513801097869873,-3.2110676765441895,0.9763198494911194
1772811953487047400,4.88004736328125,-1.7373390197753906,-2.142900228500366,1.3125065565109253
1772811953496748000,4.889748046875,1.1617927551269531,-1.2091364860534668,1.659466028213501
1772811953506448600,4.89944873046875,4.4800496101379395,0.45038938522338867,1.8960587978363037
1772811953516149200,4.909149169921875,7.60155725479126,3.1141881942749023,1.9203853607177734
1772811953525849900,4.918849853515625,10.572257995605469,5.562036514282227,2.7110748291015625
1772811953535550500,4.928550537109375,13.876131057739258,6.796456336975098,3.906871795654297
1772811953545251300,4.938251220703125,16.686925888061523,8.587167739868164,4.823409080505371
1772811953554952000,4.947951904296875,20.000770568847656,8.371585845947266,5.203522682189941
1772811953564652500,4.957652587890625,23.554718017578125,6.236590385437012,5.466770172119141
1772811953574353200,4.967353271484375,26.71973419189453,6.829561710357666,3.4680564403533936
1772811953584053800,4.9770537109375,29.713626861572266,6.890138626098633,2.339923143386841
1772811953593754400,4.98675439453125,31.402780532836914,7.123528003692627,2.0065107345581055
1772811953603455000,4.996455078125,31.109729766845703,8.09919548034668,1.0844159126281738
1772811953613155600,5.006155517578125,28.70271873474121,9.019327163696289,0.047534823417663574
1772811953622856400,5.0158564453125,23.57547378540039,9.825319290161133,-0.9019639492034912
1772811953632557000,5.02555712890625,17.853219985961914,10.381853103637695,-1.6793655157089233
1772811953642257700,5.035257568359375,13.03222942352295,10.435281753540039,-2.1429007053375244
1772811953651958300,5.044958251953125,8.942280769348145,9.11431884765625,-1.8799455165863037
1772811953661659000,5.054658935546875,4.869986057281494,6.680312633514404,-1.2750656604766846
1772811953671359500,5.064359375,-0.0016894340515136719,4.552860736846924,-0.7508358955383301
1772811953681060000,5.07406005859375,-4.503318786621094,2.5029726028442383,-0.8438577651977539
1772811953690760700,5.0837607421875,-7.552474498748779,0.4904317855834961,-1.2213387489318848
1772811953700461300,5.09346142578125,-9.930777549743652,-1.575608253479004,-1.8701368570327759
1772811953710162200,5.103162109375,-11.537677764892578,-3.597306251525879,-2.9564566612243652
1772811953719862800,5.11286279296875,-11.889058113098145,-5.656865119934082,-4.397866249084473
1772811953729563400,5.1225634765625,-11.208641052246094,-7.371209144592285,-5.680905342102051
1772811953739264000,5.132263916015625,-9.881385803222656,-8.590065956115723,-6.266576290130615
1772811953748964600,5.141964599609375,-8.987802505493164,-9.493785858154297,-6.2115912437438965
1772811953758665200,5.151665283203125,-8.573765754699707,-9.942047119140625,-5.726820945739746
1772811953768365800,5.16136572265625,-8.664590835571289,-9.951272010803223,-5.047216892242432
1772811953778066400,5.17106640625,-9.109467506408691,-9.685544967651367,-4.41446590423584
1772811953787767000,5.18076708984375,-9.617494583129883,-9.336467742919922,-3.7879648208618164
1772811953797467600,5.190467529296875,-10.322763442993164,-8.986165046691895,-3.2057228088378906
1772811953807168300,5.200168212890625,-10.807428359985352,-8.581795692443848,-2.524933338165283
1772811953816869000,5.209869140625,-10.947418212890625,-8.004961967468262,-1.9202957153320312
1772811953826569700,5.21956982421875,-10.712695121765137,-7.345244407653809,-1.4765419960021973
1772811953836270300,5.229270263671875,-10.102029800415039,-6.816866874694824,-1.0009032487869263
1772811953845971000,5.238970947265625,-9.34643268585205,-6.617928981781006,-0.5227813124656677
1772811953855671600,5.248671630859375,-8.49590015411377,-6.548548221588135,-0.18817543983459473
1772811953865372200,5.2583720703125,-7.620660781860352,-6.596485614776611,0.1149759292602539
1772811953875072800,5.26807275390625,-6.785513401031494,-6.7175726890563965,0.23269248008728027
1772811953884773400,5.2777734375,-5.911309242248535,-6.785150527954102,0.22321701049804688
1772811953894474000,5.287473876953125,-5.213851451873779,-6.7414350509643555,0.12192904949188232
1772811953904174600,5.297174560546875,-4.662941932678223,-6.68651819229126,0.1025094985961914
1772811953913875200,5.306875244140625,-4.27804708480835,-6.751065731048584,0.21414387226104736
1772811953923575800,5.316575927734375,-4.055242538452148,-6.795936107635498,0.3678196668624878
1772811953933276400,5.3262763671875,-3.9991583824157715,-6.7158894538879395,0.3859672546386719
1772811953942977300,5.335977294921875,-4.129363059997559,-6.570281028747559,0.15842854976654053
1772811953952678000,5.345677978515625,-4.462733268737793,-6.374176025390625,-0.15851044654846191
1772811953962378500,5.35537841796875,-4.977660179138184,-6.1567487716674805,-0.4844793677330017
1772811953972079000,5.3650791015625,-5.431221008300781,-5.999151706695557,-0.7020319104194641
1772811953981779700,5.37477978515625,-5.858297824859619,-5.76536226272583,-0.7033770084381104
1772811953991480300,5.384480224609375,-6.153129577636719,-5.618523120880127,-0.5324210524559021
1772811954001181000,5.394180908203125,-6.169744491577148,-5.482933044433594,-0.23848140239715576
1772811954010881500,5.403881591796875,-5.797283172607422,-5.467458248138428,0.2009091079235077
1772811954020582100,5.41358203125,-5.367147922515869,-5.5665130615234375,0.5932912826538086
1772811954030283000,5.423282958984375,-4.682549476623535,-5.211498737335205,0.8356550931930542
1772811954039983600,5.432983642578125,-3.9965925216674805,-4.4399871826171875,0.9061063528060913
1772811954049684200,5.442684326171875,-3.0364880561828613,-3.6024155616760254,1.1592590808868408
1772811954059384800,5.452384765625,-1.474003791809082,-2.6722517013549805,1.0283573865890503
1772811954069085400,5.46208544921875,1.6390609741210938,-1.102466106414795,0.4275665283203125
1772811954078786000,5.4717861328125,5.665078639984131,1.3382539749145508,-0.43025290966033936
1772811954088486700,5.481486572265625,8.74267292022705,4.737659454345703,-1.2643758058547974
1772811954098187300,5.491187255859375,11.068105697631836,8.112930297851562,-1.0232667922973633
1772811954107887900,5.500887939453125,12.143630981445312,10.982450485229492,-0.04758681356906891
1772811954117588700,5.510588623046875,11.666231155395508,9.925912857055664,2.7221627235412598
1772811954127289300,5.520289306640625,10.723526000976562,8.228569030761719,3.117199182510376
1772811954136990000,5.529989990234375,11.889507293701172,10.107770919799805,0.21732836961746216
1772811954146690600,5.539690673828125,15.23521614074707,10.175283432006836,-1.8966021537780762
1772811954156391200,5.54939111328125,19.266407012939453,10.141325950622559,-3.8442542552948
1772811954166091800,5.559091796875,22.94832992553711,10.407393455505371,-5.535040378570557
1772811954175792400,5.56879248046875,24.69228744506836,11.155229568481445,-6.359473705291748
1772811954185493000,5.578492919921875,23.75540542602539,11.29387092590332,-5.391926288604736
1772811954195193600,5.588193603515625,20.910619735717773,11.198970794677734,-2.7573018074035645
1772811954204894200,5.597894287109375,17.154556274414062,11.201658248901367,-0.2625546455383301
1772811954214594800,5.6075947265625,12.39671516418457,11.194367408752441,2.0100221633911133
1772811954224295400,5.61729541015625,7.411064147949219,10.689053535461426,3.938103675842285
1772811954233996300,5.626996337890625,3.2353439331054688,9.385278701782227,4.9720458984375
1772811954243697000,5.63669677734375,0.4012022018432617,7.625227451324463,4.717017650604248
1772811954253397500,5.6463974609375,-1.3436121940612793,5.687229156494141,3.5893383026123047
1772811954263098000,5.65609814453125,-2.728274345397949,3.666971206665039,1.8810287714004517
1772811954272798700,5.665798828125,-3.9020986557006836,1.904858112335205,0.308211088180542
1772811954282499300,5.675499267578125,-4.810847282409668,0.265810489654541,-0.8542050123214722
1772811954292200000,5.685199951171875,-5.448169231414795,-1.2379918098449707,-1.6993474960327148
1772811954301900500,5.694900634765625,-6.143214225769043,-2.4853098392486572,-2.0832157135009766
1772811954311601200,5.70460107421875,-7.347385883331299,-3.7810237407684326,-2.312140464782715
1772811954321301800,5.7143017578125,-8.269076347351074,-4.327991008758545,-2.098957061767578
1772811954331002400,5.72400244140625,-8.87563419342041,-4.187873363494873,-1.6519017219543457
1772811954340703000,5.733702880859375,-9.646114349365234,-4.862300395965576,-1.2413313388824463
1772811954350403800,5.74340380859375,-10.480276107788086,-5.717060089111328,-0.07744871824979782
1772811954360104400,5.7531044921875,-11.138630867004395,-5.60140323638916,1.2550463676452637
1772811954369805000,5.76280517578125,-11.635223388671875,-5.095211982727051,2.369419574737549
1772811954379505700,5.772505615234375,-11.724427223205566,-4.549816608428955,2.7694807052612305
1772811954389206300,5.782206298828125,-11.946089744567871,-4.048837661743164,2.715054988861084
1772811954398907000,5.791906982421875,-12.053998947143555,-3.599189281463623,2.0748820304870605
1772811954408607500,5.801607421875,-11.964941024780273,-3.5438899993896484,1.2960489988327026
1772811954418308000,5.81130810546875,-11.845877647399902,-3.454794406890869,1.4501279592514038
1772811954428008700,5.8210087890625,-11.385839462280273,-3.3957676887512207,1.7043994665145874
1772811954437709600,5.83070947265625,-10.559816360473633,-3.511503219604492,1.557823657989502
1772811954447410200,5.84041015625,-9.576343536376953,-3.7716786861419678,1.645789384841919
1772811954457110800,5.85011083984375,-9.061062812805176,-4.041201114654541,1.801125168800354
1772811954466811400,5.859811279296875,-8.710482597351074,-4.274835586547852,1.9190261363983154
1772811954476512000,5.869511962890625,-8.448362350463867,-4.1609930992126465,1.9429116249084473
1772811954486212600,5.879212646484375,-8.20136547088623,-4.299496173858643,1.7511383295059204
1772811954495913200,5.888913330078125,-8.247795104980469,-4.5893473625183105,1.268617868423462
1772811954505613800,5.89861376953125,-8.270889282226562,-4.916110992431641,0.6999130249023438
1772811954515314400,5.908314453125,-8.508092880249023,-5.030442714691162,0.4116184711456299
1772811954525015000,5.91801513671875,-8.82959270477295,-5.0200018882751465,0.2829153537750244
1772811954534715600,5.927715576171875,-8.57695484161377,-4.965024471282959,0.3293331265449524
1772811954544416300,5.937416259765625,-7.909346103668213,-4.8519110679626465,0.028817296028137207
1772811954554116900,5.947116943359375,-6.814192771911621,-4.496091365814209,-0.35048431158065796
1772811954563817500,5.9568173828125,-5.163415431976318,-3.9081108570098877,-0.6256203651428223
1772811954573518000,5.96651806640625,-3.0175676345825195,-2.721137762069702,-1.1201598644256592
1772811954583219000,5.976218994140625,-0.6711897850036621,-0.7937803268432617,-1.9832184314727783
1772811954592919600,5.98591943359375,2.034672737121582,2.076693058013916,-3.008110284805298
1772811954602620200,5.9956201171875,6.065570831298828,5.010903358459473,-3.3930180072784424
1772811954612320800,6.00532080078125,11.021121978759766,7.489117622375488,-2.9196085929870605
1772811954622021400,6.015021484375,16.571762084960938,10.429231643676758,-1.2903616428375244
1772811954631722000,6.024721923828125,21.67354393005371,11.85161304473877,2.5578856468200684
1772811954641422600,6.034422607421875,26.001678466796875,11.08381175994873,7.188936710357666
1772811954651123200,6.044123291015625,29.674236297607422,10.558572769165039,9.985042572021484
1772811954660823800,6.05382373046875,32.708499908447266,9.809675216674805,10.736682891845703
1772811954670524700,6.063524658203125,34.748870849609375,9.141908645629883,8.967060089111328
1772811954680225300,6.073225341796875,36.121681213378906,9.144277572631836,5.171514987945557
1772811954689926000,6.08292578125,35.99398422241211,9.511772155761719,1.5206921100616455
1772811954699626500,6.09262646484375,34.70072937011719,9.921399116516113,-0.7082234621047974
1772811954709327000,6.1023271484375,32.12917709350586,9.941429138183594,-1.6822391748428345
1772811954719027700,6.11202783203125,28.21076202392578,8.953418731689453,-1.7390800714492798
1772811954728728300,6.121728271484375,23.26791000366211,7.54586935043335,-1.4772804975509644
1772811954738429000,6.131428955078125,17.721641540527344,6.142136096954346,-0.07801473140716553
1772811954748129500,6.141129638671875,11.431859970092773,4.681118488311768,0.9058109521865845
1772811954757830100,6.150830078125,5.006588935852051,2.8503284454345703,1.9270440340042114
1772811954767530800,6.16053076171875,-0.34459972381591797,1.1694426536560059,1.9593439102172852
1772811954777231400,6.1702314453125,-5.1018195152282715,-0.4734668731689453,1.0514986515045166
1772811954786932000,6.179931884765625,-8.248835563659668,-2.1275863647460938,0.32478052377700806
1772811954796632600,6.189632568359375,-10.666792869567871,-3.7341015338897705,-0.15292386710643768
1772811954806333200,6.199333251953125,-12.264001846313477,-5.512768268585205,-0.3539735674858093
1772811954816034000,6.209033935546875,-12.878192901611328,-7.7879180908203125,-0.09238582104444504
1772811954825734700,6.218734619140625,-13.207401275634766,-10.081977844238281,0.3947577476501465
1772811954835435300,6.228435302734375,-11.894763946533203,-11.31357192993164,0.5540211200714111
1772811954845136000,6.238135986328125,-12.291986465454102,-11.886861801147461,-0.2588028907775879
1772811954854836500,6.24783642578125,-12.415205001831055,-12.227142333984375,-0.787718653678894
1772811954864537000,6.257537109375,-13.050304412841797,-11.718364715576172,-1.217235803604126
1772811954874237700,6.26723779296875,-13.85190200805664,-10.908246994018555,-1.4927349090576172
1772811954883938300,6.276938232421875,-14.255451202392578,-10.314140319824219,-1.4241511821746826
1772811954893639000,6.286638916015625,-14.327831268310547,-9.798476219177246,-1.1348814964294434
1772811954903339800,6.29633984375,-13.875378608703613,-9.388595581054688,-0.459730863571167
1772811954913040400,6.306040283203125,-12.394851684570312,-8.728757858276367,0.39833974838256836
1772811954922741000,6.315740966796875,-12.072820663452148,-8.048999786376953,0.11414361000061035
1772811954932441600,6.325441650390625,-11.01948070526123,-8.258844375610352,0.3892018795013428
1772811954942142200,6.33514208984375,-10.08970832824707,-8.367767333984375,0.5249506235122681
1772811954951842800,6.3448427734375,-9.414618492126465,-8.426937103271484,0.4952084422111511
1772811954961543400,6.35454345703125,-8.453798294067383,-8.64510440826416,0.5961369276046753
1772811954971244000,6.364244140625,-8.188706398010254,-8.974714279174805,0.9443861246109009
1772811954980944600,6.373944580078125,-8.036077499389648,-8.59708309173584,0.863153874874115
1772811954990645200,6.383645263671875,-7.892006874084473,-8.073196411132812,0.8113745450973511
1772811955000345900,6.393345947265625,-8.192511558532715,-7.829329490661621,0.7099114656448364
1772811955010046500,6.40304638671875,-8.400999069213867,-7.479334831237793,0.4918102025985718
1772811955019747000,6.4127470703125,-8.400406837463379,-7.041029453277588,0.3662418723106384
1772811955029447700,6.42244775390625,-8.296180725097656,-6.802859306335449,0.4239823818206787
1772811955039148300,6.432148193359375,-8.037866592407227,-6.690459728240967,0.5800479650497437
1772811955048849200,6.44184912109375,-7.529262542724609,-6.591150760650635,0.6945196390151978
1772811955058549800,6.4515498046875,-7.085139751434326,-6.562642574310303,0.6239007115364075
1772811955068250400,6.46125048828125,-6.559828758239746,-6.5536580085754395,0.6669681072235107
1772811955077951000,6.470950927734375,-5.860281944274902,-6.406652450561523,0.7515937089920044
1772811955087651600,6.480651611328125,-5.255931377410889,-6.134736061096191,0.7426783442497253
1772811955097352200,6.490352294921875,-4.781856536865234,-5.75888729095459,0.7508999705314636
1772811955107052800,6.500052734375,-4.473549842834473,-5.350686073303223,0.803695559501648
1772811955116753400,6.50975341796875,-4.524547576904297,-4.976726531982422,0.9256688356399536
1772811955126454000,6.5194541015625,-4.621358871459961,-4.5644989013671875,1.0348553657531738
1772811955136154600,6.529154541015625,-4.437795639038086,-3.898716688156128,0.9179576635360718
1772811955145855200,6.538855224609375,-4.134561061859131,-2.614626884460449,0.29334592819213867
1772811955155555800,6.548555908203125,-3.5421552658081055,-0.6504631042480469,-1.0683207511901855
1772811955165256400,6.55825634765625,-2.137403964996338,1.7767515182495117,-2.7709624767303467
1772811955174957000,6.56795703125,0.5427193641662598,3.8269715309143066,-3.933497428894043
1772811955184657700,6.57765771484375,4.2484822273254395,5.56059455871582,-4.187051773071289
1772811955194358500,6.587358642578125,9.467168807983398,7.757214069366455,-3.6839475631713867
1772811955204059100,6.59705908203125,15.507007598876953,10.78128433227539,-3.0816221237182617
1772811955213759700,6.606759765625,20.281688690185547,13.25067138671875,-2.0760550498962402
1772811955223460400,6.61646044921875,23.40345573425293,12.061866760253906,1.4842147827148438
1772811955233161000,6.626160888671875,25.029354095458984,9.456586837768555,4.933248043060303
1772811955242861600,6.635861572265625,26.637439727783203,8.378137588500977,5.795747756958008
1772811955252562200,6.645562255859375,27.737300872802734,7.992153644561768,6.191473960876465
1772811955262262800,6.6552626953125,28.38245391845703,8.724821090698242,6.655726432800293
1772811955271963400,6.66496337890625,28.179126739501953,9.801379203796387,6.6492486000061035
1772811955281664300,6.674664306640625,26.83154296875,10.629079818725586,5.543279647827148
1772811955291364900,6.68436474609375,24.717920303344727,10.69791030883789,3.5768439769744873
1772811955301065500,6.6940654296875,22.206127166748047,10.560723304748535,1.8208811283111572
1772811955310766000,6.70376611328125,19.286340713500977,10.327096939086914,0.7254847288131714
1772811955320466700,6.713466796875,15.634282112121582,9.415382385253906,0.4911835491657257
1772811955330167300,6.723167236328125,11.621537208557129,7.710629940032959,0.587449312210083
1772811955339868000,6.732867919921875,7.559832572937012,5.591312408447266,0.6954345107078552
1772811955349568500,6.742568603515625,3.2279891967773438,3.4869236946105957,0.8009515404701233
1772811955359269000,6.75226904296875,-0.9184331893920898,1.4006147384643555,0.9262580871582031
1772811955368969700,6.7619697265625,-4.5824785232543945,-0.4561648368835449,1.1118910312652588
1772811955378670300,6.77167041015625,-7.897593975067139,-2.109463691711426,1.1358613967895508
1772811955388371000,6.781370849609375,-10.432398796081543,-3.3350417613983154,0.7636297941207886
1772811955398071600,6.791071533203125,-11.990437507629395,-4.212486743927002,0.0969928503036499
1772811955407772200,6.800772216796875,-12.662214279174805,-4.966954231262207,-0.6555888652801514
1772811955417472800,6.81047265625,-12.662796020507812,-5.859228134155273,-1.0726194381713867
1772811955427173600,6.820173583984375,-12.339204788208008,-6.726317405700684,-1.0855660438537598
1772811955436874200,6.829874267578125,-11.984512329101562,-7.220592975616455,-0.8737273216247559
1772811955446574800,6.839574951171875,-11.50885009765625,-7.430922031402588,-0.760148286819458
1772811955456275500,6.849275390625,-11.305282592773438,-7.460597991943359,-0.5623341798782349
1772811955465976000,6.85897607421875,-11.374940872192383,-7.408332347869873,-0.5245111584663391
1772811955475676700,6.8686767578125,-11.532726287841797,-7.36266565322876,-0.6222833395004272
1772811955485377300,6.878377197265625,-11.757894515991211,-7.429211616516113,-1.0380895137786865
1772811955495078000,6.888077880859375,-12.059320449829102,-7.223975658416748,-1.1284282207489014
1772811955504778500,6.897778564453125,-12.299600601196289,-7.071065902709961,-1.0265332460403442
1772811955514479000,6.90747900390625,-12.290303230285645,-6.814757347106934,-0.9124512076377869
1772811955524179700,6.9171796875,-12.229331970214844,-6.451454162597656,-0.8280551433563232
1772811955533880300,6.92688037109375,-12.152069091796875,-6.350090980529785,-0.5635560154914856
1772811955543581000,6.936580810546875,-12.089787483215332,-6.2957444190979,-0.3263768255710602
1772811955553281500,6.946281494140625,-11.899374008178711,-6.39784574508667,-0.14123636484146118
1772811955562982100,6.955982177734375,-11.656830787658691,-6.751639366149902,-0.03669220209121704
1772811955572683000,6.96568310546875,-11.451497077941895,-6.953591823577881,-0.004655301570892334
1772811955582383600,6.975383544921875,-11.28664779663086,-7.069517135620117,0.11905401945114136
1772811955592084200,6.985084228515625,-11.159032821655273,-7.138298511505127,0.42877131700515747
1772811955601784800,6.994784912109375,-10.96791934967041,-7.01188850402832,0.636612057685852
1772811955611485400,7.0044853515625,-10.54927921295166,-6.716297149658203,0.6042852401733398
1772811955621186000,7.01418603515625,-10.088496208190918,-6.161238670349121,0.29683393239974976
1772811955630886700,7.02388671875,-9.481461524963379,-5.582673072814941,-0.012066155672073364
1772811955640587300,7.033587158203125,-8.556900024414062,-5.388018608093262,-0.1053033173084259
1772811955650287900,7.043287841796875,-7.158342361450195,-5.006694793701172,-0.1349736750125885
1772811955669689000,7.062689208984375,-2.9192676544189453,-3.976959228515625,-1.2945146560668945
1772811955679389700,7.0723896484375,-1.3951387405395508,-2.8495984077453613,-2.655203342437744
1772811955689090300,7.08209033203125,-0.023945331573486328,-0.9525928497314453,-4.202814102172852
1772811955698791000,7.091791015625,1.8803353309631348,1.2716264724731445,-4.605875015258789
1772811955708491500,7.101491455078125,5.285342693328857,3.1987977027893066,-3.456562042236328
1772811955718192400,7.1111923828125,10.69656753540039,4.295283794403076,-0.7932921051979065
1772811955727893000,7.12089306640625,17.589277267456055,5.769859790802002,2.5833754539489746
1772811955737593600,7.130593505859375,24.61856460571289,7.171083450317383,7.242494106292725
1772811955747294200,7.140294189453125,29.658447265625,7.187863349914551,11.494136810302734
1772811955756994800,7.149994873046875,32.09780502319336,7.811004638671875,12.250800132751465
1772811955766695400,7.1596953125,32.40433883666992,8.932647705078125,10.459022521972656
1772811955776396000,7.16939599609375,31.250558853149414,9.921442985534668,8.445396423339844
1772811955786096600,7.1790966796875,30.30867576599121,11.766792297363281,6.189134120941162
1772811955795797200,7.18879736328125,29.53615951538086,13.60767936706543,3.7639594078063965
1772811955805497900,7.198497802734375,29.088790893554688,14.357101440429688,2.125795841217041
1772811955815198500,7.208198486328125,28.58027458190918,13.806573867797852,1.0098762512207031
1772811955824899000,7.217899169921875,27.485687255859375,11.904712677001953,0.6378461122512817
1772811955834599700,7.227599609375,25.25893783569336,8.566917419433594,1.5170435905456543
1772811955844300300,7.23730029296875,21.623628616333008,5.227865695953369,3.106187105178833
1772811955854001000,7.2470009765625,16.248592376708984,2.4828643798828125,4.042068004608154
1772811955863701800,7.25670166015625,10.431467056274414,0.7193007469177246,3.9127535820007324
1772811955873402400,7.26640234375,5.177173614501953,-0.3097691535949707,3.546051025390625
1772811955883103000,7.27610302734375,1.1435976028442383,-0.7203059196472168,1.940242052078247
1772811955892803600,7.285803466796875,-2.063568115234375,-1.6284897327423096,-1.269773006439209
1772811955902504200,7.295504150390625,-5.4795098304748535,-2.2081220149993896,-5.06973934173584
1772811955912204800,7.305204833984375,-9.251927375793457,-3.2488749027252197,-6.663719177246094
1772811955921905400,7.314905517578125,-12.577722549438477,-3.1126155853271484,-5.673064708709717
1772811955931606000,7.32460595703125,-14.700403213500977,-3.4700303077697754,-4.077031135559082
1772811955941306600,7.334306640625,-15.361706733703613,-3.9655380249023438,-3.5251271724700928
1772811955951007200,7.34400732421875,-14.755130767822266,-5.06552267074585,-2.8234519958496094
1772811955960707800,7.353707763671875,-15.112273216247559,-6.085203170776367,-1.589184284210205
1772811955970408400,7.363408447265625,-16.026363372802734,-6.490160942077637,-1.504281759262085
1772811955980109000,7.373109130859375,-16.755943298339844,-6.1486029624938965,-2.2777137756347656
1772811955989809700,7.3828095703125,-17.343158721923828,-5.646699905395508,-2.7174808979034424
1772811955999510300,7.39251025390625,-17.27679443359375,-5.583409786224365,-2.2042479515075684
1772811956009211100,7.402211181640625,-15.883451461791992,-5.923447608947754,-1.790198802947998
1772811956018911700,7.411911865234375,-13.801959991455078,-6.480900764465332,-1.260931134223938
1772811956028612400,7.4216123046875,-11.329146385192871,-6.89423942565918,-0.8408145308494568
1772811956038313000,7.43131298828125,-8.862858772277832,-6.934040546417236,-0.43809017539024353
1772811956048013600,7.441013671875,-6.588506698608398,-6.938811302185059,0.1637052297592163
1772811956057714200,7.450714111328125,-4.897899627685547,-6.5882039070129395,0.5933621525764465
1772811956067414800,7.460414794921875,-4.199803352355957,-6.138911247253418,0.7986092567443848
1772811956077115400,7.470115478515625,-4.282820224761963,-5.707869052886963,1.082948923110962
1772811956086816000,7.47981591796875,-5.29367733001709,-5.312178134918213,1.3923637866973877
1772811956096516600,7.4895166015625,-6.349308967590332,-4.991879940032959,1.1506569385528564
1772811956106217200,7.49921728515625,-7.408289909362793,-4.942688941955566,0.862934947013855
1772811956115917800,7.508917724609375,-8.268111228942871,-5.022714614868164,0.6120986938476562
1772811956125618400,7.518618408203125,-8.64670467376709,-5.199594020843506,0.4267420768737793
1772811956135319000,7.528319091796875,-8.561299324035645,-5.4440741539001465,0.2569057047367096
1772811956145019600,7.53801953125,-7.995121955871582,-5.654329299926758,0.002054557204246521
1772811956154720300,7.54772021484375,-7.235895156860352,-5.824455261230469,-0.17174795269966125
1772811956164420900,7.5574208984375,-6.640103816986084,-5.723016738891602,-0.34265127778053284
1772811956174121500,7.56712158203125,-6.585610389709473,-5.330855846405029,-0.35029223561286926
1772811956183822000,7.576822021484375,-6.889498233795166,-4.835642337799072,-0.300358384847641
1772811956193522700,7.586522705078125,-7.265873908996582,-4.3773698806762695,-0.3428654372692108
1772811956203223300,7.596223388671875,-7.176426410675049,-4.017652988433838,-0.6159780025482178
1772811956212924000,7.605923828125,-6.408271312713623,-3.8039474487304688,-0.8551893830299377
1772811956222624800,7.615624755859375,-4.830224990844727,-3.913823366165161,-0.7647562623023987
1772811956232325400,7.625325439453125,-2.9710798263549805,-3.38637113571167,-0.8993618488311768
1772811956242026000,7.63502587890625,-0.8916850090026855,-1.4849491119384766,-1.2635349035263062
1772811956251726600,7.6447265625,1.7915825843811035,0.6372923851013184,-1.3491790294647217
1772811956261427200,7.65442724609375,4.748222351074219,1.9850797653198242,-1.060180425643921
1772811956271127800,7.6641279296875,6.965702533721924,3.0792055130004883,-0.5748859643936157
1772811956280828400,7.673828369140625,9.25993537902832,3.74483060836792,0.8250982761383057
1772811956290529000,7.683529052734375,11.485431671142578,4.325216770172119,2.3741071224212646
1772811956300229600,7.693229736328125,13.33570671081543,6.927112579345703,2.6062285900115967
1772811956309930200,7.70293017578125,13.316588401794434,9.612018585205078,1.6410975456237793
1772811956319630800,7.712630859375,10.252641677856445,11.176290512084961,0.06404733657836914
1772811956329331500,7.72233154296875,6.052065372467041,10.88800048828125,-1.055769443511963
1772811956339032000,7.732031982421875,2.4459304809570312,7.879297733306885,-0.003366142511367798
1772811956348732700,7.741732666015625,0.609377384185791,4.097725868225098,2.2378618717193604
1772811956358433300,7.751433349609375,2.0820722579956055,2.6202969551086426,3.5217628479003906
1772811956368134100,7.761134033203125,6.072297096252441,2.3775734901428223,2.998250961303711
1772811956377834800,7.770834716796875,9.556769371032715,2.745166778564453,1.2685291767120361
1772811956387535400,7.780535400390625,10.6739501953125,3.4667649269104004,0.22267967462539673
1772811956397236000,7.790236083984375,9.801862716674805,3.866255760192871,0.13548755645751953
1772811956406936600,7.7999365234375,8.498278617858887,4.66221284866333,-0.12488627433776855
1772811956416637200,7.80963720703125,7.295319557189941,5.1818132400512695,-0.9187116026878357
1772811956426337800,7.819337890625,6.490963935852051,5.097188472747803,-1.3170859813690186
1772811956436038400,7.829038330078125,6.28245735168457,4.694523334503174,-1.1845054626464844
1772811956445739000,7.838739013671875,5.926597595214844,4.241358757019043,-0.9689573645591736
1772811956455439600,7.848439697265625,5.164633750915527,3.533051013946533,-1.0536350011825562
1772811956465140200,7.85814013671875,4.181948661804199,2.791968822479248,-1.2324788570404053
1772811956474840800,7.8678408203125,2.904168128967285,2.002392292022705,-1.106156587600708
1772811956484541400,7.87754150390625,1.4554767608642578,1.2705225944519043,-0.7842532396316528
1772811956494242000,7.887241943359375,0.16367244720458984,0.6635351181030273,-0.5136129856109619
1772811956503942700,7.896942626953125,-1.1521549224853516,0.1014561653137207,-0.21384263038635254
1772811956513643300,7.906643310546875,-2.4323549270629883,-0.5288538932800293,0.18611189723014832
1772811956523344000,7.91634375,-3.4358091354370117,-1.0322470664978027,0.15510350465774536
1772811956533044500,7.92604443359375,-4.225412845611572,-1.5079302787780762,-0.11857664585113525
1772811956542745000,7.9357451171875,-4.762840747833252,-1.9186968803405762,-0.4200991988182068
1772811956552445700,7.94544580078125,-4.945544719696045,-2.372328281402588,-0.6478374600410461
1772811956562146300,7.955146240234375,-4.900514602661133,-2.72800350189209,-0.7944830656051636
1772811956571847200,7.96484716796875,-4.838953971862793,-2.9707024097442627,-0.852066159248352
1772811956581547800,7.9745478515625,-4.706391334533691,-3.14164662361145,-0.7485224604606628
1772811956591248400,7.984248291015625,-4.612650394439697,-3.1385741233825684,-0.5931405425071716
1772811956600949000,7.993948974609375,-4.530513286590576,-2.946937084197998,-0.3223888874053955
1772811956610649600,8.003649658203125,-4.4314727783203125,-2.6400065422058105,-0.2936660647392273
1772811956620350200,8.01335009765625,-4.42427921295166,-2.201425790786743,-0.5399507880210876
1772811956630050800,8.02305078125,-4.33282470703125,-2.0923550128936768,-0.39694875478744507
1772811956639751400,8.03275146484375,-4.780879020690918,-1.75327730178833,-0.36056840419769287
1772811956649452000,8.0424521484375,-4.4215006828308105,-1.3927736282348633,-0.7033724188804626
1772811956659152600,8.052152587890625,-3.8229236602783203,-1.1473660469055176,-1.0031465291976929
1772811956668853200,8.061853271484376,-2.6829895973205566,-0.9146971702575684,-1.1615068912506104
1772811956678553900,8.071553955078125,-1.3656048774719238,-0.7645602226257324,-1.2387042045593262
1772811956688254500,8.08125439453125,0.12335920333862305,-0.852607250213623,-1.293503999710083
1772811956697955000,8.090955078125,1.6091513633728027,-1.2317657470703125,-1.4342050552368164
