time,seconds_elapsed,z,y,x
1772810159142038300,0.105038330078125,0.0308486707508564,0.027107125148177147,-0.00511599238961935
1772810159161439000,0.12443896484375,0.019853105768561363,0.026419902220368385,-0.03107774630188942
1772810159171139000,0.13413916015625,0.013744457624852657,0.03405570983886719,-0.023136503994464874
1772810159180839400,0.14383935546875,0.014660755172371864,0.04932733252644539,-0.0017562361899763346
1772810159190539800,0.153539794921875,0.01740964688360691,0.05971203371882439,0.03000873140990734
1772810159200239900,0.163239990234375,0.019853105768561363,0.06246092543005943,0.054443322122097015
1772810159209940200,0.172940185546875,0.0256563201546669,0.05238165333867073,0.07399099320173264
1772810159219640600,0.182640625,0.032681263983249664,0.030085090547800064,0.08498656004667282
1772810159229340700,0.192340576171875,0.035124726593494415,0.014508038759231567,0.08223766833543777
1772810159239041000,0.202041015625,0.0360410213470459,0.018173227086663246,0.06757691502571106
1772810159248741400,0.211741455078125,0.04001164436340332,0.017867794260382652,0.04405862092971802
1772810159258441700,0.221441650390625,0.04428769648075104,0.010842849500477314,0.017486004158854485
1772810159268141800,0.231141845703125,0.04214967042207718,0.013897174037992954,-0.0023671009112149477
1772810159277842200,0.24084228515625,0.032070402055978775,0.033139415085315704,-0.01030834298580885
1772810159287542500,0.25054248046875,0.01802051067352295,0.05329795181751251,-0.01000291109085083
1772810159297243000,0.260242919921875,0.007024944759905338,0.05757400393486023,-0.008170315995812416
1772810159306943000,0.26994287109375,0.006719512399286032,0.05238165333867073,0.0009926552884280682
1772810159316643300,0.279643310546875,0.012522728182375431,0.03130681812763214,0.013820815831422806
1772810159326343400,0.289343505859375,0.015577051788568497,-0.0019853105768561363,0.024205517023801804
1772810159336043800,0.299043701171875,0.018631376326084137,-0.026343543082475662,0.028176138177514076
1772810159345744100,0.308744140625,0.02871064469218254,-0.03764454275369644,0.02237292192876339
1772810159355444200,0.3184443359375,0.03848448023200035,-0.043142326176166534,0.005268708802759647
1772810159365144600,0.32814453125,0.03940077871084213,-0.03520108386874199,-0.0191658828407526
1772810159374845000,0.337844970703125,0.032681263983249664,-0.018784092739224434,-0.04298960790038109
1772810159384545300,0.347545166015625,0.023518294095993042,-0.0010690133785828948,-0.06406444311141968
1772810159394245400,0.357245361328125,0.015271619893610477,0.01908952370285988,-0.07628174126148224
1772810159403945700,0.36694580078125,0.010995565913617611,0.021838415414094925,-0.0781143307685852
1772810159413646000,0.37664599609375,0.011300998739898205,0.004734201822429895,-0.07414371520280838
1772810159423346200,0.38634619140625,0.014660755172371864,-0.004734201822429895,-0.06620246917009354
1772810159433046500,0.396046630859375,0.020769402384757996,-0.008628465235233307,-0.0524580143392086
1772810159442747000,0.405746826171875,0.029626941308379173,-0.02542724646627903,-0.0423787422478199
1772810159452447000,0.415447021484375,0.039706211537122726,-0.047723811119794846,-0.04085158184170723
1772810159462147300,0.425147216796875,0.049480047076940536,-0.061162836849689484,-0.048792824149131775
1772810159471847700,0.43484765625,0.056199558079242706,-0.06330086290836334,-0.06650790572166443
1772810159481547800,0.4445478515625,0.05864302068948746,-0.060933761298656464,-0.08697187155485153
1772810159491248000,0.454248046875,0.05742128938436508,-0.051389001309871674,-0.10682497918605804
1772810159500948500,0.463948486328125,0.047036588191986084,-0.03733910992741585,-0.1190422773361206
1772810159510648600,0.473648681640625,0.032070402055978775,-0.024816380813717842,-0.11659881472587585
1772810159520349000,0.483348876953125,0.015577051788568497,-0.008323032408952713,-0.11049016565084457
1772810159530049300,0.49304931640625,0.0027488914784044027,-0.003512472379952669,-0.10529781877994537
1772810159539749600,0.50274951171875,-0.003665188793092966,-0.013209951110184193,-0.09552398324012756
1772810159549449700,0.51244970703125,-0.0030543238390237093,-0.03214675933122635,-0.09063705801963806
1772810159559150000,0.522150146484375,0.004581485874950886,-0.05566505342721939,-0.09552398324012756
1772810159568850400,0.531850341796875,0.01802051067352295,-0.07338013499975204,-0.09796743839979172
1772810159578550800,0.54155078125,0.028405211865901947,-0.07918334752321243,-0.0988837331533432
1772810159588251000,0.5512509765625,0.03329212963581085,-0.06604975461959839,-0.09246965497732162
1772810159597951200,0.560951171875,0.028099779039621353,-0.049250971525907516,-0.08239039033651352
1772810159607651300,0.5706513671875,0.01954767294228077,-0.03917170315980911,-0.0683404952287674
1772810159617351700,0.5803515625,0.011300998739898205,-0.03520108386874199,-0.053374309092760086
1772810159627052000,0.590052001953125,0.0027488914784044027,-0.026648975908756256,-0.032910339534282684
1772810159636752100,0.599752197265625,-0.008246674202382565,-0.027870705351233482,-0.020082179456949234
1772810159646452500,0.609452392578125,-0.01740964688360691,-0.04169152304530144,-0.01672242395579815
1772810159656152800,0.61915283203125,-0.020158538594841957,-0.051389001309871674,-0.024663666263222694
1772810159665853200,0.628853271484375,-0.01588248461484909,-0.057497646659612656,-0.033826638013124466
1772810159675553300,0.63855322265625,-0.013133592903614044,-0.06635518372058868,-0.053985174745321274
1772810159685253600,0.648253662109375,-0.011911863461136818,-0.06299543380737305,-0.0680350661277771
1772810159694954000,0.6579541015625,-0.00946840364485979,-0.0553596206009388,-0.08055779337882996
1772810159704654300,0.667654296875,-0.011911863461136818,-0.05474875494837761,-0.08972076326608658
1772810159714354400,0.6773544921875,-0.014966187067329884,-0.0553596206009388,-0.09033162891864777
1772810159724054800,0.6870546875,-0.018631376326084137,-0.0553596206009388,-0.08819360285997391
1772810159733755100,0.696755126953125,-0.016798781231045723,-0.0602465383708477,-0.08544471114873886
1772810159743455200,0.706455322265625,-0.007330377586185932,-0.05719221383333206,-0.07506000995635986
1772810159753155600,0.716155517578125,0.0030543238390237093,-0.05780307948589325,-0.06711876392364502
1772810159762855700,0.725855712890625,0.008552107028663158,-0.04955640435218811,-0.06192641705274582
1772810159772556000,0.73555615234375,0.007941242307424545,-0.03733910992741585,-0.05734493210911751
1772810159782256400,0.74525634765625,-0.0054977829568088055,-0.03061959706246853,-0.0527634471654892
1772810159791956700,0.754956787109375,-0.028405211865901947,-0.025809036567807198,-0.04787652567028999
1772810159801656800,0.76465673828125,-0.04825831577181816,-0.029703300446271896,-0.05612320080399513
1772810159811357200,0.774357177734375,-0.057726722210645676,-0.03520108386874199,-0.062537282705307
1772810159821057500,0.7840576171875,-0.06108647957444191,-0.036804601550102234,-0.06559160351753235
1772810159830757600,0.793757568359375,-0.06200277432799339,-0.04222602769732475,-0.07200568914413452
1772810159840458000,0.8034580078125,-0.0565049909055233,-0.05230529606342316,-0.07658717036247253
1772810159850158300,0.813158447265625,-0.05253437161445618,-0.05658135190606117,-0.07872519642114639
1772810159859858700,0.822858642578125,-0.07086031138896942,-0.06452259421348572,-0.07567087560892105
1772810159869558800,0.832558837890625,-0.09834922850131989,-0.05933023989200592,-0.041157014667987823
1772810159879259100,0.842259033203125,-0.1340848207473755,-0.05810851231217384,0.0006872228696011007
1772810159888959500,0.85195947265625,-0.20647229254245758,-0.0962875634431839,0.04130972921848297
1772810159898659600,0.86165966796875,-0.32039856910705566,-0.12774710357189178,0.07368556410074234
1772810159908360000,0.87135986328125,-0.45478883385658264,-0.1983019858598709,0.07399099320173264
1772810159918060000,0.88106005859375,-0.602007269859314,-0.24839289486408234,0.026648975908756256
1772810159927760400,0.890760498046875,-0.8078686594963074,-0.16592614352703094,-0.024052800610661507
1772810159937460700,0.900460693359375,-0.9752455949783325,-0.12499820441007614,-0.083306685090065
1772810159947161000,0.9101611328125,-1.1035271883010864,-0.03741546720266342,-0.15691588819026947
1772810159956861200,0.919861083984375,-1.17194402217865,0.07528908550739288,-0.2277761995792389
1772810159966561500,0.9295615234375,-1.176220178604126,0.15691588819026947,-0.29100072383880615
1772810159976262000,0.939261962890625,-1.1713331937789917,0.24083344638347626,-0.3511708974838257
1772810159985962200,0.948962158203125,-1.2024873495101929,0.3782780170440674,-0.42600181698799133
1772810159995662300,0.958662353515625,-1.3103049993515015,0.46288278698921204,-0.5524508357048035
1772810160005362700,0.96836279296875,-1.4043781757354736,0.12660172581672668,-0.8169552683830261
1772810160015063000,0.97806298828125,-1.51616632938385,-0.15004366636276245,-1.2030218839645386
1772810160024763100,0.98776318359375,-1.5766420364379883,-0.2952004075050354,-1.546633243560791
1772810160034463500,0.99746337890625,-1.554650902748108,-0.2596938908100128,-1.694462537765503
1772810160044163800,1.007163818359375,-1.505781650543213,0.02367101050913334,-1.6165772676467896
1772810160053864000,1.016864013671875,-1.4404191970825195,0.37980517745018005,-1.3505456447601318
1772810160063564300,1.026564208984375,-1.3558143377304077,0.6021599769592285,-0.9351575970649719
1772810160073264600,1.0362646484375,-1.2220350503921509,0.5291616320610046,-0.6010146141052246
1772810160082964700,1.04596484375,-0.8686497211456299,0.187382772564888,-0.5561160445213318
1772810160092665000,1.0556650390625,-0.4056142270565033,-0.0007635809597559273,-0.5799397230148315
1772810160102365400,1.065365478515625,0.015271619893610477,0.47693267464637756,-0.6291143894195557
1772810160112065800,1.075065673828125,0.35063639283180237,1.1849249601364136,-0.6196459531784058
1772810160121766000,1.084765869140625,0.6246092319488525,1.5248712301254272,-0.537790060043335
1772810160131466200,1.09446630859375,0.8405499458312988,1.496466040611267,-0.4495201110839844
1772810160141166600,1.10416650390625,0.988990068435669,1.052061915397644,-0.38965538144111633
1772810160150866700,1.11386669921875,1.0403027534484863,0.37369653582572937,-0.3459785282611847
1772810160160567000,1.123567138671875,0.9731075763702393,-0.1937204897403717,-0.27603453397750854
1772810160170267400,1.133267333984375,0.8784235715866089,-0.4570032060146332,-0.14744748175144196
1772810160179967500,1.142967529296875,0.7614429593086243,-0.4979311525821686,0.0397825688123703
1772810160189667800,1.152667724609375,0.6652317643165588,-0.3687332570552826,0.2764926850795746
1772810160199368200,1.1623681640625,0.5745183229446411,-0.23159411549568176,0.4912116527557373
1772810160209068300,1.172068359375,0.47372564673423767,-0.16134466230869293,0.6136900186538696
1772810160218768600,1.1817685546875,0.37110036611557007,-0.27832525968551636,0.5779544115066528
1772810160228469000,1.191468994140625,0.2718348205089569,-0.5522981286048889,0.39164069294929504
1772810160238169000,1.201169189453125,0.18417572975158691,-0.8161917328834534,0.13843722641468048
1772810160247869400,1.210869384765625,0.09957095980644226,-1.015944480895996,-0.10651954263448715
1772810160257569800,1.22056982421875,0.013744457624852657,-1.1604139804840088,-0.30596688389778137
1772810160267270100,1.230270263671875,-0.0665842592716217,-1.2190570831298828,-0.42997244000434875
1772810160276970200,1.23997021484375,-0.04825831577181816,-1.1103230714797974,-0.46143198013305664
1772810160286670600,1.249670654296875,0.4248564541339874,-0.8003092408180237,-0.4018726646900177
1772810160296371000,1.259370849609375,1.0687079429626465,-0.24197880923748016,-0.2848920524120331
1772810160306071000,1.269071044921875,1.1575887203216553,0.16966769099235535,-0.3349829614162445
1772810160315771400,1.278771484375,0.7925970554351807,0.30375251173973083,-0.528932511806488
1772810160325471700,1.2884716796875,0.4572322964668274,0.34345871210098267,-0.6401099562644958
1772810160335171800,1.298171875,0.25870123505592346,0.34437501430511475,-0.6184242367744446
1772810160344872200,1.3078720703125,0.07819069176912308,0.22098033130168915,-0.5463421940803528
1772810160354572500,1.317572509765625,-0.06872228533029556,-0.009621120058000088,-0.4904480576515198
1772810160364272600,1.327272705078125,-0.2260199636220932,-0.18211406469345093,-0.469678670167923
1772810160373973000,1.336972900390625,-0.3295615613460541,-0.23281583189964294,-0.47639816999435425
1772810160383673300,1.34667333984375,-0.19394956529140472,-0.07826705276966095,-0.6220894455909729
1772810160393373700,1.356373779296875,0.04520399495959282,0.037720900028944016,-0.8007673621177673
1772810160403073800,1.36607373046875,0.2834412455558777,0.007177661173045635,-0.9033926725387573
1772810160412774100,1.375774169921875,0.6096430420875549,-0.10942115634679794,-0.9241620302200317
1772810160422474500,1.385474609375,1.0586286783218384,-0.23220497369766235,-0.8566614985466003
1772810160432174600,1.395174560546875,1.2913681268692017,-0.1576794683933258,-0.6923388838768005
1772810160441875000,1.404875,1.2544108629226685,-0.06727148592472076,-0.49686214327812195
1772810160451575300,1.4145751953125,1.0454950332641602,-0.037949975579977036,-0.32337653636932373
1772810160461275400,1.424275390625,0.7308996915817261,-0.002290742937475443,-0.16852232813835144
1772810160470975700,1.433975830078125,0.47067132592201233,0.0038179049734026194,-0.034437503665685654
1772810160480676000,1.443676025390625,0.3494146466255188,0.027947064489126205,0.05719221383333206
1772810160490376200,1.453376220703125,0.3497200906276703,0.09453132748603821,0.08498656004667282
1772810160500076500,1.46307666015625,0.43982264399528503,0.2964221239089966,0.022678354755043983
1772810160509777000,1.47277685546875,0.5821541547775269,0.5529853701591492,-0.10468695312738419
1772810160519477200,1.482477294921875,0.7312051653862,0.7441860437393188,-0.27114760875701904
1772810160529177300,1.49217724609375,0.8304706811904907,0.6165152788162231,-0.46662431955337524
1772810160538877700,1.501877685546875,0.9382883310317993,0.20906847715377808,-0.6349175572395325
1772810160548578000,1.511578125,1.1685843467712402,-0.4182133078575134,-0.7735838890075684
1772810160558278400,1.5212783203125,1.3768892288208008,-0.9860121011734009,-0.787939190864563
1772810160567978500,1.530978515625,1.462715744972229,-1.4664572477340698,-0.6840922236442566
1772810160577678800,1.540678955078125,1.378721833229065,-1.673845887184143,-0.5362629294395447
1772810160587379000,1.55037890625,1.1768310070037842,-1.591379165649414,-0.44646579027175903
1772810160597079300,1.560079345703125,1.0118975639343262,-1.542509913444519,-0.520991325378418
1772810160606779600,1.569779541015625,1.0204496383666992,-1.6158137321472168,-0.7118865251541138
1772810160616479700,1.579479736328125,1.1438442468643188,-1.5196025371551514,-0.8838449716567993
1772810160626180000,1.58918017578125,1.2724313735961914,-1.2569305896759033,-1.0405317544937134
1772810160635880400,1.59888037109375,1.2235621213912964,-1.1128429174423218,-1.3071743249893188
1772810160645580800,1.608580810546875,0.9089667797088623,-1.0053306818008423,-1.823049545288086
1772810160655281000,1.618281005859375,0.5222893953323364,-0.8784999251365662,-2.471177101135254
1772810160664981200,1.627981201171875,0.30054548382759094,-0.8812488317489624,-3.044779062271118
1772810160674681600,1.637681640625,0.29016077518463135,-0.8473458290100098,-3.4342055320739746
1772810160684381700,1.647381591796875,0.3646862804889679,-0.6604211926460266,-3.614410638809204
1772810160694082000,1.65708203125,0.4529562294483185,-0.37117671966552734,-3.5856997966766357
1772810160703782400,1.666782470703125,0.5626064538955688,-0.07857248187065125,-3.345629930496216
1772810160713482500,1.676482421875,0.7470875978469849,0.0591011680662632,-2.963839530944824
1772810160723182800,1.686182861328125,0.8964440822601318,0.03649916872382164,-2.4669010639190674
1772810160732883200,1.69588330078125,0.8530726432800293,-0.007406735327094793,-1.9110140800476074
1772810160742583300,1.705583251953125,0.7006618976593018,-0.15157082676887512,-1.3578760623931885
1772810160752283600,1.71528369140625,0.5717694163322449,-0.41851872205734253,-0.8566614985466003
1772810160761984000,1.72498388671875,0.4929678738117218,-0.7447205185890198,-0.47578731179237366
1772810160771684000,1.73468408203125,0.42332929372787476,-1.0474040508270264,-0.24335326254367828
1772810160781384400,1.744384521484375,0.4221075773239136,-1.26731538772583,-0.17829616367816925
1772810160791084800,1.754084716796875,0.4266890585422516,-1.2581523656845093,-0.22350014746189117
1772810160800785200,1.76378515625,0.39858928322792053,-1.1032981872558594,-0.3704131245613098
1772810160810485200,1.7734853515625,0.3836230933666229,-0.931950569152832,-0.6266708970069885
1772810160820185600,1.783185546875,0.3280344009399414,-0.7288380265235901,-0.9363793730735779
1772810160829886000,1.792885986328125,0.2663370370864868,-0.5168679356575012,-1.233565092086792
1772810160839586000,1.8025859375,0.21655155718326569,-0.1738673895597458,-1.4614176750183105
1772810160849286400,1.812286376953125,0.272751122713089,0.0899498388171196,-1.659948706626892
1772810160858986800,1.82198681640625,0.45539969205856323,0.07070759683847427,-1.8196898698806763
1772810160868686800,1.831686767578125,0.646905779838562,-0.07307469844818115,-1.870697021484375
1772810160878387200,1.84138720703125,0.7141009569168091,-0.27252206206321716,-1.933310627937317
1772810160888087600,1.851087646484375,0.7363975048065186,-0.4035525321960449,-1.9849287271499634
1772810160897787600,1.86078759765625,0.84177166223526,-0.3800342381000519,-2.0121121406555176
1772810160907488000,1.870488037109375,1.035415768623352,-0.41271552443504333,-1.9785146713256836
1772810160917188400,1.880188232421875,1.2434152364730835,-0.5309178233146667,-1.8545091152191162
1772810160926888700,1.889888671875,1.414151906967163,-0.626518189907074,-1.6428444385528564
1772810160936588800,1.8995888671875,1.5262455940246582,-0.7267000079154968,-1.335884928703308
1772810160946289200,1.9092890625,1.5577051639556885,-0.6705004572868347,-0.9873865842819214
1772810160955989500,1.918989501953125,1.5409064292907715,-0.5733729600906372,-0.7815251350402832
1772810160965689600,1.928689697265625,1.6416990756988525,-0.7715985774993896,-0.862770140171051
1772810160975390000,1.938389892578125,1.84145188331604,-0.9905936121940613,-1.1532363891601562
1772810160985090300,1.94809033203125,1.9956952333450317,-1.245095133781433,-1.5597668886184692
1772810160994790400,1.957790283203125,1.8668028116226196,-1.7321834564208984,-1.9556071758270264
1772810161004490800,1.96749072265625,1.3781108856201172,-2.3980259895324707,-2.1761293411254883
1772810161014191000,1.977191162109375,0.7312051653862,-3.17535138130188,-2.1486403942108154
1772810161023891200,1.98689111328125,0.3952295184135437,-3.8589091300964355,-1.7989203929901123
1772810161033591600,1.996591552734375,0.3900371491909027,-3.8399722576141357,-1.2158499956130981
1772810161043292000,2.0062919921875,0.45906487107276917,-3.608760118484497,-0.7274636030197144
1772810161052992300,2.0159921875,0.44959646463394165,-3.1860415935516357,-0.7073050737380981
1772810161062692400,2.0256923828125,0.36743515729904175,-2.471940755844116,-1.156901478767395
1772810161072392700,2.035392822265625,0.34177884459495544,-1.4970004558563232,-1.788230299949646
1772810161082093000,2.045093017578125,0.22663083672523499,-0.5177842378616333,-2.3190717697143555
1772810161091793200,2.054793212890625,0.048563748598098755,0.21731515228748322,-2.6761221885681152
1772810161101493500,2.064493408203125,-0.15515965223312378,0.641866147518158,-2.97452974319458
1772810161111193900,2.07419384765625,-0.3338375985622406,0.744491457939148,-3.2738535404205322
1772810161120894000,2.08389404296875,-0.4932733178138733,0.4647153913974762,-3.485212564468384
1772810161130594300,2.09359423828125,-0.722347617149353,-0.1582903414964676,-3.5487425327301025
1772810161140294700,2.103294677734375,-0.9230166673660278,-0.91362464427948,-3.440619468688965
1772810161149994800,2.112994873046875,-1.0357211828231812,-1.533652424812317,-3.108003616333008
1772810161159695000,2.122695068359375,-1.1499528884887695,-1.8897866010665894,-2.628474712371826
1772810161169395500,2.1323955078125,-1.2287545204162598,-2.0812926292419434,-2.0762529373168945
1772810161179095600,2.142095458984375,-1.2818996906280518,-2.18025279045105,-1.5154792070388794
1772810161188796000,2.1517958984375,-1.3478730916976929,-2.2685227394104004,-1.0451133251190186
1772810161198496300,2.161496337890625,-1.339626431465149,-2.206214427947998,-0.6520217657089233
1772810161208196600,2.171196533203125,-1.1939351558685303,-1.9627848863601685,-0.2375500351190567
1772810161217896700,2.180896728515625,-0.9508110284805298,-1.5000548362731934,0.24594943225383759
1772810161227597000,2.19059716796875,-0.6215549111366272,-0.8699477910995483,0.7386118769645691
1772810161237297400,2.20029736328125,-0.21441353857517242,-0.1836412250995636,1.173242211341858
1772810161246997500,2.20999755859375,0.1893680840730667,0.5059487819671631,1.4924190044403076
1772810161256697900,2.21969775390625,0.5048797130584717,1.1861467361450195,1.7007238864898682
1772810161266398200,2.229398193359375,0.7183769941329956,1.763413906097412,1.8268674612045288
1772810161276098300,2.239098388671875,0.8338304162025452,2.082667112350464,1.89284086227417
1772810161285798700,2.248798583984375,0.8530726432800293,2.1021385192871094,1.96858811378479
1772810161295499000,2.2584990234375,0.7929024696350098,1.9005529880523682,2.0925936698913574
1772810161305199000,2.26819921875,0.6759218573570251,1.5441133975982666,2.2770748138427734
1772810161314899500,2.2778994140625,0.5051851868629456,1.086881160736084,2.490877389907837
1772810161324599800,2.287599853515625,0.2559523284435272,0.6666061878204346,2.7190353870391846
1772810161334300200,2.297300048828125,-0.015271619893610477,0.31810784339904785,2.9649085998535156
1772810161344000300,2.307000244140625,-0.2370155304670334,0.06123919412493706,3.245906352996826
1772810161353700600,2.31670068359375,-0.40408703684806824,-0.04192059487104416,3.549506187438965
1772810161363401000,2.32640087890625,-0.5271763205528259,-0.0007635809597559273,3.829282283782959
1772810161373101000,2.33610107421875,-0.5800161361694336,0.17821979522705078,4.035143852233887
1772810161382801400,2.345801513671875,-0.5598575472831726,0.5215258002281189,4.1325764656066895
1772810161392501800,2.355501708984375,-0.5317577719688416,0.919198751449585,4.098062515258789
1772810161402201900,2.365201904296875,-0.5415316224098206,1.251814603805542,3.954814910888672
1772810161411902200,2.374902099609375,-0.5949822664260864,1.4439315795898438,3.743150234222412
1772810161421602600,2.3846025390625,-0.6808087825775146,1.5352559089660645,3.5207955837249756
1772810161431302700,2.394302734375,-0.7932079434394836,1.6158900260925293,3.3024113178253174
1772810161441003000,2.4040029296875,-0.9541707634925842,1.6898046731948853,3.0898303985595703
1772810161450703400,2.413703369140625,-1.1166608333587646,1.661094069480896,2.968573808670044
1772810161460403700,2.42340380859375,-1.2382229566574097,1.585957646369934,2.9755988121032715
1772810161470103800,2.433103759765625,-1.3041963577270508,1.5123485326766968,3.1182355880737305
1772810161479804200,2.44280419921875,-1.323133111000061,1.4295762777328491,3.37113356590271
1772810161489504500,2.45250439453125,-1.305112600326538,1.3342814445495605,3.6881725788116455
1772810161499204600,2.46220458984375,-1.2611303329467773,1.2967132329940796,3.9838309288024902
1772810161508905000,2.471905029296875,-1.2171480655670166,1.3495529890060425,4.23336935043335
1772810161518605000,2.48160498046875,-1.1725549697875977,1.4979931116104126,4.452669620513916
1772810161528305400,2.491305419921875,-1.158199667930603,1.5829033851623535,4.536052703857422
1772810161538005800,2.501005859375,-1.155145287513733,1.532507061958313,4.407771110534668
1772810161547706000,2.5107060546875,-1.155450701713562,1.3532181978225708,4.017734050750732
1772810161557406200,2.52040625,-1.1884374618530273,1.2576178312301636,3.4905576705932617
1772810161567106600,2.5301064453125,-1.2666281461715698,1.2133301496505737,2.7471351623535156
1772810161576807000,2.539806884765625,-1.4437788724899292,0.9347758293151855,1.6597959995269775
1772810161586507000,2.549507080078125,-1.6869031190872192,0.8266527652740479,0.6378191709518433
1772810161596207400,2.559207275390625,-1.740964651107788,1.3987276554107666,0.16195552051067352
1772810161605907700,2.56890771484375,-1.6013820171356201,1.990655541419983,0.07796161621809006
1772810161615608000,2.578608154296875,-1.426369309425354,2.112217664718628,0.017486004158854485
1772810161625308200,2.58830810546875,-1.2742639780044556,2.0551018714904785,-0.013973532244563103
1772810161635008500,2.598008544921875,-1.1172716617584229,1.9161300659179688,-0.013668099418282509
1772810161644708600,2.60770849609375,-0.8576541543006897,1.7817398309707642,0.0034361144062131643
1772810161654409000,2.617408935546875,-0.3952295184135437,1.7203478813171387,0.11400263756513596
1772810161664109300,2.627109375,0.16829325258731842,1.606727123260498,0.3690386712551117
1772810161673809400,2.636809326171875,0.629496157169342,1.3153445720672607,0.7025708556175232
1772810161683509800,2.646509765625,0.8991929292678833,0.818711519241333,1.0095304250717163
1772810161693210000,2.656210205078125,0.9963204264640808,0.17455461621284485,1.227914571762085
1772810161702910500,2.665910400390625,0.9361502528190613,-0.4566977918148041,1.349782109260559
1772810161712610600,2.675610595703125,0.7663298845291138,-0.8687260746955872,1.366275429725647
1772810161722311000,2.685310791015625,0.5235111117362976,-0.9124029278755188,1.2523491382598877
1772810161732011300,2.69501123046875,0.2562577724456787,-0.5956695079803467,1.0015891790390015
1772810161741711400,2.70471142578125,0.05558869615197182,-0.019394956529140472,0.6396517753601074
1772810161751411700,2.71441162109375,-0.017104214057326317,0.6198750138282776,0.22304199635982513
1772810161761112000,2.724112060546875,0.04520399495959282,1.1302525997161865,-0.13125957548618317
1772810161770812200,2.733812255859375,0.20189081132411957,1.3752093315124512,-0.3514763116836548
1772810161780512500,2.743512451171875,0.3796524703502655,1.3727658987045288,-0.41867145895957947
1772810161790212900,2.753212890625,0.5323686599731445,1.2041672468185425,-0.34872743487358093
1772810161799913000,2.762912841796875,0.6243038177490234,0.9653190970420837,-0.1810450553894043
1772810161809613300,2.77261328125,0.6533198952674866,0.7108938694000244,0.038560837507247925
1772810161819313700,2.782313720703125,0.6368265151977539,0.46227192878723145,0.25266894698143005
1772810161829014000,2.792013916015625,0.5665770769119263,0.21181736886501312,0.4289034307003021
1772810161838714000,2.801714111328125,0.43310311436653137,-0.028176138177514076,0.5522981286048889
1772810161848414500,2.81141455078125,0.25900667905807495,-0.23587016761302948,0.6133846044540405
1772810161858114800,2.82111474609375,0.0974329337477684,-0.38583746552467346,0.6143009066581726
1772810161867815000,2.83081494140625,-0.023518294095993042,-0.43684467673301697,0.5718457698822021
1772810161877515300,2.840515380859375,-0.10720676928758621,-0.3879754841327667,0.5009855031967163
1772810161887215400,2.85021533203125,-0.1591302752494812,-0.25297439098358154,0.40721774101257324
1772810161896915700,2.859915771484375,-0.2000582218170166,-0.0501672700047493,0.27801984548568726
1772810161906616000,2.869615966796875,-0.24862197041511536,0.16050471365451813,0.12377647310495377
1772810161916316400,2.87931640625,-0.29443681240081787,0.3318522870540619,-0.023136503994464874
1772810161926016500,2.8890166015625,-0.3072649836540222,0.4699077308177948,-0.12362375855445862
1772810161935716900,2.898716796875,-0.26939135789871216,0.5716167092323303,-0.16760602593421936
1772810161945417200,2.908417236328125,-0.19669845700263977,0.5988001823425293,-0.15813761949539185
1772810161955117600,2.91811767578125,-0.09926552325487137,0.5432115197181702,-0.09918916970491409
1772810161964817700,2.927817626953125,0.001221729558892548,0.42531460523605347,0.026343543082475662
1772810161974518000,2.93751806640625,0.06750056147575378,0.2835939824581146,0.2407570779323578
1772810161984218000,2.947218017578125,0.09132428467273712,0.12873975932598114,0.5376373529434204
1772810161993918500,2.95691845703125,0.04214967042207718,-0.051389001309871674,0.905377984046936
1772810162003618800,2.966618896484375,-0.04550942778587341,-0.2545015513896942,1.349782109260559
1772810162013319000,2.97631884765625,-0.11514800786972046,-0.32963791489601135,1.8039600849151611
1772810162023019300,2.986019287109375,-0.1737910360097885,-0.19249875843524933,2.0559418201446533
1772810162032719600,2.9957197265625,-0.28435754776000977,-0.1011744812130928,1.8128175735473633
1772810162042419700,3.005419677734375,-0.4923570156097412,-0.21784965693950653,0.9172898530960083
1772810162052120000,3.0151201171875,-0.7406735420227051,-0.30886849761009216,-0.3774380683898926
1772810162061820400,3.0248203125,-0.8323032855987549,-0.21815508604049683,-1.5698461532592773
1772810162071520800,3.034520751953125,-0.7232639193534851,0.002672533504664898,-2.292193651199341
1772810162081220900,3.044220947265625,-0.5119046568870544,0.23167046904563904,-2.3416738510131836
1772810162090921200,3.053921142578125,-0.27916520833969116,0.33368489146232605,-1.7808998823165894
1772810162100621300,3.063621337890625,-0.07605266571044922,0.4185950756072998,-0.7381537556648254
1772810162110321700,3.07332177734375,0.11514800786972046,0.5761982202529907,0.5654317140579224
1772810162120022000,3.08302197265625,0.30451610684394836,0.6333140730857849,1.7144683599472046
1772810162129722000,3.09272216796875,0.41416633129119873,0.4696022868156433,2.4203226566314697
1772810162139422500,3.10242236328125,0.3848448097705841,0.15806126594543457,2.7355289459228516
1772810162149122800,3.112122802734375,0.3069595396518707,-0.25755587220191956,2.8589234352111816
1772810162158823200,3.1218232421875,0.22785256803035736,-0.7462477087974548,2.845484495162964
1772810162168523300,3.131523193359375,0.08643736690282822,-1.134452223777771,2.6793293952941895
1772810162178223600,3.1412236328125,-0.11698060482740402,-1.2554035186767578,2.3977205753326416
1772810162187924000,3.150924072265625,-0.3280344009399414,-1.0416008234024048,2.01898455619812
1772810162197624000,3.1606240234375,-0.48655378818511963,-0.5681806206703186,1.5464805364608765
1772810162207324400,3.170324462890625,-0.5485565662384033,0.06490438431501389,0.9756274223327637
1772810162217024800,3.180024658203125,-0.5097666382789612,0.7585413455963135,0.33544111251831055
1772810162226724900,3.189724853515625,-0.379347026348114,1.4265220165252686,-0.3355938494205475
1772810162236425200,3.19942529296875,-0.19669845700263977,1.9653047323226929,-0.9602030515670776
1772810162246125600,3.20912548828125,-0.01588248461484909,2.2420265674591064,-1.409799575805664
1772810162255825700,3.21882568359375,0.1490510106086731,2.290590286254883,-1.531361699104309
1772810162265526000,3.228526123046875,0.30543237924575806,2.1775801181793213,-1.3166426420211792
1772810162275226400,3.238226318359375,0.42943793535232544,1.9368995428085327,-0.871016800403595
1772810162284926700,3.2479267578125,0.5225948095321655,1.6452115774154663,-0.303523451089859
1772810162294626800,3.257626708984375,0.62857985496521,1.3544399738311768,0.2905425727367401
1772810162304327200,3.2673271484375,0.7480039000511169,1.0596976280212402,0.839709997177124
1772810162314027500,3.277027587890625,0.8460476994514465,0.7774781584739685,1.282281517982483
1772810162323727600,3.2867275390625,0.8924734592437744,0.494647741317749,1.5910736322402954
1772810162333428000,3.296427978515625,0.8814778923988342,0.24633121490478516,1.7725005149841309
1772810162343128000,3.306128173828125,0.8277217745780945,0.06856957077980042,1.8506911993026733
1772810162352828400,3.315828369140625,0.7626646757125854,-0.024205517023801804,1.8598542213439941
1772810162362528800,3.32552880859375,0.695164144039154,-0.06299543380737305,1.8128175735473633
1772810162372229000,3.33522900390625,0.6059778332710266,-0.061162836849689484,1.7190498113632202
1772810162381929200,3.34492919921875,0.4877755343914032,-0.04802924394607544,1.5974878072738647
1772810162391629600,3.354629638671875,0.35124725103378296,-0.05871937796473503,1.4838669300079346
1772810162401330000,3.364329833984375,0.2214384824037552,-0.10453423857688904,1.394069790840149
1772810162411030000,3.374030029296875,0.14782927930355072,-0.13049599528312683,1.2828923463821411
1772810162420730400,3.38373046875,0.1279761642217636,-0.21082471311092377,1.1384228467941284
1772810162430430700,3.3934306640625,0.1288924664258957,-0.35621052980422974,0.9799034595489502
1772810162440130800,3.403130859375,0.09529490768909454,-0.49884745478630066,0.8192460536956787
1772810162449831200,3.4128310546875,0.010079269297420979,-0.6277399063110352,0.6677515506744385
1772810162459531500,3.422531494140625,-0.10323614627122879,-0.7196750640869141,0.5468003153800964
1772810162469231600,3.432231689453125,-0.22937972843647003,-0.7267000079154968,0.474718302488327
1772810162478932000,3.441931884765625,-0.3591884970664978,-0.6353757381439209,0.4521162807941437
1772810162488632300,3.45163232421875,-0.4676169753074646,-0.5006800293922424,0.45761406421661377
1772810162498332700,3.461332763671875,-0.535728394985199,-0.4032471179962158,0.4823541045188904
1772810162508032800,3.47103271484375,-0.5476402640342712,-0.362930029630661,0.5388590693473816
1772810162517733000,3.480733154296875,-0.49113526940345764,-0.3473529815673828,0.627129077911377
1772810162527433500,3.49043359375,-0.39186975359916687,-0.3360520005226135,0.7303652167320251
1772810162537133600,3.500133544921875,-0.2730565667152405,-0.3592648506164551,0.7957277297973633
1772810162546834000,3.509833984375,-0.17806708812713623,-0.516257107257843,0.728532612323761
1772810162556534000,3.519533935546875,-0.2107483446598053,-0.9218713045120239,0.4405098557472229
1772810162566234400,3.529234375,-0.4422661066055298,-1.4435498714447021,-0.08758273720741272
1772810162575934700,3.538934814453125,-0.7382301092147827,-1.6894229650497437,-0.7219657897949219
1772810162585634800,3.548634765625,-0.8778126835823059,-1.3968186378479004,-1.2082141637802124
1772810162595335200,3.558335205078125,-0.8103121519088745,-0.7025708556175232,-1.350851058959961
1772810162605035500,3.568035400390625,-0.536339282989502,0.13736821711063385,-1.2002729177474976
1772810162614736000,3.57773583984375,-0.17348559200763702,0.6748528480529785,-1.0203732252120972
1772810162624436000,3.58743603515625,0.04245510324835777,0.699287474155426,-0.9586759209632874
1772810162634136300,3.59713623046875,0.05436696484684944,0.3556760251522064,-1.0258710384368896
1772810162643836700,3.606836669921875,-0.13164135813713074,-0.20196716487407684,-1.232037901878357
1772810162653536800,3.616536865234375,-0.3347539007663727,-0.7010436654090881,-1.4950151443481445
1772810162663237000,3.626237060546875,-0.3289506733417511,-0.9179006814956665,-1.6758311986923218
1772810162672937200,3.635937255859375,-0.15241076052188873,-0.9273691177368164,-1.7091232538223267
1772810162682637600,3.645637451171875,0.028405211865901947,-0.7575486898422241,-1.549382209777832
1772810162692338000,3.655337890625,0.12278381735086441,-0.4597521126270294,-1.1740057468414307
1772810162702038300,3.665038330078125,0.10842850059270859,-0.14851650595664978,-0.6703477501869202
1772810162711738400,3.67473828125,0.006108647678047419,0.10277800261974335,-0.16363540291786194
1772810162721438700,3.684438720703125,-0.12583814561367035,0.27687445282936096,0.2144898921251297
1772810162731139000,3.69413916015625,-0.2309068888425827,0.3675878942012787,0.3742310404777527
1772810162740839200,3.703839111328125,-0.28954991698265076,0.4124864339828491,0.36109745502471924
1772810162750539500,3.71353955078125,-0.3020726442337036,0.44180795550346375,0.27924156188964844
1772810162760239900,3.723239990234375,-0.2984074354171753,0.4558578431606293,0.21479532122612
1772810162769940000,3.73293994140625,-0.32039856910705566,0.4298960864543915,0.1943313628435135
1772810162779640300,3.742640380859375,-0.37201663851737976,0.41615164279937744,0.21846051514148712
1772810162789340700,3.752340576171875,-0.4257727563381195,0.4445568323135376,0.25266894698143005
1772810162799040800,3.762040771484375,-0.4563159942626953,0.513279139995575,0.2606101930141449
1772810162808741000,3.7717412109375,-0.46425724029541016,0.6030762791633606,0.23831361532211304
1772810162818441500,3.78144140625,-0.4667007029056549,0.6990583539009094,0.2514472007751465
1772810162828141800,3.791141845703125,-0.43890634179115295,0.8022181987762451,0.3528507649898529
1772810162837842000,3.800842041015625,-0.3796524703502655,0.8846849203109741,0.5180897116661072
1772810162847542300,3.810542236328125,-0.3243691921234131,0.9100357890129089,0.6906589865684509
1772810162857242400,3.820242431640625,-0.2935205399990082,0.8590285778045654,0.8216894865036011
1772810162866942700,3.829942626953125,-0.28496840596199036,0.7371610999107361,0.8879683017730713
1772810162876643000,3.83964306640625,-0.3069595396518707,0.5566505193710327,0.8885791897773743
1772810162886343200,3.84934326171875,-0.34727662801742554,0.36972591280937195,0.8189405798912048
1772810162896043500,3.85904345703125,-0.3686569035053253,0.2026543915271759,0.6888263821601868
1772810162905744000,3.868743896484375,-0.3753764033317566,0.04993819445371628,0.49548768997192383
1772810162915444200,3.8784443359375,-0.3900371491909027,-0.05108356848359108,0.2496146261692047
1772810162925144300,3.888144287109375,-0.41263917088508606,-0.08315397053956985,-0.015500693581998348
1772810162934844700,3.8978447265625,-0.4120282828807831,-0.04069886729121208,-0.261984646320343
1772810162944545000,3.907544921875,-0.3964512348175049,0.039858926087617874,-0.46082112193107605
1772810162954245000,3.9172451171875,-0.379347026348114,0.1303432732820511,-0.5649735331535339
1772810162963945500,3.926945556640625,-0.33628106117248535,0.2530507445335388,-0.5503128170967102
1772810162973645600,3.9366455078125,-0.2657261788845062,0.3920224606990814,-0.4467712342739105
1772810162983346000,3.946345947265625,-0.20708316564559937,0.48823368549346924,-0.31268641352653503
1772810162993046300,3.95604638671875,-0.19669845700263977,0.48731738328933716,-0.19356778264045715
1772810163002746600,3.96574658203125,-0.2419024556875229,0.3675878942012787,-0.11690424382686615
1772810163012446700,3.97544677734375,-0.318871408700943,0.15531237423419952,-0.09185878932476044
1772810163022147000,3.98514697265625,-0.38698282837867737,-0.09292780607938766,-0.1037706509232521
1772810163031847400,3.994847412109375,-0.41355544328689575,-0.29420775175094604,-0.14194969832897186
1772810163041547500,4.004547607421875,-0.3964512348175049,-0.41760244965553284,-0.19967642426490784
1772810163051247900,4.014247802734375,-0.36132651567459106,-0.49365508556365967,-0.279394268989563
1772810163060948200,4.0239482421875,-0.3341430425643921,-0.5788707137107849,-0.36399903893470764
1772810163070648300,4.0336484375,-0.37110036611557007,-0.7434988021850586,-0.43485936522483826
1772810163080348700,4.0433486328125,-0.49082985520362854,-0.9698241949081421,-0.4122573733329773
1772810163090049000,4.053049072265625,-0.5849030017852783,-1.144531488418579,-0.2943604588508606
1772810163099749000,4.0627490234375,-0.6514872908592224,-1.3137410879135132,-0.21983496844768524
1772810163109449500,4.072449462890625,-0.6963858604431152,-1.4493530988693237,-0.30230170488357544
1772810163119149800,4.08214990234375,-0.711962878704071,-1.2688424587249756,-0.44493862986564636
1772810163128850000,4.091849853515625,-0.721431314945221,-0.5962803959846497,-0.49716755747795105
1772810163138550300,4.10155029296875,-0.8225294351577759,0.3211621642112732,-0.4947241246700287
1772810163148250600,4.111250732421875,-0.9816597104072571,1.244484305381775,-0.4638754427433014
1772810163157950700,4.12095068359375,-1.017395257949829,2.1494803428649902,-0.42600181698799133
1772810163167651000,4.130651123046875,-0.8729257583618164,2.8791584968566895,-0.46692976355552673
1772810163177351400,4.140351318359375,-0.5106829404830933,3.294240951538086,-0.5081631541252136
1772810163187051500,4.150051513671875,0.03848448023200035,3.1280858516693115,-0.38904449343681335
1772810163196752000,4.159751953125,0.5494728684425354,2.2954771518707275,0.06635518372058868
1772810163206452200,4.1694521484375,0.962417483329773,1.049312949180603,0.8470403552055359
1772810163216152300,4.17915234375,1.2470804452896118,-0.21601705253124237,1.7187443971633911
1772810163225852700,4.188852783203125,1.4596613645553589,-1.0638973712921143,2.493626356124878
1772810163235553000,4.198552978515625,1.663995623588562,-1.4178935289382935,2.8949644565582275
1772810163245253000,4.208253173828125,1.7705916166305542,-1.377576470375061,2.7773730754852295
1772810163254953500,4.217953369140625,1.72141695022583,-1.052290916442871,2.3106722831726074
1772810163264653800,4.22765380859375,1.5876375436782837,-0.5831468105316162,1.7175227403640747
1772810163274354000,4.23735400390625,1.4037672281265259,-0.09567669779062271,1.2089776992797852
1772810163284054300,4.24705419921875,1.2629629373550415,0.3605629503726959,0.922787606716156
1772810163293754600,4.256754638671875,1.2147046327590942,0.7609847784042358,0.8091667294502258
1772810163303454700,4.266454833984375,1.2385283708572388,1.07558012008667,0.7948114275932312
1772810163313155000,4.276155029296875,1.3170244693756104,1.2423462867736816,0.8519272804260254
1772810163322855400,4.28585546875,1.369253396987915,1.2224931716918945,0.9380592107772827
1772810163332555800,4.2955556640625,1.3356558084487915,1.0752747058868408,0.9942587614059448
1772810163342255900,4.305255859375,1.2003493309020996,0.8718567490577698,0.9945642352104187
1772810163351956200,4.314956298828125,0.9731075763702393,0.6378955245018005,0.9631046652793884
1772810163361656300,4.32465625,0.7174606919288635,0.43722647428512573,0.9664644598960876
1772810163371356700,4.334356689453125,0.5057960152626038,0.2738201320171356,1.0345758199691772
1772810163381057000,4.34405712890625,0.3536907136440277,0.09605848789215088,1.1729366779327393
1772810163390757000,4.353757080078125,0.2611446976661682,-0.12866339087486267,1.3519201278686523
1772810163400457500,4.36345751953125,0.20830489695072174,-0.36201372742652893,1.5284600257873535
1772810163410157800,4.37315771484375,0.1701258420944214,-0.590171754360199,1.6655992269515991
1772810163419858200,4.382858154296875,0.15088360011577606,-0.812221109867096,1.700418472290039
1772810163429558300,4.392558349609375,0.1233946830034256,-0.9573014378547668,1.6173408031463623
1772810163439258600,4.402258544921875,0.0824667438864708,-0.9973130822181702,1.4411063194274902
1772810163448958700,4.411958740234375,0.04001164436340332,-0.9237039089202881,1.2129483222961426
1772810163458659000,4.4216591796875,-0.005192350596189499,-0.7511346340179443,0.960355818271637
1772810163468359400,4.431359375,-0.0974329337477684,-0.5535198450088501,0.6949350237846375
1772810163478059500,4.4410595703125,-0.2568686306476593,-0.39225155115127563,0.4392881393432617
1772810163487760000,4.450759765625,-0.4361574649810791,-0.2822958827018738,0.224569171667099
1772810163497460200,4.460460205078125,-0.5897899270057678,-0.21571162343025208,0.06940951198339462
1772810163507160600,4.47016064453125,-0.6863065958023071,-0.1738673895597458,-0.01000291109085083
1772810163516860700,4.479860595703125,-0.7055488228797913,-0.15523600578308105,-0.04451677203178406
1772810163526561000,4.48956103515625,-0.6750055551528931,-0.18089233338832855,-0.05948295816779137
1772810163536261400,4.499261474609375,-0.6157516837120056,-0.22304199635982513,-0.05673406645655632
1772810163545961500,4.50896142578125,-0.5323686599731445,-0.25755587220191956,-0.035964664071798325
1772810163555661800,4.518661865234375,-0.43921178579330444,-0.3183369040489197,-0.012446369975805283
1772810163565362000,4.52836181640625,-0.39339691400527954,-0.46341729164123535,0.00007635809743078426
1772810163575062300,4.538062255859375,-0.44318240880966187,-0.6604211926460266,0.00679587060585618
1772810163584762600,4.5477626953125,-0.5439751148223877,-0.8406262993812561,-0.002061668550595641
1772810163594463000,4.557462890625,-0.6325504779815674,-0.9438624382019043,-0.05367974191904068
1772810163604163000,4.5671630859375,-0.6808087825775146,-0.9230930209159851,-0.16271910071372986
1772810163613863400,4.576863525390625,-0.6462949514389038,-0.7691551446914673,-0.32154396176338196
1772810163623563800,4.586563720703125,-0.5473348498344421,-0.5736783742904663,-0.5292379856109619
1772810163633263900,4.596263916015625,-0.42271843552589417,-0.4237110912799835,-0.7195223569869995
1772810163642964200,4.605964111328125,-0.2874118685722351,-0.27801984548568726,-0.8209258913993835
1772810163652664300,4.615664306640625,-0.15638138353824615,-0.11827868968248367,-0.7949641346931458
1772810163662364700,4.62536474609375,-0.10659590363502502,-0.12072215229272842,-0.7100539207458496
1772810163672065000,4.63506494140625,-0.18203771114349365,-0.38247770071029663,-0.6697368621826172
1772810163681765400,4.644765380859375,-0.34177884459495544,-0.7560214996337891,-0.7415134906768799
1772810163691465500,4.654465576171875,-0.4987711012363434,-0.9643264412879944,-0.9449314475059509
1772810163701165800,4.664165771484375,-0.48533207178115845,-0.792062520980835,-1.1865284442901611
1772810163710866200,4.6738662109375,-0.2260199636220932,-0.12163844704627991,-1.241811752319336
1772810163720566300,4.683566162109375,0.18661919236183167,0.8593340516090393,-0.9879974126815796
1772810163730266600,4.6932666015625,0.5732966065406799,1.5169299840927124,-0.6278926134109497
1772810163739966700,4.702966796875,0.6325504779815674,1.4118611812591553,-0.5451204776763916
1772810163749667000,4.7126669921875,0.3698786199092865,0.5856665968894958,-0.8868992924690247
1772810163759367400,4.722367431640625,0.11423171311616898,-0.4918225109577179,-1.5038727521896362
1772810163769067800,4.73206787109375,0.07544180005788803,-1.560835838317871,-2.219500780105591
1772810163778768000,4.741767822265625,0.1597411334514618,-2.359236240386963,-2.7802746295928955
1772810163788468200,4.75146826171875,0.20769402384757996,-2.605720043182373,-2.929631233215332
1772810163798168600,4.76116845703125,0.14294235408306122,-2.3140320777893066,-2.6608505249023438
1772810163807868700,4.77086865234375,0.007024944759905338,-1.6402482986450195,-2.1376450061798096
1772810163817569000,4.780569091796875,-0.10476330667734146,-0.7508291602134705,-1.5936698913574219
1772810163827269400,4.790269287109375,-0.11178825795650482,0.15347976982593536,-1.2091305255889893
1772810163836969500,4.799969482421875,0.02107483521103859,0.8495602011680603,-1.0069342851638794
1772810163846669800,4.809669921875,0.2718348205089569,1.1809543371200562,-0.871933102607727
1772810163856370200,4.8193701171875,0.5436696410179138,1.1223113536834717,-0.687451958656311
1772810163866070300,4.8290703125,0.7272345423698425,0.8150463104248047,-0.4009563624858856
1772810163875770600,4.8387705078125,0.7883210182189941,0.43722647428512573,-0.04085158184170723
1772810163885471000,4.848470947265625,0.7571669220924377,0.13423752784729004,0.30489787459373474
1772810163895171000,4.858171142578125,0.6863065958023071,-0.010155626572668552,0.5422188639640808
1772810163904871400,4.867871337890625,0.6175842881202698,-0.01718057133257389,0.6063596606254578
1772810163914571800,4.87757177734375,0.5561923980712891,0.08200860023498535,0.5217548608779907
1772810163924271900,4.88727197265625,0.5195404887199402,0.28237223625183105,0.3528507649898529
1772810163933972200,4.89697216796875,0.509155809879303,0.5169443488121033,0.15859577059745789
1772810163943672300,4.90667236328125,0.5128209590911865,0.7283035516738892,-0.02283107116818428
1772810163953372700,4.91637255859375,0.5180133581161499,0.8797979950904846,-0.15752676129341125
1772810163963073000,4.926072998046875,0.5094612240791321,0.9521854519844055,-0.23846633732318878
1772810163972773400,4.9357734375,0.471587598323822,0.8947641849517822,-0.26595523953437805
1772810163982473500,4.945473388671875,0.39217519760131836,0.7090612649917603,-0.26137375831604004
1772810163992173800,4.955173828125,0.2932150959968567,0.41523534059524536,-0.24549128115177155
1772810164001874200,4.964874267578125,0.2107483446598053,0.11499529331922531,-0.21616977453231812
1772810164011574300,4.97457421875,0.1493564397096634,-0.13599377870559692,-0.18532110750675201
1772810164021274600,4.984274658203125,0.11087195575237274,-0.3131445646286011,-0.15202897787094116
1772810164030974700,4.993974609375,0.08552107214927673,-0.39713847637176514,-0.10529781877994537
1772810164040675000,5.003675048828125,0.05100720748305321,-0.40721774101257324,-0.04451677203178406
1772810164050375400,5.01337548828125,-0.0030543238390237093,-0.38033968210220337,0.02390008419752121
1772810164060075800,5.02307568359375,-0.08643736690282822,-0.3134499788284302,0.08956804871559143
1772810164069776000,5.03277587890625,-0.1893680840730667,-0.1986074149608612,0.1268308013677597
1772810164079476200,5.042476318359375,-0.28924447298049927,-0.09720385819673538,0.11858412623405457
1772810164089176600,5.052176513671875,-0.3796524703502655,-0.004428769461810589,0.08437569439411163
1772810164098876700,5.061876708984375,-0.46547895669937134,0.1259908676147461,0.028787001967430115
1772810164108577000,5.071576904296875,-0.5335903763771057,0.27748534083366394,-0.06650790572166443
1772810164118277000,5.081277099609375,-0.5723803043365479,0.4140135943889618,-0.19937099516391754
1772810164127977500,5.0909775390625,-0.535728394985199,0.5111411213874817,-0.308104932308197
1772810164137677800,5.100677734375,-0.3860665261745453,0.5377137064933777,-0.3258199989795685
1772810164147378200,5.110378173828125,-0.23273947834968567,0.38011062145233154,-0.1914297491312027
1772810164157078300,5.120078369140625,-0.13927717506885529,0.052687086164951324,0.17661628127098083
1772810164166778600,5.129778564453125,-0.10690133273601532,-0.29359689354896545,0.7230347990989685
1772810164176479000,5.13947900390625,-0.23976442217826843,-0.5464949011802673,1.2407426834106445
1772810164186179000,5.149178955078125,-0.5549706816673279,-0.7505237460136414,1.4582105875015259
1772810164195879400,5.15887939453125,-0.9471458196640015,-1.1430044174194336,1.03365957736969
1772810164205579500,5.16857958984375,-1.2910627126693726,-1.606650710105896,-0.18868085741996765
1772810164215279900,5.17827978515625,-1.3949097394943237,-1.6234495639801025,-1.7821216583251953
1772810164224980200,5.187980224609375,-1.1618647575378418,-1.1249839067459106,-2.9366559982299805
1772810164234680600,5.1976806640625,-0.6334667801856995,-0.7868701815605164,-3.194441080093384
1772810164244380700,5.207380615234375,-0.08765909820795059,-0.9197332859039307,-2.538066864013672
1772810164254081000,5.2170810546875,0.19089524447917938,-0.9643264412879944,-1.1822524070739746
1772810164263781400,5.226781494140625,0.24556763470172882,-0.15981750190258026,0.6054433584213257
1772810164273481500,5.2364814453125,0.10506874322891235,1.1711804866790771,2.33174729347229
1772810164283181800,5.246181884765625,-0.11606431007385254,2.2957825660705566,3.434968948364258
1772810164292882000,5.2558818359375,-0.2874118685722351,2.91703200340271,3.736736297607422
1772810164302582300,5.265582275390625,-0.2761108875274658,2.8150177001953125,3.552255153656006
1772810164312282600,5.27528271484375,-0.13530655205249786,2.0810635089874268,3.1371724605560303
1772810164321983000,5.28498291015625,0.012522728182375431,1.200196623802185,2.6203808784484863
1772810164331683000,5.29468310546875,0.1282816082239151,0.4964803457260132,1.886121392250061
1772810164341383400,5.304383544921875,0.3283398151397705,0.18524473905563354,0.895604133605957
1772810164351083800,5.314083740234375,0.6875283122062683,0.6944005489349365,0.054443322122097015
1772810164360784000,5.323783935546875,0.8830050230026245,1.3776527643203735,-0.7412080764770508
1772810164370484200,5.333484130859375,0.8127555847167969,1.3968950510025024,-1.455614447593689
1772810164380184300,5.343184326171875,0.8414662480354309,1.225547432899475,-1.6391792297363281
1772810164389884700,5.352884765625,1.1377356052398682,1.216689944267273,-1.177976369857788
1772810164399585000,5.3625849609375,1.4883720874786377,1.2102758884429932,-0.32826346158981323
1772810164409285400,5.372285400390625,1.6817107200622559,1.0816887617111206,0.617355227470398
1772810164418985500,5.3819853515625,1.6988149881362915,0.8956804871559143,1.4927244186401367
1772810164428685800,5.391685791015625,1.64566969871521,0.773202121257782,2.20560359954834
1772810164438386200,5.40138623046875,1.5922189950942993,0.7585413455963135,2.689103126525879
1772810164448086300,5.411086181640625,1.5497639179229736,0.7768672704696655,2.921842575073242
1772810164457786600,5.42078662109375,1.4819579124450684,0.7002037763595581,2.9539129734039307
1772810164467486700,5.43048681640625,1.3353503942489624,0.4958694875240326,2.843346357345581
1772810164477187000,5.44018701171875,1.1050543785095215,0.17363831400871277,2.638706684112549
1772810164486887400,5.449887451171875,0.8390227556228638,-0.2582430839538574,2.3858087062835693
1772810164496587800,5.459587890625,0.5604684352874756,-0.7169261574745178,2.0846524238586426
1772810164506287900,5.469287841796875,0.3390299379825592,-1.042211651802063,1.7944916486740112
1772810164515988200,5.47898828125,0.22785256803035736,-1.099327564239502,1.6002366542816162
1772810164525688600,5.4886884765625,0.21441353857517242,-0.9621883630752563,1.5098286867141724
1772810164535388700,5.498388671875,0.24526220560073853,-0.7312815189361572,1.4545453786849976
1772810164545089000,5.508089111328125,0.2968802750110626,-0.450589120388031,1.3925426006317139
1772810164554789000,5.5177890625,0.3426951467990875,-0.18669554591178894,1.3094650506973267
1772810164564489500,5.527489501953125,0.27427828311920166,-0.10178534686565399,1.2187515497207642
1772810164574189800,5.53718994140625,0.027488915249705315,-0.17020219564437866,1.1509455442428589
1772810164583890000,5.546889892578125,-0.277332603931427,-0.32597270607948303,1.0858885049819946
1772810164593590300,5.55659033203125,-0.528092622756958,-0.4915170669555664,0.9857066869735718
1772810164603290600,5.56629052734375,-0.7260127663612366,-0.6359865665435791,0.8274927139282227
1772810164612991000,5.575990966796875,-0.8747583627700806,-0.711122989654541,0.61827152967453
1772810164622691000,5.585691162109375,-0.952949047088623,-0.6814960241317749,0.3586539924144745
1772810164632391400,5.595391357421875,-0.9367611408233643,-0.5785652995109558,0.0651334598660469
1772810164642091500,5.605091552734375,-0.8338304162025452,-0.5361102223396301,-0.2424369603395462
1772810164651792000,5.6147919921875,-0.7104357481002808,-0.5550470352172852,-0.4895317554473877
1772810164661492200,5.6244921875,-0.6291907429695129,-0.5150353908538818,-0.6159807443618774
1772810164671192300,5.6341923828125,-0.5910117030143738,-0.41210466623306274,-0.6260600686073303
1772810164680892700,5.643892578125,-0.5879573225975037,-0.3525453209877014,-0.5643627047538757
1772810164690593000,5.653593017578125,-0.6117810606956482,-0.3678169548511505,-0.4431060254573822
1772810164700293000,5.663293212890625,-0.6615665555000305,-0.4597521126270294,-0.2778671085834503
1772810164709993500,5.672993408203125,-0.7086031436920166,-0.5486329197883606,-0.08422297984361649
1772810164719693800,5.68269384765625,-0.7009673118591309,-0.5177842378616333,0.08681915700435638
1772810164729394000,5.692393798828125,-0.6172788739204407,-0.35010188817977905,0.17142392694950104
1772810164739094300,5.70209423828125,-0.4981602132320404,-0.1628718227148056,0.11858412623405457
1772810164748794600,5.711794677734375,-0.3964512348175049,0.025809036567807198,-0.053985174745321274
1772810164758494700,5.72149462890625,-0.29138249158859253,0.258853942155838,-0.29588761925697327
1772810164768195000,5.731195068359375,-0.16279546916484833,0.5465712547302246,-0.4996110200881958
1772810164777895400,5.7408955078125,-0.04153880476951599,0.8358157277107239,-0.6517163515090942
1772810164787595500,5.750595458984375,0.016798781231045723,0.9176716208457947,-0.8783472180366516
1772810164797295900,5.7602958984375,0.02871064469218254,0.6592758297920227,-1.3939170837402344
1772810164806996000,5.769995849609375,0.14477495849132538,0.14309507608413696,-2.320293426513672
1772810164816696300,5.7796962890625,0.43340855836868286,-0.1329394429922104,-3.3700647354125977
1772810164826396700,5.789396728515625,0.8359684348106384,-0.029703300446271896,-4.202367782592773
1772810164836097000,5.799096923828125,1.3930771350860596,0.061850059777498245,-4.8672943115234375
1772810164845797000,5.808797119140625,1.9868377447128296,-0.3070359230041504,-5.665694236755371
1772810164855497500,5.81849755859375,2.3429718017578125,-1.088026523590088,-6.5019683837890625
1772810164865197800,5.82819775390625,2.4999639987945557,-1.7685298919677734,-7.047165393829346
1772810164874898000,5.83789794921875,2.472780704498291,-1.8375576734542847,-7.078013896942139
1772810164884598300,5.847598388671875,2.3533565998077393,-1.3614648580551147,-6.683089733123779
1772810164894298400,5.85729833984375,2.156658172607422,-0.7853430509567261,-6.086885929107666
1772810164903998700,5.866998779296875,1.8613049983978271,-0.312228262424469,-5.525500774383545
1772810164913699000,5.876698974609375,1.6258165836334229,0.024281874299049377,-4.987329006195068
1772810164923399400,5.8863994140625,1.6172645092010498,0.16600249707698822,-4.288194179534912
1772810164933099500,5.896099609375,1.6780455112457275,0.016035201027989388,-3.3022587299346924
1772810164942800000,5.9057998046875,1.6319252252578735,-0.17722713947296143,-1.926285743713379
1772810164952500200,5.915500244140625,1.375972867012024,-0.3061196208000183,-0.2170860767364502
1772810164962200300,5.925200439453125,0.9868520498275757,-0.30245441198349,1.5015820264816284
1772810164971900700,5.934900634765625,0.555276095867157,-0.12041672319173813,2.7969207763671875
1772810164981600800,5.944600830078125,0.08124501258134842,0.23564109206199646,3.4725372791290283
1772810164991301000,5.954301025390625,-0.39400777220726013,0.7246383428573608,3.603567600250244
1772810165001001500,5.96400146484375,-0.7880155444145203,1.2441788911819458,3.343644618988037
1772810165010701800,5.973701904296875,-1.0274745225906372,1.6788091659545898,2.9007678031921387
1772810165020402000,5.98340185546875,-1.120631456375122,1.8990259170532227,2.4636940956115723
1772810165030102300,5.993102294921875,-1.1255183219909668,1.863901138305664,2.1677300930023193
1772810165039802400,6.00280224609375,-1.0870338678359985,1.6421571969985962,2.0366995334625244
1772810165049502700,6.012502685546875,-1.0418298244476318,1.3055707216262817,2.0400593280792236
1772810165059203000,6.022203125,-0.9697478413581848,0.9457713961601257,2.1741440296173096
1772810165068903200,6.031903076171875,-0.8246674537658691,0.5716167092323303,2.429180145263672
1772810165078603500,6.041603515625,-0.6545416116714478,0.22464552521705627,2.7404158115386963
1772810165088303900,6.051303955078125,-0.5225948095321655,-0.05780307948589325,3.0095016956329346
1772810165098004200,6.061004150390625,-0.45875945687294006,-0.27924156188964844,3.159163475036621
1772810165107704300,6.070704345703125,-0.46517354249954224,-0.3943895697593689,3.12770414352417
1772810165117404700,6.08040478515625,-0.4874700903892517,-0.37575820088386536,2.9056546688079834
1772810165127104800,6.090104736328125,-0.457843154668808,-0.28901541233062744,2.5840344429016113
1772810165136805000,6.09980517578125,-0.3698786199092865,-0.1839466542005539,2.2324817180633545
1772810165146505500,6.10950537109375,-0.27366742491722107,-0.12163844704627991,1.9120831489562988
1772810165156205600,6.11920556640625,-0.20158538222312927,-0.12286017835140228,1.6475787162780762
1772810165165906000,6.128906005859375,-0.17653992772102356,-0.16989676654338837,1.4230858087539673
1772810165175606300,6.138606201171875,-0.18784092366695404,-0.2505309283733368,1.2031745910644531
1772810165185306400,6.148306396484375,-0.22174391150474548,-0.3119228184223175,0.978070855140686
1772810165195006700,6.1580068359375,-0.2626718580722809,-0.29940009117126465,0.7547997832298279
1772810165204707000,6.16770703125,-0.29626941680908203,-0.22670719027519226,0.534277617931366
1772810165214407200,6.1774072265625,-0.3283398151397705,-0.13538290560245514,0.3320813775062561
1772810165224107500,6.187107421875,-0.36743515729904175,-0.11552979797124863,0.1729510873556137
1772810165233808000,6.196807861328125,-0.38331764936447144,-0.1937204897403717,0.0807105079293251
1772810165243508000,6.206508056640625,-0.33597561717033386,-0.3287216126918793,0.0022143847309052944
1772810165253208300,6.216208251953125,-0.2981020212173462,-0.49273881316185,-0.12851068377494812
1772810165262908700,6.22590869140625,-0.27519458532333374,-0.5968912243843079,-0.28519749641418457
1772810165272608800,6.23560888671875,-0.21777328848838806,-0.572151243686676,-0.3618610203266144
1772810165282309000,6.24530908203125,-0.14110976457595825,-0.44325876235961914,-0.3087157905101776
1772810165292009200,6.25500927734375,-0.1029307171702385,-0.3571268320083618,-0.16455170512199402
1772810165301709600,6.26470947265625,-0.12095122784376144,-0.34643667936325073,-0.015806125476956367
1772810165311410000,6.274409912109375,-0.1337793916463852,-0.45822495222091675,-0.03932442143559456
1772810165321110300,6.2841103515625,-0.17318016290664673,-0.8363502621650696,-0.372245728969574
1772810165330810400,6.293810302734375,-0.22785256803035736,-1.2731186151504517,-0.8731548190116882
1772810165340510700,6.3035107421875,-0.19730933010578156,-1.7080543041229248,-1.3377175331115723
1772810165350211000,6.313211181640625,-0.11911863088607788,-2.1744494438171387,-1.5078433752059937
1772810165359911200,6.3229111328125,0.1185077652335167,-2.399247884750366,-1.2066869735717773
1772810165369611500,6.332611572265625,0.337808221578598,-2.409632444381714,-0.612621009349823
1772810165379311600,6.3423115234375,0.39828383922576904,-2.2013275623321533,0.12591449916362762
1772810165389012000,6.352011962890625,0.35766133666038513,-1.6491057872772217,0.9380592107772827
1772810165398712300,6.36171240234375,0.21777328848838806,-0.8329904675483704,1.6601014137268066
1772810165408412700,6.37141259765625,0.02107483521103859,0.054214250296354294,2.136575937271118
1772810165418112800,6.38111279296875,-0.15638138353824615,0.8663589954376221,2.334496021270752
1772810165427813000,6.390813232421875,-0.31581708788871765,1.4833323955535889,2.258748769760132
1772810165437513200,6.40051318359375,-0.49021899700164795,1.9255985021591187,1.9371285438537598
1772810165447213600,6.410213623046875,-0.6450732350349426,2.268904447555542,1.4114794731140137
1772810165456914000,6.419913818359375,-0.7336485981941223,2.60426926612854,0.7242565751075745
1772810165466614000,6.429614013671875,-0.7067705392837524,2.8431174755096436,-0.020387612283229828
1772810165476314400,6.439314453125,-0.5592467188835144,2.855945587158203,-0.6288089156150818
1772810165486014700,6.4490146484375,-0.27427828311920166,2.520580768585205,-0.8957568407058716
1772810165495714800,6.45871484375,0.07788526266813278,1.871842384338379,-0.7409026026725769
1772810165505415200,6.468415283203125,0.39828383922576904,1.1653772592544556,-0.18532110750675201
1772810165515115500,6.478115478515625,0.6065887212753296,0.7118101716041565,0.6414843797683716
1772810165524815600,6.487815673828125,0.6328558921813965,0.5309942364692688,1.5553381443023682
1772810165534516000,6.497515869140625,0.5048797130584717,0.5392408967018127,2.412686824798584
1772810165544216300,6.50721630859375,0.2919933497905731,0.7133373618125916,3.097160816192627
1772810165553916400,6.51691650390625,0.0821613147854805,0.8880446553230286,3.5296530723571777
1772810165563616800,6.52661669921875,-0.05253437161445618,0.9567669630050659,3.6887834072113037
1772810165573317000,6.536317138671875,-0.05253437161445618,0.9628756046295166,3.6099817752838135
1772810165583017200,6.546017333984375,0.05864302068948746,0.8959859013557434,3.321348190307617
1772810165592717600,6.555717529296875,0.19394956529140472,0.7371610999107361,2.865337610244751
1772810165602417700,6.565417724609375,0.2623664140701294,0.5551233887672424,2.323500633239746
1772810165612118000,6.575117919921875,0.2467893660068512,0.4234820008277893,1.809457778930664
1772810165621818400,6.584818359375,0.18325942754745483,0.36361727118492126,1.395596981048584
1772810165631518500,6.5945185546875,0.11239911615848541,0.33857181668281555,1.1023818254470825
1772810165641218800,6.60421875,0.06108647957444191,0.3040579557418823,0.8980475664138794
1772810165650919200,6.613919189453125,0.01893680728971958,0.228921577334404,0.727921724319458
1772810165660619500,6.62361962890625,-0.02779434807598591,0.10094540566205978,0.570624053478241
1772810165670319600,6.633319580078125,-0.06994401663541794,-0.06520981341600418,0.45761406421661377
1772810165680020000,6.64302001953125,-0.08888082206249237,-0.2398407906293869,0.4145480990409851
1772810165689720000,6.652719970703125,-0.08155044913291931,-0.37667450308799744,0.4359283745288849
1772810165699420400,6.66242041015625,-0.07238747924566269,-0.4609738290309906,0.48357582092285156
1772810165709120800,6.672120849609375,-0.07635809481143951,-0.48327040672302246,0.5095375776290894
1772810165718820900,6.68182080078125,-0.08826996386051178,-0.4518108665943146,0.5034289360046387
1772810165728521200,6.691521240234375,-0.10476330667734146,-0.4081340432167053,0.4597521126270294
1772810165738221600,6.7012216796875,-0.1484401375055313,-0.3678169548511505,0.37026041746139526
1772810165747921700,6.710921630859375,-0.23335035145282745,-0.35498878359794617,0.23800818622112274
1772810165757622000,6.7206220703125,-0.3454440236091614,-0.37575820088386536,0.07185296714305878
1772810165767322000,6.730322021484375,-0.42821621894836426,-0.4038579761981964,-0.11751510947942734
1772810165777022500,6.7400224609375,-0.4657844007015228,-0.44234246015548706,-0.33192864060401917
1772810165786722800,6.749722900390625,-0.4871646761894226,-0.4820486605167389,-0.53931725025177
1772810165796423200,6.759423095703125,-0.47372564673423767,-0.48357582092285156,-0.704861581325531
1772810165806123300,6.769123291015625,-0.40958482027053833,-0.42248934507369995,-0.8114575147628784
1772810165815823600,6.77882373046875,-0.3329212963581085,-0.32078036665916443,-0.8896481990814209
1772810165825523700,6.788523681640625,-0.2562577724456787,-0.20563235878944397,-0.9455423355102539
1772810165835224000,6.79822412109375,-0.20372340083122253,-0.0962875634431839,-0.9873865842819214
1772810165844924400,6.80792431640625,-0.23212862014770508,-0.02695440873503685,-1.0255656242370605
1772810165854624500,6.81762451171875,-0.29504770040512085,-0.034895651042461395,-1.0270928144454956
1772810165864324900,6.827324951171875,-0.27916520833969116,-0.0013744457392022014,-0.9259946346282959
1772810165874025200,6.837025146484375,-0.189673513174057,0.14248420298099518,-0.7396808862686157
1772810165883725600,6.8467255859375,-0.08674279600381851,0.39477136731147766,-0.6434696912765503
1772810165893425700,6.85642578125,0.03543015569448471,0.5025889873504639,-0.7946587204933167
1772810165903126000,6.8661259765625,0.10476330667734146,0.3162752389907837,-1.2390629053115845
1772810165912826000,6.875826171875,0.19303326308727264,0.05940660089254379,-1.8386266231536865
1772810165922526500,6.8855263671875,0.49418962001800537,0.12873975932598114,-2.340146541595459
1772810165932226800,6.895226806640625,0.9572250843048096,0.41523534059524536,-2.568915367126465
1772810165941927000,6.904927001953125,1.386052131652832,0.669965922832489,-2.6403865814208984
1772810165951627300,6.914627197265625,1.5503748655319214,0.43203410506248474,-2.673067808151245
1772810165961327600,6.92432763671875,1.3552035093307495,-0.37056586146354675,-2.6425247192382812
1772810165971027700,6.93402783203125,0.9648609161376953,-1.517464518547058,-2.6678755283355713
1772810165980728000,6.94372802734375,0.5064069032669067,-2.8299074172973633,-2.815399408340454
1772810165990428200,6.95342822265625,0.13469567894935608,-3.5601963996887207,-2.898477077484131
1772810166000128500,6.96312841796875,-0.021380268037319183,-3.120068311691284,-2.7237696647644043
1772810166009828900,6.972828857421875,-0.08338304609060287,-1.7480659484863281,-2.323347806930542
1772810166019529200,6.982529296875,-0.20769402384757996,0.011453714221715927,-1.750662088394165
1772810166029229300,6.992229248046875,-0.3860665261745453,1.6375757455825806,-1.0909281969070435
1772810166038929700,7.0019296875,-0.545502245426178,2.6818490028381348,-0.5411498546600342
1772810166048629800,7.011629638671875,-0.5222893953323364,3.0523386001586914,-0.150196373462677
1772810166058330000,7.021330078125,-0.20158538222312927,2.6919283866882324,0.12163844704627991
1772810166068030500,7.031030517578125,0.2315177470445633,1.8138102293014526,0.41149377822875977
1772810166077730600,7.04073046875,0.5586358308792114,0.8932369947433472,0.8216894865036011
1772810166087431000,7.050430908203125,0.740368127822876,0.16966769099235535,1.2868629693984985
1772810166097131300,7.06013134765625,0.7846558094024658,-0.2807687222957611,1.6686534881591797
1772810166106831600,7.06983154296875,0.7525854110717773,-0.42248934507369995,1.8720715045928955
1772810166116531700,7.07953173828125,0.6609556674957275,-0.24594943225383759,1.8775691986083984
1772810166126232000,7.089232177734375,0.4883863925933838,0.15386156737804413,1.7224096059799194
1772810166135932200,7.09893212890625,0.29474225640296936,0.6810378432273865,1.5028036832809448
1772810166145632500,7.108632568359375,0.13591741025447845,1.2020292282104492,1.2844195365905762
1772810166155332900,7.118332763671875,0.007635809946805239,1.5804599523544312,1.1045198440551758
1772810166165033000,7.128032958984375,-0.09957095980644226,1.7588324546813965,0.9792925715446472
1772810166174733300,7.1377333984375,-0.15179990231990814,1.7130175828933716,0.9194278717041016
1772810166184433700,7.14743359375,-0.13683371245861053,1.4692825078964233,0.9191223978996277
1772810166194133800,7.1571337890625,-0.08949168771505356,1.0377064943313599,0.9802088737487793
1772810166203834000,7.166834228515625,-0.015271619893610477,0.47754353284835815,1.1240675449371338
1772810166213534200,7.1765341796875,0.09407317638397217,-0.0038179049734026194,1.346727728843689
1772810166223234600,7.186234619140625,0.18112140893936157,-0.2692386507987976,1.5574761629104614
1772810166232935000,7.195934814453125,0.19944734871387482,-0.343993216753006,1.6237549781799316
1772810166242635300,7.20563525390625,0.17898337543010712,-0.36598435044288635,1.5110503435134888
1772810166252335400,7.21533544921875,0.143553227186203,-0.3687332570552826,1.2786163091659546
1772810166262035700,7.22503564453125,0.10079269111156464,-0.2868773639202118,0.9493602514266968
1772810166271735800,7.23473583984375,0.08552107214927673,-0.147905632853508,0.5052615404129028
1772810166281436200,7.244436279296875,0.11423171311616898,-0.015729768201708794,-0.05734493210911751
1772810166291136500,7.254136474609375,0.1380554437637329,0.10399972647428513,-0.6449968218803406
1772810166300836600,7.263836669921875,0.12400554865598679,0.22006404399871826,-1.1480439901351929
1772810166310537000,7.273536865234375,0.06933315098285675,0.29367324709892273,-1.5057053565979004
1772810166320237300,7.2832373046875,0.003665188793092966,0.2945895493030548,-1.7008765935897827
1772810166329937400,7.2929375,-0.06994401663541794,0.23594652116298676,-1.7628793716430664
1772810166339637800,7.3026376953125,-0.1487455666065216,0.12660172581672668,-1.7613521814346313
1772810166349337900,7.312337890625,-0.2049451321363449,0.0007635809597559273,-1.7531055212020874
1772810166359038200,7.3220380859375,-0.20616686344146729,-0.15004366636276245,-1.7531055212020874
1772810166368738600,7.331738525390625,-0.14202606678009033,-0.3116174042224884,-1.7387502193450928
1772810166378439000,7.34143896484375,-0.03940077871084213,-0.4310414493083954,-1.6703333854675293
1772810166388139000,7.351138916015625,0.06505709886550903,-0.571540355682373,-1.5179226398468018
1772810166397839400,7.36083935546875,0.13164135813713074,-0.7963386178016663,-1.2528072595596313
1772810166407539700,7.370539794921875,0.1536324918270111,-1.0727548599243164,-0.9033926725387573
1772810166417239800,7.38023974609375,0.12186752259731293,-1.3070214986801147,-0.5768854022026062
1772810166426940200,7.389940185546875,0.043982263654470444,-1.4349976778030396,-0.4522690176963806
1772810166436640300,7.39964013671875,-0.010079269297420979,-1.4594323635101318,-0.6251437664031982
1772810166446340600,7.409340576171875,0,-1.3995676040649414,-0.9870811104774475
1772810166456041000,7.419041015625,0.06902772188186646,-1.347949504852295,-1.2549452781677246
1772810166465741300,7.4287412109375,0.17287473380565643,-1.1420880556106567,-1.1730895042419434
1772810166475441400,7.43844140625,0.1701258420944214,-0.7022654414176941,-0.714024543762207
1772810166485141800,7.448141845703125,-0.05803215503692627,-0.261526495218277,-0.1547778695821762
1772810166494841900,7.457841796875,-0.40347617864608765,0.11346813291311264,0.2819904685020447
1772810166504542200,7.467542236328125,-0.6120865345001221,0.588110089302063,0.534277617931366
1772810166514242600,7.47724267578125,-0.5329795479774475,0.9967786073684692,0.6793580055236816
1772810166523942700,7.486942626953125,-0.30573782324790955,1.1549925804138184,0.8003092408180237
1772810166533643000,7.49664306640625,-0.07910698652267456,0.873994767665863,0.9692133069038391
1772810166543343400,7.50634326171875,0.19669845700263977,0.18310672044754028,1.2382992506027222
1772810166553043500,7.51604345703125,0.41844236850738525,-0.7047088742256165,1.6020692586898804
1772810166562743800,7.525743896484375,0.48655378818511963,-1.4414118528366089,2.074878692626953
1772810166572444000,7.53544384765625,0.5189296007156372,-1.7706679105758667,2.579758405685425
1772810166582144300,7.545144287109375,0.5158752799034119,-1.6216169595718384,2.9111523628234863
1772810166591844600,7.5548447265625,0.44409868121147156,-1.1234567165374756,2.9670464992523193
1772810166601545000,7.564544921875,0.34727662801742554,-0.46280643343925476,2.793255567550659
1772810166611245000,7.5742451171875,0.2632827162742615,0.1879936307668686,2.488434076309204
1772810166620945400,7.5839453125,0.17623448371887207,0.7838922142982483,2.1145846843719482
1772810166630645500,7.5936455078125,0.05436696484684944,1.3110685348510742,1.7327942848205566
1772810166640345900,7.603345947265625,-0.12370011955499649,1.864817500114441,1.441717267036438
1772810166650046200,7.613046142578125,-0.33078327775001526,2.442084789276123,1.3268746137619019
1772810166659746300,7.622746337890625,-0.5238165259361267,2.8153231143951416,1.4004838466644287
1772810166669446700,7.63244677734375,-0.6316341757774353,2.8351762294769287,1.589851975440979
1772810166679147000,7.64214697265625,-0.6087267398834229,2.489732027053833,1.7514256238937378
1772810166688847000,7.65184716796875,-0.4816668927669525,1.9124648571014404,1.7734167575836182
1772810166698547500,7.66154736328125,-0.26939135789871216,1.187368392944336,1.683619737625122
1772810166708247600,7.67124755859375,-0.007635809946805239,0.4653262495994568,1.5660282373428345
1772810166717948000,7.680947998046875,0.2767217457294464,-0.10514509677886963,1.4649300575256348
1772810166727648300,7.690648193359375,0.5485565662384033,-0.5587121844291687,1.3696352243423462
1772810166737348600,7.7003486328125,0.7889318466186523,-0.8983530402183533,1.3024400472640991
1772810166747048700,7.710048583984375,0.9553925395011902,-1.0721440315246582,1.247462272644043
1772810166756749000,7.7197490234375,0.9847140312194824,-1.1448369026184082,1.1796562671661377
1772810166766449200,7.72944921875,0.8820887207984924,-1.0846667289733887,1.0803906917572021
1772810166776149500,7.7391494140625,0.6960803866386414,-0.867504358291626,0.9072105288505554
1772810166785849900,7.748849853515625,0.4734202027320862,-0.5687914490699768,0.6576722860336304
1772810166795550000,7.758550048828125,0.25809037685394287,-0.23189954459667206,0.3482692837715149
1772810166805250300,7.768250244140625,0.10048725455999374,0.0844520553946495,0.019929463043808937
1772810166814950700,7.77795068359375,0.009773836471140385,0.31322091817855835,-0.27572908997535706
1772810166824650800,7.787650634765625,-0.04520399495959282,0.42531460523605347,-0.5032762289047241
1772810166834351000,7.79735107421875,-0.1029307171702385,0.3776671588420868,-0.6477457284927368
1772810166844051200,7.80705126953125,-0.17806708812713623,0.20143266022205353,-0.7066941857337952
1772810166853751600,7.81675146484375,-0.2458730787038803,-0.002825249684974551,-0.7094430923461914
1772810166863452000,7.826451904296875,-0.28069236874580383,-0.12957969307899475,-0.7247146964073181
1772810166873152300,7.83615234375,-0.28496840596199036,-0.1683696061372757,-0.7772490978240967
1772810166882852400,7.845852294921875,-0.2724456787109375,-0.1582903414964676,-0.8429170250892639
1772810166892552700,7.855552734375,-0.2877173125743866,-0.13904809951782227,-0.8972840309143066
1772810166902252800,7.865252685546875,-0.35246896743774414,-0.1476002037525177,-0.9342412948608398
1772810166911953200,7.874953125,-0.45387253165245056,-0.1482110619544983,-0.964784562587738
1772810166921653500,7.884653564453125,-0.5845975875854492,-0.12621992826461792,-1.0020473003387451
1772810166931353600,7.894353515625,-0.7043271064758301,-0.11033745110034943,-1.0362557172775269
1772810166941054000,7.904053955078125,-0.7935133576393127,-0.13568833470344543,-1.0426697731018066
1772810166950754300,7.91375439453125,-0.8552106618881226,-0.2096029818058014,-1.008766770362854
1772810166960454400,7.923454345703125,-0.9004147052764893,-0.3369682729244232,-0.93729567527771
1772810166970154800,7.93315478515625,-0.934623122215271,-0.47868892550468445,-0.8303943276405334
1772810166979854800,7.942854736328125,-0.9272927641868591,-0.5681806206703186,-0.6843976378440857
1772810166989555200,7.95255517578125,-0.8753692507743835,-0.5406916737556458,-0.5237401723861694
1772810166999255600,7.962255615234375,-0.8576541543006897,-0.43715012073516846,-0.386601060628891
1772810167008956000,7.971955810546875,-0.89705491065979,-0.3623191714286804,-0.28672465682029724
1772810167018656000,7.981656005859375,-0.9211840629577637,-0.3317759335041046,-0.20364704728126526
1772810167028356400,7.9913564453125,-0.8842267394065857,-0.3641517758369446,-0.15141810476779938
1772810167038056400,8.001056396484374,-0.7895427346229553,-0.42248934507369995,-0.23907721042633057
1772810167047756800,8.0107568359375,-0.629496157169342,-0.5535198450088501,-0.576274573802948
1772810167057457200,8.02045703125,-0.4364628791809082,-0.7480802536010742,-1.2207368612289429
1772810167067157200,8.0301572265625,-0.2574795186519623,-0.8244383931159973,-2.0530402660369873
1772810167076857600,8.039857666015624,-0.017715077847242355,-0.3901135325431824,-2.655352830886841
1772810167086558000,8.049557861328125,0.35674503445625305,0.49342602491378784,-2.7659194469451904
1772810167096258000,8.059258056640624,0.7192932963371277,1.0816887617111206,-2.5683045387268066
1772810167105958400,8.06895849609375,0.9120211005210876,0.7316632866859436,-2.403981924057007
1772810167115658500,8.078658447265624,0.8817833065986633,-0.41302093863487244,-2.398484230041504
1772810167125358800,8.08835888671875,0.6905826330184937,-1.6552144289016724,-2.4009275436401367
1772810167135059200,8.09805908203125,0.4673115611076355,-2.655811071395874,-2.354196548461914
1772810167144759300,8.10775927734375,0.250149130821228,-3.2022294998168945,-2.250044107437134
1772810167154459600,8.117459716796875,0.10995566099882126,-2.9844563007354736,-1.9638539552688599
1772810167164160000,8.127159912109375,0.11575887352228165,-2.119777202606201,-1.3972768783569336
1772810167173860000,8.136860107421874,0.24740023910999298,-0.9576069116592407,-0.6327795386314392
1772810167183560400,8.146560546875,0.4984656572341919,0.15439607203006744,0.16378812491893768
1772810167193260800,8.1562607421875,0.8142827749252319,0.9332486391067505,0.8461240530014038
1772810167202961000,8.1659609375,0.9957095980644226,1.105207085609436,1.2227221727371216
1772810167212661200,8.1756611328125,0.9373720288276672,0.7396045327186584,1.2523491382598877
1772810167222361600,8.185361572265625,0.7134900689125061,0.3404043912887573,1.0748928785324097
1772810167232061700,8.195061767578125,0.46547895669937134,0.20082180202007294,0.7835104465484619
1772810167241762000,8.204761962890625,0.26022839546203613,0.33948808908462524,0.43776097893714905
1772810167251462100,8.214462158203125,0.10323614627122879,0.7102830410003662,0.10422880202531815
1772810167261162500,8.22416259765625,-0.008857538923621178,1.1653772592544556,-0.18012875318527222
1772810167270862800,8.23386279296875,-0.10476330667734146,1.5361721515655518,-0.3804923892021179
1772810167280563000,8.24356298828125,-0.15638138353824615,1.7539454698562622,-0.4440223276615143
1772810167290263300,8.25326318359375,-0.13041962683200836,1.8171700239181519,-0.3392590284347534
1772810167299963600,8.262963623046875,-0.061391908675432205,1.743560791015625,-0.083306685090065
1772810167309663700,8.272663818359375,0.019242240116000175,1.5471677780151367,0.28351762890815735
1772810167319364000,8.282364013671875,0.12064579129219055,1.2231040000915527,0.6903535723686218
1772810167329064200,8.292064208984375,0.23243404924869537,0.8315396904945374,1.0443496704101562
1772810167338764500,8.3017646484375,0.3185659945011139,0.4741837978363037,1.2651773691177368
1772810167348465000,8.31146484375,0.3488037884235382,0.17516547441482544,1.3195443153381348
1772810167358165200,8.321165283203126,0.3090975880622864,-0.002290742937475443,1.211115837097168
1772810167367865300,8.330865234375,0.24312418699264526,-0.03000873140990734,0.9533308744430542
1772810167377565700,8.340565673828126,0.20463970303535461,0.009315688163042068,0.6005564332008362
1772810167387265800,8.350265869140625,0.18356487154960632,0.09880737960338593,0.2352592945098877
1772810167396966100,8.359966064453126,0.17104214429855347,0.20601414144039154,-0.07780890166759491
1772810167406666500,8.36966650390625,0.15515965223312378,0.29153522849082947,-0.3041343092918396
1772810167416366600,8.37936669921875,0.11514800786972046,0.29275694489479065,-0.4421897530555725
1772810167426067000,8.38906689453125,0.04734202101826668,0.2393062710762024,-0.5054142475128174
1772810167435767300,8.398767333984376,-0.03176496922969818,0.20937390625476837,-0.5414552688598633
1772810167445467400,8.40846728515625,-0.12400554865598679,0.2084576040506363,-0.5900190472602844
1772810167455167700,8.418167724609376,-0.23396120965480804,0.17638720571994781,-0.6743183732032776
1772810167464867800,8.427867919921875,-0.34727662801742554,0.1204930767416954,-0.7711403965950012
1772810167474568200,8.437568115234376,-0.4202749729156494,0.06979130208492279,-0.8661298751831055
1772810167484268500,8.4472685546875,-0.43829548358917236,-0.028787001967430115,-0.9400445222854614
1772810167493969000,8.456968994140626,-0.42271843552589417,-0.12133301794528961,-0.9336304664611816
1772810167503669000,8.4666689453125,-0.3689623177051544,-0.20593778789043427,-0.8132901191711426
1772810167513369300,8.476369384765626,-0.26419901847839355,-0.3415497839450836,-0.5692496299743652
1772810167523069400,8.4860693359375,-0.18784092366695404,-0.5287798047065735,-0.28000515699386597
1772810167532769800,8.495769775390626,-0.23793183267116547,-0.7040980458259583,-0.0683404952287674
1772810167542470100,8.50547021484375,-0.3597993552684784,-0.8898009061813354,0.010461059398949146
1772810167552170200,8.515170166015626,-0.48655378818511963,-1.0794744491577148,-0.013057234697043896
1772810167561870600,8.52487060546875,-0.583375871181488,-1.2465459108352661,-0.09460768103599548
1772810167571571000,8.534571044921876,-0.6508764028549194,-1.3604722023010254,-0.21433718502521515
1772810167581271000,8.54427099609375,-0.6869174242019653,-1.3476440906524658,-0.45562875270843506
1772810167590971400,8.553971435546876,-0.6505709886550903,-1.2398264408111572,-0.9577596187591553
1772810167600671500,8.56367138671875,-0.5763509273529053,-0.9157626628875732,-1.760435938835144
1772810167610371800,8.573371826171876,-0.47464191913604736,-0.10331250727176666,-2.518519163131714
1772810167620072200,8.583072265625,-0.39186975359916687,0.9338595271110535,-2.736597776412964
1772810167629772500,8.5927724609375,-0.3326158821582794,1.4616466760635376,-2.1602468490600586
1772810167639472600,8.60247265625,-0.20922118425369263,0.9680679440498352,-0.8465822339057922
1772810167649173000,8.612173095703126,-0.14569124579429626,-0.4560869038105011,0.9020181894302368
1772810167658873000,8.621873046875,-0.12980876863002777,-2.172006130218506,2.4924046993255615
1772810167668573400,8.631573486328126,-0.06017018109560013,-3.130758285522461,3.4200029373168945
1772810167678273800,8.641273681640625,-0.004276053514331579,-2.996978998184204,3.558363676071167
1772810167687974000,8.650973876953126,-0.06933315098285675,-2.085874080657959,3.1603853702545166
1772810167697674200,8.66067431640625,-0.21930044889450073,-0.8097776174545288,2.5479934215545654
1772810167707374600,8.67037451171875,-0.28985533118247986,0.6375901103019714,1.920940637588501
1772810167717074700,8.68007470703125,-0.1802051067352295,1.9164354801177979,1.3534473180770874
1772810167726775000,8.689775146484376,0.028405211865901947,2.743851900100708,0.9203441739082336
1772810167736475100,8.69947509765625,0.22388194501399994,3.1919212341308594,0.6851612329483032
1772810167746175500,8.709175537109376,0.36254823207855225,3.241706609725952,0.6149117350578308
1772810167755875800,8.718875732421875,0.3594939112663269,2.9497132301330566,0.6179660558700562
1772810167765576200,8.728576171875,0.3347539007663727,2.7566800117492676,0.7022654414176941
1772810167775276300,8.7382763671875,0.37354379892349243,2.6476407051086426,0.8589522242546082
1772810167784976600,8.7479765625,0.370184063911438,2.5447099208831787,1.0480148792266846
1772810167794676700,8.7576767578125,0.2419024556875229,2.3883285522460938,1.254487156867981
1772810167804377000,8.767377197265626,0.007024944759905338,2.104581832885742,1.4212533235549927
1772810167814077400,8.777077392578125,-0.28527384996414185,1.6632320880889893,1.3913209438323975
1772810167823777500,8.786777587890626,-0.5396990180015564,1.2029454708099365,1.0745874643325806
1772810167833478000,8.796477783203125,-0.6407971382141113,0.7869465351104736,0.5519927144050598
1772810167843178000,8.806177978515626,-0.5442805290222168,0.38072147965431213,0.04192059487104416
1772810167852878300,8.81587841796875,-0.2559523284435272,-0.014737112447619438,-0.21464261412620544
1772810167862578700,8.82557861328125,0.15729768574237823,-0.3876700699329376,-0.083306685090065
1772810167872278800,8.83527880859375,0.5827649831771851,-0.7428879141807556,0.41179922223091125
1772810167881979100,8.844979248046876,0.9123265743255615,-1.0709223747253418,1.1045198440551758
1772810167891679500,8.854679443359375,1.1050543785095215,-1.3335942029953003,1.7398192882537842
1772810167901379600,8.864379638671876,1.1820234060287476,-1.5568652153015137,2.0870959758758545
1772810167911080000,8.874079833984375,1.1417062282562256,-1.7037782669067383,2.1130576133728027
1772810167920780000,8.883780029296876,0.9969313144683838,-1.6772055625915527,1.8375576734542847
1772810167930480400,8.89348046875,0.7953459620475769,-1.5122721195220947,1.3418408632278442
1772810167940180700,8.9031806640625,0.5445859432220459,-1.3360376358032227,0.7609084248542786
1772810167949881000,8.912881103515625,0.25992295145988464,-1.160719394683838,0.1986074149608612
1772810167959581200,8.922581298828124,0.049480047076940536,-0.9615775346755981,-0.22563818097114563
1772810167969281500,8.932281494140625,-0.08124501258134842,-0.7923679947853088,-0.4522690176963806
1772810167978981600,8.941981689453126,-0.15485422313213348,-0.6622537970542908,-0.5038870573043823
1772810167988682000,8.951681884765625,-0.20677772164344788,-0.5309178233146667,-0.4314996004104614
1772810167998382300,8.96138232421875,-0.28588470816612244,-0.47441285848617554,-0.31787875294685364
1772810168008082400,8.97108251953125,-0.3689623177051544,-0.48876819014549255,-0.22472187876701355
1772810168017782800,8.98078271484375,-0.4211912751197815,-0.49884745478630066,-0.1764635592699051
1772810168027483100,8.990483154296875,-0.45509424805641174,-0.48357582092285156,-0.1804341822862625
1772810168037183200,9.000183349609374,-0.45906487107276917,-0.43684467673301697,-0.2225838601589203
1772810168046883600,9.009883544921875,-0.4364628791809082,-0.4099666178226471,-0.2842811942100525
1772810168056583700,9.019583740234374,-0.40317076444625854,-0.4249328076839447,-0.33284494280815125
1772810168066284000,9.029283935546875,-0.3686569035053253,-0.46402814984321594,-0.3664425015449524
1772810168075984400,9.038984375,-0.3231474757194519,-0.5354993343353271,-0.3924042582511902
1772810168085684700,9.048684814453125,-0.25992295145988464,-0.6072759628295898,-0.4107302129268646
1772810168095384800,9.058384765625,-0.17745621502399445,-0.6213258504867554,-0.37285658717155457
1772810168105085200,9.068085205078125,-0.09621120244264603,-0.5709294676780701,-0.26534438133239746
1772810168114785300,9.077785400390624,-0.06017018109560013,-0.5394699573516846,-0.11873684078454971
1772810168124485600,9.087485595703125,-0.08307760953903198,-0.5403862595558167,0.03061959706246853
1772810168134186000,9.09718603515625,-0.12431098520755768,-0.5489383339881897,0.12866339087486267
1772810168143886000,9.106885986328125,-0.18600831925868988,-0.5067886710166931,0.12621992826461792
1772810168153586400,9.11658642578125,-0.2614501118659973,-0.43776097893714905,0.04222602769732475
1772810168163286800,9.126286865234375,-0.33108872175216675,-0.3366628587245941,-0.09094249457120895
1772810168172987000,9.13598681640625,-0.35674503445625305,-0.17081306874752045,-0.24365869164466858
1772810168182687200,9.145687255859375,-0.2718348205089569,0.02672533318400383,-0.28733551502227783
1772810168192387300,9.15538720703125,-0.18906265497207642,0.22128576040267944,-0.2070067971944809
1772810168202087700,9.165087646484375,-0.25503605604171753,0.42653632164001465,-0.29161158204078674
1772810168211788000,9.1747880859375,-0.277332603931427,0.40973755717277527,-0.71463543176651
1772810168221488000,9.184488037109375,-0.19089524447917938,0.23991714417934418,-1.334357738494873
1772810168231188500,9.1941884765625,-0.08491020649671555,0.2328922003507614,-1.8597015142440796
1772810168240888600,9.203888671875,0.10629047453403473,0.43661558628082275,-1.9901211261749268
1772810168250589000,9.2135888671875,0.43004879355430603,0.744796872138977,-1.8374048471450806
1772810168260289300,9.223289306640625,0.6536253094673157,0.9314160943031311,-1.751578450202942
1772810168269989600,9.23298974609375,0.6753110289573669,0.8672752976417542,-1.7729586362838745
1772810168279689700,9.242689697265625,0.4725039005279541,0.3263545036315918,-1.9110140800476074
1772810168289390000,9.25239013671875,0.12553271651268005,-0.5306124091148376,-2.1816272735595703
1772810168299090200,9.262090087890625,-0.09834922850131989,-1.152472734451294,-2.395429849624634
1772810168308790500,9.27179052734375,-0.21227550506591797,-1.4530181884765625,-2.4033710956573486
1772810168318491000,9.281490966796875,-0.2367101013660431,-1.3247365951538086,-2.122067928314209
1772810168328191000,9.29119091796875,-0.17318016290664673,-0.8229112029075623,-1.621769666671753
1772810168337891300,9.300891357421875,-0.048563748598098755,-0.19708025455474854,-1.093677043914795
1772810168347591700,9.310591796875,0.17715078592300415,0.3174969553947449,-0.6312524080276489
1772810168357291800,9.320291748046875,0.4153880476951599,0.6018545031547546,-0.28580835461616516
1772810168366992100,9.3299921875,0.5571087002754211,0.6659952998161316,-0.0371863916516304
1772810168376692200,9.339692138671875,0.5937605500221252,0.6391173005104065,0.15890119969844818
1772810168386392600,9.349392578125,0.5253437161445618,0.523052990436554,0.28901541233062744
1772810168396093000,9.359093017578125,0.4010327160358429,0.4124864339828491,0.3644571900367737
1772810168405793000,9.36879296875,0.2919933497905731,0.33368489146232605,0.4059959948062897
1772810168415493400,9.378493408203125,0.20280711352825165,0.310166597366333,0.45914125442504883
1772810168425193500,9.388193359375,0.12247838824987411,0.41554075479507446,0.5116755962371826
1772810168434893800,9.397893798828125,0.05589412897825241,0.6443096399307251,0.5272526741027832
1772810168444594200,9.40759423828125,-0.028099779039621353,0.8993456959724426,0.5052615404129028
1772810168454294500,9.41729443359375,-0.12583814561367035,1.070387840270996,0.49457138776779175
1772810168463994600,9.42699462890625,-0.19761475920677185,1.0914626121520996,0.5394699573516846
1772810168473695000,9.436695068359375,-0.21807873249053955,0.9744820594787598,0.636292040348053
1772810168483395000,9.44639501953125,-0.20799945294857025,0.7533490061759949,0.7685442566871643
1772810168493095400,9.456095458984375,-0.19364413619041443,0.490677148103714,0.8952987194061279
1772810168502795800,9.465795654296874,-0.205861434340477,0.24633121490478516,0.9588286280632019
1772810168512495900,9.475495849609375,-0.2629773020744324,0.13179408013820648,0.9188169836997986
1772810168522196200,9.4851962890625,-0.34636032581329346,0.20418155193328857,0.7343358397483826
1772810168531896600,9.494896484375,-0.40836310386657715,0.45310893654823303,0.4292088747024536
1772810168541596700,9.5045966796875,-0.43463030457496643,0.8083268404006958,0.07338013499975204
1772810168551297000,9.514297119140625,-0.4401280879974365,1.1433861255645752,-0.20334161818027496
1772810168560997000,9.5239970703125,-0.42363473773002625,1.3345868587493896,-0.2775616943836212
1772810168570697500,9.533697509765625,-0.41355544328689575,1.4081960916519165,-0.12606722116470337
1772810168580397800,9.543397705078124,-0.43951719999313354,1.317482590675354,0.15095995366573334
1772810168590098000,9.553097900390625,-0.4923570156097412,1.1381938457489014,0.42859798669815063
1772810168599798300,9.56279833984375,-0.5225948095321655,0.9457713961601257,0.5892554521560669
1772810168609498400,9.572498291015625,-0.5635227560997009,0.7786998748779297,0.5180897116661072
1772810168619198700,9.58219873046875,-0.6368265151977539,0.6229293346405029,0.17905974388122559
1772810168628899000,9.591899169921875,-0.7843503952026367,0.5059487819671631,-0.42080947756767273
1772810168638599400,9.601599365234375,-1.0231984853744507,0.5199986696243286,-1.2341759204864502
1772810168648299500,9.611299560546875,-1.176220178604126,0.5823068618774414,-1.9159010648727417
1772810168658000000,9.620999755859375,-1.1417062282562256,0.5636754631996155,-2.1092398166656494
1772810168667700000,9.630699951171875,-1.0137300491333008,0.4503600597381592,-1.7839542627334595
1772810168677400300,9.640400390625,-0.869566023349762,0.1415679156780243,-1.039310097694397
1772810168687100700,9.6501005859375,-0.7980948090553284,-0.24594943225383759,-0.12759438157081604
1772810168696800800,9.65980078125,-0.8283326625823975,-0.5923097729682922,0.5025126338005066
1772810168706501000,9.669501220703125,-0.9172134399414062,-1.1207077503204346,0.5962803959846497
1772810168716201500,9.679201416015625,-0.9825760126113892,-1.757534384727478,0.15095995366573334
1772810168725901600,9.688901611328125,-0.8894191384315491,-2.261497735977173,-0.6553815603256226
1772810168735602000,9.698601806640625,-0.639270007610321,-2.367482900619507,-1.500512957572937
1772810168745302000,9.708302001953125,-0.37629270553588867,-1.8155665397644043,-1.9745440483093262
1772810168755002400,9.71800244140625,-0.14782927930355072,-0.91362464427948,-1.9140684604644775
1772810168764702700,9.72770263671875,-0.05528326332569122,-0.4713585376739502,-1.4605013132095337
1772810168774402800,9.73740283203125,-0.16768237948417664,-0.5773435831069946,-0.7693078517913818
1772810168784103200,9.747103271484375,-0.42271843552589417,-0.8894954919815063,-0.13645191490650177
1772810168793803300,9.75680322265625,-0.6594285368919373,-1.26426100730896,0.0651334598660469
1772810168803503600,9.766503662109375,-0.6349939107894897,-1.2505165338516235,-0.15416699647903442
1772810168813204000,9.776203857421875,-0.31093016266822815,-0.9188169836997986,-0.5454258918762207
1772810168822904300,9.785904296875,0.07238747924566269,-0.45333802700042725,-0.5805506110191345
1772810168832604400,9.7956044921875,0.49418962001800537,-0.01107192412018776,0.05352702736854553
1772810168842304800,9.8053046875,0.9615011811256409,0.19165882468223572,1.1029927730560303
1772810168852004900,9.8150048828125,1.4282019138336182,0.2842048406600952,2.2123231887817383
1772810168861705200,9.824705322265626,1.8374812602996826,0.3040579557418823,3.1185410022735596
1772810168871405600,9.834405517578125,2.087019443511963,0.22953243553638458,3.69000506401062
1772810168881105700,9.844105712890626,2.0949606895446777,-0.1323285847902298,3.9789440631866455
1772810168890806000,9.853805908203125,1.8533637523651123,-0.5907825827598572,4.058661937713623
1772810168900506400,9.86350634765625,1.535408616065979,-0.6246855854988098,3.848524570465088
1772810168910206500,9.87320654296875,1.3057234287261963,-0.13355031609535217,3.2523205280303955
1772810168919906800,9.88290673828125,1.1404845714569092,0.4751000702381134,2.318308115005493
1772810168929607000,9.89260693359375,1.0473276376724243,0.8938478827476501,1.3207659721374512
1772810168939307300,9.902307373046876,0.9382883310317993,0.9784526824951172,0.5584067702293396
1772810168949007600,9.912007568359375,0.6554579138755798,0.9335541129112244,0.20654866099357605
1772810168958707700,9.921707763671876,0.3039052188396454,0.9326378107070923,0.27893611788749695
1772810168968408000,9.931407958984375,-0.000305432389723137,0.9992220401763916,0.654617965221405
1772810168978108200,9.941108154296876,-0.22846342623233795,1.0199915170669556,1.1585813760757446
1772810168987808500,9.95080859375,-0.3707949221134186,0.9421061873435974,1.6026800870895386
1772810168997508900,9.9605087890625,-0.41874781250953674,0.7426588535308838,1.8619922399520874
1772810169007209200,9.970209228515625,-0.4376846253871918,0.5340485572814941,1.9658392667770386
1772810169016909300,9.979909423828126,-0.46028661727905273,0.30863943696022034,1.9359068870544434
1772810169026609700,9.989609619140625,-0.4612029194831848,0.01847865991294384,1.7773873805999756
1772810169036309800,9.999309814453126,-0.37293294072151184,-0.28840452432632446,1.5098286867141724
1772810169046010000,10.009010009765625,-0.20280711352825165,-0.5287798047065735,1.172020435333252
1772810169055710500,10.01871044921875,-0.016187917441129684,-0.6219366788864136,0.8601739406585693
1772810169065410600,10.02841064453125,0.08857539296150208,-0.5535198450088501,0.6369028687477112
1772810169075111000,10.03811083984375,0.06414080411195755,-0.4295142889022827,0.4768563210964203
1772810169084811000,10.04781103515625,0.015271619893610477,-0.28993168473243713,0.3568213880062103
1772810169094511400,10.057511474609376,0.014049889519810677,-0.11003202199935913,0.24747659265995026
1772810169104211700,10.067211669921875,0.025045456364750862,-0.013515383005142212,0.10728313028812408
1772810169113911800,10.076911865234376,0.007024944759905338,-0.06879864633083344,-0.05581776797771454
1772810169123612200,10.086612060546875,-0.04734202101826668,-0.22090397775173187,-0.20761767029762268
1772810169133312500,10.0963125,-0.11881320178508759,-0.44173160195350647,-0.3499491512775421
1772810169143012600,10.1060126953125,-0.1902843713760376,-0.6860775351524353,-0.47731447219848633
1772810169152713000,10.115712890625,-0.2617555558681488,-0.8470403552055359,-0.6077340841293335
1772810169162413000,10.1254130859375,-0.2733619809150696,-0.884913980960846,-0.7555633783340454
1772810169172113400,10.135113525390626,-0.23212862014770508,-0.8311578631401062,-0.8865938782691956
1772810169181813800,10.144813720703125,-0.19211697578430176,-0.7147881388664246,-0.9657008647918701
1772810169191513900,10.154513916015626,-0.16768237948417664,-0.6115520000457764,-0.9760855436325073
1772810169201214200,10.164214111328125,-0.14691297709941864,-0.5562687516212463,-0.9253838062286377
1772810169210914300,10.173914306640626,-0.10934479534626007,-0.5324450135231018,-0.8285617232322693
1772810169220614700,10.18361474609375,-0.032070402055978775,-0.5727620720863342,-0.6978366374969482
1772810169230315000,10.19331494140625,0.04276053607463837,-0.7047088742256165,-0.5536725521087646
1772810169240015400,10.203015380859375,0.06963858753442764,-0.8943824172019958,-0.4223366379737854
1772810169249715500,10.212715576171876,0.053756099194288254,-1.0525963306427002,-0.32215481996536255
1772810169259415800,10.222415771484375,0.004886918235570192,-1.091386318206787,-0.283975750207901
1772810169269116000,10.232115966796876,-0.06872228533029556,-1.0275509357452393,-0.3264308571815491
1772810169278816300,10.241816162109375,-0.16829325258731842,-0.8733075857162476,-0.432721346616745
1772810169288516600,10.2515166015625,-0.30115634202957153,-0.6216312646865845,-0.5924624800682068
1772810169298216700,10.261216796875,-0.42913252115249634,-0.2908479869365692,-0.7696132659912109
1772810169307917000,10.2709169921875,-0.5238165259361267,-0.02977965772151947,-0.88995361328125
1772810169317617200,10.2806171875,-0.601396381855011,0.11438442766666412,-0.8707113862037659
1772810169327317500,10.2903173828125,-0.6444623470306396,0.17455461621284485,-0.7216603755950928
1772810169337017900,10.300017822265625,-0.6224712133407593,0.09911280870437622,-0.5170207023620605
1772810169346718000,10.309718017578126,-0.5714640021324158,-0.08651372790336609,-0.3404807448387146
1772810169356418300,10.319418212890625,-0.48960810899734497,-0.33452481031417847,-0.20822852849960327
1772810169366118700,10.32911865234375,-0.34238970279693604,-0.6320159435272217,-0.042684175074100494
1772810169375818800,10.33881884765625,-0.17776164412498474,-0.7822887301445007,0.07185296714305878
1772810169385519000,10.34851904296875,-0.10690133273601532,-0.8656717538833618,-0.09949459880590439
1772810169395219200,10.35821923828125,-0.1444695144891739,-1.0174716711044312,-0.6019308567047119
1772810169404919600,10.36791943359375,-0.12583814561367035,-1.0458768606185913,-1.1346049308776855
1772810169414620000,10.377619873046875,0.013744457624852657,-0.6396517753601074,-1.3587923049926758
1772810169424320000,10.387320068359376,0.17348559200763702,0.1461493968963623,-1.3603194952011108
1772810169434020400,10.397020263671875,0.3811796307563782,0.7469348907470703,-1.299233078956604
1772810169443720400,10.406720458984376,0.6423243284225464,0.957072377204895,-1.1452951431274414
1772810169453420800,10.4164208984375,0.7617483735084534,0.5261073112487793,-0.9385173916816711
1772810169463121200,10.42612109375,0.6108647584915161,-0.5165625214576721,-0.8743765950202942
1772810169472821500,10.435821533203125,0.4013381600379944,-1.7053053379058838,-1.0270928144454956
1772810169482521600,10.445521484375,0.24312418699264526,-2.60022234916687,-1.4327069520950317
1772810169492222000,10.455221923828125,0.16157373785972595,-2.904738426208496,-1.933616042137146
1772810169501922000,10.464922119140626,0.11423171311616898,-2.4639995098114014,-2.2827253341674805
1772810169511622400,10.474622314453125,0.014049889519810677,-1.6127593517303467,-2.353585720062256
1772810169521322800,10.48432275390625,-0.06841685622930527,-0.729143500328064,-2.013028621673584
1772810169531022800,10.49402294921875,-0.035124726593494415,0.020311253145337105,-1.3334414958953857
1772810169540723200,10.50372314453125,0.09682206809520721,0.48884454369544983,-0.6248382925987244
1772810169550423300,10.51342333984375,0.2837466895580292,0.6021599769592285,-0.10041090101003647
1772810169560123600,10.52312353515625,0.44501498341560364,0.48701193928718567,0.1738673895597458
1772810169569824000,10.532823974609375,0.5067123174667358,0.25274530053138733,0.20349432528018951
1772810169579524000,10.542524169921874,0.476779967546463,0.06795870512723923,0.07735075056552887
1772810169589224400,10.552224365234375,0.40897396206855774,-0.00923932995647192,-0.11384992301464081
1772810169598924800,10.5619248046875,0.3445277214050293,0.006566796451807022,-0.31146466732025146
1772810169608625000,10.571625,0.277332603931427,0.11621702462434769,-0.4650971591472626
1772810169618325200,10.5813251953125,0.1997527778148651,0.3006981909275055,-0.5390118360519409
1772810169628025300,10.591025390625,0.14782927930355072,0.5242747068405151,-0.5109120011329651
1772810169637725700,10.6007255859375,0.11606431007385254,0.7622065544128418,-0.3875173330307007
1772810169647426000,10.610426025390625,0.09560033679008484,0.9329432249069214,-0.18501566350460052
1772810169657126100,10.620126220703124,0.08918625861406326,0.9937242865562439,0.08895718306303024
1772810169666826500,10.629826416015625,0.11209368705749512,0.9179770350456238,0.37606361508369446
1772810169676526600,10.639526611328124,0.1279761642217636,0.7255546450614929,0.6179660558700562
1772810169686227000,10.64922705078125,0.12156209349632263,0.4958694875240326,0.7795398235321045
1772810169695927300,10.65892724609375,0.09926552325487137,0.29672756791114807,0.8607848286628723
1772810169705627600,10.668627685546875,0.04581485688686371,0.1357647031545639,0.8458186388015747
1772810169715327700,10.67832763671875,-0.017104214057326317,0.018784092739224434,0.7627410292625427
1772810169725028000,10.688028076171875,-0.07574722915887833,-0.049861837178468704,0.645455002784729
1772810169734728200,10.697728271484374,-0.10751219838857651,-0.10239620506763458,0.5361102223396301
1772810169744428500,10.707428466796875,-0.10934479534626007,-0.1689804643392563,0.46036297082901
1772810169754129000,10.71712890625,-0.11026109009981155,-0.19708025455474854,0.41638070344924927
1772810169763829000,10.7268291015625,-0.12431098520755768,-0.1689804643392563,0.3748418986797333
1772810169773529300,10.736529296875,-0.17256930470466614,-0.08498656004667282,0.32902705669403076
1772810169783229400,10.7462294921875,-0.24434591829776764,0.0383317656815052,0.2868773639202118
1772810169792929800,10.7559296875,-0.3124573230743408,0.1773035079240799,0.2545015513896942
1772810169802630100,10.765630126953125,-0.35185810923576355,0.29733842611312866,0.2401462197303772
1772810169812330200,10.775330322265624,-0.3756818473339081,0.3529271185398102,0.20746494829654694
1772810169822030600,10.785030517578125,-0.40744680166244507,0.37461283802986145,0.1534034162759781
1772810169831731000,10.79473095703125,-0.42913252115249634,0.40026915073394775,0.10942115634679794
1772810169841431000,10.80443115234375,-0.3894262909889221,0.3565923273563385,0.0907897800207138
1772810169851131400,10.81413134765625,-0.32070401310920715,0.22708898782730103,0.11430807411670685
1772810169860831500,10.82383154296875,-0.3127627670764923,0.05543597787618637,0.07154753804206848
1772810169870531800,10.83353173828125,-0.2761108875274658,-0.16439898312091827,0.022067490965127945
1772810169880232200,10.843232177734375,-0.23793183267116547,-0.24839289486408234,-0.02283107116818428
1772810169889932300,10.852932373046874,-0.20647229254245758,-0.10270164161920547,-0.19876012206077576
1772810169899632600,10.862632568359375,-0.1740964651107788,0.043829549103975296,-0.595211386680603
1772810169909332700,10.872332763671874,-0.12461641430854797,0.12263110280036926,-1.0695478916168213
1772810169919033000,10.882033203125,0.05558869615197182,0.2176205813884735,-1.4437025785446167
1772810169928733400,10.8917333984375,0.3335321843624115,0.07131846249103546,-1.7705152034759521
1772810169938433800,10.901433837890625,0.49113526940345764,-0.3778962194919586,-2.2161409854888916
1772810169948134000,10.9111337890625,0.47586366534233093,-0.7404444813728333,-2.754007577896118
1772810169957834000,10.920833984375,0.44929105043411255,-0.7593812942504883,-3.150153398513794
1772810169967534300,10.930534423828124,0.5051851868629456,-0.5281689763069153,-3.1800856590270996
1772810169977234700,10.940234619140625,0.6615665555000305,-0.3476584255695343,-2.711552381515503
1772810169986935000,10.94993505859375,0.8768963813781738,-0.41302093863487244,-1.8227441310882568
1772810169996635100,10.95963525390625,1.0879502296447754,-0.7309760451316833,-0.8545234799385071
1772810170006335500,10.96933544921875,1.1948515176773071,-1.051985502243042,0.00954476185142994
1772810170016035600,10.97903564453125,1.1633919477462769,-1.0453423261642456,0.8180242776870728
1772810170025736000,10.98873583984375,0.9776890873908997,-0.7218130826950073,1.5021928548812866
1772810170035436300,10.998436279296875,0.7480039000511169,-0.3528507649898529,2.0486114025115967
1772810170045136400,11.008136474609374,0.5919279456138611,-0.040088001638650894,2.647869825363159
1772810170054836700,11.017836669921875,0.4269944727420807,0.20173808932304382,3.324097156524658
1772810170064536800,11.027536865234374,0.19364413619041443,0.45769044756889343,3.938321590423584
1772810170074237200,11.0372373046875,0.021380268037319183,0.8626937866210938,4.339659690856934
1772810170083937500,11.0469375,-0.041844237595796585,1.2191333770751953,4.468857765197754
1772810170093637600,11.0566376953125,-0.09315688163042068,1.4616466760635376,4.49207067489624
1772810170103338000,11.066337890625,-0.17592905461788177,1.4903573989868164,4.530860424041748
1772810170113038300,11.076038330078125,-0.22907429933547974,1.225547432899475,4.540023326873779
1772810170122738400,11.085738525390624,-0.25900667905807495,0.8743002414703369,4.51436710357666
1772810170132438800,11.095438720703125,-0.2712239623069763,0.6980656981468201,4.423959255218506
1772810170142139000,11.105138916015624,-0.3274235129356384,0.5746710300445557,4.219624996185303
1772810170151839200,11.114839111328125,-0.46059203147888184,0.5111411213874817,3.9364891052246094
1772810170161539600,11.12453955078125,-0.5940660238265991,0.5203040838241577,3.6234207153320312
1772810170171239700,11.13423974609375,-0.6258309483528137,0.41584619879722595,3.3387577533721924
1772810170180940000,11.14393994140625,-0.5519163012504578,0.1718057245016098,3.1066291332244873
1772810170190640000,11.15364013671875,-0.3946186602115631,-0.06971494108438492,2.912679672241211
1772810170200340500,11.163340576171874,-0.24404047429561615,-0.3027598559856415,2.689713954925537
1772810170210040800,11.173040771484375,-0.1130099818110466,-0.4808269441127777,2.427042245864868
1772810170219741000,11.182740966796874,0.005803215317428112,-0.5409971475601196,2.0922882556915283
1772810170229441300,11.192441162109375,0.08491020649671555,-0.5599339008331299,1.673540472984314
1772810170239141600,11.2021416015625,0.12522727251052856,-0.5132027864456177,1.2172244787216187
1772810170248841700,11.211841796875,0.07330377399921417,-0.3161988854408264,0.7364738583564758
1772810170258542000,11.2215419921875,-0.057726722210645676,-0.05230529606342316,0.22579088807106018
1772810170268242400,11.231242431640625,-0.2052505612373352,0.19624030590057373,-0.303523451089859
1772810170277942500,11.240942626953125,-0.3127627670764923,0.3972148299217224,-0.8099303245544434
1772810170287643000,11.250642822265625,-0.3845393657684326,0.5048033595085144,-1.2402845621109009
1772810170297343000,11.260343017578125,-0.40714138746261597,0.5248855352401733,-1.5487712621688843
1772810170307043300,11.270043212890625,-0.3811796307563782,0.44211336970329285,-1.7628793716430664
1772810170316743700,11.27974365234375,-0.3384190797805786,0.27840161323547363,-1.9213987588882446
1772810170326443800,11.28944384765625,-0.2761108875274658,0.11713331937789917,-2.0423500537872314
1772810170336144100,11.29914404296875,-0.22418737411499023,-0.015042545273900032,-2.1593306064605713
1772810170345844200,11.30884423828125,-0.18875721096992493,-0.08529199659824371,-2.265010356903076
1772810170355544600,11.318544677734375,-0.2049451321363449,-0.14973822236061096,-2.4143667221069336
1772810170365245000,11.328244873046875,-0.2467893660068512,-0.1521816849708557,-2.581132650375366
1772810170374945300,11.3379453125,-0.19181154668331146,-0.13110685348510742,-2.6266422271728516
1772810170384645400,11.347645263671875,-0.10415244847536087,-0.14454588294029236,-2.580216407775879
1772810170394345500,11.357345458984375,-0.03451386094093323,-0.16531528532505035,-2.482783555984497
1772810170404045800,11.3670458984375,0.028099779039621353,-0.15706861019134521,-2.3294565677642822
1772810170413746200,11.37674609375,0.10323614627122879,-0.16989676654338837,-2.1098506450653076
1772810170423446500,11.386446533203125,0.1487455666065216,-0.2606101930141449,-1.8673372268676758
1772810170433146600,11.396146728515625,0.14752385020256042,-0.36598435044288635,-1.620853304862976
1772810170442847000,11.405846923828125,0.13255766034126282,-0.40263625979423523,-1.401247501373291
1772810170452547000,11.415547119140625,0.1078176349401474,-0.35132360458374023,-1.2384519577026367
1772810170462247400,11.425247314453125,0.08155044913291931,-0.20257803797721863,-1.151098370552063
1772810170471947800,11.43494775390625,0.05497783049941063,-0.0007635809597559273,-1.1440733671188354
1772810170481647900,11.44464794921875,0.017104214057326317,0.2441931962966919,-1.204243540763855
1772810170491348200,11.45434814453125,0.023518294095993042,0.5610029697418213,-1.326111078262329
1772810170501048300,11.46404833984375,0.2406807243824005,0.7930551767349243,-1.3957496881484985
1772810170510748700,11.473748779296875,0.582459568977356,0.8190169334411621,-1.3688715696334839
1772810170520449000,11.483448974609376,0.8368847370147705,0.5905535221099854,-1.342298984527588
1772810170530149000,11.493149169921875,0.8851430416107178,-0.03214675933122635,-1.4562252759933472
1772810170539849500,11.502849365234376,0.778241753578186,-0.6989056468009949,-1.648342251777649
1772810170549549600,11.512549560546875,0.6618719696998596,-0.8888846039772034,-1.7894519567489624
1772810170559250000,11.52225,0.5806269645690918,-0.48265954852104187,-1.928118348121643
1772810170568950300,11.5319501953125,0.7205150127410889,0.24174973368644714,-2.144669771194458
1772810170578650400,11.541650390625,1.0803143978118896,0.9747874736785889,-2.4950008392333984
1772810170588350700,11.551350830078125,1.3649773597717285,1.3666572570800781,-2.8758749961853027
1772810170598051000,11.561051025390626,1.342680811882019,1.2475385665893555,-2.976667642593384
1772810170607751200,11.570751220703125,1.0775654315948486,0.7622065544128418,-2.6351943016052246
1772810170617451500,11.580451416015626,0.8014546036720276,-0.014737112447619438,-2.069228172302246
1772810170627151600,11.590151611328125,0.6533198952674866,-0.9007964730262756,-1.5292235612869263
1772810170636852000,11.59985205078125,0.6325504779815674,-1.5684716701507568,-1.0683261156082153
1772810170646552300,11.60955224609375,0.6359102129936218,-1.8296164274215698,-0.7399863004684448
1772810170656252400,11.61925244140625,0.5097666382789612,-1.5825215578079224,-0.6590467095375061
1772810170665952800,11.628952880859375,0.2367101013660431,-1.0067814588546753,-0.861853837966919
1772810170675652900,11.63865283203125,-0.02871064469218254,-0.3018435537815094,-1.1730895042419434
1772810170685353200,11.648353271484375,-0.1692095398902893,0.29275694489479065,-1.4076615571975708
1772810170695053600,11.658053466796876,-0.010384701192378998,1.0923789739608765,-2.1232895851135254
1772810170704753700,11.667753662109375,-0.047952886670827866,1.919489860534668,-2.4696500301361084
1772810170714454000,11.6774541015625,-0.1701258420944214,1.8330525159835815,-1.9562181234359741
1772810170724154000,11.687154052734375,-0.23732095956802368,1.1171189546585083,-1.0374774932861328
1772810170733854500,11.6968544921875,-0.13500112295150757,0.2790125012397766,-0.11568251997232437
1772810170743554800,11.706554931640625,-0.01649334840476513,-0.2508363425731659,0.32597270607948303
1772810170753255200,11.716255126953126,0.061391908675432205,-0.44264790415763855,0.4805215001106262
1772810170762955300,11.725955322265625,0.11667517572641373,-0.5327504277229309,0.56298828125
1772810170772655400,11.7356552734375,0.07757982611656189,-0.6014727354049683,0.5584067702293396
1772810170782355700,11.745355712890625,0.05528326332569122,-0.5929206013679504,0.5232820510864258
1772810170792056000,11.75505615234375,0.025350889191031456,-0.505872368812561,0.4450913369655609
1772810170801756400,11.76475634765625,-0.02107483521103859,-0.3326922357082367,0.28260132670402527
1772810170811456500,11.77445654296875,-0.05803215503692627,-0.21174100041389465,0.08743002265691757
1772810170821156900,11.784156982421875,-0.043371398001909256,-0.1836412250995636,-0.13614648580551147
1772810170830857000,11.79385693359375,-0.010995565913617611,-0.11308634281158447,-0.41470083594322205
1772810170840557300,11.803557373046875,-0.014660755172371864,-0.1014799103140831,-0.6434696912765503
1772810170850257700,11.813257568359376,-0.01435532234609127,-0.20044000446796417,-0.7518981695175171
1772810170859957800,11.822957763671875,-0.06200277432799339,-0.32994332909584045,-0.7250201106071472
1772810170869658000,11.832658203125,-0.1484401375055313,-0.5043452382087708,-0.5820778012275696
1772810170879358200,11.842358154296875,-0.2370155304670334,-0.7218130826950073,-0.3661370873451233
1772810170889058600,11.85205859375,-0.3197877109050751,-0.9658535718917847,-0.15966477990150452
1772810170898759000,11.861759033203125,-0.3704894781112671,-1.143920660018921,0.00038179047987796366
1772810170908459000,11.871458984375,-0.37110036611557007,-1.1714096069335938,0.060551971197128296
1772810170918159400,11.881159423828125,-0.33658650517463684,-1.0487021207809448,0.039477135986089706
1772810170927859500,11.890859375,-0.2864955961704254,-0.8152754306793213,-0.04024071618914604
1772810170937559800,11.900559814453125,-0.24709481000900269,-0.5507709383964539,-0.13889537751674652
1772810170947260200,11.91026025390625,-0.22235478460788727,-0.35957029461860657,-0.2213621288537979
1772810170956960300,11.919960205078125,-0.2202167510986328,-0.26366451382637024,-0.2540434002876282
1772810170966660600,11.92966064453125,-0.23335035145282745,-0.22304199635982513,-0.22319471836090088
1772810170976361000,11.93936083984375,-0.2565632164478302,-0.26946771144866943,-0.14286600053310394
1772810170986061000,11.94906103515625,-0.27091851830482483,-0.3678169548511505,-0.047265663743019104
1772810170995761400,11.958761474609375,-0.24495677649974823,-0.42768171429634094,0.031841326504945755
1772810171005461500,11.96846142578125,-0.18845178186893463,-0.46402814984321594,0.0550541877746582
1772810171015161900,11.978161865234375,-0.11636973917484283,-0.5367210507392883,0.023594651371240616
1772810171024862200,11.9878623046875,-0.02107483521103859,-0.5538252592086792,-0.03260490670800209
1772810171034562300,11.997562255859375,0.008246674202382565,-0.5303069949150085,-0.10224349051713943
1772810171044262700,12.0072626953125,-0.005803215317428112,-0.5107592940330505,-0.16668972373008728
1772810171053962800,12.016962646484375,-0.014966187067329884,-0.45853036642074585,-0.21403174102306366
1772810171063663000,12.0266630859375,-0.004581485874950886,-0.3797288239002228,-0.28153231739997864
1772810171073363500,12.036363525390625,0.02626718580722809,-0.2902371287345886,-0.3456731140613556
1772810171083063600,12.0460634765625,0.06261363625526428,-0.1888335794210434,-0.34231334924697876
1772810171092764000,12.055763916015625,0.03023780696094036,-0.14851650595664978,-0.32215481996536255
1772810171102464000,12.065464111328126,-0.04428769648075104,-0.16103923320770264,-0.4165334105491638
1772810171112164400,12.075164306640625,-0.05100720748305321,-0.1329394429922104,-0.43944084644317627
1772810171121864700,12.08486474609375,-0.035735588520765305,-0.11278090626001358,-0.4782307744026184
1772810171131564800,12.094564697265625,-0.05283980444073677,-0.06085740402340889,-0.5414552688598633
1772810171141265200,12.10426513671875,-0.0974329337477684,0.018173227086663246,-0.6123155951499939
1772810171150965200,12.11396533203125,-0.1432477980852127,0.08720094710588455,-0.7051670551300049
1772810171160665600,12.12366552734375,-0.18906265497207642,0.14706569910049438,-0.7809142470359802
1772810171170366000,12.133365966796875,-0.1948658674955368,0.1773035079240799,-0.732655942440033
