time,seconds_elapsed,z,y,x
1772810184838005800,0.103005859375,0,0,0
1772810184847706000,0.1127060546875,-0.036397457122802734,0.004357337951660156,0.04653429985046387
1772810184867106600,0.1321064453125,0.11205101013183594,-0.30352210998535156,0.18741893768310547
1772810184876806700,0.141806640625,0.2951078414916992,0.03783130645751953,-0.01845604181289673
1772810184886507000,0.151507080078125,0.31957340240478516,0.11292791366577148,-0.02127397060394287
1772810184896207000,0.16120703125,0.10687923431396484,0.03111553192138672,-0.18039274215698242
1772810184905907500,0.170907470703125,-0.07024002075195312,0.2022571563720703,-0.22890686988830566
1772810184915607600,0.180607666015625,0.04401206970214844,0.4840884208679199,-0.4070967435836792
1772810184925308000,0.190307861328125,0.0788106918334961,0.9253716468811035,-0.6292383670806885
1772810184935008000,0.200008056640625,0.38225269317626953,1.163194179534912,-0.8500787019729614
1772810184944708400,0.209708251953125,0.8335638046264648,0.6636996269226074,-0.3556690216064453
1772810184954408400,0.219408447265625,0.688755989074707,-0.354886531829834,0.41117632389068604
1772810184964108800,0.22910888671875,0.4690885543823242,-1.154923439025879,0.929719090461731
1772810184973809000,0.238808837890625,0.28309059143066406,-1.5626215934753418,1.2586431503295898
1772810184983509200,0.24850927734375,0.44866037368774414,-1.6618342399597168,1.53493070602417
1772810184993209300,0.258209228515625,1.239799976348877,-1.711219310760498,1.5854918956756592
1772810185002909700,0.26790966796875,2.30430269241333,-1.776914119720459,1.3948105573654175
1772810185012609800,0.27760986328125,2.855156898498535,-1.6601314544677734,1.3090366125106812
1772810185022310100,0.28731005859375,2.859957218170166,-1.4005064964294434,1.0788187980651855
1772810185032010200,0.29701025390625,2.2639269828796387,-1.5005617141723633,0.8020326495170593
1772810185041710600,0.306710693359375,2.1208701133728027,-1.2287511825561523,0.9115721583366394
1772810185051410700,0.31641064453125,2.932433605194092,-0.3259115219116211,1.0596354007720947
1772810185061111000,0.326111083984375,3.9686617851257324,0.9567399024963379,0.7047836780548096
1772810185070811100,0.33581103515625,4.881119251251221,2.87770938873291,0.019232019782066345
1772810185080511500,0.345511474609375,6.579032897949219,5.071143627166748,-0.7340243458747864
1772810185090211800,0.3552119140625,8.273303985595703,7.245447158813477,-1.267738699913025
1772810185099912000,0.364911865234375,8.92345142364502,9.312234878540039,-0.3141106963157654
1772810185109612000,0.374612060546875,10.238739013671875,9.98175048828125,1.7538317441940308
1772810185119312400,0.3843125,12.247049331665039,10.067037582397461,3.5032012462615967
1772810185129012500,0.394012451171875,14.727121353149414,10.519258499145508,3.4325668811798096
1772810185138712800,0.403712890625,16.951492309570312,11.273662567138672,2.06109619140625
1772810185148413200,0.4134130859375,18.109420776367188,11.130085945129395,0.26380521059036255
1772810185158113300,0.42311328125,17.926706314086914,10.923121452331543,-2.065279006958008
1772810185167813400,0.4328134765625,16.46076202392578,10.9763765335083,-4.374568462371826
1772810185177513700,0.442513671875,14.046236038208008,10.50745677947998,-4.92192268371582
1772810185187213800,0.4522138671875,11.224150657653809,9.217865943908691,-4.025755882263184
1772810185196914200,0.4619140625,8.428340911865234,7.548949241638184,-2.6857662200927734
1772810185206614500,0.471614501953125,5.717741012573242,6.339557647705078,-1.8246715068817139
1772810185216314600,0.481314697265625,2.8338356018066406,5.249298095703125,-1.3783094882965088
1772810185226014700,0.4910146484375,0.03598594665527344,4.381531715393066,-1.4786192178726196
1772810185235715000,0.500715087890625,-2.190486431121826,3.435591697692871,-1.9170032739639282
1772810185245415200,0.510415283203125,-3.7598609924316406,2.2332162857055664,-2.455789804458618
1772810185255115500,0.520115478515625,-4.566110610961914,0.5250825881958008,-2.775839328765869
1772810185264815900,0.52981591796875,-4.625618934631348,-1.7578134536743164,-2.5315768718719482
1772810185274516000,0.539515869140625,-3.939662456512451,-3.811859130859375,-1.9087777137756348
1772810185284216300,0.54921630859375,-3.233210563659668,-5.824270248413086,-0.7258504629135132
1772810185293916400,0.55891650390625,-2.834648609161377,-7.590799808502197,0.7463998198509216
1772810185303616500,0.568616455078125,-3.0124549865722656,-8.921025276184082,2.122769355773926
1772810185313316900,0.57831689453125,-3.3516225814819336,-9.987360954284668,2.923752784729004
1772810185323017200,0.588017333984375,-3.995370388031006,-10.580636024475098,3.1922454833984375
1772810185332717300,0.59771728515625,-5.038274765014648,-10.94217300415039,3.329280138015747
1772810185342417700,0.607417724609375,-6.251653671264648,-11.236787796020508,3.318678855895996
1772810185352117800,0.61711767578125,-7.5247979164123535,-11.303009033203125,2.8660073280334473
1772810185361817900,0.62681787109375,-8.5718355178833,-11.222318649291992,2.4113941192626953
1772810185371518200,0.636518310546875,-9.648872375488281,-11.044946670532227,1.7096673250198364
1772810185381218600,0.646218505859375,-9.989340782165527,-10.478604316711426,0.8131316900253296
1772810185390918700,0.655918701171875,-9.6312255859375,-9.812335968017578,0.22198140621185303
1772810185400619000,0.665618896484375,-9.562788009643555,-9.678010940551758,0.04388260841369629
1772810185410319000,0.675319091796875,-10.331681251525879,-10.535635948181152,0.27117598056793213
1772810185420019200,0.685019287109375,-10.729429244995117,-11.322558403015137,1.2066335678100586
1772810185429719600,0.694719482421875,-10.503602981567383,-11.699151992797852,1.9235403537750244
1772810185439420000,0.704419921875,-9.864998817443848,-11.113409996032715,2.01124906539917
1772810185449120000,0.7141201171875,-8.99992847442627,-10.380754470825195,1.7770029306411743
1772810185458820400,0.7238203125,-8.279997825622559,-10.151397705078125,1.3654736280441284
1772810185468520400,0.7335205078125,-7.467250823974609,-10.02956771850586,0.8470444679260254
1772810185478220800,0.743220703125,-6.146279335021973,-9.590392112731934,0.288385272026062
1772810185487921000,0.7529208984375,-4.9336957931518555,-9.178600311279297,-0.06828951835632324
1772810185497621200,0.762621337890625,-4.006288528442383,-9.084169387817383,-0.08792155981063843
1772810185507321300,0.7723212890625,-3.1555447578430176,-9.181392669677734,0.13332754373550415
1772810185517021700,0.782021728515625,-2.7395107746124268,-9.096762657165527,0.4256240129470825
1772810185526721800,0.7917216796875,-2.5654611587524414,-8.95588207244873,0.5604290962219238
1772810185536422100,0.801422119140625,-2.573911190032959,-8.965498924255371,0.5286905169487
1772810185546122200,0.811122314453125,-2.6816794872283936,-8.958600997924805,0.5570657849311829
1772810185555822600,0.820822509765625,-2.900212287902832,-8.848907470703125,0.5627752542495728
1772810185565522700,0.830522705078125,-3.1086483001708984,-8.75487995147705,0.5659835338592529
1772810185575223000,0.84022314453125,-3.1800851821899414,-8.659884452819824,0.6011090278625488
1772810185584923100,0.849923095703125,-3.04958438873291,-8.2492036819458,0.7345656156539917
1772810185594623500,0.85962353515625,-2.9651384353637695,-8.015375137329102,0.7586710453033447
1772810185604323600,0.869323486328125,-2.868105173110962,-7.939159393310547,0.7640137672424316
1772810185614024000,0.87902392578125,-2.712211847305298,-7.694303035736084,0.7833839654922485
1772810185623724000,0.88872412109375,-2.270190715789795,-7.272529602050781,0.8121660351753235
1772810185633424400,0.89842431640625,-1.6923136711120605,-6.70607852935791,1.17043137550354
1772810185643124500,0.90812451171875,-1.30428147315979,-6.19793701171875,1.3840689659118652
1772810185652824800,0.917824951171875,-1.2257647514343262,-4.967128753662109,1.6730000972747803
1772810185662525000,0.92752490234375,-1.6374506950378418,-3.9372873306274414,1.4510838985443115
1772810185672225300,0.937225341796875,-2.590151786804199,-4.42982816696167,1.3768064975738525
1772810185681925400,0.94692529296875,-2.810173511505127,-3.4209485054016113,1.1129655838012695
1772810185691625700,0.956625732421875,-1.5653636455535889,0.37642526626586914,-0.1112200915813446
1772810185701325800,0.966325927734375,-1.567539930343628,3.255333423614502,-1.2084928750991821
1772810185711026200,0.976026123046875,-1.718916416168213,4.388422966003418,-0.9488538503646851
1772810185720726300,0.985726318359375,-1.0618345737457275,5.52957010269165,-0.4525371491909027
1772810185730426600,0.995426513671875,0.7422428131103516,7.3769683837890625,-0.35930687189102173
1772810185740126700,1.005126708984375,2.0682780742645264,9.9021635055542,-1.633335828781128
1772810185749827000,1.0148271484375,1.9802768230438232,12.698864936828613,-3.1671314239501953
1772810185759527200,1.024527099609375,3.3751046657562256,14.376668930053711,-3.9359161853790283
1772810185769227500,1.0342275390625,5.8021931648254395,15.02067756652832,-3.8770647048950195
1772810185778927600,1.043927734375,7.419785499572754,14.960536003112793,-2.9638237953186035
1772810185788628000,1.0536279296875,8.63194465637207,14.986724853515625,-1.3231804370880127
1772810185798328000,1.063328125,9.555703163146973,14.796245574951172,0.14808779954910278
1772810185808028400,1.0730283203125,10.073081970214844,14.37894344329834,1.2694100141525269
1772810185817728500,1.082728515625,10.035358428955078,14.016392707824707,1.8436291217803955
1772810185827428900,1.092428955078125,9.59246826171875,13.557877540588379,2.032942771911621
1772810185837129000,1.10212890625,8.79221248626709,12.786307334899902,1.9049198627471924
1772810185846829300,1.111829345703125,7.3677144050598145,11.85322380065918,1.5665310621261597
1772810185856529400,1.121529296875,5.6388115882873535,10.796491622924805,1.1512231826782227
1772810185866229800,1.131229736328125,3.965113639831543,9.328742980957031,0.9809127449989319
1772810185875929900,1.140929931640625,2.2202367782592773,7.471218109130859,0.871499240398407
1772810185885630200,1.150630126953125,0.8565154075622559,5.584809303283691,0.6361045837402344
1772810185895330300,1.160330322265625,0.5537943840026855,3.4741029739379883,0.2799944579601288
1772810185905030700,1.17003076171875,0.796872615814209,1.490915298461914,0.11184938251972198
1772810185914730800,1.179730712890625,0.9902858734130859,-0.02617645263671875,0.06392458081245422
1772810185924431000,1.18943115234375,1.0370073318481445,-1.3852038383483887,0.14062771201133728
1772810185934131200,1.199131103515625,0.728785514831543,-2.599546432495117,0.24936525523662567
1772810185943831600,1.20883154296875,0.0361027717590332,-3.5590219497680664,0.36202529072761536
1772810185953531600,1.21853173828125,-0.8489813804626465,-4.2874016761779785,0.39253759384155273
1772810185963232000,1.22823193359375,-1.9220752716064453,-4.826482772827148,0.2590272128582001
1772810185972932000,1.23793212890625,-3.0394694805145264,-5.249224662780762,0.08945465087890625
1772810185982632400,1.247632568359375,-3.962099552154541,-5.593416213989258,-0.10063031315803528
1772810185992332500,1.25733251953125,-4.6516313552856445,-5.873757839202881,-0.32616937160491943
1772810186002033000,1.267032958984375,-5.7727437019348145,-6.199949264526367,-0.5397580862045288
1772810186011733000,1.27673291015625,-6.305546283721924,-6.3279500007629395,-0.4656786024570465
1772810186021433300,1.286433349609375,-6.285289764404297,-6.503713607788086,-0.3119533658027649
1772810186031133400,1.296133544921875,-6.548672676086426,-6.773336410522461,-0.1852421760559082
1772810186040833800,1.305833740234375,-6.551821231842041,-6.855669021606445,0.029211193323135376
1772810186050534000,1.315533935546875,-5.866803169250488,-6.801725387573242,-0.15769648551940918
1772810186060234200,1.325234130859375,-6.3991546630859375,-6.632953643798828,-0.05899062752723694
1772810186069934300,1.334934326171875,-6.14127254486084,-6.8257598876953125,0.15635967254638672
1772810186079634700,1.344634765625,-5.454164505004883,-6.949509620666504,0.15425869822502136
1772810186089334800,1.354334716796875,-4.900848865509033,-6.865599632263184,0.10860559344291687
1772810186099035100,1.36403515625,-4.534395217895508,-6.892609596252441,0.16914111375808716
1772810186108735200,1.3737353515625,-4.240476131439209,-6.8818535804748535,0.24167212843894958
1772810186118435600,1.383435546875,-3.90179443359375,-6.582310676574707,0.22266411781311035
1772810186128135700,1.3931357421875,-4.041498184204102,-6.333837032318115,0.05808243155479431
1772810186137836000,1.4028359375,-3.784195899963379,-6.414264678955078,0.25981804728507996
1772810186147536100,1.4125361328125,-2.4411163330078125,-6.398184776306152,0.2810010313987732
1772810186157236500,1.422236572265625,-1.60758638381958,-6.102753639221191,0.05623021721839905
1772810186166936600,1.4319365234375,-1.0466947555541992,-5.60579252243042,-0.4557131826877594
1772810186176637000,1.441636962890625,0.3452014923095703,-4.696877956390381,-0.7577928900718689
1772810186186337000,1.4513369140625,1.9120869636535645,-3.395665168762207,-0.9676837921142578
1772810186196037400,1.461037353515625,3.1081390380859375,-0.980351448059082,-1.2119075059890747
1772810186205737500,1.470737548828125,3.4172892570495605,2.415893077850342,-1.1552156209945679
1772810186215437800,1.480437744140625,3.3364481925964355,5.160422325134277,-0.2731701731681824
1772810186225138000,1.490137939453125,4.088082790374756,7.693216323852539,0.6201359033584595
1772810186234838300,1.49983837890625,5.741908073425293,11.716538429260254,0.7401968836784363
1772810186244538400,1.509538330078125,7.45682954788208,15.79447078704834,-0.05055791139602661
1772810186254238700,1.51923876953125,9.902835845947266,18.153871536254883,-0.7361770272254944
1772810186263938800,1.528938720703125,12.697643280029297,18.152875900268555,-0.18628118932247162
1772810186273639200,1.53863916015625,15.200004577636719,17.852848052978516,1.7737812995910645
1772810186283339300,1.54833935546875,17.18108558654785,17.494430541992188,4.923376560211182
1772810186293039600,1.55803955078125,17.784685134887695,17.13676643371582,7.589127540588379
1772810186302739700,1.56773974609375,17.073719024658203,17.470382690429688,9.19085693359375
1772810186312440000,1.577440185546875,15.585451126098633,17.879003524780273,9.634012222290039
1772810186322140200,1.58714013671875,13.501175880432129,18.58587646484375,8.61076831817627
1772810186331840500,1.596840576171875,11.022493362426758,17.850982666015625,6.6332807540893555
1772810186341540600,1.60654052734375,8.380648612976074,15.281113624572754,4.590682029724121
1772810186351241000,1.616240966796875,5.9206109046936035,12.165975570678711,2.1867904663085938
1772810186360941000,1.625941162109375,4.044557571411133,9.222452163696289,-0.6521597504615784
1772810186370641400,1.635641357421875,3.3292670249938965,7.068327903747559,-3.863131523132324
1772810186380341500,1.645341552734375,3.639664649963379,4.656131744384766,-6.495510101318359
1772810186390041900,1.655041748046875,4.117984771728516,2.240342140197754,-8.075154304504395
1772810186399742000,1.664741943359375,4.281081199645996,0.17314434051513672,-7.9485039710998535
1772810186409442300,1.6744423828125,3.6489415168762207,-1.5403165817260742,-6.303096771240234
1772810186419142400,1.684142333984375,2.4815802574157715,-2.7193946838378906,-4.113891124725342
1772810186428842800,1.6938427734375,1.0735282897949219,-3.620018482208252,-2.097635269165039
1772810186438542800,1.70354296875,-0.4826850891113281,-4.656715393066406,-0.6336135864257812
1772810186448243200,1.7132431640625,-2.1903295516967773,-5.726489543914795,0.21563541889190674
1772810186457943300,1.722943359375,-3.6831862926483154,-6.6602349281311035,0.5363969802856445
1772810186467643600,1.7326435546875,-4.8934125900268555,-7.535877227783203,0.4707409143447876
1772810186477343700,1.74234375,-5.769066333770752,-8.090543746948242,0.03545272350311279
1772810186487044000,1.752044189453125,-6.3121209144592285,-8.517062187194824,-0.5299375653266907
1772810186496744200,1.761744140625,-6.559009552001953,-9.010515213012695,-1.1053366661071777
1772810186506444500,1.771444580078125,-6.704349040985107,-9.487171173095703,-1.4194601774215698
1772810186516144600,1.78114453125,-6.8125901222229,-9.961396217346191,-1.3757264614105225
1772810186525845000,1.790844970703125,-6.860518455505371,-10.36574935913086,-1.1075745820999146
1772810186535545000,1.800545166015625,-6.85198974609375,-10.636321067810059,-0.7118631601333618
1772810186545245400,1.810245361328125,-6.703197479248047,-10.824466705322266,-0.2770596742630005
1772810186554945500,1.819945556640625,-6.498112678527832,-10.818462371826172,0.05677616596221924
1772810186564646000,1.82964599609375,-6.407465934753418,-10.744017601013184,0.22319304943084717
1772810186574346000,1.839345947265625,-6.031261444091797,-10.651984214782715,0.24200427532196045
1772810186584046300,1.84904638671875,-5.283227443695068,-10.520103454589844,0.10760927200317383
1772810186593746400,1.858746337890625,-4.514437675476074,-10.274658203125,-0.09771585464477539
1772810186603446800,1.86844677734375,-3.674427032470703,-10.115734100341797,-0.29918229579925537
1772810186613147000,1.87814697265625,-2.8768134117126465,-9.919845581054688,-0.5128244161605835
1772810186622847200,1.88784716796875,-2.305837869644165,-9.791936874389648,-0.619137704372406
1772810186632547300,1.89754736328125,-2.065286874771118,-9.731208801269531,-0.5969185829162598
1772810186642247400,1.907247314453125,-2.0505449771881104,-9.71467113494873,-0.43336179852485657
1772810186651947800,1.91694775390625,-2.0771372318267822,-9.726715087890625,-0.27332738041877747
1772810186661648100,1.926648193359375,-2.2248775959014893,-9.644440650939941,-0.046980857849121094
1772810186671348200,1.93634814453125,-2.48873233795166,-9.540939331054688,0.12545078992843628
1772810186681048600,1.946048583984375,-2.696455478668213,-9.352092742919922,0.25680845975875854
1772810186690748700,1.955748779296875,-2.955329179763794,-9.235644340515137,0.3646639287471771
1772810186700449000,1.965448974609375,-3.3200507164001465,-9.138596534729004,0.40798813104629517
1772810186710149000,1.975149169921875,-3.4877352714538574,-8.961848258972168,0.262946754693985
1772810186719849200,1.98484912109375,-3.5167455673217773,-8.69886589050293,0.17381931841373444
1772810186729549600,1.994549560546875,-3.511955738067627,-8.467438697814941,0.16711802780628204
1772810186739250000,2.00425,-3.435980796813965,-8.30628776550293,0.32320523262023926
1772810186748950000,2.013949951171875,-3.175297260284424,-8.189582824707031,0.37612777948379517
1772810186758650400,2.023650390625,-2.670328140258789,-7.820536136627197,0.25034889578819275
1772810186768350500,2.0333505859375,-2.3331546783447266,-7.043458938598633,0.10630330443382263
1772810186778050600,2.043050537109375,-1.9968873262405396,-6.049098014831543,0.0008261203765869141
1772810186787751000,2.0527509765625,-1.479232907295227,-4.998159408569336,-0.06075689196586609
1772810186797451300,2.062451171875,-1.069881796836853,-3.6723556518554688,-0.23071393370628357
1772810186807151400,2.0721513671875,-1.0446381568908691,-1.1636438369750977,-0.4031078517436981
1772810186816851700,2.081851806640625,-1.3013699054718018,1.743494987487793,-0.18878906965255737
1772810186826551800,2.0915517578125,-1.5198564529418945,3.989731788635254,0.18773040175437927
1772810186836252000,2.101251953125,-1.3414008617401123,6.02874755859375,0.22940444946289062
1772810186845952300,2.1109521484375,-0.9367338418960571,9.487513542175293,-0.7236038446426392
1772810186855652400,2.12065234375,-0.5674424171447754,12.901118278503418,-2.014220714569092
1772810186865352700,2.130352783203125,-0.2337803840637207,14.424463272094727,-2.831615447998047
1772810186884753200,2.149753173828125,2.4820127487182617,16.38241195678711,-3.990561008453369
1772810186894453500,2.15945361328125,3.5637412071228027,17.147945404052734,-3.9143338203430176
1772810186904153600,2.169153564453125,4.434597015380859,16.819326400756836,-2.736184597015381
1772810186913853700,2.178853759765625,5.163661003112793,15.351906776428223,-0.6941924691200256
1772810186923554000,2.188553955078125,5.108395576477051,13.883793830871582,1.8161581754684448
1772810186933254100,2.198254150390625,4.4467973709106445,12.537285804748535,3.5995450019836426
1772810186942954500,2.20795458984375,3.5033910274505615,11.484918594360352,4.02286434173584
1772810186952654800,2.21765478515625,2.2416634559631348,10.800463676452637,3.3606929779052734
1772810186962355000,2.22735498046875,1.0930614471435547,10.196213722229004,2.0010933876037598
1772810186972055000,2.237054931640625,0.6190223693847656,9.100863456726074,0.5800734162330627
1772810186981755400,2.24675537109375,0.6272709369659424,7.99620246887207,-0.6854473352432251
1772810186991455500,2.25645556640625,0.7823793888092041,7.009796142578125,-1.6632146835327148
1772810187001155800,2.26615576171875,1.34328031539917,5.605450630187988,-2.1447179317474365
1772810187010856000,2.27585595703125,2.190822124481201,4.139078140258789,-2.4576034545898438
1772810187020556300,2.285556396484375,2.8409268856048584,3.2234973907470703,-2.5999088287353516
1772810187030256400,2.29525634765625,2.968487501144409,2.247478485107422,-2.2372536659240723
1772810187039956700,2.304956787109375,2.6879069805145264,1.0648813247680664,-1.5095597505569458
1772810187049656800,2.31465673828125,2.0395617485046387,0.009579658508300781,-0.7229964733123779
1772810187059357200,2.324357177734375,1.255342960357666,-0.9179716110229492,-0.0444038063287735
1772810187069057300,2.334057373046875,0.4699721336364746,-1.9128804206848145,0.47385087609291077
1772810187078757600,2.343757568359375,-0.35708045959472656,-2.8730592727661133,0.8178257942199707
1772810187088457700,2.353457763671875,-1.1558480262756348,-3.8662757873535156,0.923578143119812
1772810187098158000,2.363157958984375,-1.8601398468017578,-4.859075546264648,0.8167457580566406
1772810187107858200,2.372858154296875,-2.464121103286743,-5.711355209350586,0.5567716956138611
1772810187117558500,2.38255859375,-2.875189781188965,-6.539947986602783,0.2573470175266266
1772810187127258600,2.392258544921875,-3.146299123764038,-7.51869010925293,0.05737847089767456
1772810187136959000,2.401958984375,-3.343141794204712,-8.432562828063965,-0.14328330755233765
1772810187146659000,2.4116591796875,-3.4387192726135254,-9.070228576660156,-0.2974470257759094
1772810187156359400,2.421359375,-3.4447147846221924,-9.53832721710205,-0.43219706416130066
1772810187166059500,2.4310595703125,-3.366344451904297,-9.916988372802734,-0.5530723333358765
1772810187175760000,2.440759765625,-3.273444414138794,-10.170717239379883,-0.5762568712234497
1772810187185460000,2.4504599609375,-3.338902473449707,-10.412948608398438,-0.48352378606796265
1772810187195160300,2.460160400390625,-3.4511990547180176,-10.683736801147461,-0.3111174702644348
1772810187204860400,2.4698603515625,-3.7138173580169678,-10.773653030395508,-0.21689903736114502
1772810187214560800,2.479560791015625,-4.01613187789917,-10.671430587768555,-0.269466757774353
1772810187224260900,2.4892607421875,-4.080486297607422,-10.38260555267334,-0.435660719871521
1772810187233961200,2.498961181640625,-4.134965896606445,-9.712287902832031,-0.673298716545105
1772810187243661300,2.508661376953125,-4.2977471351623535,-8.865880966186523,-0.8069579005241394
1772810187253361700,2.518361572265625,-4.252249717712402,-8.333486557006836,-0.6513160467147827
1772810187263061800,2.528061767578125,-3.7175376415252686,-8.02260684967041,-0.35007190704345703
1772810187272762000,2.53776220703125,-3.2923383712768555,-7.507559776306152,0.035082750022411346
1772810187282462200,2.547462158203125,-2.901186943054199,-6.9971923828125,0.4720764756202698
1772810187292162600,2.55716259765625,-2.4889354705810547,-6.203255653381348,0.6973777413368225
1772810187301862700,2.566862548828125,-1.9548616409301758,-5.159465789794922,0.8845703601837158
1772810187311562800,2.576562744140625,-1.5458624362945557,-3.91641902923584,1.191196322441101
1772810187321263000,2.58626318359375,-0.9896857738494873,-2.2437686920166016,1.582399606704712
1772810187330963200,2.595963134765625,-0.04836225509643555,-0.3541717529296875,1.7905458211898804
1772810187340663600,2.60566357421875,1.1793146133422852,1.6355218887329102,1.8072926998138428
1772810187350364000,2.615364013671875,2.264136552810669,3.996415138244629,1.3114995956420898
1772810187360064000,2.62506396484375,3.6302309036254883,6.289421081542969,0.7113564014434814
1772810187369764000,2.63476416015625,5.071415901184082,8.634397506713867,-0.17346329987049103
1772810187379464400,2.64446435546875,5.463998794555664,12.424936294555664,-1.5217933654785156
1772810187389164500,2.65416455078125,5.811583518981934,15.931180953979492,-2.3887338638305664
1772810187398865000,2.663864990234375,6.884360313415527,18.96074676513672,-2.735830307006836
1772810187408565000,2.67356494140625,9.076577186584473,22.835350036621094,-3.192077398300171
1772810187418265300,2.683265380859375,12.259653091430664,26.688953399658203,-3.9527885913848877
1772810187427965700,2.692965576171875,16.41132354736328,28.40719223022461,-3.3827571868896484
1772810187437665800,2.702665771484375,20.02707290649414,27.32257080078125,-1.0438833236694336
1772810187447366000,2.712365966796875,22.29895782470703,25.720726013183594,1.5892510414123535
1772810187457066200,2.722066162109375,22.20665168762207,23.501930236816406,3.356405258178711
1772810187466766300,2.731766357421875,20.394390106201172,21.2785701751709,3.4918229579925537
1772810187476466700,2.741466796875,18.64456558227539,18.7977294921875,2.3056769371032715
1772810187486166800,2.751166748046875,16.19721794128418,16.007991790771484,0.9323797225952148
1772810187495867100,2.7608671875,13.001020431518555,13.389110565185547,-0.6521241068840027
1772810187505567200,2.770567138671875,9.556655883789062,10.985052108764648,-1.7960729598999023
1772810187515267600,2.780267578125,5.6124677658081055,8.512434005737305,-1.9446600675582886
1772810187524967700,2.7899677734375,1.725379467010498,5.980917930603027,-1.7781429290771484
1772810187534668000,2.79966796875,-1.4487383365631104,3.223383903503418,-1.5252454280853271
1772810187544368000,2.8093681640625,-4.114181995391846,0.4363899230957031,-0.9175814986228943
1772810187554068500,2.819068359375,-5.521048545837402,-2.1836957931518555,-0.027547791600227356
1772810187563768600,2.8287685546875,-5.556597709655762,-4.932337760925293,0.7755511999130249
1772810187573468700,2.83846875,-4.988653182983398,-7.505517959594727,1.565146565437317
1772810187583169000,2.8481689453125,-4.0219550132751465,-9.698883056640625,2.051776885986328
1772810187592869400,2.857869384765625,-3.097097396850586,-11.336357116699219,2.0991451740264893
1772810187602569500,2.867569580078125,-2.221977710723877,-12.480274200439453,1.7530131340026855
1772810187612269800,2.877269775390625,-1.6823887825012207,-13.156718254089355,1.3257107734680176
1772810187621970000,2.886969970703125,-1.5710071325302124,-13.517861366271973,0.7987076044082642
1772810187631670300,2.896670166015625,-1.872758150100708,-13.689666748046875,0.26928913593292236
1772810187641370400,2.906370361328125,-2.6824355125427246,-13.696535110473633,-0.3249039649963379
1772810187651070500,2.916070556640625,-3.6059701442718506,-13.747978210449219,-0.8643954992294312
1772810187660770800,2.925770751953125,-4.648481845855713,-13.662345886230469,-1.1087560653686523
1772810187670471200,2.93547119140625,-5.700076580047607,-13.359481811523438,-0.9421074390411377
1772810187680171300,2.945171142578125,-6.527150630950928,-12.979978561401367,-0.40504419803619385
1772810187689871600,2.95487158203125,-6.850909233093262,-12.655214309692383,0.278985857963562
1772810187699571700,2.96457177734375,-6.7664642333984375,-12.21585464477539,0.7552434206008911
1772810187709271800,2.974271728515625,-6.187765121459961,-11.779424667358398,1.0039950609207153
1772810187718972200,2.98397216796875,-5.396380424499512,-11.40884017944336,1.040510654449463
1772810187728672300,2.99367236328125,-4.471818447113037,-11.064678192138672,1.0202105045318604
1772810187738372600,3.00337255859375,-3.5990307331085205,-10.713719367980957,1.0446175336837769
1772810187748072700,3.01307275390625,-2.772608995437622,-10.495243072509766,1.190827488899231
1772810187757773000,3.02277294921875,-2.0515172481536865,-10.251947402954102,1.3124783039093018
1772810187767473200,3.03247314453125,-1.6635007858276367,-9.899008750915527,1.5684224367141724
1772810187777173500,3.042173583984375,-1.5622999668121338,-9.647202491760254,1.8307812213897705
1772810187786873600,3.05187353515625,-1.5098800659179688,-9.445695877075195,1.9311574697494507
1772810187796574000,3.061573974609375,-1.5199244022369385,-9.128351211547852,1.8311941623687744
1772810187806274000,3.071274169921875,-1.5704991817474365,-8.82114028930664,1.7123374938964844
1772810187815974400,3.080974365234375,-1.6336932182312012,-8.6642427444458,1.5805989503860474
1772810187825674500,3.090674560546875,-1.7958011627197266,-8.5343017578125,1.4314125776290894
1772810187835374800,3.100374755859375,-1.7531925439834595,-8.45883560180664,1.3132050037384033
1772810187845075000,3.110074951171875,-1.7144131660461426,-8.393946647644043,1.3223609924316406
1772810187854775300,3.119775390625,-1.6479743719100952,-8.410338401794434,1.3772153854370117
1772810187864475400,3.129475341796875,-1.6097718477249146,-8.477472305297852,1.3912111520767212
1772810187874175700,3.13917578125,-1.6434428691864014,-8.42391300201416,1.325782299041748
1772810187883875800,3.148875732421875,-1.7308684587478638,-8.278709411621094,1.2555543184280396
1772810187893576200,3.158576171875,-1.9029648303985596,-8.144680976867676,1.2807891368865967
1772810187903276300,3.1682763671875,-2.239107370376587,-7.891753673553467,1.2654223442077637
1772810187912976400,3.177976318359375,-2.376744508743286,-7.480058670043945,1.2079079151153564
1772810187922676700,3.1876767578125,-2.427384376525879,-6.997575283050537,1.1715692281723022
1772810187932376800,3.197376953125,-2.5504415035247803,-6.130756855010986,0.9559031128883362
1772810187942077200,3.2070771484375,-2.4127097129821777,-4.824935436248779,0.6304264664649963
1772810187951777500,3.216777587890625,-2.332963466644287,-3.283780574798584,0.4442727565765381
1772810187961477600,3.2264775390625,-2.5570034980773926,-2.0841503143310547,0.6054368019104004
1772810187971178000,3.236177978515625,-2.5861403942108154,-1.2851948738098145,1.0750080347061157
1772810187980878000,3.245878173828125,-2.7455015182495117,0.13335609436035156,1.2027945518493652
1772810187990578200,3.255578125,-3.3010528087615967,2.372743606567383,0.750103771686554
1772810188000278500,3.265278564453125,-3.8923697471618652,4.841648101806641,-0.578080415725708
1772810188009978600,3.274978515625,-3.5531105995178223,7.752938270568848,-2.806821346282959
1772810188019679000,3.284678955078125,-2.01753568649292,11.555023193359375,-5.05852746963501
1772810188029379000,3.294379150390625,0.29626941680908203,15.064993858337402,-6.333935737609863
1772810188039079400,3.304079345703125,2.2816152572631836,17.330678939819336,-5.70121955871582
1772810188048779500,3.313779541015625,3.4581377506256104,19.43460464477539,-4.0306715965271
1772810188058479900,3.32347998046875,4.2293500900268555,20.81218719482422,-2.329606056213379
1772810188068180000,3.333179931640625,4.867471694946289,20.588130950927734,-1.040817379951477
1772810188077880300,3.34288037109375,5.966428756713867,19.649639129638672,-0.518721342086792
1772810188087580400,3.352580322265625,7.857481479644775,18.052669525146484,-0.4128299355506897
1772810188097280800,3.36228076171875,10.39497184753418,16.320693969726562,-0.7202401757240295
1772810188106980900,3.37198095703125,12.927717208862305,15.02939510345459,-1.1935598850250244
1772810188116681200,3.38168115234375,14.70024585723877,13.84885025024414,-1.0451797246932983
1772810188126381300,3.39138134765625,15.043086051940918,12.444375991821289,-0.3858764171600342
1772810188136081700,3.40108154296875,13.792146682739258,10.749523162841797,0.4217590093612671
1772810188145781800,3.41078173828125,11.283944129943848,8.922853469848633,0.8097424507141113
1772810188155482000,3.420482177734375,8.084877014160156,7.243535995483398,1.0150641202926636
1772810188165182200,3.43018212890625,4.92650032043457,5.468329429626465,1.2426433563232422
1772810188174882600,3.439882568359375,2.237489700317383,3.412259101867676,1.4353195428848267
1772810188184582700,3.449582763671875,0.3455634117126465,1.4190864562988281,1.3356845378875732
1772810188194282800,3.45928271484375,-0.38900136947631836,-0.3669872283935547,0.9511846303939819
1772810188203983000,3.468983154296875,-0.43488168716430664,-2.0150346755981445,0.4085296392440796
1772810188213683200,3.47868310546875,-0.2746119499206543,-3.3911304473876953,-0.14876526594161987
1772810188223383600,3.488383544921875,-0.15559816360473633,-4.635870456695557,-0.7331563234329224
1772810188233084000,3.498083984375,-0.11142587661743164,-5.657058238983154,-1.1717361211776733
1772810188242784000,3.507783935546875,-0.21811676025390625,-6.412683963775635,-1.297701120376587
1772810188252484000,3.517484130859375,-0.7358274459838867,-6.965828895568848,-1.1102055311203003
1772810188262184400,3.527184326171875,-1.4358210563659668,-7.306964874267578,-0.7358904480934143
1772810188271884500,3.536884521484375,-2.213961362838745,-7.53248929977417,-0.2731454372406006
1772810188281585000,3.5465849609375,-3.101193904876709,-7.6993842124938965,0.20730316638946533
1772810188291285000,3.556284912109375,-4.034524917602539,-7.904909133911133,0.6640881299972534
1772810188300985300,3.5659853515625,-5.000272750854492,-8.12883472442627,0.9858680367469788
1772810188310685400,3.575685546875,-5.714945316314697,-8.2728271484375,1.039074182510376
1772810188320385800,3.5853857421875,-6.041862487792969,-8.34756851196289,1.0049893856048584
1772810188330086000,3.5950859375,-6.279306411743164,-8.43175220489502,0.8763936161994934
1772810188339786200,3.6047861328125,-6.219318389892578,-8.485998153686523,0.6405074000358582
1772810188349486300,3.614486328125,-5.860429763793945,-8.477169036865234,0.5611190795898438
1772810188359186700,3.624186767578125,-5.675970554351807,-8.425004959106445,0.605032205581665
1772810188368886800,3.63388671875,-5.4828596115112305,-8.351700782775879,0.6796302795410156
1772810188378587100,3.643587158203125,-5.414787292480469,-8.24287223815918,0.6569153666496277
1772810188388287200,3.653287353515625,-5.580445289611816,-8.112634658813477,0.6471941471099854
1772810188397987300,3.6629873046875,-5.961463928222656,-7.948719501495361,0.4825446605682373
1772810188407687700,3.672687744140625,-6.344265937805176,-7.620487689971924,0.09645068645477295
1772810188417387800,3.6823876953125,-6.446394443511963,-7.311764717102051,-0.2765049934387207
1772810188427088100,3.692088134765625,-6.562439918518066,-7.18833589553833,-0.4317474365234375
1772810188436788500,3.70178857421875,-6.8841657638549805,-6.98448371887207,-0.39261460304260254
1772810188446488600,3.711488525390625,-6.737442970275879,-6.535690784454346,-0.18738961219787598
1772810188456188700,3.721188720703125,-6.252303123474121,-5.583095550537109,-0.031241774559020996
1772810188465889000,3.730888916015625,-6.2395734786987305,-4.33519983291626,-0.19248557090759277
1772810188475589000,3.740589111328125,-6.365342140197754,-3.2664413452148438,-0.316278338432312
1772810188485289500,3.75028955078125,-5.615069389343262,-2.737760066986084,-0.38010072708129883
1772810188494989600,3.759989501953125,-4.1096882820129395,-2.2085695266723633,-0.828400731086731
1772810188504690000,3.76968994140625,-1.956770896911621,-1.1461663246154785,-1.277472972869873
1772810188514390000,3.77939013671875,1.2329449653625488,-0.5841941833496094,-0.945044755935669
1772810188524090400,3.78909033203125,4.876871585845947,-0.3150625228881836,0.14635896682739258
1772810188533790500,3.79879052734375,8.515641212463379,0.01763916015625,1.4822663068771362
1772810188543490800,3.80849072265625,11.44700813293457,0.24367952346801758,2.663203239440918
1772810188553191000,3.81819091796875,13.108702659606934,0.5297460556030273,3.3909525871276855
1772810188562891300,3.827891357421875,12.96544075012207,1.3969206809997559,3.3975670337677
1772810188572591400,3.83759130859375,11.258467674255371,3.0186901092529297,2.634582757949829
1772810188582291700,3.847291748046875,9.12693977355957,5.452263832092285,1.5718231201171875
1772810188591991800,3.85699169921875,7.491269588470459,7.876716613769531,0.9762626886367798
1772810188601692000,3.86669189453125,6.825793266296387,10.131194114685059,0.8820894956588745
1772810188611392300,3.876392333984375,7.437790870666504,12.56541919708252,1.1121970415115356
1772810188621092400,3.88609228515625,8.998741149902344,14.562938690185547,1.550295114517212
1772810188630792700,3.895792724609375,10.126670837402344,16.60706901550293,1.6569141149520874
1772810188640493000,3.9054931640625,11.041826248168945,19.123355865478516,1.299564242362976
1772810188650193200,3.915193115234375,12.653732299804688,20.45273208618164,0.6886493563652039
1772810188659893500,3.9248935546875,14.287834167480469,20.845054626464844,-0.8001102209091187
1772810188669593600,3.934593505859375,16.962127685546875,20.097476959228516,-1.9859044551849365
1772810188679293700,3.944293701171875,20.014320373535156,18.184837341308594,-2.1143245697021484
1772810188688994000,3.953994140625,22.71345329284668,15.379254341125488,-1.0522863864898682
1772810188698694100,3.963694091796875,23.29286003112793,11.43912124633789,1.5723639726638794
1772810188708394500,3.97339453125,19.460453033447266,6.166460037231445,5.17099666595459
1772810188718094600,3.983094482421875,11.316099166870117,2.879545211791992,7.065788269042969
1772810188727795000,3.992794921875,0.7167391777038574,1.6069726943969727,6.375370979309082
1772810188737495000,4.0024951171875,-9.333157539367676,-0.10585594177246094,3.216820478439331
1772810188747195400,4.0121953125,-16.44638442993164,0.25656604766845703,-3.2076148986816406
1772810188756895500,4.0218955078125,-17.925334930419922,0.7089204788208008,-8.650419235229492
1772810188766595800,4.031595947265625,-16.947891235351562,-2.3264145851135254,-10.53746223449707
1772810188776296000,4.0412958984375,-12.270076751708984,-3.446138381958008,-10.578909873962402
1772810188785996300,4.050996337890625,-8.516626358032227,-2.6737756729125977,-9.592741966247559
1772810188795696400,4.0606962890625,-4.288930416107178,-3.091151237487793,-7.6714186668396
1772810188805396700,4.070396728515625,-0.8429021835327148,-2.7235403060913086,-5.927944183349609
1772810188815096800,4.080096923828125,3.0522873401641846,-1.3226804733276367,-4.606594085693359
1772810188824797000,4.089796875,6.511285305023193,-0.768437385559082,-2.5055105686187744
1772810188834497300,4.099497314453125,7.472274303436279,-1.9428367614746094,0.7051718235015869
1772810188844197400,4.109197265625,6.640287399291992,-3.4517555236816406,3.3418381214141846
1772810188853897700,4.118897705078125,4.419216156005859,-4.549307823181152,4.868720054626465
1772810188863597800,4.128597900390625,2.3957390785217285,-5.787020683288574,5.614960193634033
1772810188873298200,4.138298095703125,0.3653225898742676,-6.147834300994873,5.542309284210205
1772810188882998300,4.147998291015625,-1.8673335313796997,-6.043709754943848,4.811640739440918
1772810188892698600,4.15769873046875,-3.7335355281829834,-5.849401473999023,4.027501106262207
1772810188902398700,4.167398681640625,-5.847014904022217,-5.704065322875977,3.698420524597168
1772810188912099000,4.17709912109375,-7.392209529876709,-5.787848949432373,3.798308849334717
1772810188921799200,4.186799072265625,-8.096961975097656,-6.108982086181641,3.775970697402954
1772810188931499500,4.19649951171875,-7.63189697265625,-6.417656421661377,3.597898483276367
1772810188941199600,4.20619970703125,-6.605499267578125,-6.893387794494629,3.210432529449463
1772810188950899700,4.215899658203125,-5.323306083679199,-7.291866302490234,2.7392807006835938
1772810188960600000,4.22560009765625,-4.081172466278076,-7.660368919372559,2.3577144145965576
1772810188970300200,4.235300048828125,-3.288156747817993,-7.918450355529785,2.2028250694274902
1772810188980000500,4.24500048828125,-2.814692497253418,-8.068609237670898,2.126681327819824
1772810188989700900,4.254700927734375,-2.922703266143799,-7.965825080871582,1.9489203691482544
1772810188999401000,4.26440087890625,-3.361485481262207,-7.7769269943237305,1.7565014362335205
1772810189009101300,4.274101318359375,-3.768942356109619,-7.765200614929199,1.628917932510376
1772810189018801400,4.283801513671875,-4.261310577392578,-7.857819557189941,1.5521022081375122
1772810189028501500,4.29350146484375,-4.741860866546631,-8.043632507324219,1.528414249420166
1772810189038201900,4.303201904296875,-4.763178825378418,-8.602265357971191,1.5620665550231934
1772810189047902000,4.31290185546875,-4.268196105957031,-9.171326637268066,1.5376274585723877
1772810189057602300,4.322602294921875,-3.7581262588500977,-9.448424339294434,1.537147879600525
1772810189067302400,4.332302490234375,-3.2698817253112793,-9.664258003234863,1.6899023056030273
1772810189077002800,4.342002685546875,-2.689427614212036,-10.160249710083008,1.8667711019515991
1772810189086702800,4.351702880859375,-2.232222557067871,-10.71270751953125,2.119875431060791
1772810189096403000,4.36140283203125,-2.05759859085083,-11.08328628540039,2.2472691535949707
1772810189106103300,4.371103271484375,-1.9772191047668457,-11.287782669067383,2.399799108505249
1772810189115803600,4.3808037109375,-1.9569308757781982,-11.426782608032227,2.4775609970092773
1772810189125503700,4.390503662109375,-2.2388734817504883,-11.465457916259766,2.429983615875244
1772810189135204000,4.4002041015625,-2.5937743186950684,-11.375563621520996,2.23270583152771
1772810189144904200,4.409904296875,-2.7790329456329346,-11.189555168151855,1.893845796585083
1772810189154604500,4.4196044921875,-3.0915777683258057,-10.697440147399902,1.5852223634719849
1772810189164304600,4.4293046875,-3.6452980041503906,-10.030096054077148,1.288906455039978
1772810189174004700,4.439004638671875,-3.4830801486968994,-9.277178764343262,1.0515518188476562
1772810189183705000,4.448705078125,-2.9164795875549316,-7.898480415344238,0.8653175234794617
1772810189193405200,4.4584052734375,-2.5411062240600586,-6.288992881774902,1.0047534704208374
1772810189212805600,4.4778056640625,-0.797022819519043,-2.5693912506103516,1.3181084394454956
1772810189222506000,4.487506103515625,0.4477875232696533,0.14646053314208984,0.9684884548187256
1772810189232206000,4.4972060546875,0.9277591705322266,3.3589963912963867,0.05656135082244873
1772810189241906400,4.506906494140625,1.0431971549987793,7.184539794921875,-1.440063714981079
1772810189251606500,4.5166064453125,2.7104220390319824,10.5206880569458,-2.71445369720459
1772810189261307000,4.526306884765625,4.777203559875488,12.560941696166992,-3.3160104751586914
1772810189271007000,4.536007080078125,5.748743057250977,15.030757904052734,-4.11352014541626
1772810189280707300,4.545707275390625,6.600613117218018,18.297334671020508,-4.768271446228027
1772810189290407400,4.555407470703125,7.444348335266113,20.715181350708008,-4.7061004638671875
1772810189300107800,4.565107666015625,8.57280445098877,21.41838264465332,-4.006209373474121
1772810189309807900,4.574807861328125,9.891613006591797,21.424631118774414,-3.3292272090911865
1772810189319508000,4.584508056640625,10.956296920776367,21.19025993347168,-2.6904149055480957
1772810189329208300,4.594208251953125,11.87500286102295,20.377248764038086,-1.74421226978302
1772810189338908400,4.603908447265625,12.433969497680664,18.95447540283203,-0.44588327407836914
1772810189348608800,4.61360888671875,12.696769714355469,17.51174545288086,0.7306082844734192
1772810189358308900,4.623308837890625,12.634603500366211,16.000816345214844,1.4946389198303223
1772810189368009200,4.63300927734375,11.745765686035156,14.560826301574707,1.7783488035202026
1772810189377709300,4.642709228515625,10.062929153442383,12.861458778381348,1.9315308332443237
1772810189387409700,4.65240966796875,7.948831558227539,10.813985824584961,1.9473037719726562
1772810189397109800,4.66210986328125,5.7097487449646,8.581014633178711,1.8581500053405762
1772810189406810000,4.67181005859375,3.582386016845703,6.080996513366699,1.659460425376892
1772810189416510200,4.68151025390625,1.753939151763916,3.4916067123413086,1.181320309638977
1772810189426210600,4.69121044921875,0.30374574661254883,1.0987787246704102,0.5795440673828125
1772810189435910700,4.70091064453125,-0.9069688320159912,-1.0714168548583984,-0.007474422454833984
1772810189445611000,4.710611083984375,-1.558445930480957,-3.1679553985595703,-0.5747255086898804
1772810189455311000,4.72031103515625,-1.3087658882141113,-5.068982124328613,-0.9973986148834229
1772810189465011200,4.73001123046875,-0.9966559410095215,-6.6661787033081055,-1.1861788034439087
1772810189474711600,4.739711669921875,-1.1592068672180176,-7.854040145874023,-1.1413147449493408
1772810189484411600,4.74941162109375,-1.6570336818695068,-8.909505844116211,-0.8908309936523438
1772810189494112000,4.759112060546875,-2.4424033164978027,-9.765045166015625,-0.5193666219711304
1772810189503812000,4.76881201171875,-3.3374342918395996,-10.343621253967285,-0.2737107276916504
1772810189513512400,4.778512451171875,-4.0768561363220215,-10.664718627929688,-0.03503870964050293
1772810189523212500,4.788212646484375,-4.889463424682617,-10.93896770477295,0.2212233543395996
1772810189532913000,4.797912841796875,-5.58920431137085,-11.081365585327148,0.4506920576095581
1772810189542613000,4.807613037109375,-6.047070503234863,-11.187042236328125,0.6012639999389648
1772810189552313300,4.817313232421875,-6.448114395141602,-11.248323440551758,0.6808818578720093
1772810189562013400,4.827013427734375,-6.60114860534668,-11.260527610778809,0.6032801866531372
1772810189571713800,4.8367138671875,-6.54937744140625,-11.290027618408203,0.44078123569488525
1772810189581414000,4.846413818359375,-6.3505096435546875,-11.349640846252441,0.25729691982269287
1772810189591114000,4.856114013671875,-5.961165428161621,-11.4521484375,0.18253815174102783
1772810189600814300,4.865814453125,-5.507326126098633,-11.547067642211914,0.1964646577835083
1772810189610514400,4.875514404296875,-4.965458869934082,-11.709909439086914,0.28203392028808594
1772810189620214800,4.88521484375,-4.31217098236084,-11.805246353149414,0.3805481195449829
1772810189629915000,4.894914794921875,-3.622429370880127,-11.771347045898438,0.8380420207977295
1772810189639615200,4.904615234375,-3.2210049629211426,-11.82348346710205,1.3200151920318604
1772810189649315300,4.9143154296875,-2.866347312927246,-11.653843879699707,1.6102654933929443
1772810189659015700,4.924015625,-2.50382661819458,-11.18073558807373,1.6180765628814697
1772810189668715800,4.9337158203125,-2.6088132858276367,-10.513291358947754,1.1881393194198608
1772810189678416100,4.943416015625,-2.965601921081543,-9.778670310974121,0.6546241044998169
1772810189688116200,4.9531162109375,-3.4807798862457275,-9.103761672973633,0.13272571563720703
1772810189697816600,4.962816650390625,-3.792067050933838,-7.935917854309082,-0.6564164161682129
1772810189707516700,4.9725166015625,-3.7994329929351807,-5.630104064941406,-1.6923555135726929
1772810189717217000,4.982217041015625,-3.272432327270508,-3.03676700592041,-2.0988903045654297
1772810189726917000,4.991917236328125,-1.7732738256454468,-0.18593406677246094,-2.167994499206543
1772810189736617200,5.0016171875,0.47545909881591797,4.081116676330566,-2.62202787399292
1772810189746317600,5.011317626953125,3.6953125,9.20888614654541,-3.3898282051086426
1772810189756017700,5.021017578125,7.425865650177002,13.11251449584961,-3.583463668823242
1772810189765718000,5.030718017578125,9.37343978881836,16.450002670288086,-3.669081687927246
1772810189775418000,5.040418212890625,9.979637145996094,21.353267669677734,-4.859448432922363
1772810189785118500,5.050118408203125,11.01616382598877,25.345659255981445,-5.480893135070801
1772810189794818600,5.059818603515625,11.737838745117188,26.4666748046875,-4.6026611328125
1772810189804519000,5.069518798828125,13.137409210205078,26.752941131591797,-3.389554500579834
1772810189814219000,5.079218994140625,15.43741226196289,26.645238876342773,-2.298938274383545
1772810189823919000,5.088919189453125,17.88732147216797,26.502328872680664,-1.7237223386764526
1772810189833619500,5.098619384765625,20.537437438964844,26.004722595214844,-1.5983930826187134
1772810189843319800,5.10831982421875,21.464096069335938,24.791501998901367,-1.396681308746338
1772810189853020000,5.11802001953125,20.47466278076172,23.012136459350586,-0.7845126390457153
1772810189862720300,5.12772021484375,17.97771644592285,20.76129913330078,0.33608919382095337
1772810189872420400,5.13742041015625,14.654515266418457,18.357393264770508,1.2284501791000366
1772810189882120400,5.147120361328125,10.843535423278809,16.042911529541016,1.2410093545913696
1772810189891820800,5.15682080078125,7.034102439880371,13.920316696166992,0.883013904094696
1772810189901521000,5.16652099609375,3.508028507232666,11.810022354125977,0.24912118911743164
1772810189911221200,5.17622119140625,0.6481401920318604,9.399969100952148,-0.12597644329071045
1772810189920921300,5.18592138671875,-1.5775277614593506,6.669463157653809,-0.17700445652008057
1772810189930621700,5.19562158203125,-3.210784912109375,3.497142791748047,0.02078300714492798
1772810189940321800,5.20532177734375,-3.9760208129882812,-0.06120777130126953,0.3608553409576416
1772810189950022100,5.215022216796875,-4.233091354370117,-3.455460548400879,0.6780306696891785
1772810189959722200,5.22472216796875,-3.7324025630950928,-6.420840263366699,0.9265209436416626
1772810189969422300,5.23442236328125,-2.651909351348877,-9.06113052368164,1.2508856058120728
1772810189979122700,5.244122802734375,-1.8355249166488647,-11.22894287109375,1.6828477382659912
1772810189988823000,5.253822998046875,-1.669464111328125,-12.861005783081055,2.2220380306243896
1772810189998523100,5.263523193359375,-1.999841332435608,-14.002527236938477,2.6451921463012695
1772810190008223500,5.273223388671875,-2.628176689147949,-14.77153491973877,2.6432881355285645
1772810190017923600,5.282923583984375,-3.424783706665039,-15.280742645263672,2.200916290283203
1772810190027623700,5.292623779296875,-4.195363998413086,-15.777800559997559,1.6157333850860596
1772810190037324000,5.302323974609375,-5.0647807121276855,-16.03691864013672,0.9828308820724487
1772810190047024000,5.312024169921875,-5.5615620613098145,-15.822080612182617,0.1927281618118286
1772810190056724500,5.321724365234375,-5.60794734954834,-15.348934173583984,-0.5786142349243164
1772810190066424600,5.331424560546875,-5.425411224365234,-14.701364517211914,-0.9574673175811768
1772810190076125000,5.341125,-5.34250545501709,-14.350258827209473,-0.7173495292663574
1772810190085825000,5.350824951171875,-5.4749836921691895,-14.204901695251465,-0.17696499824523926
1772810190095525400,5.360525390625,-5.248724937438965,-13.978657722473145,0.49629294872283936
1772810190105225500,5.3702255859375,-4.7782673835754395,-13.811094284057617,1.253424882888794
1772810190114925600,5.379925537109375,-4.196248531341553,-13.540634155273438,1.9232558012008667
1772810190124626000,5.3896259765625,-3.539539337158203,-13.211742401123047,2.4663801193237305
1772810190134326000,5.399325927734375,-3.012576103210449,-12.763307571411133,2.73842191696167
1772810190144026400,5.4090263671875,-2.789186477661133,-12.155949592590332,2.521982192993164
1772810190153726500,5.4187265625,-2.767925977706909,-11.424003601074219,1.9492672681808472
1772810190163426800,5.4284267578125,-2.9198594093322754,-10.684844017028809,1.4122235774993896
1772810190173127000,5.438126953125,-3.0809903144836426,-10.147743225097656,1.0569941997528076
1772810190182827300,5.4478271484375,-3.0524771213531494,-9.696123123168945,0.8488599061965942
1772810190192527400,5.45752734375,-2.915194511413574,-9.290266036987305,0.8064278364181519
1772810190202227700,5.467227783203125,-2.5973691940307617,-9.094651222229004,0.9437087178230286
1772810190211927800,5.476927734375,-2.312300205230713,-8.931663513183594,1.2075085639953613
1772810190221628200,5.486628173828125,-1.9842159748077393,-8.774916648864746,1.4861347675323486
1772810190231328300,5.496328369140625,-1.452069878578186,-8.713960647583008,1.681565284729004
1772810190241028600,5.506028564453125,-0.7697529792785645,-8.614341735839844,1.855015754699707
1772810190250728700,5.515728759765625,-0.380545973777771,-8.44663143157959,1.9904723167419434
1772810190260428800,5.5254287109375,-0.1660158634185791,-8.248174667358398,2.107302188873291
1772810190270129200,5.535129150390625,0.050528526306152344,-8.137147903442383,2.1522648334503174
1772810190279829200,5.544829345703125,0.2448744773864746,-8.014022827148438,2.2494492530822754
1772810190299229700,5.564229736328125,-0.03815960884094238,-7.498556137084961,2.4184443950653076
1772810190308930000,5.573929931640625,-0.19135737419128418,-7.181653022766113,2.3561105728149414
1772810190318630100,5.583630126953125,-0.5633623600006104,-6.582335948944092,2.1383986473083496
1772810190328330200,5.593330322265625,-0.8622593879699707,-5.940784931182861,1.7486515045166016
1772810190338030600,5.603030517578125,-0.9739775657653809,-4.985562801361084,1.2795171737670898
1772810190347730700,5.612730712890625,-1.1082534790039062,-3.6288976669311523,0.9021016359329224
1772810190357431000,5.62243115234375,-1.3343448638916016,-2.357921600341797,0.8244918584823608
1772810190367131400,5.63213134765625,-1.4659535884857178,-1.1592645645141602,1.3551990985870361
1772810190376831500,5.64183154296875,-1.067134141921997,0.5928459167480469,1.6291885375976562
1772810190386531800,5.65153173828125,-0.3532729148864746,3.2925539016723633,1.3202238082885742
1772810190396232000,5.66123193359375,-0.07660293579101562,6.7157697677612305,0.029527366161346436
1772810190405932000,5.67093212890625,1.3147552013397217,10.92935848236084,-1.8601008653640747
1772810190415632400,5.68063232421875,4.18389368057251,15.072866439819336,-3.1657402515411377
1772810190425332500,5.69033251953125,7.200901985168457,17.7415771484375,-2.892505407333374
1772810190435032800,5.70003271484375,10.250040054321289,18.497940063476562,-1.8690674304962158
1772810190444733000,5.70973291015625,12.597264289855957,20.535903930664062,-1.7751033306121826
1772810190454433300,5.719433349609375,14.06761360168457,22.053321838378906,-2.0288281440734863
1772810190464133400,5.72913330078125,14.935384750366211,21.7651424407959,-1.9632933139801025
1772810190473833500,5.73883349609375,15.088652610778809,20.31528091430664,-1.5681641101837158
1772810190483533800,5.748533935546875,14.803857803344727,18.280563354492188,-0.6207408308982849
1772810190493234000,5.75823388671875,14.351423263549805,15.933940887451172,0.4180462658405304
1772810190512634400,5.77763427734375,12.34111213684082,12.013742446899414,1.1945053339004517
1772810190522334700,5.787334716796875,10.897139549255371,10.231416702270508,0.9932050704956055
1772810190532034800,5.797034912109375,8.91352653503418,8.575993537902832,0.38400283455848694
1772810190541735200,5.806735107421875,6.565431594848633,6.827723503112793,-0.5500954985618591
1772810190551435300,5.816435302734375,4.012437343597412,5.02495002746582,-1.1601308584213257
1772810190561135400,5.82613525390625,1.4620213508605957,3.248826026916504,-1.1786644458770752
1772810190570835700,5.835835693359375,-0.6939005851745605,1.4984045028686523,-0.7385727763175964
1772810190580535800,5.845535888671875,-2.3820300102233887,-0.1914653778076172,-0.18946796655654907
1772810190599936500,5.8649365234375,-3.7041523456573486,-3.099926471710205,0.2399856150150299
1772810190609636600,5.87463671875,-3.360354423522949,-4.393110752105713,0.07285398244857788
1772810190619336700,5.884336669921875,-2.7205348014831543,-5.563812255859375,-0.25854218006134033
1772810190629037000,5.894037109375,-2.079742193222046,-6.501136779785156,-0.5732439756393433
1772810190638737200,5.903737060546875,-1.7058327198028564,-7.355677127838135,-0.8023831248283386
1772810190648437500,5.9134375,-1.6673798561096191,-7.9723615646362305,-1.0013338327407837
1772810190658137600,5.9231376953125,-1.893575668334961,-8.347146987915039,-1.0233631134033203
1772810190667838000,5.932837890625,-2.421008586883545,-8.529998779296875,-0.8770326375961304
1772810190677538000,5.9425380859375,-3.0938403606414795,-8.590332984924316,-0.6947548389434814
1772810190687238400,5.95223828125,-3.7496399879455566,-8.584535598754883,-0.548525869846344
1772810190696938500,5.9619384765625,-4.254780292510986,-8.630146026611328,-0.3900870084762573
1772810190706638600,5.971638671875,-4.716960906982422,-8.589896202087402,-0.2717967629432678
1772810190716339000,5.9813388671875,-5.032033920288086,-8.588716506958008,-0.08357006311416626
1772810190726039000,5.9910390625,-5.389525413513184,-8.57201862335205,0.12320595979690552
1772810190735739400,6.000739501953125,-5.672253131866455,-8.588069915771484,0.41407158970832825
1772810190745439500,6.010439453125,-5.766820907592773,-8.67763900756836,0.6964865326881409
1772810190755139800,6.020139892578125,-5.678292274475098,-8.71071720123291,0.9091265201568604
1772810190764840000,6.02983984375,-5.344344139099121,-8.733623504638672,1.1040170192718506
1772810190774540000,6.0395400390625,-4.900738716125488,-8.764715194702148,1.18829345703125
1772810190784240400,6.049240478515625,-4.4603495597839355,-8.764853477478027,1.153838872909546
1772810190793940500,6.0589404296875,-4.04702091217041,-8.750717163085938,1.0275321006774902
1772810190803640800,6.068640869140625,-3.3862404823303223,-8.758105278015137,0.8118019104003906
1772810190813341000,6.0783408203125,-2.3857431411743164,-8.855246543884277,0.6740098595619202
1772810190823041300,6.088041259765625,-1.275970458984375,-8.77392864227295,0.6358338594436646
1772810190832741400,6.097741455078125,-0.2947406768798828,-8.423912048339844,0.6845781803131104
1772810190842441700,6.107441650390625,0.5179917812347412,-8.032164573669434,0.823213517665863
1772810190852141800,6.117141845703125,1.0805509090423584,-7.810755729675293,0.9015510678291321
1772810190861842200,6.12684228515625,1.4973950386047363,-7.463489055633545,0.8801075220108032
1772810190871542300,6.136542236328125,1.2396230697631836,-6.3771772384643555,0.5987305045127869
1772810190881242600,6.14624267578125,0.4150710105895996,-4.482183933258057,-0.09552091360092163
1772810190890942700,6.155942626953125,0.09991097450256348,-2.106639862060547,-0.6165546178817749
1772810190900643000,6.16564306640625,0.6137633323669434,0.09869003295898438,-0.6003342866897583
1772810190910343200,6.17534326171875,1.1974177360534668,3.4388418197631836,-0.3054291605949402
1772810190920043300,6.185043212890625,0.898547887802124,8.103496551513672,0.725028395652771
1772810190929743600,6.19474365234375,0.764387845993042,12.41529369354248,2.855299711227417
1772810190939443700,6.204443603515625,2.5997397899627686,15.760613441467285,4.337387561798096
1772810190949144000,6.21414404296875,5.0397047996521,19.51693344116211,4.22030782699585
1772810190958844200,6.22384423828125,8.044126510620117,23.343935012817383,2.7216501235961914
1772810190968544500,6.23354443359375,12.926031112670898,27.687835693359375,0.21561497449874878
1772810190978244600,6.24324462890625,18.97327423095703,29.859346389770508,-1.4682834148406982
1772810190987945000,6.252945068359375,23.609464645385742,29.967876434326172,-1.9151744842529297
1772810190997645000,6.26264501953125,25.569232940673828,29.097549438476562,-1.613189458847046
1772810191007345200,6.27234521484375,25.407617568969727,27.703706741333008,-1.0908823013305664
1772810191017045500,6.28204541015625,23.44467544555664,25.583518981933594,-1.4977738857269287
1772810191026745600,6.29174560546875,20.101905822753906,23.339523315429688,-2.5634267330169678
1772810191036446000,6.301446044921875,16.052820205688477,20.84304428100586,-3.127375364303589
1772810191046146000,6.31114599609375,11.3095121383667,18.143665313720703,-2.921325445175171
1772810191055846400,6.320846435546875,6.24207878112793,15.631999969482422,-3.0120105743408203
1772810191065546500,6.33054638671875,1.9776201248168945,13.389677047729492,-3.3946146965026855
1772810191075246600,6.34024658203125,-1.212225079536438,10.874360084533691,-2.736872911453247
1772810191084947000,6.349947021484375,-3.2423434257507324,8.226551055908203,-1.8102662563323975
1772810191094647000,6.35964697265625,-4.088567733764648,5.5876007080078125,-1.5220162868499756
1772810191104347400,6.369347412109375,-4.032463073730469,2.6587982177734375,-1.5176401138305664
1772810191114047500,6.379047607421875,-3.3242626190185547,-0.2001962661743164,-1.2884303331375122
1772810191123747800,6.388747802734375,-2.2104809284210205,-3.1719040870666504,-0.4891371726989746
1772810191133448000,6.398447998046875,-1.3357725143432617,-6.021167278289795,0.7583068609237671
1772810191143148300,6.408148193359375,-0.4193357229232788,-8.667216300964355,2.2187047004699707
1772810191152848400,6.417848388671875,0.2574852705001831,-11.429348945617676,3.55966854095459
1772810191162548500,6.427548583984375,0.6298427581787109,-13.690845489501953,4.704472541809082
1772810191172248800,6.437248779296875,0.674312949180603,-15.192621231079102,5.68826150894165
1772810191181949000,6.446948974609375,0.4751790761947632,-16.078231811523438,6.031349182128906
1772810191191649300,6.456649169921875,0.23176336288452148,-16.3962345123291,5.42707633972168
1772810191201349600,6.466349609375,-0.23914062976837158,-16.21319580078125,4.005410671234131
1772810191211049700,6.4760498046875,-0.9499638080596924,-16.112180709838867,2.602884292602539
1772810191220749800,6.485749755859375,-1.9386614561080933,-16.164804458618164,1.6490873098373413
1772810191230450200,6.4954501953125,-2.7813422679901123,-15.856088638305664,0.9267494678497314
1772810191240150300,6.505150390625,-3.438537836074829,-15.44659423828125,0.4197455644607544
1772810191249850600,6.5148505859375,-4.086245536804199,-14.705902099609375,0.20233964920043945
1772810191259550700,6.52455078125,-4.343949317932129,-14.290082931518555,0.8851361274719238
1772810191269251000,6.5342509765625,-4.852993965148926,-14.871225357055664,2.0022542476654053
1772810191278951200,6.543951171875,-4.419297695159912,-14.984450340270996,3.299160957336426
1772810191288651500,6.553651611328125,-3.9283623695373535,-14.756119728088379,3.821267604827881
1772810191298351600,6.5633515625,-3.178804397583008,-14.477331161499023,3.8301284313201904
1772810191308051700,6.5730517578125,-2.102416515350342,-14.523920059204102,3.6736857891082764
1772810191317752000,6.582751953125,-1.315657377243042,-14.762057304382324,3.4148001670837402
1772810191327452200,6.5924521484375,-0.5162198543548584,-14.734110832214355,2.966207504272461
1772810191337152500,6.602152587890625,0.124359130859375,-14.388486862182617,2.5148963928222656
1772810191346852600,6.6118525390625,0.4767775237560272,-14.097057342529297,2.179471731185913
1772810191356553000,6.621552978515625,0.672468900680542,-13.901298522949219,1.991206407546997
1772810191366253000,6.631253173828125,0.7531193494796753,-13.665060043334961,1.8151051998138428
1772810191375953200,6.640953125,0.6386685967445374,-13.251579284667969,1.6442281007766724
1772810191385653500,6.650653564453125,0.3702603280544281,-12.841876983642578,1.4872615337371826
1772810191395353600,6.660353515625,0.06869149208068848,-12.438780784606934,1.3341097831726074
1772810191405054000,6.670053955078125,0.00012430548667907715,-12.017135620117188,1.174978256225586
1772810191414754000,6.679754150390625,-0.31533199548721313,-11.50637149810791,0.9732697010040283
1772810191424454400,6.689454345703125,-0.4998556673526764,-10.880260467529297,0.9046437740325928
1772810191434154500,6.699154541015625,-0.4505766034126282,-10.43868350982666,0.9528560638427734
1772810191443854800,6.708854736328125,-0.4685814082622528,-10.060945510864258,1.0411250591278076
1772810191453555000,6.718554931640625,-0.5537411570549011,-9.531808853149414,1.036849021911621
1772810191463255000,6.728255126953125,-0.3434599041938782,-9.020245552062988,1.1080132722854614
1772810191472955400,6.737955322265625,-0.03721487522125244,-8.73933219909668,1.3689382076263428
1772810191482655500,6.747655517578125,0.4050852656364441,-8.28395938873291,1.6531381607055664
1772810191492355800,6.75735595703125,0.8314740657806396,-7.4825758934021,1.780423641204834
1772810191502056000,6.767055908203125,1.3530761003494263,-6.256706714630127,1.7299320697784424
1772810191511756300,6.77675634765625,1.7404556274414062,-4.3656182289123535,1.3421279191970825
1772810191521456400,6.786456298828125,1.7216663360595703,-1.9534797668457031,0.3529388904571533
1772810191531156700,6.79615673828125,1.6804369688034058,0.08803272247314453,-0.4931241273880005
1772810191540856800,6.80585693359375,1.4520165920257568,1.5294504165649414,-0.7395080327987671
1772810191550557000,6.815556884765625,1.7829753160476685,3.4207029342651367,-1.0345319509506226
1772810191560257300,6.82525732421875,2.1350576877593994,6.333644866943359,-1.8949283361434937
1772810191569957400,6.834957275390625,1.210675597190857,9.696073532104492,-3.344621181488037
1772810191579657700,6.84465771484375,0.6589248180389404,12.821218490600586,-5.447140216827393
1772810191589357800,6.85435791015625,0.22070825099945068,17.595752716064453,-7.714349269866943
1772810191599058200,6.86405810546875,0.7808313369750977,21.82474136352539,-8.254197120666504
1772810191608758300,6.87375830078125,2.6417131423950195,23.45077896118164,-6.693943977355957
1772810191618458400,6.883458251953125,4.92252254486084,24.197284698486328,-4.299145698547363
1772810191628158700,6.89315869140625,7.688808441162109,24.437192916870117,-1.9920654296875
1772810191637858800,6.90285888671875,10.640626907348633,24.227340698242188,-0.01351243257522583
1772810191647559200,6.91255908203125,12.757796287536621,23.189029693603516,1.6647047996520996
1772810191657259300,6.92225927734375,13.499637603759766,21.567005157470703,3.012758493423462
1772810191666959600,6.931959716796875,13.073212623596191,20.077377319335938,3.595057249069214
1772810191676659700,6.94165966796875,11.726211547851562,18.718721389770508,3.522304058074951
1772810191686360000,6.951360107421875,9.821174621582031,17.289331436157227,3.185885429382324
1772810191696060200,6.96106005859375,7.4908342361450195,15.411855697631836,2.8614683151245117
1772810191705760300,6.97076025390625,5.005718231201172,13.547125816345215,2.4537296295166016
1772810191715460600,6.980460693359375,2.5596227645874023,11.454964637756348,2.159245014190674
1772810191725160700,6.99016064453125,0.40411376953125,9.101052284240723,1.9384315013885498
1772810191734861000,6.999861083984375,-1.3422951698303223,6.584606170654297,1.7525343894958496
1772810191744561200,7.00956103515625,-2.525660276412964,4.098544120788574,1.5084996223449707
1772810191754261500,7.019261474609375,-3.0857791900634766,1.7987680435180664,1.1224833726882935
1772810191763961600,7.028961669921875,-3.103091239929199,-0.24971294403076172,0.5926733613014221
1772810191773661700,7.03866162109375,-2.745321273803711,-2.0065135955810547,0.018352508544921875
1772810191783362000,7.048362060546875,-2.0671539306640625,-3.611220359802246,-0.5293675661087036
1772810191793062100,7.058062255859375,-1.2658177614212036,-5.105368614196777,-0.9136548042297363
1772810191802762500,7.067762451171875,-0.563532829284668,-6.372295379638672,-1.040778636932373
1772810191812462800,7.077462890625,0.0952157974243164,-7.463018894195557,-0.93377685546875
1772810191822163000,7.087162841796875,0.28578686714172363,-8.381753921508789,-0.7659742832183838
1772810191831863300,7.09686328125,0.24336910247802734,-9.122138023376465,-0.5035520792007446
1772810191841563400,7.1065634765625,-0.0746084451675415,-9.713854789733887,-0.18091344833374023
1772810191851263500,7.116263427734375,-0.6180428266525269,-10.074408531188965,0.0766834020614624
1772810191860963800,7.1259638671875,-1.3229033946990967,-10.307831764221191,0.2681611180305481
1772810191870664000,7.135663818359375,-2.10456919670105,-10.533872604370117,0.4059225916862488
1772810191880364300,7.1453642578125,-2.8185033798217773,-10.49492073059082,0.3252677321434021
1772810191890064400,7.155064453125,-3.3160829544067383,-10.31945514678955,0.13095569610595703
1772810191899764700,7.1647646484375,-3.8511605262756348,-10.050789833068848,-0.046431541442871094
1772810191909464800,7.17446484375,-4.227289199829102,-9.784236907958984,-0.25206828117370605
1772810191919165000,7.1841650390625,-4.122318267822266,-9.476749420166016,-0.5331051349639893
1772810191928865300,7.193865234375,-4.09157133102417,-9.476598739624023,-0.7915542125701904
1772810191938565400,7.2035654296875,-3.8379623889923096,-9.461627006530762,-0.9595279693603516
1772810191948265700,7.213265625,-3.639549732208252,-9.418689727783203,-1.0970937013626099
1772810191957965800,7.2229658203125,-3.579134225845337,-9.30313777923584,-0.9919784069061279
1772810191967666200,7.232666259765625,-3.6242668628692627,-9.275751113891602,-0.6607083082199097
1772810191977366300,7.2423662109375,-3.5539796352386475,-9.19692611694336,-0.44629228115081787
1772810191987066600,7.252066650390625,-3.6081502437591553,-9.060340881347656,-0.33282530307769775
1772810191996766700,7.2617666015625,-3.7314560413360596,-8.917126655578613,-0.21151721477508545
1772810192006466800,7.271466796875,-3.5677735805511475,-9.01490306854248,-0.0932847261428833
1772810192016167200,7.281167236328125,-3.498307228088379,-8.843170166015625,-0.09254443645477295
1772810192025867300,7.2908671875,-3.7603671550750732,-8.174830436706543,-0.22846126556396484
1772810192035567600,7.300567626953125,-4.050212860107422,-7.134385585784912,-0.582314133644104
1772810192045267700,7.310267822265625,-3.9966583251953125,-6.0290937423706055,-1.0003875494003296
1772810192054968000,7.319968017578125,-3.7298922538757324,-5.040511131286621,-1.2935043573379517
1772810192064668200,7.329668212890625,-3.166386127471924,-4.186746597290039,-1.4597975015640259
1772810192074368300,7.3393681640625,-2.1027538776397705,-3.0298285484313965,-1.6172239780426025
1772810192084068600,7.349068603515625,-0.7946388721466064,-1.3319144248962402,-1.83088219165802
1772810192093768700,7.358768798828125,0.6208431720733643,0.4864788055419922,-1.7482273578643799
1772810192103469000,7.368468994140625,2.2943742275238037,1.759739875793457,-1.0496461391448975
1772810192113169200,7.378169189453125,3.953828811645508,2.1822423934936523,0.15884339809417725
1772810192122869500,7.387869384765625,5.358334064483643,2.2744598388671875,1.7073876857757568
1772810192132569600,7.397569580078125,6.5409111976623535,2.591731071472168,3.199474811553955
1772810192142270000,7.40727001953125,7.369671821594238,3.019590377807617,4.476346969604492
1772810192151970000,7.416969970703125,8.126876831054688,3.8805484771728516,4.834489345550537
1772810192161670100,7.426670166015625,8.282037734985352,5.696432113647461,4.271275043487549
1772810192171370500,7.43637060546875,8.044768333435059,7.646158218383789,3.0282044410705566
1772810192181070600,7.446070556640625,7.448805332183838,10.009687423706055,1.3887994289398193
1772810192190771000,7.45577099609375,6.885790824890137,12.869685173034668,-0.40705376863479614
1772810192200471000,7.465470947265625,6.649625778198242,15.884387016296387,-1.631474494934082
1772810192210171400,7.47517138671875,7.261538505554199,18.901290893554688,-1.8061102628707886
1772810192219871500,7.48487158203125,8.716711044311523,21.531169891357422,-0.685790479183197
1772810192229571800,7.49457177734375,11.015975952148438,23.424484252929688,0.9752928614616394
1772810192239272000,7.50427197265625,14.485690116882324,24.437747955322266,2.3610310554504395
1772810192248972000,7.513971923828125,18.101198196411133,24.192180633544922,3.8894026279449463
1772810192258672400,7.52367236328125,19.98464584350586,22.24779510498047,5.372586250305176
1772810192268372500,7.53337255859375,19.697765350341797,20.40515899658203,5.676907539367676
1772810192278072800,7.54307275390625,17.773221969604492,19.17369842529297,5.112922191619873
1772810192287773000,7.55277294921875,14.065208435058594,17.390396118164062,3.866255044937134
1772810192297473300,7.562473388671875,9.043437957763672,15.527606964111328,2.123525619506836
1772810192307173400,7.57217333984375,4.714471340179443,14.111125946044922,-0.04981511831283569
1772810192316873500,7.58187353515625,1.3273334503173828,12.766708374023438,-2.060518503189087
1772810192326573800,7.59157373046875,-1.2131139039993286,10.83735466003418,-3.4864490032196045
1772810192336274000,7.60127392578125,-2.461831569671631,8.375463485717773,-4.274984836578369
1772810192345974300,7.610974365234375,-3.1730175018310547,5.349913597106934,-3.8668224811553955
1772810192355674400,7.62067431640625,-3.4303908348083496,2.600155830383301,-2.963393449783325
1772810192365374700,7.630374755859375,-3.3261778354644775,0.12339496612548828,-1.6670341491699219
1772810192375074800,7.64007470703125,-3.347693681716919,-2.3242197036743164,-0.2516906261444092
1772810192384775200,7.649775146484375,-3.0120644569396973,-4.614234924316406,1.142996907234192
1772810192394475300,7.659475341796875,-2.277360439300537,-6.8107781410217285,2.132843255996704
1772810192404175400,7.66917529296875,-0.8399403095245361,-8.803585052490234,2.708782911300659
1772810192413875700,7.678875732421875,0.8597420454025269,-10.321981430053711,2.8997583389282227
1772810192423575800,7.688575927734375,2.340263605117798,-11.489991188049316,2.9514002799987793
1772810192433276200,7.698276123046875,3.173100709915161,-12.423782348632812,3.0092384815216064
1772810192442976300,7.707976318359375,3.3763859272003174,-13.254371643066406,2.982644557952881
1772810192452676400,7.71767626953125,2.8923282623291016,-13.760848045349121,2.6036691665649414
1772810192462376700,7.727376708984375,1.7739087343215942,-13.724676132202148,2.122018337249756
1772810192472076800,7.737076904296875,0.6362099647521973,-13.644964218139648,1.7734334468841553
1772810192481777200,7.746777099609375,-0.4070243835449219,-13.675966262817383,1.546634316444397
1772810192491477200,7.756477294921875,-1.0700111389160156,-13.29704475402832,1.3165680170059204
1772810192501177300,7.76617724609375,-1.6362884044647217,-12.911301612854004,0.9875301122665405
1772810192510877700,7.775877685546875,-1.770857810974121,-12.616429328918457,0.8771553039550781
1772810192520577800,7.785577880859375,-1.7941956520080566,-12.956541061401367,0.6945024132728577
1772810192530278100,7.795278076171875,-1.6180970668792725,-12.951974868774414,0.6842528581619263
1772810192539978200,7.804978271484375,-1.395582914352417,-12.464543342590332,0.4633772671222687
1772810192549678600,7.8146787109375,-0.8133821487426758,-12.145209312438965,0.3544057011604309
1772810192559378700,7.824378662109375,-0.07800030708312988,-12.335271835327148,0.3480031490325928
1772810192569078800,7.834078857421875,0.732964277267456,-12.624739646911621,0.32178616523742676
1772810192578779100,7.843779052734375,1.736020803451538,-12.773172378540039,0.21357470750808716
1772810192588479200,7.853479248046875,2.6297788619995117,-12.71436882019043,0.18998193740844727
1772810192598179600,7.8631796875,3.1358237266540527,-12.568617820739746,0.23117345571517944
1772810192607879700,7.872879638671875,3.4599976539611816,-12.304588317871094,0.20845776796340942
1772810192617580000,7.882580078125,3.45656156539917,-11.993568420410156,0.1023324728012085
1772810192627280100,7.892280029296875,3.141277313232422,-11.78750991821289,-0.0166013240814209
1772810192636980500,7.90198046875,2.631998062133789,-11.5885009765625,-0.12115144729614258
1772810192646680600,7.9116806640625,2.136300563812256,-11.415433883666992,-0.22587943077087402
1772810192656380700,7.921380615234375,1.8442217111587524,-11.251569747924805,-0.35148417949676514
1772810192666081000,7.9310810546875,1.6239972114562988,-11.011021614074707,-0.46724045276641846
1772810192675781000,7.940781005859375,1.4662081003189087,-10.746902465820312,-0.5231072902679443
1772810192685481500,7.9504814453125,1.4472206830978394,-10.577352523803711,-0.5094348192214966
1772810192695181600,7.960181640625,1.3268712759017944,-10.321782112121582,-0.449507474899292
1772810192704882000,7.9698818359375,1.1218007802963257,-10.061874389648438,-0.4372907876968384
1772810192714582000,7.97958203125,1.0647515058517456,-9.81267261505127,-0.4341670274734497
1772810192724282000,7.9892822265625,0.8276122212409973,-9.464202880859375,-0.5602715015411377
1772810192733982500,7.998982421875,0.42276108264923096,-8.883400917053223,-0.8451581001281738
1772810192743682600,8.0086826171875,0.46662911772727966,-7.987003803253174,-1.0534024238586426
1772810192753383000,8.0183828125,0.6964894533157349,-6.630478382110596,-1.1506320238113403
1772810192763083000,8.0280830078125,0.8961259126663208,-4.773869514465332,-0.9438859224319458
1772810192772783400,8.037783447265625,0.6716793775558472,-2.6477088928222656,-0.6087163686752319
1772810192782483500,8.0474833984375,0.273075670003891,-0.35484981536865234,-0.2973679304122925
1772810192792183800,8.057183837890625,-0.628576934337616,1.58966064453125,0.17528057098388672
1772810192801884000,8.0668837890625,-1.4122508764266968,3.3005247116088867,0.8423508405685425
1772810192811584000,8.076583984375,-0.4778740704059601,5.18238639831543,0.9291707873344421
1772810192821284400,8.086284423828126,1.6516168117523193,7.314798355102539,0.6132861971855164
1772810192830984400,8.095984375,2.2532572746276855,9.99524211883545,-0.04663366079330444
1772810192840684800,8.105684814453125,2.6937098503112793,12.058390617370605,-0.5200214385986328
1772810192850385000,8.115385009765625,2.0228006839752197,14.583724021911621,-1.774817943572998
1772810192860085200,8.125085205078125,0.9127378463745117,18.550155639648438,-3.2514538764953613
1772810192869785300,8.134785400390625,-0.10702252388000488,21.938724517822266,-3.967900276184082
1772810192879485700,8.144485595703125,-0.5337333679199219,23.15216064453125,-3.7461113929748535
1772810192889185800,8.154185791015625,-0.5118378400802612,22.849689483642578,-2.6308608055114746
1772810192898886000,8.163885986328125,0.7175776958465576,21.821535110473633,-1.1158289909362793
1772810192908586200,8.173586181640625,2.928554058074951,20.468162536621094,0.46984395384788513
1772810192918286300,8.183286376953125,5.4990339279174805,18.04289436340332,2.516800880432129
1772810192927986700,8.192986572265625,7.989120006561279,14.75723934173584,4.239388942718506
1772810192937686800,8.202686767578125,10.242565155029297,11.878593444824219,4.673452377319336
1772810192947387100,8.21238720703125,11.736424446105957,9.555610656738281,3.8031673431396484
1772810192957087200,8.222087158203125,12.287534713745117,7.64093017578125,2.2413315773010254
1772810192966787300,8.231787353515625,11.679486274719238,6.159992218017578,0.6821523308753967
1772810192976487700,8.24148779296875,9.812036514282227,4.796841621398926,-0.4793727993965149
1772810192986187800,8.251187744140625,7.153799057006836,3.415268898010254,-1.0461746454238892
1772810192995888000,8.26088818359375,4.295533180236816,2.1672515869140625,-0.9466692209243774
1772810193005588200,8.270588134765624,1.8364992141723633,0.9973688125610352,-0.2877855896949768
1772810193015288600,8.28028857421875,-0.2555501461029053,-0.35474109649658203,0.5142649412155151
1772810193024988700,8.28998876953125,-1.933808445930481,-1.6943583488464355,1.1621772050857544
1772810193034689000,8.29968896484375,-3.044893264770508,-2.7276673316955566,1.432337999343872
1772810193044389000,8.30938916015625,-3.7077555656433105,-3.430877208709717,1.403259515762329
1772810193054089200,8.319089111328125,-4.076743125915527,-4.2525529861450195,1.2048317193984985
1772810193063789300,8.328789306640624,-4.276050090789795,-5.006499290466309,0.7733758687973022
1772810193073489700,8.33848974609375,-4.15928316116333,-5.582398414611816,0.10778111219406128
1772810193083189800,8.348189697265624,-4.057314872741699,-6.105688571929932,-0.6150491237640381
1772810193092890000,8.35789013671875,-4.016211986541748,-6.585083484649658,-1.4169178009033203
1772810193102590200,8.367590087890624,-3.561720371246338,-7.027504920959473,-1.996001124382019
1772810193112290600,8.37729052734375,-3.000811815261841,-7.495283126831055,-2.1807210445404053
1772810193121990700,8.38699072265625,-2.816357374191284,-7.678912162780762,-2.105618715286255
1772810193131691000,8.39669091796875,-2.733010768890381,-7.807961940765381,-1.7472386360168457
1772810193141391000,8.40639111328125,-2.8154237270355225,-8.025617599487305,-1.1383211612701416
1772810193151091200,8.41609130859375,-3.1269285678863525,-8.189752578735352,-0.5198387503623962
1772810193160791600,8.42579150390625,-3.657897472381592,-8.215264320373535,0.06234866380691528
1772810193170491600,8.43549169921875,-4.429104804992676,-8.206963539123535,0.37680330872535706
1772810193180192000,8.44519189453125,-4.87410306930542,-8.078853607177734,0.6039084792137146
1772810193189892000,8.45489208984375,-4.958069801330566,-7.961604118347168,0.8032786846160889
1772810193199592400,8.464592529296874,-4.984899520874023,-7.869389057159424,0.9842570424079895
1772810193209292500,8.47429248046875,-4.575737953186035,-7.88962459564209,1.1387872695922852
1772810193218992600,8.48399267578125,-3.89274525642395,-7.815131187438965,1.1006593704223633
1772810193228693000,8.49369287109375,-3.155334949493408,-7.4064836502075195,0.8577001094818115
1772810193238393000,8.50339306640625,-2.346611976623535,-7.08059024810791,0.7216671705245972
1772810193248093400,8.513093505859375,-1.361695408821106,-7.030255317687988,0.7865581512451172
1772810193257793500,8.52279345703125,-0.7446303367614746,-6.740828514099121,0.8356078863143921
1772810193267494000,8.532493896484375,-0.6283237934112549,-6.37953519821167,0.9173262715339661
1772810193277194000,8.542194091796874,-0.5281860828399658,-6.31205415725708,1.3085709810256958
1772810193286894300,8.551894287109375,-0.5499496459960938,-6.114801406860352,1.6811505556106567
1772810193296594400,8.561594482421874,-0.5249677896499634,-5.498857021331787,1.8306626081466675
1772810193306294500,8.57129443359375,-0.5319387912750244,-4.415504455566406,1.6666860580444336
1772810193315995000,8.580994873046874,-0.4345433712005615,-3.1204872131347656,1.442613124847412
1772810193325695000,8.590695068359375,-0.41376566886901855,-1.6463651657104492,1.13870108127594
1772810193335395300,8.600395263671874,-0.10897588729858398,0.43006038665771484,0.323413610458374
1772810193345095400,8.610095458984375,0.8582770824432373,3.5599679946899414,-0.8211143016815186
1772810193354795800,8.619795654296874,2.061197280883789,6.694426536560059,-1.478070855140686
1772810193364496000,8.629495849609375,3.545010566711426,9.59760856628418,-1.344494342803955
1772810193374196000,8.639196044921874,5.747630596160889,13.321402549743652,-1.4345232248306274
1772810193383896300,8.648896240234375,9.015207290649414,16.55600357055664,-1.7728211879730225
1772810193393596400,8.658596435546874,13.399398803710938,18.4512996673584,-1.4461838006973267
1772810193403296500,8.668296630859375,17.147640228271484,21.226394653320312,-0.8151595592498779
1772810193412996900,8.677996826171874,19.543577194213867,23.29305648803711,0.4123666286468506
1772810193422697000,8.687697021484375,20.008556365966797,23.464160919189453,1.981468677520752
1772810193432397300,8.697397216796874,18.141252517700195,25.042207717895508,2.2229583263397217
1772810193442097400,8.707097412109375,14.803186416625977,26.59842872619629,1.6336562633514404
1772810193451797800,8.7167978515625,11.198395729064941,27.805843353271484,0.9496408104896545
1772810193461497900,8.726497802734375,7.427767753601074,27.3944091796875,0.9766538739204407
1772810193471198000,8.736197998046874,4.185041904449463,25.693450927734375,1.1010425090789795
1772810193480898300,8.745898193359375,2.0425360202789307,23.440231323242188,0.9946881532669067
1772810193490598400,8.755598388671874,1.0817584991455078,20.023136138916016,0.7242299318313599
1772810193500298800,8.765298828125,0.5935711860656738,15.733223915100098,-0.033254146575927734
1772810193509998800,8.774998779296874,1.272531270980835,11.384254455566406,-1.0059906244277954
1772810193519699200,8.78469921875,2.715101718902588,7.491262435913086,-1.5000741481781006
1772810193529399300,8.7943994140625,3.975186586380005,4.038272857666016,-0.88508141040802
1772810193539099600,8.804099609375,4.153403282165527,1.1775188446044922,0.7225375175476074
1772810193548799700,8.8137998046875,3.5389413833618164,-1.4310836791992188,2.5801124572753906
1772810193558499800,8.823499755859375,2.5714428424835205,-3.857259750366211,4.245238780975342
1772810193568200200,8.8332001953125,1.463979721069336,-6.182187080383301,5.551558494567871
1772810193577900300,8.842900390625,0.28969478607177734,-8.51340389251709,6.113890647888184
1772810193587600600,8.8526005859375,-0.8465930223464966,-10.74941349029541,5.730903625488281
1772810193597300700,8.86230078125,-2.0240304470062256,-12.059953689575195,4.437999725341797
1772810193607001000,8.8720009765625,-2.863839864730835,-12.656708717346191,2.6098506450653076
1772810193616701200,8.881701171875,-3.5097298622131348,-13.68304443359375,0.9250584244728088
1772810193626401300,8.8914013671875,-4.294466018676758,-14.640338897705078,-0.738721489906311
1772810193636101600,8.9011015625,-4.89190673828125,-14.7901611328125,-2.4599971771240234
1772810193645801700,8.9108017578125,-5.064635753631592,-14.30705451965332,-3.8029417991638184
1772810193655501800,8.920501708984375,-4.828619480133057,-13.34254264831543,-4.580043792724609
1772810193665202200,8.9302021484375,-4.4854326248168945,-13.605252265930176,-4.377943992614746
1772810193674902300,8.93990234375,-3.91066575050354,-14.891059875488281,-3.297116994857788
1772810193684602600,8.9496025390625,-2.923110008239746,-15.282925605773926,-2.16428804397583
1772810193694302700,8.959302734375,-1.4637577533721924,-15.058752059936523,-1.3412959575653076
1772810193704003000,8.969003173828124,0.21761977672576904,-14.93999195098877,-0.5764046907424927
1772810193713703200,8.978703125,0.9770828485488892,-15.432403564453125,0.08839571475982666
1772810193723403300,8.9884033203125,1.0995149612426758,-15.93636703491211,0.5419905781745911
1772810193733103600,8.998103515625,1.0893973112106323,-15.864829063415527,0.43427062034606934
1772810193742803700,9.0078037109375,0.6458208560943604,-15.30882453918457,0.10356277227401733
1772810193752504000,9.017504150390625,0.01692378520965576,-14.929191589355469,-0.19680291414260864
1772810193762204200,9.0272041015625,-0.48650944232940674,-14.510695457458496,-0.3675985336303711
1772810193771904500,9.036904541015625,-0.667305588722229,-13.859366416931152,-0.32857245206832886
1772810193781604600,9.0466044921875,-0.4871826171875,-13.126185417175293,-0.18316495418548584
1772810193791305000,9.056304931640625,-0.203721284866333,-12.39908218383789,-0.029987335205078125
1772810193801005000,9.066005126953126,0.06575393676757812,-11.690919876098633,0.05057251453399658
1772810193810705200,9.075705078125,0.25065815448760986,-11.023380279541016,0.16113901138305664
1772810193820405500,9.085405517578126,0.2554904818534851,-10.533050537109375,0.32426005601882935
1772810193830105600,9.095105712890625,0.5193921327590942,-10.240416526794434,0.5709410905838013
1772810193839806000,9.104805908203126,0.770211935043335,-9.998735427856445,0.8294525146484375
1772810193849506000,9.114506103515625,0.7503814697265625,-9.842191696166992,0.9695645570755005
1772810193859206400,9.124206298828126,0.9057753086090088,-9.785922050476074,1.143128752708435
1772810193868906500,9.133906494140625,1.0840511322021484,-9.810392379760742,1.2497345209121704
1772810193878606600,9.143606689453126,0.9971795082092285,-9.685486793518066,1.1200478076934814
1772810193888307000,9.153306884765625,0.8323299884796143,-9.419416427612305,0.9432097673416138
1772810193898007000,9.163007080078126,0.4850394129753113,-9.173894882202148,0.8336080312728882
1772810193907707100,9.17270703125,0.11976540088653564,-8.817848205566406,0.7889360189437866
1772810193917407500,9.182407470703126,-0.4064182639122009,-8.049781799316406,0.767038106918335
1772810193927107600,9.192107666015625,-0.7533082962036133,-7.165314674377441,0.7327637672424316
1772810193936808000,9.201807861328126,-0.8608009219169617,-6.141134262084961,0.5230984687805176
1772810193946508000,9.211508056640625,-1.1468836069107056,-4.50706672668457,0.18755948543548584
1772810193956208400,9.22120849609375,-1.7983649969100952,-2.6624622344970703,0.02385246753692627
1772810193965908500,9.230908447265625,-2.177426815032959,-0.6663608551025391,0.16862475872039795
1772810193975608600,9.240608642578126,-1.3339803218841553,1.8697538375854492,0.3309335708618164
1772810193985309000,9.250308837890625,-0.11365801095962524,5.456854820251465,-0.6730363368988037
1772810193995009000,9.260009033203126,0.5650678277015686,9.6181058883667,-2.002368450164795
1772810194004709400,9.26970947265625,0.33758360147476196,12.13256549835205,-2.9875264167785645
1772810194014409500,9.279409423828126,0.3344919681549072,14.388160705566406,-4.003515243530273
1772810194024109800,9.28910986328125,0.12284743785858154,19.27242660522461,-5.879562854766846
1772810194033810000,9.298809814453126,0.6213518381118774,24.61865234375,-6.790727615356445
1772810194043510300,9.30851025390625,1.6515991687774658,26.092838287353516,-5.140937805175781
1772810194053210400,9.31821044921875,2.9550986289978027,24.3767147064209,-1.9512386322021484
1772810194062910500,9.327910400390625,3.6080126762390137,22.432477951049805,0.3502586781978607
1772810194072610800,9.33761083984375,3.967132568359375,20.136802673339844,1.8694870471954346
1772810194082311000,9.347310791015625,5.377426624298096,17.11050796508789,3.1873226165771484
1772810194092011000,9.357010986328126,7.142022132873535,14.27434253692627,4.211549758911133
1772810194101711400,9.36671142578125,9.100370407104492,12.179731369018555,4.476224899291992
1772810194111411500,9.376411376953126,11.158098220825195,10.603503227233887,3.746537685394287
1772810194121111800,9.38611181640625,11.96600341796875,9.223520278930664,2.4399168491363525
1772810194130812000,9.39581201171875,11.179739952087402,7.986268043518066,0.7783430814743042
1772810194140512300,9.40551220703125,9.194913864135742,6.814963340759277,-0.5778642892837524
1772810194150212400,9.41521240234375,6.689906120300293,5.614836692810059,-1.3579185009002686
1772810194159912400,9.424912353515625,4.2355756759643555,4.428876876831055,-1.569573163986206
1772810194169612800,9.43461279296875,1.9344456195831299,3.1633758544921875,-1.445602297782898
1772810194179313000,9.44431298828125,0.24450623989105225,1.8514795303344727,-0.9455591440200806
1772810194189013200,9.45401318359375,-0.8451308012008667,0.6216278076171875,-0.2250780463218689
1772810194198713300,9.46371337890625,-1.7828235626220703,-0.47335052490234375,0.31894373893737793
1772810194208413700,9.47341357421875,-2.3651628494262695,-1.5356807708740234,0.6560609936714172
1772810194218113800,9.48311376953125,-2.618600368499756,-2.560866355895996,0.6649408340454102
1772810194227814000,9.49281396484375,-2.906050205230713,-3.5371837615966797,0.4163024425506592
1772810194237514200,9.50251416015625,-2.9682393074035645,-4.415485382080078,-0.01222372055053711
1772810194247214300,9.51221435546875,-2.805328369140625,-5.13967752456665,-0.5609983801841736
1772810194256914400,9.52191455078125,-2.6546952724456787,-5.651796817779541,-1.0835862159729004
1772810194266614800,9.53161474609375,-2.505202293395996,-5.946277141571045,-1.4790400266647339
1772810194276315000,9.54131494140625,-2.5353007316589355,-6.182217121124268,-1.5499001741409302
1772810194286015200,9.55101513671875,-2.806222677230835,-6.1785478591918945,-1.3849008083343506
1772810194295715300,9.56071533203125,-3.2294764518737793,-6.096800327301025,-1.146927833557129
1772810194305415700,9.570415771484376,-3.820871353149414,-5.981106281280518,-0.8474891185760498
1772810194315115800,9.58011572265625,-4.430788516998291,-6.095274448394775,-0.6089716553688049
1772810194324816000,9.58981591796875,-4.890240669250488,-6.126551151275635,-0.5676137208938599
1772810194334516200,9.59951611328125,-5.118041515350342,-6.11433744430542,-0.4858865737915039
1772810194344216300,9.60921630859375,-4.860081672668457,-6.337830066680908,-0.2960413098335266
1772810194353916700,9.618916748046875,-3.9446678161621094,-6.658205986022949,-0.07804614305496216
1772810194363616800,9.62861669921875,-2.787013053894043,-6.828042030334473,0.10024935007095337
1772810194373317000,9.638317138671875,-1.735532522201538,-6.947359561920166,0.2885981798171997
1772810194383017200,9.648017333984376,-0.7546554803848267,-7.046707630157471,0.47900626063346863
1772810194392717600,9.657717529296875,0.001149892807006836,-7.046642303466797,0.5081788301467896
1772810194402417700,9.667417724609376,0.502028226852417,-7.038262367248535,0.522261381149292
1772810194412117800,9.67711767578125,0.7329949140548706,-7.088717460632324,0.4869929552078247
1772810194431518200,9.696518310546875,0.29811131954193115,-7.155511856079102,0.7035161256790161
1772810194441218300,9.70621826171875,-0.2882620096206665,-7.089001655578613,0.8313724994659424
1772810194450918700,9.715918701171875,-1.2473652362823486,-7.102096080780029,0.8243216872215271
1772810194460618800,9.72561865234375,-1.4948625564575195,-6.997714042663574,0.8859086632728577
1772810194470319000,9.735319091796875,-1.597482442855835,-6.631276607513428,0.8929194211959839
1772810194480019200,9.745019287109375,-1.738564372062683,-6.262442588806152,0.7703547477722168
1772810194489719300,9.75471923828125,-1.7091352939605713,-5.925234317779541,0.8110563158988953
1772810194499419600,9.764419677734375,-1.220799207687378,-5.3238725662231445,1.0323455333709717
1772810194509119700,9.77411962890625,-0.24658870697021484,-4.196746826171875,1.3136205673217773
1772810194518820000,9.783820068359375,0.8011380434036255,-2.844280242919922,1.8430348634719849
1772810194528520200,9.793520263671875,1.783966064453125,-1.5296268463134766,2.245598554611206
1772810194538220500,9.803220458984375,2.67108416557312,0.1883411407470703,2.373338222503662
1772810194547920600,9.812920654296875,3.500859022140503,2.5023317337036133,2.195117235183716
1772810194557621000,9.82262109375,4.263677597045898,5.0855512619018555,1.6068717241287231
1772810194567321000,9.832321044921875,5.096268177032471,8.094934463500977,0.34779083728790283
1772810194577021200,9.842021240234375,6.212944984436035,12.170557022094727,-0.4934120178222656
1772810194586721300,9.85172119140625,7.093415260314941,16.068058013916016,-1.7597270011901855
1772810194596421600,9.861421630859375,8.021971702575684,19.178977966308594,-3.5771050453186035
1772810194606121700,9.871121826171875,9.17992877960205,22.662023544311523,-5.166216850280762
1772810194615822000,9.880822021484375,9.798226356506348,25.57431983947754,-5.857097148895264
1772810194625522200,9.890522216796874,10.2427339553833,26.78763198852539,-5.9643473625183105
1772810194635222500,9.900222412109375,9.997456550598145,26.85186004638672,-5.701584815979004
1772810194644922600,9.909922607421874,9.470768928527832,26.716978073120117,-4.684118747711182
1772810194654623000,9.919623046875,8.741378784179688,25.962696075439453,-3.204599380493164
1772810194664323000,9.929322998046874,7.563671112060547,24.666732788085938,-2.253791093826294
1772810194674023200,9.939023193359375,6.060490608215332,22.823406219482422,-1.666212797164917
1772810194683723500,9.9487236328125,4.447437763214111,20.48265838623047,-1.5269609689712524
1772810194693423600,9.958423583984375,2.627326011657715,17.352567672729492,-1.7443640232086182
1772810194703124000,9.9681240234375,0.9206544756889343,14.05980396270752,-1.384826898574829
1772810194712824000,9.977823974609375,-0.33003365993499756,10.822247505187988,-0.37189751863479614
1772810194722524200,9.987524169921874,-0.9565863013267517,7.244399070739746,1.2214431762695312
1772810194732224500,9.997224609375,-0.8721693754196167,4.173892021179199,2.556046485900879
1772810194741924600,10.006924560546874,-0.6685259342193604,1.7655506134033203,3.3705978393554688
1772810194751625000,10.016625,-0.9390819072723389,-0.27411556243896484,4.043204307556152
1772810194761325000,10.026324951171874,-0.9548968076705933,-2.897833824157715,4.59069299697876
1772810194771025200,10.036025146484375,-0.460008829832077,-4.762125015258789,4.766820430755615
1772810194780725500,10.0457255859375,0.20714271068572998,-6.8097639083862305,4.396005153656006
1772810194790425600,10.055425537109375,0.899638295173645,-8.884746551513672,3.7019150257110596
1772810194800126000,10.0651259765625,1.694298267364502,-10.72976016998291,2.8015055656433105
1772810194809826000,10.074825927734375,2.509707450866699,-12.019720077514648,1.9358630180358887
1772810194819526400,10.0845263671875,3.212684154510498,-12.796613693237305,1.1489901542663574
1772810194829226500,10.0942265625,3.726980209350586,-13.187411308288574,0.6421996355056763
1772810194838926600,10.103926513671874,3.820289134979248,-13.422767639160156,0.7669589519500732
1772810194848627000,10.113626953125,3.327535390853882,-13.62391471862793,0.9570479393005371
1772810194858327000,10.1233271484375,2.8961308002471924,-13.72593879699707,1.0813021659851074
1772810194877727500,10.1427275390625,2.799043655395508,-14.52420425415039,1.114242434501648
1772810194887427600,10.152427490234375,1.608346700668335,-14.405799865722656,1.0024117231369019
1772810194897128000,10.1621279296875,0.2978309988975525,-13.946694374084473,1.3692524433135986
1772810194906828000,10.171828125,-0.3857765197753906,-13.805278778076172,2.021252155303955
1772810194916528400,10.1815283203125,-0.661049485206604,-13.894186973571777,2.3806591033935547
1772810194926228500,10.191228515625,-0.348876953125,-13.857760429382324,2.3821253776550293
1772810194935928600,10.200928466796874,0.09399402141571045,-13.838298797607422,2.177950859069824
1772810194945629000,10.21062890625,0.2816143035888672,-13.832871437072754,1.7934287786483765
1772810194955329000,10.2203291015625,0.48442840576171875,-13.716938972473145,1.4182610511779785
1772810194965029400,10.230029296875,0.6717199087142944,-13.46882438659668,1.0232802629470825
1772810194974729500,10.2397294921875,0.6417579650878906,-13.199731826782227,0.6944965124130249
1772810194984429600,10.2494296875,0.5432088375091553,-12.89222526550293,0.4412393569946289
1772810194994130000,10.2591298828125,0.3232300281524658,-12.618721008300781,0.2668958902359009
1772810195003830000,10.268830078125,0.06433773040771484,-12.343082427978516,0.2924022674560547
1772810195013530400,10.2785302734375,-0.34062719345092773,-12.133301734924316,0.2656351327896118
1772810195023230500,10.28823046875,-0.7378710508346558,-11.939312934875488,0.15919411182403564
1772810195032930600,10.2979306640625,-1.0097748041152954,-11.754827499389648,0.06709444522857666
1772810195042631000,10.307630859375,-1.1460485458374023,-11.580802917480469,-0.0021038055419921875
1772810195052331000,10.3173310546875,-1.0918282270431519,-11.40915298461914,-0.03286278247833252
1772810195062031400,10.32703125,-1.0284960269927979,-11.14576530456543,0.007433533668518066
1772810195071731500,10.3367314453125,-0.8961323499679565,-10.659383773803711,0.21021020412445068
1772810195081431800,10.346431884765625,-0.7577017545700073,-10.036260604858398,0.345797061920166
1772810195091132000,10.3561318359375,-0.8899462223052979,-9.015495300292969,0.43868136405944824
1772810195100832000,10.36583203125,-1.1258902549743652,-7.669862747192383,0.48941266536712646
1772810195110532400,10.375532470703124,-1.3261187076568604,-5.873184680938721,0.234352707862854
1772810195120232400,10.385232421875,-1.5823124647140503,-3.357449531555176,-0.13624441623687744
1772810195129932500,10.3949326171875,-2.2132232189178467,-0.7230348587036133,-0.7850792407989502
1772810195139633000,10.4046328125,-2.9135072231292725,1.493255615234375,-2.0988290309906006
1772810195149333000,10.4143330078125,-3.1446146965026855,3.6264781951904297,-2.6341919898986816
1772810195159033300,10.424033447265625,-2.1871728897094727,3.952094078063965,-2.2981889247894287
1772810195168733400,10.4337333984375,-0.30502089858055115,2.4698190689086914,-0.8812378644943237
1772810195178433800,10.443433837890625,-0.25215739011764526,2.5194454193115234,0.12218964099884033
1772810195188134000,10.4531337890625,-1.0287587642669678,5.882155418395996,-0.832787811756134
1772810195197834000,10.462833984375,-1.049208641052246,11.313920021057129,-3.6269702911376953
1772810195207534300,10.472534423828124,0.5644497871398926,16.909957885742188,-5.816219329833984
1772810195217234400,10.482234375,2.1452383995056152,18.61761474609375,-4.810235500335693
1772810195226934500,10.4919345703125,1.75586998462677,16.720680236816406,-2.0303449630737305
1772810195236635000,10.501634765625,1.1214325428009033,15.563289642333984,0.19707763195037842
1772810195246335000,10.5113349609375,2.755411386489868,15.296673774719238,2.912477493286133
1772810195256035300,10.521035400390625,4.186962604522705,15.527606964111328,4.253652572631836
1772810195265735400,10.5307353515625,6.2884674072265625,15.599703788757324,4.264225959777832
1772810195275435800,10.540435791015625,7.744560718536377,14.491323471069336,4.347093105316162
1772810195285136000,10.550135986328126,8.473590850830078,13.122556686401367,4.641897678375244
1772810195294836000,10.5598359375,9.164976119995117,11.54327392578125,4.553153038024902
1772810195304536300,10.569536376953126,10.191861152648926,9.547375679016113,4.114230632781982
1772810195314236400,10.579236328125,10.51136589050293,7.476692199707031,3.3058526515960693
1772810195323936800,10.588936767578126,9.178435325622559,5.947192192077637,2.321155548095703
1772810195333636900,10.598636962890625,6.828444480895996,4.834564208984375,1.2241649627685547
1772810195343337000,10.6083369140625,4.07960319519043,3.8821020126342773,0.17875942587852478
1772810195353037300,10.618037353515625,1.715092420578003,2.951704978942871,-0.3982563614845276
1772810195362737400,10.6277373046875,0.06970787048339844,2.011776924133301,-0.5824611186981201
1772810195372437800,10.637437744140625,-1.135737657546997,1.1804304122924805,-0.6984862089157104
1772810195382137900,10.647137939453126,-2.0264859199523926,0.45827293395996094,-0.7319348454475403
1772810195391838000,10.656837890625,-2.212125539779663,-0.07845592498779297,-0.8071541786193848
1772810195401538300,10.666538330078126,-2.5594022274017334,-0.6194467544555664,-0.839887797832489
1772810195411238400,10.67623828125,-2.913773536682129,-1.2544374465942383,-0.7329380512237549
1772810195420938800,10.685938720703126,-3.1633143424987793,-1.8195981979370117,-0.5377211570739746
1772810195430638800,10.695638916015625,-3.3273825645446777,-2.325045585632324,-0.451934814453125
1772810195440339000,10.7053388671875,-3.3682169914245605,-2.95330810546875,-0.36998915672302246
1772810195450039300,10.715039306640625,-3.3097541332244873,-3.615926742553711,-0.24734894931316376
1772810195459739400,10.724739501953126,-3.2554690837860107,-4.2265214920043945,-0.11457297205924988
1772810195469439700,10.734439697265625,-3.1361300945281982,-4.717370986938477,0.048278532922267914
1772810195479139800,10.744139892578126,-2.949638605117798,-5.123702049255371,0.21314720809459686
1772810195488840000,10.75383984375,-2.676910400390625,-5.379437446594238,0.2885911762714386
1772810195498540300,10.763540283203126,-2.740525960922241,-5.581606864929199,0.2466035634279251
1772810195508240400,10.773240478515625,-2.804840326309204,-5.597610950469971,0.23023270070552826
1772810195517940700,10.782940673828126,-2.696805477142334,-5.711638450622559,0.299069881439209
1772810195527640800,10.792640869140625,-3.0675084590911865,-6.232769966125488,0.1760467290878296
1772810195537341000,10.8023408203125,-3.5273635387420654,-6.246458530426025,0.09214754402637482
1772810195547041300,10.812041259765625,-3.4930100440979004,-5.892073631286621,-0.27275967597961426
1772810195556741400,10.821741455078126,-3.268062114715576,-5.466533184051514,-0.6257442235946655
1772810195566441700,10.831441650390625,-3.3958969116210938,-5.223226547241211,-0.6232354044914246
1772810195576141800,10.841141845703126,-3.303798198699951,-5.2019171714782715,-0.4076589345932007
1772810195585842000,10.850842041015625,-3.063845634460449,-5.273164749145508,-0.08620093762874603
1772810195595542300,10.860542236328126,-3.1685969829559326,-5.472993850708008,0.267805814743042
1772810195605242400,10.870242431640625,-3.008159637451172,-5.710641860961914,0.7667235136032104
1772810195614942700,10.879942626953126,-2.449043035507202,-6.038805961608887,1.5850822925567627
1772810195624642800,10.889642822265625,-1.990921974182129,-5.766688346862793,2.0826685428619385
1772810195634343200,10.89934326171875,-1.2022185325622559,-5.6265974044799805,2.322545051574707
1772810195644043300,10.909043212890625,-0.6493957042694092,-4.995048522949219,2.4073381423950195
1772810195653743400,10.918743408203126,-1.1938390731811523,-6.6195387840271,2.473870277404785
1772810195663443700,10.928443603515625,0.6772115230560303,-6.952764511108398,1.7811812162399292
1772810195673143800,10.938143798828126,1.3056566715240479,-4.622222900390625,0.8478990197181702
1772810195682844000,10.947843994140625,2.306253671646118,-3.048205852508545,0.31241893768310547
1772810195692544300,10.957544189453126,2.395615339279175,-1.942378044128418,0.21158528327941895
1772810195702244400,10.967244384765625,3.823396682739258,-0.38315582275390625,-0.02009110152721405
1772810195711944700,10.97694482421875,6.733857154846191,1.2522697448730469,-0.3878015875816345
1772810195721644800,10.986644775390625,9.075946807861328,2.5469493865966797,-0.2685984969139099
1772810195731345200,10.99634521484375,10.24073600769043,5.475503921508789,-0.028145503252744675
1772810195741045200,11.006045166015625,12.192920684814453,8.774163246154785,0.6282846927642822
1772810195760445700,11.02544580078125,12.21517276763916,13.537266731262207,2.3738961219787598
1772810195770145800,11.035145751953126,11.009864807128906,15.792137145996094,2.1277754306793213
1772810195779846000,11.044845947265625,9.391759872436523,17.321317672729492,1.5034399032592773
1772810195789546200,11.054546142578126,7.493379592895508,18.280838012695312,1.240952730178833
1772810195799246300,11.064246337890625,6.3544793128967285,18.96816635131836,1.0222331285476685
1772810195808946700,11.07394677734375,4.734441757202148,19.02118492126465,0.5260760188102722
1772810195818646800,11.083646728515625,3.277132272720337,18.669403076171875,-0.16673362255096436
1772810195828347100,11.09334716796875,1.9721455574035645,17.757564544677734,-1.6711852550506592
1772810195838047200,11.103047119140625,1.7542638778686523,16.704936981201172,-3.485093355178833
1772810195847747300,11.112747314453125,1.6533129215240479,15.572141647338867,-4.899065971374512
1772810195857447400,11.122447509765625,2.8247697353363037,14.302658081054688,-5.796818256378174
1772810195867147800,11.132147705078125,3.9526712894439697,12.901451110839844,-6.24960994720459
1772810195876847900,11.141847900390625,4.626016139984131,11.049088478088379,-5.631992340087891
1772810195886548200,11.15154833984375,4.662104606628418,9.049193382263184,-5.087690353393555
1772810195896248300,11.161248291015625,3.6572048664093018,6.999770164489746,-4.421932697296143
1772810195905948700,11.17094873046875,2.4582815170288086,4.2752485275268555,-3.755446195602417
1772810195915648800,11.180648681640625,1.2185933589935303,1.5136642456054688,-2.7777514457702637
1772810195925349000,11.19034912109375,-1.6446185111999512,-1.2840509414672852,-1.1237701177597046
1772810195935049200,11.20004931640625,-2.4238038063049316,-4.074939250946045,-0.10893973708152771
1772810195944749300,11.209749267578125,-2.492901086807251,-6.35131311416626,-0.04342907667160034
1772810195954449400,11.219449462890625,-2.3890013694763184,-8.535953521728516,0.039115846157073975
1772810195964149800,11.229149658203125,-0.6312799453735352,-10.129315376281738,-0.4970482587814331
1772810195973849900,11.238849853515624,1.1503856182098389,-10.917623519897461,-0.9474655389785767
1772810195983550200,11.24855029296875,1.5780456066131592,-11.745052337646484,-0.7476449608802795
1772810195993250300,11.258250244140624,1.2720880508422852,-12.463159561157227,-0.18889933824539185
1772810196002950700,11.26795068359375,0.2662785053253174,-12.096211433410645,-0.03704714775085449
1772810196012650800,11.277650634765624,-0.5925991535186768,-11.55998706817627,0.18529057502746582
1772810196022351000,11.28735107421875,-2.386713743209839,-12.156556129455566,1.0198767185211182
1772810196032051200,11.29705126953125,-3.496957778930664,-12.617768287658691,1.3411812782287598
1772810196041751300,11.306751220703125,-2.8656582832336426,-12.259099960327148,1.442110538482666
1772810196051451400,11.316451416015624,-2.8535499572753906,-12.488276481628418,1.6901289224624634
1772810196061151700,11.32615185546875,-2.815459728240967,-12.3795747756958,1.7895559072494507
1772810196070851800,11.335851806640624,-3.1306943893432617,-12.059314727783203,1.747375726699829
1772810196080552200,11.34555224609375,-3.8966143131256104,-11.770641326904297,1.6933343410491943
1772810196090252300,11.355252197265624,-4.539607524871826,-11.400436401367188,1.2466301918029785
1772810196099952600,11.36495263671875,-4.5389180183410645,-10.572798728942871,0.5327821373939514
1772810196109652700,11.37465283203125,-4.230120658874512,-10.203776359558105,0.2249547243118286
1772810196119353000,11.38435302734375,-3.7546305656433105,-9.962742805480957,0.3126673102378845
1772810196129053200,11.39405322265625,-3.644183397293091,-9.696853637695312,0.5790060758590698
1772810196138753300,11.403753173828125,-3.4265668392181396,-9.345319747924805,0.702682614326477
1772810196148453400,11.413453369140624,-3.435598611831665,-8.821982383728027,0.7151892781257629
1772810196158153700,11.42315380859375,-3.954728603363037,-8.48884391784668,0.683186411857605
1772810196167853800,11.432853759765624,-4.250173568725586,-8.388847351074219,0.6541328430175781
1772810196177554200,11.44255419921875,-4.346067905426025,-8.285966873168945,0.5421271920204163
1772810196187254300,11.452254150390624,-4.206024646759033,-8.262970924377441,0.2050844132900238
1772810196196954600,11.46195458984375,-3.485750675201416,-7.586143493652344,-0.2888238728046417
1772810196206654700,11.47165478515625,-3.481982469558716,-7.154852867126465,-0.5085256695747375
1772810196216354800,11.481354736328125,-3.751091957092285,-6.969390392303467,-0.7159139513969421
1772810196226055200,11.49105517578125,-3.1605262756347656,-6.170114517211914,-0.703802227973938
1772810196235755300,11.50075537109375,-3.7963008880615234,-5.903289794921875,-0.5345330834388733
1772810196245455400,11.510455322265624,-3.454237222671509,-4.984093189239502,-1.0055214166641235
1772810196255155700,11.52015576171875,-2.6109607219696045,-3.962155342102051,-1.649399995803833
1772810196264855800,11.529855712890624,-1.9409767389297485,-2.904460906982422,-2.200321912765503
1772810196274556200,11.53955615234375,-1.6482586860656738,-1.3216056823730469,-2.798689126968384
1772810196284256300,11.54925634765625,-1.6036772727966309,0.8306074142456055,-2.6220786571502686
1772810196293956600,11.55895654296875,-1.6504230499267578,2.586787223815918,-1.683560848236084
1772810196303656700,11.56865673828125,-0.6772165298461914,3.303194999694824,-0.12183752655982971
1772810196313356800,11.578356689453125,0.6140127182006836,3.7587814331054688,0.9968065619468689
1772810196323057200,11.58805712890625,0.969325065612793,5.369940757751465,0.8551905155181885
1772810196332757200,11.59775732421875,0.6973919868469238,6.709542274475098,0.9248514175415039
1772810196342457300,11.607457275390624,0.7941279411315918,5.864142417907715,0.8561373949050903
1772810196352157700,11.61715771484375,-0.06653594970703125,7.355637550354004,-0.7618330121040344
1772810196361857800,11.62685791015625,-0.5822935104370117,10.609526634216309,-3.0225789546966553
1772810196371558100,11.63655810546875,-0.5284514427185059,12.557907104492188,-4.325420379638672
1772810196381258200,11.64625830078125,0.5902233123779297,13.524386405944824,-4.661587715148926
1772810196390958300,11.655958251953125,1.7178611755371094,13.59156608581543,-3.4816606044769287
1772810196400658700,11.66565869140625,2.400656223297119,12.03282356262207,-1.2484793663024902
1772810196410358800,11.67535888671875,3.7477827072143555,10.934865951538086,1.0383142232894897
1772810196420059000,11.685058837890624,5.008382320404053,9.93191909790039,3.073139190673828
1772810196429759200,11.69475927734375,6.853559970855713,8.414094924926758,4.055488109588623
1772810196439459300,11.704459228515624,7.927575588226318,6.343231678009033,4.199347019195557
1772810196449159700,11.71415966796875,8.718208312988281,4.783114433288574,3.60088849067688
1772810196458859800,11.72385986328125,9.296981811523438,3.5720438957214355,2.517338991165161
1772810196468560100,11.73356005859375,8.518623352050781,2.769033432006836,1.284611701965332
1772810196478260200,11.74326025390625,6.59364128112793,2.4924826622009277,0.19715940952301025
1772810196487960300,11.752960205078125,3.972653388977051,2.276242733001709,-0.5381982922554016
1772810196497660700,11.76266064453125,1.8622550964355469,1.7786297798156738,-0.9294487237930298
1772810196507360800,11.77236083984375,0.48463010787963867,1.0345115661621094,-0.9193899631500244
1772810196517060900,11.782060791015626,-0.1999950408935547,0.13428211212158203,-0.8126087188720703
1772810196526761200,11.79176123046875,-0.23506498336791992,-0.6262383460998535,-0.6349925994873047
1772810196536461300,11.80146142578125,-0.5678520202636719,-1.3856277465820312,-0.6256921887397766
1772810196546161700,11.81116162109375,0.1192173957824707,-2.176401138305664,-0.7239128351211548
1772810196555861800,11.82086181640625,0.40011167526245117,-2.2893242835998535,-0.8242282867431641
1772810196565561900,11.830561767578125,0.08768320083618164,-2.422611713409424,-0.5905047059059143
1772810196575262200,11.84026220703125,-0.7811160087585449,-2.5944981575012207,0.0970287173986435
1772810196584962300,11.84996240234375,-1.84765625,-2.427666187286377,0.6012845635414124
1772810196594662700,11.85966259765625,-2.7997851371765137,-1.8752756118774414,0.6175022125244141
1772810196604362800,11.86936279296875,-3.4618449211120605,-1.3303709030151367,0.3818204402923584
1772810196614062800,11.879062744140626,-3.8841774463653564,-0.9616928100585938,0.05694887042045593
1772810196623763200,11.88876318359375,-4.249394416809082,-0.458651065826416,-0.34042614698410034
