time,seconds_elapsed,z,y,x
1772810365859400000,0.11739990234375,0,0,0
1772810365869099800,0.127099853515625,-0.22133541107177734,-0.5485172271728516,0.24438902735710144
1772810365888499700,0.146499755859375,0.16821861267089844,-0.42737340927124023,-0.04723542928695679
1772810365898199600,0.156199462890625,0.32320356369018555,-0.35268688201904297,0.004816383123397827
1772810365907899600,0.165899658203125,0.4984555244445801,0.38695478439331055,0.23638083040714264
1772810365917599500,0.175599609375,-0.5275754928588867,0.819788932800293,0.9803180694580078
1772810365927299300,0.18529931640625,-3.3004143238067627,0.19225120544433594,0.9360902309417725
1772810365936999400,0.19499951171875,-4.056653022766113,-1.4017925262451172,0.7459576725959778
1772810365946699300,0.20469921875,-1.2162261009216309,-1.058804988861084,-0.9200202822685242
1772810365956399400,0.2143994140625,2.270711898803711,0.7416749000549316,-3.527024269104004
1772810365966099200,0.22409912109375,2.4004673957824707,1.4320945739746094,-3.8318324089050293
1772810365975799000,0.233799072265625,1.5532865524291992,1.8835954666137695,-3.1769707202911377
1772810365985499100,0.2434990234375,1.4139041900634766,2.363132953643799,-2.735602378845215
1772810365995199000,0.253198974609375,1.8410272598266602,2.7446184158325195,-2.387486457824707
1772810366004899000,0.262899169921875,2.081052303314209,2.8751955032348633,-1.7816667556762695
1772810366014599000,0.272598876953125,1.4719796180725098,0.9355053901672363,-0.25815749168395996
1772810366024298800,0.282298828125,0.2595524787902832,-1.5843608379364014,1.4667253494262695
1772810366033998800,0.291998779296875,0.02798318862915039,-3.278765916824341,2.6066782474517822
1772810366043698700,0.30169873046875,-0.3914628028869629,-3.4309329986572266,2.7056689262390137
1772810366053398800,0.311398681640625,-1.0776300430297852,-2.3058056831359863,1.8212758302688599
1772810366063098600,0.3210986328125,-1.325754165649414,-0.8007456064224243,0.6348690986633301
1772810366072798500,0.330798583984375,-0.9133667945861816,-0.016773223876953125,-0.17433831095695496
1772810366082498600,0.34049853515625,-0.9794793128967285,-0.05241131782531738,-0.7904174327850342
1772810366092198400,0.350198486328125,-1.1149349212646484,-0.07730412483215332,-1.2796311378479004
1772810366101898500,0.3598984375,-1.2076125144958496,0.21542620658874512,-1.5350921154022217
1772810366111598300,0.369598388671875,-1.3896245956420898,0.5596809387207031,-1.4691277742385864
1772810366121298200,0.379298095703125,-1.6472539901733398,0.6446919441223145,-1.3097617626190186
1772810366130998300,0.388998291015625,-1.8995556831359863,0.5213007926940918,-1.1499972343444824
1772810366140698000,0.398697998046875,-1.8902101516723633,0.5045444965362549,-0.7226926684379578
1772810366150398200,0.408398193359375,-2.1832003593444824,0.49691271781921387,-0.13465934991836548
1772810366160098000,0.41809814453125,-2.7153286933898926,0.20110750198364258,0.5144233703613281
1772810366169798000,0.4277978515625,-3.1746156215667725,-0.021166563034057617,1.0565009117126465
1772810366179498000,0.437498046875,-2.8133416175842285,0.23003864288330078,1.0619643926620483
1772810366189197800,0.44719775390625,-2.38053560256958,0.055951833724975586,1.1424517631530762
1772810366198897700,0.456897705078125,-1.9111218452453613,-0.6568781137466431,1.2057485580444336
1772810366208597800,0.46659765625,-0.587653636932373,-0.557402491569519,2.1322662830352783
1772810366218297600,0.476297607421875,0.7223634719848633,-0.27341294288635254,2.668698787689209
1772810366227997700,0.485997802734375,0.6136703491210938,0.5250555276870728,1.4764044284820557
1772810366237697500,0.495697509765625,0.39477062225341797,2.643634557723999,-1.1087818145751953
1772810366247397400,0.5053974609375,0.46441030502319336,2.8474764823913574,-1.4458491802215576
1772810366257097500,0.515097412109375,1.2553162574768066,0.9498759508132935,-0.11073993891477585
1772810366266797300,0.52479736328125,2.5527071952819824,-0.2751905918121338,0.7918069362640381
1772810366276497200,0.5344970703125,3.680859088897705,0.01797020435333252,1.1995741128921509
1772810366286197200,0.544197265625,4.778844356536865,0.700158953666687,1.5587581396102905
1772810366295897000,0.55389697265625,6.116535663604736,0.8304336071014404,1.7291903495788574
1772810366305597000,0.563596923828125,7.502246379852295,0.860321044921875,1.5187034606933594
1772810366315297000,0.573297119140625,8.831438064575195,1.434483528137207,1.4517664909362793
1772810366324996900,0.582996826171875,9.504568099975586,2.8185880184173584,2.476686716079712
1772810366334697000,0.592697021484375,11.059596061706543,3.222665786743164,3.3317065238952637
1772810366344396800,0.602396728515625,13.22518253326416,3.23248028755188,4.8623833656311035
1772810366354096600,0.6120966796875,15.8109769821167,2.9001083374023438,6.292754173278809
1772810366363796700,0.621796630859375,17.87920379638672,2.113832950592041,8.369583129882812
1772810366373496600,0.63149658203125,19.64954948425293,1.0743309259414673,10.306051254272461
1772810366383196700,0.64119677734375,21.298267364501953,0.3076951503753662,11.656461715698242
1772810366392896500,0.650896484375,22.305709838867188,0.08064377307891846,12.160650253295898
1772810366402596600,0.6605966796875,21.173988342285156,-1.0283560752868652,11.14310359954834
1772810366412296400,0.67029638671875,20.50567626953125,-1.5145626068115234,9.858007431030273
1772810366421996300,0.679996337890625,19.448640823364258,-0.8153843879699707,8.23254680633545
1772810366431696400,0.6896962890625,17.524057388305664,-0.19178283214569092,6.419657230377197
1772810366441396200,0.699396240234375,14.640364646911621,0.1474592685699463,4.655920028686523
1772810366451096300,0.709096435546875,11.641890525817871,0.7819719314575195,3.286612033843994
1772810366460796200,0.718796142578125,9.007844924926758,1.2191591262817383,2.311678409576416
1772810366470496000,0.72849609375,6.927046775817871,1.5418353080749512,1.446455478668213
1772810366480196000,0.738196044921875,4.5944719314575195,1.5482375621795654,0.7071971893310547
1772810366489896000,0.74789599609375,2.417430877685547,1.5537660121917725,-0.30562543869018555
1772810366499596000,0.757595947265625,0.8293838500976562,1.751624345779419,-1.230597972869873
1772810366509295900,0.7672958984375,-0.7912492752075195,1.759993553161621,-1.9664945602416992
1772810366518995700,0.77699560546875,-2.282663345336914,0.4465351104736328,-2.1372015476226807
1772810366528695800,0.78669580078125,-3.377624988555908,1.5163707733154297,-3.3791115283966064
1772810366538395600,0.796395751953125,-4.488618850708008,1.5337858200073242,-3.8339030742645264
1772810366548095500,0.806095458984375,-4.940000534057617,0.49576616287231445,-3.7635011672973633
1772810366557795600,0.815795654296875,-5.613592147827148,-0.3549060821533203,-3.9080657958984375
1772810366567495400,0.825495361328125,-6.0875396728515625,-0.9319188594818115,-4.346570014953613
1772810366577195300,0.8351953125,-6.4740777015686035,-1.3681936264038086,-4.751323699951172
1772810366586895400,0.844895263671875,-6.5596818923950195,-1.633716106414795,-4.8705949783325195
1772810366596595200,0.85459521484375,-6.960588455200195,-2.2612733840942383,-5.130707263946533
1772810366606295300,0.86429541015625,-7.816267967224121,-3.1080877780914307,-5.37579870223999
1772810366615995100,0.8739951171875,-8.582987785339355,-3.8691189289093018,-5.446408271789551
1772810366625695200,0.8836953125,-9.066230773925781,-4.460003852844238,-5.336373805999756
1772810366635395000,0.89339501953125,-9.365941047668457,-4.939878940582275,-5.268254280090332
1772810366645095200,0.90309521484375,-8.958860397338867,-4.9668378829956055,-5.33350944519043
1772810366654795000,0.912794921875,-8.363088607788086,-4.877399921417236,-5.408209323883057
1772810366664494800,0.922494873046875,-8.323603630065918,-5.181435585021973,-5.458418369293213
1772810366674195000,0.93219482421875,-8.438240051269531,-5.579728603363037,-5.652784824371338
1772810366683894800,0.941894775390625,-8.209750175476074,-5.846579074859619,-5.876992225646973
1772810366693595000,0.951594970703125,-7.862000465393066,-6.015223979949951,-6.086254119873047
1772810366703294700,0.961294677734375,-7.782159328460693,-6.258337497711182,-6.138349533081055
1772810366712994600,0.97099462890625,-7.930952548980713,-6.438892364501953,-6.102636814117432
1772810366722694700,0.980694580078125,-7.952929496765137,-6.591626167297363,-6.0013933181762695
1772810366732394500,0.99039453125,-7.809858798980713,-6.8003010749816895,-5.900191783905029
1772810366742094300,1.00009423828125,-7.620027542114258,-7.073940753936768,-5.9414520263671875
1772810366751794400,1.00979443359375,-7.502048492431641,-7.198204040527344,-6.009890079498291
1772810366761494300,1.019494384765625,-7.313990592956543,-7.194363117218018,-6.078662872314453
1772810366771194400,1.0291943359375,-7.039051532745361,-7.175943374633789,-6.040177822113037
1772810366780894200,1.038894287109375,-6.927331447601318,-7.090445041656494,-6.039297103881836
1772810366790594000,1.048593994140625,-6.78303337097168,-7.017340183258057,-6.047332763671875
1772810366800294100,1.058294189453125,-6.601888656616211,-7.104621410369873,-6.009963035583496
1772810366809994000,1.067993896484375,-6.446267127990723,-7.236021518707275,-5.934028625488281
1772810366819694000,1.077694091796875,-6.2511701583862305,-7.266290187835693,-5.806701183319092
1772810366829394000,1.087393798828125,-6.036211013793945,-7.194185256958008,-5.6108598709106445
1772810366839094000,1.097093994140625,-5.806238651275635,-7.085616111755371,-5.301687717437744
1772810366848793900,1.1067939453125,-5.58213996887207,-7.050444602966309,-4.972655296325684
1772810366858493700,1.11649365234375,-5.342484951019287,-6.790567398071289,-4.950489044189453
1772810366868193800,1.12619384765625,-4.827564716339111,-5.910841464996338,-5.283209800720215
1772810366877893600,1.1358935546875,-3.8512330055236816,-4.286474704742432,-6.161136627197266
1772810366887593700,1.14559375,-2.9362540245056152,-2.236649513244629,-6.77828311920166
1772810366897293600,1.15529345703125,-1.9775018692016602,-0.8900618553161621,-6.837375164031982
1772810366906993400,1.164993408203125,-0.15161895751953125,0.0863943099975586,-6.164888858795166
1772810366916693500,1.174693603515625,1.8259689807891846,2.1030893325805664,-5.214694023132324
1772810366926393300,1.184393310546875,3.79231858253479,4.168669700622559,-2.886976718902588
1772810366936093400,1.194093505859375,5.68927526473999,3.3229966163635254,1.476137638092041
1772810366945793300,1.203793212890625,7.358656406402588,2.7495880126953125,5.534482955932617
1772810366955493000,1.2134931640625,9.176376342773438,3.3286261558532715,9.038054466247559
1772810366965193200,1.223193115234375,10.973186492919922,3.6695594787597656,12.342307090759277
1772810366974893000,1.23289306640625,12.303705215454102,3.8213515281677246,14.67935562133789
1772810366984593200,1.24259326171875,13.64670181274414,4.613519668579102,15.377813339233398
1772810366994293000,1.25229296875,14.873237609863281,5.668586254119873,14.912912368774414
1772810367003993000,1.2619931640625,15.840271949768066,6.033360004425049,14.215341567993164
1772810367013693000,1.27169287109375,15.704357147216797,6.207743167877197,12.829237937927246
1772810367023392800,1.281392822265625,14.823872566223145,6.7913618087768555,10.897666931152344
1772810367033092900,1.2910927734375,13.526128768920898,7.234246253967285,9.013351440429688
1772810367042792700,1.300792724609375,11.480975151062012,7.547159671783447,7.13947057723999
1772810367052492800,1.310492919921875,9.126867294311523,7.505817413330078,5.27407169342041
1772810367062192600,1.320192626953125,6.800760746002197,7.132277965545654,3.6532278060913086
1772810367071892500,1.329892578125,4.656039237976074,6.572636127471924,2.3772330284118652
1772810367081592600,1.339592529296875,2.651392936706543,5.854340553283691,1.5139069557189941
1772810367091292400,1.34929248046875,0.9448032379150391,5.074662685394287,0.9667797088623047
1772810367100992500,1.358992431640625,-0.15157127380371094,4.134533882141113,0.777554988861084
1772810367110692400,1.3686923828125,-1.043778419494629,3.251297950744629,0.6603050231933594
1772810367120392400,1.378392333984375,-1.9870271682739258,2.534421920776367,0.3283858299255371
1772810367130092300,1.38809228515625,-2.870783805847168,1.9841423034667969,-0.1399240493774414
1772810367139792400,1.39779248046875,-3.735698699951172,1.5409789085388184,-0.8086082935333252
1772810367149492200,1.4074921875,-4.548764228820801,1.1439900398254395,-1.5117807388305664
1772810367159192000,1.417192138671875,-5.202552795410156,0.6649355888366699,-2.132923126220703
1772810367168892200,1.42689208984375,-5.68166446685791,0.15770721435546875,-2.7508537769317627
1772810367178592000,1.436592041015625,-6.030544757843018,-0.27885913848876953,-3.2698512077331543
1772810367188291800,1.446291748046875,-6.292562007904053,-0.7193198204040527,-3.6908931732177734
1772810367197992000,1.455991943359375,-6.427901268005371,-1.1376819610595703,-3.9905927181243896
1772810367207691800,1.46569189453125,-6.467372417449951,-1.574737548828125,-4.123395919799805
1772810367217391900,1.475391845703125,-6.438022136688232,-1.9878191947937012,-4.16135311126709
1772810367227091700,1.485091796875,-6.372984886169434,-2.339433193206787,-4.1797590255737305
1772810367236791800,1.494791748046875,-6.351673126220703,-2.7132444381713867,-4.227397441864014
1772810367246491600,1.50449169921875,-6.3776140213012695,-3.089094638824463,-4.30158805847168
1772810367256191700,1.514191650390625,-6.392349720001221,-3.488218307495117,-4.299006462097168
1772810367265891600,1.5238916015625,-6.339691638946533,-3.7412819862365723,-4.31525182723999
1772810367275591400,1.53359130859375,-6.254390716552734,-3.602206230163574,-4.533266544342041
1772810367285291500,1.54329150390625,-6.208510875701904,-3.3366761207580566,-4.751179218292236
1772810367294991400,1.552991455078125,-6.274623870849609,-3.4363222122192383,-4.629621982574463
1772810367304691200,1.562691162109375,-6.387050628662109,-3.741542339324951,-4.533720016479492
1772810367314391300,1.572391357421875,-6.490168571472168,-3.925231456756592,-4.544766426086426
1772810367324091100,1.582091064453125,-6.566318988800049,-4.007696628570557,-4.520803451538086
1772810367333791200,1.591791259765625,-6.660040855407715,-4.105691909790039,-4.430391788482666
1772810367343491000,1.601490966796875,-6.640552997589111,-4.142087936401367,-4.472798824310303
1772810367353191200,1.611191162109375,-6.714092254638672,-4.646582126617432,-4.831701755523682
1772810367362891000,1.62089111328125,-6.567604064941406,-4.4541425704956055,-4.671111106872559
1772810367372591000,1.630591064453125,-6.3554301261901855,-3.4847540855407715,-3.9211673736572266
1772810367382291000,1.640291015625,-5.672104358673096,-3.1839675903320312,-3.8563437461853027
1772810367391990800,1.64999072265625,-4.867056846618652,-2.545057773590088,-3.117518901824951
1772810367401691000,1.65969091796875,-2.452028274536133,-1.4202890396118164,-2.3941264152526855
1772810367411390700,1.669390625,-0.787907600402832,-0.47535181045532227,-0.6469411849975586
1772810367421090800,1.6790908203125,0.9110417366027832,0.346341609954834,1.0666170120239258
1772810367430790700,1.688790771484375,4.012073040008545,1.1460161209106445,2.718813896179199
1772810367440490500,1.698490478515625,8.009830474853516,2.587128162384033,4.687582015991211
1772810367450190600,1.708190673828125,11.684667587280273,4.324411392211914,6.916060924530029
1772810367459890400,1.717890380859375,14.926307678222656,4.499863624572754,10.356107711791992
1772810367469590500,1.727590576171875,17.694915771484375,3.4752039909362793,14.286771774291992
1772810367479290400,1.737290283203125,20.01696014404297,3.493753433227539,17.42184066772461
1772810367488990500,1.746990478515625,21.96455192565918,3.301332950592041,19.730112075805664
1772810367498690300,1.756690185546875,23.357959747314453,2.674604892730713,21.06616973876953
1772810367508390400,1.766390380859375,24.052005767822266,3.1012916564941406,20.048866271972656
1772810367518090200,1.77609033203125,24.457237243652344,4.030060768127441,17.56861114501953
1772810367527790000,1.7857900390625,23.608638763427734,4.811147212982178,14.818000793457031
1772810367537490200,1.795490234375,21.73606300354004,5.756884574890137,12.200983047485352
1772810367547190000,1.80518994140625,19.510757446289062,6.714829444885254,10.004912376403809
1772810367556890000,1.81489013671875,16.771278381347656,7.104156494140625,8.359722137451172
1772810367566590000,1.82458984375,13.458357810974121,6.993216514587402,7.045609474182129
1772810367576290000,1.8342900390625,9.657038688659668,6.4668169021606445,5.8856282234191895
1772810367585990000,1.843989990234375,6.07658576965332,5.854311466217041,4.638633728027344
1772810367595690000,1.85368994140625,2.9516801834106445,5.327939510345459,3.320413589477539
1772810367605389800,1.863389892578125,0.5220527648925781,4.898309707641602,1.9037871360778809
1772810367615089700,1.873089599609375,-1.4984240531921387,4.5015387535095215,0.24795818328857422
1772810367624789800,1.882789794921875,-3.2705259323120117,3.816521644592285,-1.0208768844604492
1772810367634489600,1.892489501953125,-4.697452545166016,2.8120789527893066,-1.6319169998168945
1772810367644189400,1.902189453125,-5.817273139953613,1.5688495635986328,-2.0730581283569336
1772810367653889500,1.9118896484375,-6.610433101654053,0.31868553161621094,-2.746748924255371
1772810367663589600,1.921589599609375,-7.348516941070557,-0.6363158226013184,-3.4419407844543457
1772810367673289500,1.93128955078125,-8.13957691192627,-1.5142879486083984,-4.026202201843262
1772810367682989600,1.940989501953125,-8.580662727355957,-2.6794490814208984,-4.218062877655029
1772810367692689400,1.950689453125,-8.385876655578613,-4.063781261444092,-4.138715744018555
1772810367702389200,1.96038916015625,-7.9441399574279785,-5.1706318855285645,-3.7951576709747314
1772810367712089300,1.97008935546875,-7.818470001220703,-5.871492385864258,-3.439213752746582
1772810367721789200,1.9797890625,-7.95937442779541,-6.504232406616211,-3.2221474647521973
1772810367731489000,1.989489013671875,-8.182195663452148,-6.931044101715088,-3.157240867614746
1772810367741189000,1.999189208984375,-8.284107208251953,-7.049943923950195,-3.238865375518799
1772810367750889000,2.008888916015625,-8.341263771057129,-7.141430377960205,-3.514896869659424
1772810367760589000,2.018589111328125,-8.568196296691895,-7.253316402435303,-3.734254837036133
1772810367770289200,2.0282890625,-8.83137321472168,-7.530719757080078,-3.9154529571533203
1772810367779989000,2.037989013671875,-9.028560638427734,-7.968147277832031,-3.9278194904327393
1772810367789688800,2.047688720703125,-9.061845779418945,-8.384352684020996,-3.9799728393554688
1772810367799389000,2.057388916015625,-9.457484245300293,-9.012438774108887,-3.922304153442383
1772810367809088800,2.0670888671875,-9.59193229675293,-9.787823677062988,-3.5293502807617188
1772810367818788600,2.07678857421875,-9.321769714355469,-10.278484344482422,-3.2338461875915527
1772810367828488700,2.08648876953125,-9.021240234375,-10.47499942779541,-3.1220974922180176
1772810367838188500,2.0961884765625,-8.73900032043457,-10.650388717651367,-2.9844436645507812
1772810367847888600,2.105888671875,-8.300647735595703,-10.946274757385254,-2.7615723609924316
1772810367857588500,2.11558837890625,-7.733165740966797,-11.275699615478516,-2.6120471954345703
1772810367867288600,2.12528857421875,-7.524238586425781,-11.557435989379883,-2.4490139484405518
1772810367876988400,2.134988525390625,-7.351205825805664,-11.76369571685791,-2.37359619140625
1772810367886688500,2.1446884765625,-7.091486930847168,-11.865988731384277,-2.303990364074707
1772810367896388400,2.154388427734375,-6.943599700927734,-11.960884094238281,-2.281181812286377
1772810367906088200,2.164088134765625,-6.910220146179199,-12.108663558959961,-2.269439697265625
1772810367915788300,2.173788330078125,-6.800197124481201,-12.276649475097656,-2.2208940982818604
1772810367925488000,2.183488037109375,-6.641006946563721,-12.363953590393066,-2.200239896774292
1772810367935188200,2.193188232421875,-6.5354838371276855,-12.377765655517578,-2.1275224685668945
1772810367944888000,2.20288818359375,-6.399784564971924,-12.294110298156738,-2.2361485958099365
1772810367954588200,2.212588134765625,-6.2085652351379395,-11.924015045166016,-2.4045493602752686
1772810367964288000,2.2222880859375,-6.066186904907227,-11.117029190063477,-2.6799874305725098
1772810367973988000,2.231988037109375,-5.868868350982666,-10.08298110961914,-2.7646751403808594
1772810367983688000,2.24168798828125,-5.512081146240234,-8.937532424926758,-2.682697057723999
1772810367993387800,2.2513876953125,-4.839783668518066,-7.347960472106934,-2.6902379989624023
1772810368003088000,2.261087890625,-3.4446983337402344,-5.030732154846191,-2.5724081993103027
1772810368012787700,2.27078759765625,-1.3951630592346191,-1.2573704719543457,-2.5615177154541016
1772810368022487800,2.28048779296875,1.6718926429748535,4.144032955169678,-2.025758981704712
1772810368032187600,2.290187744140625,5.457165718078613,10.356607437133789,-0.4000781774520874
1772810368041887700,2.2998876953125,9.490541458129883,14.16507339477539,3.6354141235351562
1772810368051587600,2.309587646484375,13.675393104553223,15.032072067260742,9.743659019470215
1772810368061287700,2.31928759765625,18.327335357666016,14.73114013671875,16.528411865234375
1772810368070987500,2.328987548828125,21.867341995239258,15.10154914855957,22.219823837280273
1772810368080687400,2.338687255859375,22.811790466308594,15.078625679016113,25.191116333007812
1772810368090387500,2.348387451171875,22.820270538330078,15.788925170898438,23.6909236907959
1772810368100087300,2.35808740234375,22.457536697387695,17.475345611572266,18.94070816040039
1772810368109787400,2.367787353515625,21.63990592956543,18.636842727661133,13.304704666137695
1772810368119487200,2.3774873046875,20.299741744995117,19.16048812866211,8.469353675842285
1772810368138887200,2.39688720703125,16.095224380493164,17.352798461914062,3.203423500061035
1772810368148587300,2.406587158203125,13.305395126342773,15.53390884399414,1.8234002590179443
1772810368158287000,2.416287109375,10.190832138061523,13.035808563232422,1.0143203735351562
1772810368167987000,2.425987060546875,7.512091636657715,10.39594841003418,1.1775805950164795
1772810368177687000,2.43568701171875,5.118137836456299,7.963968276977539,1.7924227714538574
1772810368187387000,2.445386962890625,2.6712851524353027,5.639893531799316,2.0617024898529053
1772810368197087000,2.4550869140625,0.32202768325805664,3.6235146522521973,1.4389562606811523
1772810368206787000,2.464787109375,-1.6342101097106934,1.8890447616577148,0.15866851806640625
1772810368216487000,2.47448681640625,-3.3222157955169678,0.21473217010498047,-1.169043779373169
1772810368226186800,2.484186767578125,-4.572325706481934,-1.4427213668823242,-2.1737241744995117
1772810368235886800,2.493886962890625,-5.52166748046875,-2.9876999855041504,-2.817354440689087
1772810368245586700,2.503586669921875,-6.170271396636963,-4.426095485687256,-3.340524196624756
1772810368255286500,2.51328662109375,-6.300930976867676,-5.735903263092041,-3.821779727935791
1772810368264986600,2.522986572265625,-6.056257247924805,-6.807425022125244,-4.222289562225342
1772810368274686700,2.532686767578125,-5.759505271911621,-7.6192121505737305,-4.620424270629883
1772810368284386600,2.542386474609375,-5.705530166625977,-8.349603652954102,-4.811954975128174
1772810368294086700,2.552086669921875,-6.027467250823975,-8.881993293762207,-4.616330623626709
1772810368303786500,2.561786376953125,-6.583545207977295,-9.335868835449219,-4.275197982788086
1772810368313486300,2.571486328125,-6.946063995361328,-9.711509704589844,-4.052756309509277
1772810368323186400,2.5811865234375,-7.140305995941162,-9.888511657714844,-3.8147482872009277
1772810368332886300,2.59088623046875,-7.52680778503418,-9.909645080566406,-3.456697702407837
1772810368342586400,2.60058642578125,-7.921769618988037,-9.833752632141113,-3.08072829246521
1772810368352286200,2.6102861328125,-8.185197830200195,-9.855262756347656,-2.788766384124756
1772810368361986300,2.619986328125,-8.477593421936035,-9.710233688354492,-2.5438408851623535
1772810368371686100,2.62968603515625,-8.818806648254395,-9.500993728637695,-2.351706027984619
1772810368381386200,2.63938623046875,-9.001140594482422,-9.318801879882812,-2.250424861907959
1772810368391086000,2.649086181640625,-8.993600845336914,-9.364112854003906,-2.0892395973205566
1772810368400786000,2.658785888671875,-8.906634330749512,-9.430102348327637,-2.004185199737549
1772810368410486000,2.668486083984375,-8.734821319580078,-9.33000373840332,-1.9112696647644043
1772810368420185900,2.678185791015625,-8.48812484741211,-9.226835250854492,-1.830723762512207
1772810368429886000,2.687885986328125,-8.276878356933594,-9.294506072998047,-1.812279462814331
1772810368439585800,2.697585693359375,-7.9932403564453125,-9.313310623168945,-1.776964545249939
1772810368449286000,2.707285888671875,-7.739128112792969,-9.187895774841309,-1.6030762195587158
1772810368458985700,2.71698583984375,-7.546483993530273,-9.165071487426758,-1.2433009147644043
1772810368468685800,2.726685791015625,-7.302450656890869,-9.164789199829102,-0.8400976657867432
1772810368478385700,2.7363857421875,-7.079680919647217,-8.963499069213867,-0.5492825508117676
1772810368488085500,2.74608544921875,-6.692416191101074,-8.635725021362305,-0.18226772546768188
1772810368497785600,2.75578564453125,-6.277092456817627,-8.379118919372559,0.053270936012268066
1772810368507485700,2.765485595703125,-5.909307479858398,-7.6934638023376465,-0.08102673292160034
1772810368517185500,2.775185546875,-4.765036582946777,-6.672707557678223,-0.3425343334674835
1772810368526885400,2.784885498046875,-3.003420829772949,-4.895565986633301,-0.9895150661468506
1772810368536585500,2.79458544921875,-0.9422993659973145,-2.1211814880371094,-1.8454601764678955
1772810368546285300,2.804285400390625,2.119764804840088,1.1716232299804688,-1.622801661491394
1772810368555985400,2.8139853515625,6.56358528137207,4.557729721069336,0.5040854811668396
1772810368565685200,2.823685302734375,11.145795822143555,6.883494853973389,4.626342296600342
1772810368575385300,2.83338525390625,15.049555778503418,7.7817230224609375,9.423065185546875
1772810368585085200,2.843085205078125,17.727025985717773,7.579010009765625,13.008875846862793
1772810368594785300,2.852785400390625,19.883745193481445,7.680433750152588,13.812275886535645
1772810368604485000,2.862485107421875,22.433982849121094,9.374942779541016,11.348176956176758
1772810368614185000,2.87218505859375,25.206844329833984,11.39173698425293,7.621836185455322
1772810368623885000,2.881885009765625,28.026458740234375,12.395439147949219,4.305578708648682
1772810368633585000,2.8915849609375,30.599578857421875,12.880496978759766,1.2464789152145386
1772810368643285000,2.901284912109375,33.723731994628906,12.86652660369873,-0.8462037444114685
1772810368652985000,2.910985107421875,36.09535217285156,12.44023609161377,-1.8059680461883545
1772810368662685000,2.920684814453125,36.44273376464844,11.452667236328125,-1.504663109779358
1772810368672384800,2.930384765625,34.99845504760742,10.282846450805664,-0.710727334022522
1772810368682084900,2.9400849609375,31.54986572265625,9.388420104980469,0.5015017986297607
1772810368691784700,2.94978466796875,25.981002807617188,8.350942611694336,1.5276856422424316
1772810368701484800,2.95948486328125,19.467147827148438,7.414464473724365,1.8681306838989258
1772810368711184600,2.9691845703125,13.252073287963867,6.371912479400635,1.705793857574463
1772810368720884700,2.978884765625,7.787776947021484,5.291885852813721,0.968010425567627
1772810368730584600,2.98858447265625,3.5223283767700195,3.790438652038574,-0.14215576648712158
1772810368740284700,2.99828466796875,0.5327892303466797,2.0066027641296387,-1.157372236251831
1772810368749984500,3.007984619140625,-1.9190568923950195,-0.05244874954223633,-2.0721278190612793
1772810368759684400,3.017684326171875,-4.339808464050293,-2.2140021324157715,-2.635364055633545
1772810368769384400,3.027384521484375,-6.450019359588623,-4.181744575500488,-2.8996641635894775
1772810368779084300,3.037084228515625,-7.943307399749756,-5.8318352699279785,-2.9362149238586426
1772810368788784400,3.046784423828125,-8.91136646270752,-7.0665459632873535,-2.538227081298828
1772810368798484200,3.056484130859375,-9.63857650756836,-8.216605186462402,-1.7098579406738281
1772810368808184300,3.066184326171875,-10.09715461730957,-9.43846607208252,-0.5767794847488403
1772810368817884200,3.07588427734375,-10.454381942749023,-10.852149963378906,0.5919652581214905
1772810368827584300,3.085584228515625,-10.207405090332031,-12.223705291748047,1.5612465143203735
1772810368837284000,3.0952841796875,-9.643741607666016,-13.135150909423828,2.392087936401367
1772810368846984200,3.104984130859375,-9.307496070861816,-12.83051872253418,2.3203089237213135
1772810368856684000,3.11468408203125,-8.95400333404541,-11.776222229003906,1.7183833122253418
1772810368866384100,3.124384033203125,-8.189729690551758,-11.082559585571289,1.7176192998886108
1772810368876084000,3.134083984375,-7.488766193389893,-10.876564025878906,1.7286694049835205
1772810368885783800,3.14378369140625,-7.440066337585449,-10.693756103515625,1.7113958597183228
1772810368895484000,3.15348388671875,-7.633254051208496,-10.420982360839844,1.7504515647888184
1772810368905183700,3.163183837890625,-8.278297424316406,-10.298222541809082,1.833909511566162
1772810368914883800,3.1728837890625,-9.319669723510742,-10.292708396911621,1.8997308015823364
1772810368924584000,3.182583984375,-10.22227668762207,-10.320173263549805,1.9876328706741333
1772810368934283800,3.19228369140625,-10.757701873779297,-10.267915725708008,2.05838680267334
1772810368943983600,3.201983642578125,-11.082311630249023,-10.149770736694336,2.3674912452697754
1772810368953683700,3.21168359375,-11.190716743469238,-10.181307792663574,2.822389602661133
1772810368963383600,3.221383544921875,-11.098971366882324,-10.396978378295898,3.2494566440582275
1772810368973083600,3.231083740234375,-10.91585636138916,-10.418170928955078,3.445732593536377
1772810368982783500,3.240783447265625,-10.611374855041504,-10.243520736694336,3.4029598236083984
1772810368992483600,3.250483642578125,-10.326784133911133,-10.216012954711914,3.24225115776062
1772810369002183400,3.260183349609375,-9.946252822875977,-10.375689506530762,3.2535886764526367
1772810369011883500,3.269883544921875,-9.360265731811523,-10.566734313964844,3.41896653175354
1772810369021583400,3.279583251953125,-8.725876808166504,-10.686124801635742,3.6785387992858887
1772810369031283200,3.289283203125,-8.117181777954102,-10.834555625915527,3.9779064655303955
1772810369040983300,3.2989833984375,-7.470822334289551,-10.913151741027832,4.230035781860352
1772810369050683400,3.308683349609375,-6.830885410308838,-10.822296142578125,4.472418308258057
1772810369060383200,3.31838330078125,-6.443300247192383,-10.640978813171387,4.6604204177856445
1772810369070083000,3.3280830078125,-6.0650105476379395,-10.460986137390137,4.777797698974609
1772810369079783200,3.337783203125,-5.769000053405762,-10.216153144836426,4.739302635192871
1772810369089483000,3.34748291015625,-5.673043727874756,-9.916136741638184,4.480087757110596
1772810369099183000,3.35718310546875,-5.619591236114502,-9.169076919555664,3.862370491027832
1772810369108883000,3.366883056640625,-5.314432144165039,-7.664289951324463,2.692347526550293
1772810369118583000,3.3765830078125,-4.138604640960693,-4.880186557769775,0.5391638278961182
1772810369128283000,3.386282958984375,-2.602137565612793,-1.7817339897155762,-1.0473942756652832
1772810369137983000,3.39598291015625,0.36837005615234375,0.7131943702697754,-1.924180030822754
1772810369147682800,3.405682861328125,4.103302955627441,3.814736843109131,-1.619295358657837
1772810369157383000,3.4153828125,7.692211151123047,7.941120147705078,-0.8639960289001465
1772810369167082800,3.425082763671875,11.008811950683594,11.52695083618164,0.7567600607872009
1772810369176782800,3.434782958984375,14.89268684387207,11.698896408081055,4.0817952156066895
1772810369186482700,3.444482666015625,19.033672332763672,12.064533233642578,6.50931453704834
1772810369196182800,3.454182861328125,22.16545867919922,12.839742660522461,7.731157302856445
1772810369205882600,3.463882568359375,23.961231231689453,12.105048179626465,8.62760066986084
1772810369215582500,3.47358251953125,25.00726318359375,11.678532600402832,9.015080451965332
1772810369225282600,3.483282470703125,25.467124938964844,11.724407196044922,8.72275161743164
1772810369234982700,3.492982666015625,24.727449417114258,12.421972274780273,7.172525882720947
1772810369244682500,3.5026826171875,22.893497467041016,13.560663223266602,4.646255016326904
1772810369254382600,3.512382568359375,20.42892837524414,14.205883026123047,1.7810134887695312
1772810369264082400,3.52208251953125,17.44192886352539,14.071751594543457,-0.6745064854621887
1772810369273782300,3.5317822265625,14.574173927307129,12.842281341552734,-2.224498748779297
1772810369283482400,3.541482421875,11.795473098754883,10.591673851013184,-2.787728786468506
1772810369293182500,3.551182373046875,9.100956916809082,8.097639083862305,-2.609023094177246
1772810369302882300,3.56088232421875,5.948702812194824,6.027071475982666,-2.076521158218384
1772810369312582100,3.57058203125,2.54642391204834,4.342848777770996,-2.00105619430542
1772810369322282200,3.5802822265625,-0.697871208190918,3.1795811653137207,-1.9510799646377563
1772810369331982000,3.589982177734375,-3.6854605674743652,2.3635077476501465,-1.858606219291687
1772810369341682200,3.59968212890625,-5.8820343017578125,1.6424837112426758,-1.7736060619354248
1772810369351382000,3.609382080078125,-7.2698974609375,0.4998331069946289,-1.5264501571655273
1772810369361082000,3.61908203125,-7.8792924880981445,-0.7026834487915039,-1.3298370838165283
1772810369370782000,3.628781982421875,-7.740326404571533,-1.9558348655700684,-1.2308968305587769
1772810369380482000,3.63848193359375,-7.284846305847168,-3.255786418914795,-1.2107930183410645
1772810369390182000,3.648181884765625,-6.6766791343688965,-4.526340484619141,-1.0970515012741089
1772810369399882000,3.657882080078125,-6.062326908111572,-5.709725856781006,-1.1769615411758423
1772810369409581800,3.667581787109375,-5.359045505523682,-6.714571952819824,-1.334430456161499
1772810369419282000,3.677281982421875,-4.789599895477295,-7.554581642150879,-1.4966139793395996
1772810369428981800,3.686981689453125,-4.500568866729736,-8.1775484085083,-1.5580147504806519
1772810369438681900,3.696681884765625,-4.541182518005371,-8.476377487182617,-1.6975938081741333
1772810369448381700,3.706381591796875,-4.794199466705322,-8.635080337524414,-1.8711271286010742
1772810369458081500,3.71608154296875,-5.213991641998291,-8.633856773376465,-2.0794806480407715
1772810369467781600,3.72578173828125,-5.787853240966797,-8.518013000488281,-2.2813684940338135
1772810369477481700,3.735481689453125,-6.3394341468811035,-8.277276992797852,-2.4969379901885986
1772810369487181600,3.745181640625,-6.857426643371582,-8.125883102416992,-2.6640071868896484
1772810369496881400,3.75488134765625,-7.4373321533203125,-7.934900283813477,-2.8496785163879395
1772810369506581500,3.76458154296875,-7.84579610824585,-7.675332069396973,-3.011141300201416
1772810369516281300,3.77428125,-8.083467483520508,-7.455026626586914,-3.0840420722961426
1772810369525981400,3.7839814453125,-8.303131103515625,-7.335063934326172,-3.0387704372406006
1772810369535681500,3.793681640625,-8.520633697509766,-7.347473621368408,-2.832441806793213
1772810369545381400,3.80338134765625,-8.592422485351562,-7.33538818359375,-2.515263557434082
1772810369555081200,3.813081298828125,-8.560052871704102,-7.373167991638184,-2.179537296295166
1772810369564781300,3.82278125,-8.604965209960938,-7.538087844848633,-1.9174573421478271
1772810369574481200,3.832481201171875,-8.665948867797852,-7.52716064453125,-1.783745527267456
1772810369584181200,3.84218115234375,-8.600122451782227,-7.387906074523926,-1.805474877357483
1772810369593881300,3.85188134765625,-8.487323760986328,-7.157884120941162,-1.8840739727020264
1772810369603581200,3.861581298828125,-8.359166145324707,-6.799301624298096,-1.9505252838134766
1772810369613281000,3.871281005859375,-8.045970916748047,-6.20921516418457,-2.093679666519165
1772810369622981000,3.880981201171875,-7.3955488204956055,-5.45277214050293,-2.081120729446411
1772810369632681000,3.890680908203125,-6.39409065246582,-4.203598976135254,-2.0692386627197266
1772810369642381000,3.900381103515625,-5.015661716461182,-2.028885841369629,-2.422761917114258
1772810369652081000,3.910080810546875,-3.1056318283081055,0.9830560684204102,-2.773759126663208
1772810369661781000,3.919781005859375,-0.002182483673095703,4.486098766326904,-2.7289276123046875
1772810369671480800,3.929480712890625,4.601868629455566,7.1037116050720215,-1.7696082592010498
1772810369681181000,3.939180908203125,9.415220260620117,8.567777633666992,0.2913632392883301
1772810369690880800,3.948880859375,14.933622360229492,8.63890266418457,3.8674395084381104
1772810369700580900,3.958580810546875,21.408401489257812,6.073668479919434,9.12370491027832
1772810369710280700,3.96828076171875,24.510021209716797,4.435019493103027,13.499432563781738
1772810369719980800,3.977980712890625,27.251434326171875,4.088616371154785,16.740238189697266
1772810369729680600,3.9876806640625,29.58449935913086,4.01455020904541,18.508207321166992
1772810369739380700,3.997380615234375,30.2728271484375,4.762495040893555,18.291370391845703
1772810369749080600,4.00708056640625,30.357337951660156,5.5886759757995605,17.169307708740234
1772810369758780700,4.01678076171875,30.00545883178711,6.082986831665039,14.767412185668945
1772810369768480500,4.02648046875,28.833229064941406,6.2941365242004395,12.070167541503906
1772810369778180600,4.0361806640625,26.785457611083984,6.1583757400512695,9.672532081604004
1772810369787880400,4.04588037109375,23.458444595336914,5.991083145141602,7.461614608764648
1772810369797580500,4.05558056640625,18.75216293334961,5.771178245544434,5.58375883102417
1772810369807280400,4.0652802734375,13.204980850219727,5.136556148529053,3.9635610580444336
1772810369816980500,4.07498046875,7.313799858093262,4.676554203033447,2.17750883102417
1772810369826680300,4.084680419921875,2.062328338623047,4.943443298339844,0.2970757484436035
1772810369836380200,4.094380126953125,-1.9845447540283203,4.992804050445557,-1.2522873878479004
1772810369846080300,4.104080322265625,-4.940686225891113,4.3347249031066895,-2.4933018684387207
1772810369855780400,4.1137802734375,-6.626482963562012,3.1635193824768066,-3.3944640159606934
1772810369865480200,4.123480224609375,-7.0744781494140625,1.6815638542175293,-3.807252883911133
1772810369875180300,4.13318017578125,-7.06795597076416,0.30640459060668945,-4.018091201782227
1772810369884880100,4.142880126953125,-7.012465953826904,-1.0413694381713867,-4.018735885620117
1772810369894580000,4.152580078125,-6.934051513671875,-2.3264737129211426,-3.89553165435791
1772810369904280000,4.162280029296875,-6.605067253112793,-3.427231550216675,-3.634725570678711
1772810369913980200,4.171980224609375,-6.329888343811035,-4.259578227996826,-3.2617063522338867
1772810369923680000,4.181679931640625,-6.402498245239258,-4.720370292663574,-2.8895463943481445
1772810369933380000,4.191380126953125,-6.6925129890441895,-4.864412784576416,-2.5781502723693848
1772810369943080000,4.201079833984375,-6.8429718017578125,-4.568561553955078,-2.5543699264526367
1772810369952780000,4.210780029296875,-7.030462741851807,-4.075924396514893,-2.4691483974456787
1772810369962479900,4.22047998046875,-7.347772121429443,-3.560490846633911,-2.4436542987823486
1772810369972180000,4.230179931640625,-7.639011859893799,-2.9786858558654785,-2.6042706966400146
1772810369981879800,4.2398798828125,-8.143478393554688,-2.679511070251465,-2.6920390129089355
1772810369991579600,4.24957958984375,-8.76354694366455,-2.727635383605957,-2.6802077293395996
1772810370001279700,4.25927978515625,-9.276321411132812,-2.9646265506744385,-2.4195308685302734
1772810370010979800,4.268979736328125,-9.616731643676758,-3.362070083618164,-1.952163815498352
1772810370020679700,4.2786796875,-9.935506820678711,-3.7973110675811768,-1.306204915046692
1772810370030379800,4.2883798828125,-10.282354354858398,-4.335128307342529,-0.6223722696304321
1772810370040079600,4.29807958984375,-10.558536529541016,-4.886100769042969,-0.16230261325836182
1772810370049779500,4.307779541015625,-10.644343376159668,-5.286728858947754,0.016188502311706543
1772810370059479600,4.3174794921875,-10.473841667175293,-5.593734264373779,-0.020299315452575684
1772810370069179600,4.3271796875,-10.180695533752441,-5.8852691650390625,-0.09376978874206543
1772810370078879500,4.33687939453125,-9.866411209106445,-6.161684513092041,-0.3071705102920532
1772810370088579300,4.346579345703125,-9.611981391906738,-6.387877464294434,-0.5651286840438843
1772810370098279400,4.356279541015625,-9.437651634216309,-6.603987693786621,-0.6886429786682129
1772810370107979300,4.365979248046875,-9.248044967651367,-6.921181678771973,-0.6549389958381653
1772810370117679400,4.375679443359375,-9.042532920837402,-7.242532730102539,-0.5265119075775146
1772810370127379500,4.38537939453125,-8.862720489501953,-7.487537384033203,-0.3219394087791443
1772810370137079300,4.395079345703125,-8.490541458129883,-7.7538604736328125,0.006801247596740723
1772810370146779100,4.404779052734375,-8.109216690063477,-7.870923042297363,0.33240222930908203
1772810370156479200,4.414479248046875,-7.986532688140869,-8.048605918884277,0.665337085723877
1772810370166179300,4.424179443359375,-7.940252304077148,-8.313231468200684,1.1621429920196533
1772810370175879200,4.433879150390625,-7.956766128540039,-8.409002304077148,1.438340187072754
1772810370185579000,4.4435791015625,-8.004307746887207,-8.260836601257324,1.5249731540679932
1772810370195279000,4.453279052734375,-8.075155258178711,-8.05276870727539,1.4779927730560303
1772810370204979000,4.46297900390625,-7.676237106323242,-7.668889045715332,1.3321226835250854
1772810370214679000,4.472678955078125,-6.909853935241699,-6.730807304382324,0.6700798869132996
1772810370224379100,4.482379150390625,-6.173946380615234,-5.204351902008057,-0.25730255246162415
1772810370234079000,4.492078857421875,-5.303380489349365,-3.3036489486694336,-1.1454702615737915
1772810370243778800,4.50177880859375,-3.1909265518188477,-0.8224902153015137,-1.4591795206069946
1772810370253479000,4.51147900390625,-0.18284177780151367,2.1648812294006348,-1.064455509185791
1772810370263179000,4.521178955078125,3.0365333557128906,5.673991680145264,-0.41616666316986084
1772810370272878800,4.53087890625,6.089112281799316,9.192214012145996,0.15671491622924805
1772810370282579000,4.540578857421875,9.217256546020508,9.588956832885742,1.7641112804412842
1772810370292278800,4.55027880859375,12.371455192565918,10.058192253112793,3.4041988849639893
1772810370301978600,4.559978515625,16.258525848388672,11.318522453308105,5.48499870300293
1772810370311678700,4.5696787109375,20.475849151611328,10.961067199707031,8.166433334350586
1772810370321378800,4.57937890625,24.099857330322266,9.484561920166016,9.464048385620117
1772810370331078700,4.58907861328125,26.32631492614746,8.115489959716797,8.694234848022461
1772810370340778500,4.598778564453125,27.69133758544922,8.379140853881836,5.3275346755981445
1772810370350478600,4.608478515625,27.006425857543945,9.388181686401367,1.1765910387039185
1772810370360178700,4.6181787109375,24.91988754272461,9.845211029052734,-1.8309123516082764
1772810370369878500,4.62787841796875,22.410640716552734,10.295543670654297,-3.5367088317871094
1772810370379578600,4.63757861328125,19.664276123046875,10.235299110412598,-3.545452117919922
1772810370389278500,4.647278564453125,16.207916259765625,9.480546951293945,-2.2913599014282227
1772810370398978300,4.656978271484375,12.128759384155273,8.570934295654297,-0.9847797155380249
1772810370408678400,4.666678466796875,7.729800224304199,7.731267929077148,0.05009198188781738
1772810370418378500,4.67637841796875,3.5734643936157227,6.719603061676025,1.216583251953125
1772810370428078300,4.686078369140625,0.4857959747314453,5.273804664611816,2.4726617336273193
1772810370437778200,4.695778076171875,-1.4182672500610352,3.441530704498291,3.273655414581299
1772810370447478300,4.705478271484375,-2.788562774658203,1.8727850914001465,3.1674575805664062
1772810370457178400,4.715178466796875,-4.11275053024292,0.5818500518798828,2.309915065765381
1772810370466878200,4.724878173828125,-5.466681957244873,-0.5860748291015625,1.355865240097046
1772810370476578300,4.734578369140625,-6.763214111328125,-1.4727540016174316,0.4369697570800781
1772810370486278100,4.744278076171875,-7.990163326263428,-2.260364055633545,-0.29519933462142944
1772810370495978000,4.75397802734375,-8.968547821044922,-3.0611608028411865,-0.6116428375244141
1772810370505678000,4.763677978515625,-9.650626182556152,-3.9974241256713867,-0.6274023056030273
1772810370515378200,4.773378173828125,-10.044479370117188,-4.96463680267334,-0.3933869004249573
1772810370525078000,4.783078125,-10.30362319946289,-5.758673667907715,-0.058246344327926636
1772810370534778000,4.792778076171875,-10.438962936401367,-6.478562355041504,0.22346153855323792
1772810370544478000,4.80247802734375,-10.553863525390625,-7.116400718688965,0.15939047932624817
1772810370554178000,4.812177978515625,-10.781652450561523,-7.591336250305176,-0.10971750319004059
1772810370563878000,4.8218779296875,-11.046619415283203,-7.827954292297363,-0.5417537093162537
1772810370573578000,4.831577880859375,-11.1773681640625,-7.976364612579346,-0.7764813303947449
1772810370583277800,4.84127783203125,-11.594400405883789,-8.053613662719727,-0.7559497356414795
1772810370592978000,4.85097802734375,-11.89023208618164,-7.641219139099121,-0.7892768979072571
1772810370602677800,4.860677734375,-11.782154083251953,-7.254154205322266,-0.882131040096283
1772810370612377900,4.8703779296875,-11.834795951843262,-7.157748222351074,-0.8099458813667297
1772810370622077700,4.88007763671875,-11.841597557067871,-7.153307914733887,-0.5636013150215149
1772810370631777800,4.88977783203125,-11.567222595214844,-6.93421745300293,-0.403647780418396
1772810370641477600,4.8994775390625,-11.174907684326172,-6.666038513183594,-0.4096080958843231
1772810370651177700,4.909177734375,-10.787511825561523,-6.452341079711914,-0.3771938979625702
1772810370660877600,4.918877685546875,-10.256050109863281,-6.251642227172852,-0.31876224279403687
1772810370670577700,4.92857763671875,-9.63243293762207,-6.054656028747559,-0.2276073694229126
1772810370680277500,4.938277587890625,-9.113985061645508,-5.843523979187012,-0.11580780893564224
1772810370689977600,4.9479775390625,-8.774749755859375,-5.7571210861206055,0.12405628710985184
1772810370699677700,4.957677734375,-8.751659393310547,-5.481230735778809,0.16250692307949066
1772810370709377500,4.96737744140625,-8.6089448928833,-4.881457805633545,0.020609170198440552
1772810370719077400,4.977077392578125,-8.411293029785156,-4.137612342834473,-0.2267615795135498
1772810370728777500,4.986777587890625,-7.815030097961426,-3.110419273376465,-0.4588935077190399
1772810370738477600,4.9964775390625,-6.927225112915039,-1.6176104545593262,-0.9385709166526794
1772810370748177400,5.006177490234375,-6.207993984222412,0.2605586051940918,-1.5190489292144775
1772810370757877200,5.015877197265625,-4.607598304748535,2.7995152473449707,-2.1397199630737305
1772810370767577300,5.025577392578125,-0.16696548461914062,5.870048999786377,-1.6036429405212402
1772810370777277200,5.035277099609375,6.872488975524902,7.229220390319824,1.7396578788757324
1772810370786977300,5.044977294921875,14.67268180847168,6.975641250610352,6.400515079498291
1772810370796677400,5.054677490234375,22.64190673828125,6.842885494232178,9.708043098449707
1772810370806377200,5.064377197265625,31.021209716796875,7.258761405944824,10.491446495056152
1772810370816077000,5.0740771484375,37.39232635498047,8.599624633789062,8.824455261230469
1772810370825777200,5.083777099609375,42.05396270751953,8.321234703063965,8.106993675231934
1772810370835477200,5.093477294921875,45.350250244140625,7.538643836975098,8.961824417114258
1772810370845177000,5.103177001953125,45.86619186401367,7.110269546508789,9.755461692810059
1772810370854877000,5.112876953125,42.031532287597656,5.989433288574219,9.118162155151367
1772810370864577000,5.122576904296875,35.95845413208008,5.85618257522583,6.459543228149414
1772810370874277000,5.132277099609375,28.868330001831055,6.567230224609375,3.1174824237823486
1772810370883977000,5.14197705078125,21.478172302246094,7.536194801330566,0.3365190625190735
1772810370893677000,5.151677001953125,14.56245231628418,8.476486206054688,-1.2523022890090942
1772810370903377000,5.161376953125,8.636595726013184,9.481195449829102,-1.8377583026885986
1772810370913077000,5.171076904296875,3.762068748474121,9.629842758178711,-1.4260363578796387
1772810370922776800,5.18077685546875,0.21757221221923828,8.868501663208008,-0.179559588432312
1772810370932477000,5.190476806640625,-2.309586524963379,6.921994686126709,1.844592809677124
1772810370942176800,5.2001767578125,-4.281091690063477,4.3716254234313965,3.711364269256592
1772810370951876900,5.209876953125,-6.064815521240234,1.6775212287902832,3.7896764278411865
1772810370961576700,5.21957666015625,-6.980814456939697,-0.92185378074646,2.010324001312256
1772810370971276800,5.22927685546875,-7.07365608215332,-3.0897438526153564,-0.4274124503135681
1772810370980976600,5.2389765625,-6.551539421081543,-5.184769630432129,-2.0977120399475098
1772810370990676700,5.2486767578125,-5.891365051269531,-7.003354549407959,-2.779888153076172
1772810371000376600,5.25837646484375,-5.822026252746582,-8.53651237487793,-2.712226390838623
1772810371010076700,5.26807666015625,-6.510834693908691,-9.772284507751465,-2.078469753265381
1772810371019776500,5.277776611328125,-7.726812362670898,-10.114221572875977,-1.6672282218933105
1772810371029476600,5.2874765625,-9.153133392333984,-9.947098731994629,-1.654750943183899
1772810371039176400,5.297176513671875,-10.853201866149902,-9.423067092895508,-2.0889737606048584
1772810371048876500,5.30687646484375,-12.579627990722656,-8.567610740661621,-2.78662371635437
1772810371058576600,5.31657666015625,-13.546056747436523,-7.635191917419434,-3.308145761489868
1772810371068276500,5.3262763671875,-13.817054748535156,-6.682592868804932,-3.2022221088409424
1772810371077976300,5.335976318359375,-13.421526908874512,-6.011049270629883,-2.316993236541748
1772810371087676400,5.345676513671875,-12.443800926208496,-5.8793721199035645,-0.9637410044670105
1772810371097376500,5.35537646484375,-10.99081039428711,-6.105294227600098,0.4081885814666748
1772810371107076400,5.365076416015625,-9.457389831542969,-6.256720542907715,1.2705707550048828
1772810371116776400,5.3747763671875,-7.9972100257873535,-6.337808609008789,1.5374557971954346
1772810371126476300,5.384476318359375,-6.7414422035217285,-6.487937927246094,1.30938720703125
1772810371136176400,5.39417626953125,-5.836349964141846,-6.463879585266113,0.5963878631591797
1772810371145876200,5.403876220703125,-5.257454872131348,-6.407585144042969,-0.24037767946720123
1772810371155576300,5.413576416015625,-5.07595157623291,-6.509776592254639,-0.8961213827133179
1772810371165276200,5.423276123046875,-5.159440040588379,-6.658250331878662,-1.2560718059539795
1772810371174976300,5.432976318359375,-5.417121887207031,-6.7712578773498535,-1.4290744066238403
1772810371184676000,5.442676025390625,-5.774656295776367,-6.906923770904541,-1.3598723411560059
1772810371194376200,5.452376220703125,-5.918942451477051,-7.23710298538208,-0.6736479997634888
1772810371204076000,5.462075927734375,-6.199313640594482,-7.34926700592041,0.07290889322757721
1772810371213776100,5.471776123046875,-6.601668834686279,-7.251450538635254,0.5234335660934448
1772810371223476000,5.48147607421875,-6.8715691566467285,-7.135868072509766,0.5820205211639404
1772810371233176000,5.491176025390625,-6.96354341506958,-6.906437873840332,0.4528886079788208
1772810371242876000,5.5008759765625,-6.722611904144287,-6.681240081787109,0.3647782802581787
1772810371252576000,5.510575927734375,-6.184632301330566,-6.521407127380371,0.5207578539848328
1772810371262275800,5.52027587890625,-5.732355117797852,-6.373294353485107,1.123641014099121
1772810371271976000,5.529975830078125,-5.245082855224609,-6.15311336517334,1.6658419370651245
1772810371281676000,5.539676025390625,-4.851953029632568,-5.517106533050537,1.8109930753707886
1772810371291375900,5.5493759765625,-4.483517646789551,-4.616180419921875,1.7712091207504272
1772810371301075700,5.55907568359375,-4.158512115478516,-3.247406005859375,1.4206569194793701
1772810371310775800,5.56877587890625,-3.8036651611328125,-1.3367271423339844,0.9801743626594543
1772810371320476000,5.578475830078125,-3.4011473655700684,0.4468955993652344,1.0122790336608887
1772810371330175700,5.58817578125,-2.0648040771484375,2.2367868423461914,1.4833050966262817
1772810371339875600,5.59787548828125,0.23794984817504883,4.094038963317871,1.9504952430725098
1772810371349575700,5.60757568359375,2.931727409362793,5.814032554626465,2.24080228805542
1772810371359275800,5.61727587890625,5.469714164733887,7.764651775360107,1.6243507862091064
1772810371368975600,5.6269755859375,7.733455657958984,9.053634643554688,0.5316575169563293
1772810371378675700,5.63667578125,8.700298309326172,9.364789962768555,-0.353543221950531
1772810371388375600,5.64637548828125,8.596328735351562,9.12045669555664,-0.5362579822540283
1772810371398075600,5.65607568359375,8.928403854370117,9.970450401306152,-0.8986976146697998
1772810371407775500,5.665775390625,10.212759017944336,10.623954772949219,-0.596013069152832
1772810371417475600,5.6754755859375,11.503090858459473,9.844200134277344,0.5469527244567871
1772810371427175400,5.685175537109375,12.507209777832031,8.684232711791992,1.638798475265503
1772810371436875500,5.69487548828125,13.023599624633789,7.716878890991211,2.0851988792419434
1772810371446575600,5.70457568359375,12.908645629882812,7.141194820404053,1.8067383766174316
1772810371456275500,5.714275390625,11.602041244506836,6.815044403076172,1.0936769247055054
1772810371465975300,5.723975341796875,9.28527545928955,6.5475687980651855,0.11454039812088013
1772810371475675400,5.73367529296875,6.6156229972839355,6.061851978302002,-0.750355064868927
1772810371485375500,5.74337548828125,3.8192272186279297,5.013619899749756,-1.1296435594558716
1772810371495075300,5.753075439453125,1.2712182998657227,3.6822543144226074,-1.2854942083358765
1772810371504775200,5.762775146484375,-0.9082131385803223,2.4605488777160645,-1.325390100479126
1772810371514475300,5.772475341796875,-2.872159957885742,1.2779107093811035,-1.009402871131897
1772810371524175400,5.78217529296875,-4.335326194763184,0.07436895370483398,-0.6691802144050598
1772810371533875200,5.791875244140625,-4.802436351776123,-0.7997350692749023,-0.6325647830963135
1772810371543575300,5.8015751953125,-4.454565525054932,-1.4985809326171875,-0.5138452053070068
1772810371553275100,5.811275146484375,-3.747089147567749,-2.29805326461792,-0.49054110050201416
1772810371562975200,5.820975341796875,-2.9387717247009277,-3.0513153076171875,-0.5789316892623901
1772810371572675000,5.830675048828125,-2.459963321685791,-3.639644145965576,-0.7629110813140869
1772810371582375200,5.840375244140625,-2.5473618507385254,-4.133639335632324,-0.9290480017662048
1772810371592075000,5.850074951171875,-3.0519394874572754,-4.442075729370117,-1.1628172397613525
1772810371601775000,5.859775146484375,-3.7325291633605957,-4.6582818031311035,-1.3622748851776123
1772810371611475200,5.86947509765625,-4.519715785980225,-4.794661998748779,-1.5448579788208008
1772810371621175000,5.879175048828125,-5.255762100219727,-4.8492431640625,-1.7407019138336182
1772810371630875000,5.888875,-5.883247375488281,-4.90482234954834,-1.9001389741897583
1772810371640575000,5.898574951171875,-6.2434797286987305,-4.859137535095215,-1.988962173461914
1772810371650275000,5.908275146484375,-6.519571304321289,-4.860358238220215,-2.0130579471588135
1772810371659975000,5.917974853515625,-6.611557483673096,-4.875904560089111,-1.957362413406372
1772810371669674800,5.9276748046875,-6.6232733726501465,-4.927709579467773,-1.8881430625915527
1772810371679374800,5.937374755859375,-6.559608459472656,-5.078501224517822,-1.7528363466262817
1772810371689075000,5.947074951171875,-6.503384113311768,-5.236288070678711,-1.6845901012420654
1772810371698774800,5.95677490234375,-6.449362277984619,-5.280981540679932,-1.783461332321167
1772810371708475000,5.966474853515625,-6.550576210021973,-5.323270797729492,-2.0225653648376465
1772810371718174700,5.9761748046875,-6.724358558654785,-5.446760177612305,-2.2378621101379395
1772810371727874800,5.985874755859375,-6.937355995178223,-5.503145217895508,-2.3120884895324707
1772810371737574700,5.99557470703125,-7.1470465660095215,-5.541192054748535,-2.410787582397461
1772810371747274800,6.005274658203125,-7.281080722808838,-5.615801811218262,-2.552760601043701
1772810371756974600,6.014974609375,-7.285548210144043,-5.704796314239502,-2.7092902660369873
1772810371766674700,6.0246748046875,-7.164669990539551,-5.72233772277832,-2.867913246154785
1772810371776374800,6.034374755859375,-7.055249214172363,-5.68944787979126,-3.1324613094329834
1772810371786074600,6.04407470703125,-7.042604923248291,-5.473625659942627,-3.3582935333251953
1772810371795774500,6.0537744140625,-6.820413589477539,-5.076926231384277,-3.2882814407348633
1772810371805474600,6.063474609375,-6.900777816772461,-4.766147136688232,-3.393599510192871
1772810371815174700,6.073174560546875,-6.774456024169922,-4.2847723960876465,-3.8565266132354736
1772810371824874500,6.08287451171875,-6.420057773590088,-3.8357229232788086,-4.59738826751709
1772810371834574300,6.09257421875,-5.978642463684082,-3.32670259475708,-5.021978855133057
1772810371844274400,6.1022744140625,-5.615311145782471,-2.460690975189209,-5.053995132446289
1772810371853974500,6.111974609375,-5.528785228729248,-1.3481316566467285,-4.0015869140625
1772810371863674400,6.12167431640625,-5.708402156829834,1.6780996322631836,-2.3317582607269287
1772810371873374500,6.13137451171875,-5.370515823364258,6.300131797790527,0.5782990455627441
1772810371883074300,6.14107421875,-3.519049644470215,10.603446960449219,4.5788774490356445
1772810371892774400,6.1507744140625,2.6976828575134277,13.016854286193848,9.939350128173828
1772810371902474200,6.16047412109375,12.922147750854492,12.713130950927734,15.034368515014648
1772810371912174300,6.17017431640625,23.47439193725586,10.767318725585938,18.15407371520996
1772810371921874200,6.179874267578125,34.04471969604492,8.093491554260254,20.23662757873535
1772810371931574300,6.18957421875,44.21168518066406,6.558992385864258,21.510560989379883
1772810371941274000,6.199274169921875,50.047706604003906,5.657275199890137,23.404037475585938
1772810371950974200,6.20897412109375,50.8429069519043,5.07341194152832,24.569351196289062
1772810371960674000,6.218674072265625,45.360755920410156,5.9150519371032715,24.405683517456055
1772810371970374100,6.2283740234375,34.9111442565918,7.4296112060546875,23.15135383605957
1772810371980074200,6.23807421875,24.433826446533203,8.963329315185547,20.971235275268555
1772810371989774000,6.247774169921875,16.57514190673828,10.122458457946777,17.33757972717285
1772810371999474000,6.257473876953125,11.38616943359375,10.57819938659668,12.864273071289062
1772810372009174000,6.267174072265625,7.817346572875977,10.324949264526367,8.357276916503906
1772810372018874000,6.2768740234375,5.109460830688477,9.553810119628906,4.011971950531006
1772810372028574000,6.286573974609375,2.6487832069396973,8.720479965209961,0.5872611999511719
1772810372038274000,6.296274169921875,0.3348093032836914,6.915548324584961,-1.3054890632629395
1772810372047974000,6.305973876953125,-0.8100757598876953,4.221780776977539,-2.362041473388672
1772810372057674000,6.315674072265625,-0.9993910789489746,1.3106722831726074,-2.754098415374756
1772810372067373800,6.325373779296875,-1.6504945755004883,-1.2809176445007324,-2.477519989013672
1772810372077074000,6.335073974609375,-3.052029609680176,-3.727308988571167,-1.726393222808838
1772810372086774000,6.34477392578125,-5.426652908325195,-5.429292678833008,-1.1629397869110107
1772810372096473900,6.354473876953125,-8.2896089553833,-6.348994255065918,-1.4490253925323486
1772810372106173700,6.364173583984375,-11.037418365478516,-6.934235572814941,-2.1083126068115234
1772810372115873800,6.373873779296875,-13.045655250549316,-7.357079029083252,-2.767007827758789
1772810372125574000,6.383573974609375,-14.227789878845215,-7.417844295501709,-3.1812081336975098
1772810372135273700,6.393273681640625,-14.624631881713867,-7.462716102600098,-3.143846035003662
1772810372144973800,6.402973876953125,-14.61280345916748,-7.510486602783203,-2.8210978507995605
1772810372154673700,6.412673583984375,-13.986032485961914,-7.384383678436279,-2.5302371978759766
1772810372164373800,6.422373779296875,-13.135578155517578,-7.349350929260254,-2.168303966522217
1772810372174073600,6.432073486328125,-12.239156723022461,-7.460489273071289,-1.8425331115722656
1772810372183773700,6.441773681640625,-11.127760887145996,-7.7566328048706055,-1.473780632019043
1772810372193473500,6.4514736328125,-10.257904052734375,-8.045370101928711,-1.0523581504821777
1772810372203173600,6.461173583984375,-9.702888488769531,-8.255971908569336,-0.691562294960022
1772810372212873700,6.470873779296875,-9.536170959472656,-8.433368682861328,-0.5594772100448608
1772810372222573600,6.480573486328125,-9.571073532104492,-8.396103858947754,-0.6727153658866882
1772810372232273400,6.4902734375,-9.688972473144531,-8.320845603942871,-0.995245099067688
1772810372241973500,6.499973388671875,-9.794647216796875,-8.29793930053711,-1.2297065258026123
1772810372251673600,6.509673583984375,-9.905033111572266,-8.313514709472656,-1.444933533668518
1772810372261373400,6.51937353515625,-9.924065589904785,-8.214288711547852,-1.7120394706726074
1772810372271073500,6.529073486328125,-9.869461059570312,-8.22403335571289,-1.7573919296264648
1772810372280773400,6.5387734375,-9.741504669189453,-8.374500274658203,-1.560535192489624
1772810372290473500,6.548473388671875,-9.308290481567383,-8.616243362426758,-1.276475191116333
1772810372300173300,6.55817333984375,-8.845160484313965,-8.787588119506836,-0.9601718187332153
1772810372309873400,6.567873291015625,-8.3323974609375,-8.915414810180664,-0.6259061098098755
1772810372319573200,6.5775732421875,-7.836599349975586,-8.924703598022461,-0.3193797767162323
1772810372329273300,6.5872734375,-7.28546667098999,-8.732818603515625,0.0035615116357803345
1772810372338973200,6.59697314453125,-7.110252380371094,-8.502460479736328,0.3389110565185547
1772810372348673300,6.60667333984375,-6.930021286010742,-8.179410934448242,0.4716295897960663
1772810372358373400,6.616373291015625,-6.811308860778809,-7.742829322814941,0.5670858025550842
1772810372368073200,6.6260732421875,-6.942180156707764,-7.456084251403809,0.6891777515411377
1772810372377773300,6.635773193359375,-7.189871311187744,-7.189655303955078,0.8190457820892334
1772810372387473200,6.64547314453125,-7.443913459777832,-6.921176433563232,0.8514381647109985
1772810372397173200,6.65517333984375,-7.313599586486816,-6.727145671844482,0.7488359212875366
1772810372406873000,6.664873046875,-7.0244550704956055,-6.543508529663086,0.6698954701423645
1772810372416573200,6.6745732421875,-6.651585578918457,-6.274983882904053,0.7129049301147461
1772810372426273000,6.68427294921875,-5.865420341491699,-5.723456859588623,0.8221384882926941
1772810372435973000,6.69397314453125,-4.582710266113281,-4.475482940673828,0.5941264629364014
1772810372445673200,6.703673095703125,-3.295811653137207,-2.0818300247192383,-0.20462393760681152
1772810372455373000,6.713373046875,-2.013699531555176,0.25347137451171875,-1.0822827816009521
1772810372465073000,6.723072998046875,-0.8340797424316406,2.8153038024902344,-1.7094194889068604
1772810372474773000,6.73277294921875,1.3874945640563965,5.359013557434082,-1.075425148010254
1772810372484473000,6.74247314453125,4.074676513671875,8.10428237915039,-0.11453574895858765
1772810372494173000,6.7521728515625,7.146820545196533,10.643632888793945,-0.3195640742778778
1772810372503873000,6.761873046875,11.003030776977539,11.44584846496582,-0.6151182055473328
1772810372513572900,6.77157275390625,13.870309829711914,9.470525741577148,1.1314753293991089
1772810372523273000,6.78127294921875,15.784626960754395,8.816629409790039,2.5112955570220947
1772810372532972800,6.790972900390625,17.16099739074707,8.356660842895508,4.4474310874938965
1772810372542673000,6.8006728515625,18.86620330810547,7.055484771728516,6.063530445098877
1772810372552373000,6.810373046875,20.308076858520508,6.785802364349365,5.980161190032959
1772810372562072800,6.82007275390625,20.44637680053711,7.596439361572266,4.415086269378662
1772810372571772700,6.829772705078125,18.579788208007812,8.51348876953125,2.9479072093963623
1772810372581472800,6.83947265625,15.571189880371094,9.388729095458984,1.7795956134796143
1772810372591172900,6.8491728515625,12.327555656433105,9.896537780761719,1.0272607803344727
1772810372610572800,6.86857275390625,6.445941925048828,8.320316314697266,1.0482072830200195
1772810372620272600,6.878272705078125,3.7149763107299805,6.909405708312988,1.0153727531433105
1772810372629972700,6.88797265625,1.5637168884277344,5.501099586486816,0.5862997770309448
1772810372639672600,6.897672607421875,0.30466270446777344,3.782196044921875,0.11125177145004272
1772810372649372700,6.90737255859375,-0.07085895538330078,2.023799419403076,-0.4812981188297272
1772810372659072800,6.91707275390625,0.2627115249633789,0.45178699493408203,-0.9617773294448853
1772810372668772600,6.926772705078125,0.607792854309082,-0.6807684898376465,-1.152857780456543
1772810372678472400,6.936472412109375,0.7159881591796875,-1.5968477725982666,-1.0482348203659058
1772810372688172500,6.946172607421875,0.2139129638671875,-2.330535411834717,-0.7262277007102966
1772810372697872600,6.95587255859375,-0.9600343704223633,-2.693460464477539,-0.4583500325679779
1772810372707572500,6.965572509765625,-2.527721405029297,-2.8131041526794434,-0.3390929102897644
1772810372717272600,6.9752724609375,-4.185008525848389,-2.9502577781677246,-0.36648961901664734
1772810372726972400,6.984972412109375,-5.768238067626953,-3.065751552581787,-0.4925731420516968
1772810372736672500,6.994672607421875,-6.971866130828857,-3.164445400238037,-0.714181661605835
1772810372746372400,7.004372314453125,-7.7296142578125,-3.333747625350952,-0.8763996362686157
1772810372756072400,7.014072509765625,-8.266496658325195,-3.4737348556518555,-1.0325847864151
1772810372765772300,7.023772216796875,-8.554267883300781,-3.527733564376831,-1.1576147079467773
1772810372775472400,7.033472412109375,-8.503388404846191,-3.6512694358825684,-1.279407024383545
1772810372785172500,7.04317236328125,-8.498372077941895,-3.7690985202789307,-1.4158395528793335
1772810372794872300,7.052872314453125,-8.493041038513184,-3.791963577270508,-1.4845613241195679
1772810372804572400,7.062572509765625,-8.710955619812012,-3.6983726024627686,-1.4175020456314087
1772810372814272300,7.072272216796875,-8.998785972595215,-3.503608226776123,-1.3898086547851562
1772810372823972400,7.081972412109375,-9.304062843322754,-3.208101511001587,-1.3464350700378418
1772810372833672200,7.091672119140625,-9.73727798461914,-2.8440210819244385,-1.238295316696167
1772810372843372300,7.101372314453125,-10.076191902160645,-2.509978771209717,-0.9853132963180542
1772810372853072400,7.111072265625,-10.134278297424316,-2.308356285095215,-0.7753291130065918
1772810372862772200,7.120772216796875,-9.57309341430664,-2.2506256103515625,-0.644853413105011
1772810372872472000,7.13047216796875,-8.750568389892578,-2.0986156463623047,-0.5745807886123657
1772810372882172200,7.140172119140625,-7.718250751495361,-1.8340764045715332,-0.5344744920730591
1772810372891872300,7.149872314453125,-6.480301856994629,-1.5845813751220703,-0.44830894470214844
1772810372901572000,7.159572021484375,-4.846834659576416,-1.3169515132904053,-0.22745490074157715
1772810372911272200,7.169272216796875,-3.204360008239746,-0.8069257736206055,0.06732797622680664
1772810372920972000,7.178971923828125,-1.8359489440917969,-0.1715989112854004,0.31354594230651855
1772810372930672000,7.188672119140625,-0.698702335357666,0.27134275436401367,0.5594320297241211
1772810372940372000,7.1983720703125,0.833857536315918,0.980069637298584,0.4874788522720337
1772810372950072000,7.208072021484375,3.9395627975463867,2.385624408721924,-0.17113173007965088
1772810372959772200,7.217772216796875,8.04957103729248,3.9767870903015137,-0.32824599742889404
1772810372969472000,7.227471923828125,12.070570945739746,4.376260280609131,0.3031580448150635
1772810372979172000,7.237172119140625,16.376941680908203,4.514033317565918,0.8347765207290649
1772810372988872000,7.246871826171875,19.431888580322266,5.481654644012451,1.6639211177825928
1772810372998572000,7.256572021484375,19.680856704711914,5.760528087615967,3.5279476642608643
1772810373008272000,7.26627197265625,16.79461669921875,4.388996124267578,5.61884880065918
1772810373017972000,7.275971923828125,15.017091751098633,5.148703098297119,6.0368971824646
1772810373027672000,7.285672119140625,16.29898452758789,6.875127792358398,4.673045635223389
1772810373037372000,7.295371826171875,18.37674903869629,7.405214309692383,3.6502161026000977
1772810373047071700,7.30507177734375,20.28382682800293,8.420230865478516,2.4417836666107178
1772810373056771800,7.314771728515625,19.99374771118164,9.449691772460938,1.2258026599884033
1772810373066472000,7.324471923828125,20.685317993164062,9.642982482910156,0.10702979564666748
1772810373076171800,7.334171875,22.213191986083984,8.440252304077148,-1.028412103652954
1772810373085871900,7.343871826171875,21.536151885986328,7.846734046936035,-0.7456868886947632
1772810373095572000,7.353572021484375,20.15511131286621,7.2259087562561035,-0.23446595668792725
1772810373105271800,7.363271728515625,18.626049041748047,5.9874114990234375,0.14439356327056885
1772810373114971600,7.3729716796875,16.145017623901367,4.536170482635498,0.6611976623535156
1772810373124671700,7.382671630859375,12.613643646240234,3.086900234222412,1.242460012435913
1772810373134371800,7.392371826171875,8.829602241516113,2.204371929168701,1.976304292678833
1772810373144071700,7.40207177734375,4.916722297668457,1.843956470489502,2.1755099296569824
1772810373153771800,7.411771728515625,1.0588369369506836,1.4660654067993164,1.488870620727539
1772810373163471600,7.4214716796875,-2.354654312133789,0.8375110626220703,0.5415935516357422
1772810373173171700,7.431171630859375,-4.940182209014893,-0.04664754867553711,-0.34886598587036133
1772810373182871600,7.44087158203125,-6.987443923950195,-1.2329635620117188,-1.059352993965149
1772810373192571600,7.450571533203125,-8.312250137329102,-2.8670384883880615,-1.125321626663208
1772810373202271700,7.460271728515625,-8.62867546081543,-4.621004581451416,-0.987398624420166
1772810373211971600,7.4699716796875,-8.45155143737793,-6.1813178062438965,-0.6234492659568787
1772810373221671400,7.47967138671875,-8.270459175109863,-7.4347944259643555,-0.38407468795776367
1772810373231371500,7.48937158203125,-8.322547912597656,-8.142157554626465,-0.3858012557029724
1772810373241071600,7.499071533203125,-8.560190200805664,-8.458894729614258,-0.7923043370246887
1772810373250771500,7.508771484375,-8.837427139282227,-8.351364135742188,-1.2904011011123657
1772810373260471600,7.518471435546875,-9.023992538452148,-8.021015167236328,-2.105900287628174
1772810373270171600,7.528171630859375,-9.221929550170898,-7.873417377471924,-2.9101052284240723
1772810373279871500,7.53787158203125,-9.499305725097656,-7.735793113708496,-3.178297996520996
1772810373289571300,7.5475712890625,-10.177666664123535,-7.546480655670166,-2.706742763519287
1772810373299271400,7.557271484375,-11.038681030273438,-7.602244853973389,-1.753109097480774
1772810373308971500,7.566971435546875,-11.309089660644531,-7.686666488647461,-0.9903730154037476
1772810373318671400,7.57667138671875,-10.686944961547852,-7.918832778930664,-0.5837975144386292
1772810373328371500,7.586371337890625,-10.452835083007812,-7.880911827087402,0.19040018320083618
1772810373338071600,7.596071533203125,-9.783390045166016,-7.93135404586792,0.4883437752723694
1772810373347771400,7.605771484375,-8.724453926086426,-7.9999470710754395,0.5114998817443848
1772810373357471200,7.61547119140625,-7.612462043762207,-8.035196304321289,0.6635886430740356
1772810373367171300,7.62517138671875,-6.634346008300781,-8.162779808044434,0.8730466365814209
1772810373376871400,7.634871337890625,-5.947681903839111,-8.312508583068848,1.0005537271499634
1772810373386571300,7.6445712890625,-5.4781718254089355,-8.38759708404541,1.1005637645721436
1772810373396271400,7.654271240234375,-5.204982757568359,-8.368630409240723,1.0043691396713257
1772810373405971200,7.66397119140625,-4.902793884277344,-8.423547744750977,0.7344153523445129
1772810373415671300,7.67367138671875,-4.916416168212891,-8.591046333312988,0.4371706247329712
1772810373425371100,7.68337109375,-5.291234970092773,-8.638143539428711,0.11724512279033661
1772810373435071200,7.6930712890625,-5.9816575050354,-8.170381546020508,0.2818889021873474
1772810373444771300,7.702771240234375,-6.657514572143555,-7.77588415145874,1.1909523010253906
1772810373454471200,7.71247119140625,-6.063291072845459,-8.144024848937988,1.2969626188278198
1772810373464171300,7.722171142578125,-5.49963903427124,-7.72802734375,1.732532024383545
1772810373473871000,7.73187109375,-4.402188301086426,-7.48496150970459,2.148120880126953
1772810373483571200,7.7415712890625,-3.8826723098754883,-7.831819534301758,1.923797845840454
1772810373493271000,7.75127099609375,-3.2111315727233887,-7.2197265625,1.5434067249298096
1772810373502971100,7.76097119140625,-2.929598808288574,-6.44440221786499,0.8994802236557007
1772810373512671200,7.770671142578125,-2.978604555130005,-5.287186145782471,-0.028732657432556152
1772810373522371000,7.78037109375,-3.416109085083008,-2.9578609466552734,-1.0221846103668213
1772810373532071200,7.7900712890625,-3.4322142601013184,-0.8499560356140137,-1.9434300661087036
1772810373541771000,7.79977099609375,-2.128643274307251,0.7327747344970703,-2.980329990386963
1772810373551471000,7.80947119140625,0.6365423202514648,1.8960280418395996,-2.3659534454345703
1772810373561171000,7.8191708984375,3.445798397064209,2.433372974395752,-0.8168822526931763
1772810373570871000,7.82887109375,5.602881908416748,4.036572456359863,-0.534421443939209
1772810373580571100,7.838571044921875,6.923715114593506,4.391271114349365,-0.4666922092437744
1772810373590271000,7.84827099609375,7.915012359619141,4.311277389526367,-0.22176378965377808
1772810373599970800,7.857970703125,7.960731029510498,5.177161693572998,-0.4785553216934204
1772810373609671000,7.8676708984375,8.130298614501953,6.401467323303223,-0.531158983707428
1772810373619371000,7.87737109375,8.156153678894043,7.364709377288818,0.6390548944473267
1772810373629070800,7.88707080078125,8.13795280456543,7.99609899520874,2.416804313659668
1772810373638771000,7.89677099609375,8.2916898727417,9.212133407592773,4.094436168670654
1772810373648470800,7.906470703125,8.389249801635742,10.05032730102539,5.13662052154541
1772810373658171000,7.9161708984375,8.322582244873047,10.360084533691406,4.967843532562256
1772810373667871000,7.92587109375,8.357933044433594,10.344005584716797,3.9005444049835205
1772810373677570800,7.93557080078125,7.987468719482422,9.515209197998047,3.022334575653076
1772810373687271000,7.94527099609375,7.594669818878174,8.050976753234863,2.2548446655273438
1772810373696970800,7.954970703125,7.31452751159668,6.364645004272461,1.3336632251739502
1772810373706670800,7.9646708984375,6.858022689819336,4.809250831604004,0.45096734166145325
1772810373716370700,7.97437060546875,6.393407821655273,3.449368476867676,-0.30957460403442383
1772810373726070800,7.98407080078125,6.326027870178223,2.536776065826416,-0.8058457374572754
1772810373735771000,7.99377099609375,6.121811866760254,1.6535377502441406,-0.9412217736244202
1772810373745470700,8.003470703125,5.622461318969727,0.9012279510498047,-0.8145854473114014
1772810373755170800,8.0131708984375,4.826235771179199,0.42841386795043945,-0.3915487825870514
1772810373764870700,8.02287060546875,3.5738773345947266,0.10711336135864258,0.13957186043262482
1772810373774570800,8.03257080078125,2.003358840942383,-0.13266992568969727,0.5961596965789795
1772810373784270600,8.0422705078125,0.398831844329834,-0.27291107177734375,0.9552538394927979
1772810373793970700,8.051970703125,-1.128608226776123,-0.36838436126708984,1.0691176652908325
1772810373803670800,8.0616708984375,-2.474780559539795,-0.591498851776123,0.9027318358421326
1772810373813370600,8.07137060546875,-3.7120299339294434,-0.8624625205993652,0.526573896408081
1772810373823070700,8.08107080078125,-4.681992530822754,-1.1511292457580566,-0.04467859864234924
1772810373832770600,8.0907705078125,-5.26007080078125,-1.4688396453857422,-0.5647751092910767
1772810373842470700,8.100470703125,-5.441011905670166,-1.7575798034667969,-1.1105213165283203
1772810373852170500,8.11017041015625,-5.258427143096924,-2.024991989135742,-1.4749243259429932
1772810373861870600,8.11987060546875,-4.870911598205566,-2.171029806137085,-1.5950844287872314
1772810373871570700,8.12957080078125,-4.269662857055664,-2.2256858348846436,-1.556535005569458
1772810373881270500,8.1392705078125,-3.7059860229492188,-2.051288604736328,-1.38423490524292
1772810373890970600,8.148970703125,-3.332296848297119,-1.7619590759277344,-1.04962158203125
1772810373900670500,8.15867041015625,-2.966193199157715,-1.4677519798278809,-0.6622790098190308
1772810373910370600,8.16837060546875,-2.6122255325317383,-1.0930213928222656,-0.31951212882995605
1772810373920070400,8.1780703125,-2.3427700996398926,-0.8502020835876465,0.000680387020111084
1772810373929770500,8.1877705078125,-1.9536948204040527,-0.6383800506591797,0.18021833896636963
1772810373939470600,8.197470703125,-1.5272479057312012,-0.3827981948852539,0.052191317081451416
1772810373949170400,8.20717041015625,-1.1471753120422363,-0.33181285858154297,-0.14284288883209229
1772810373958870500,8.21687060546875,-0.8480386734008789,-0.4492340087890625,-0.3622516393661499
1772810373968570400,8.2265703125,-0.8469891548156738,-0.6280436515808105,-0.5889750719070435
1772810373978270500,8.2362705078125,-1.0803871154785156,-0.6749906539916992,-0.8111752867698669
1772810373987970300,8.24597021484375,-1.5968246459960938,-0.39668941497802734,-0.9865406155586243
1772810373997670400,8.25567041015625,-2.1659536361694336,-0.1116189956665039,-1.0308773517608643
1772810374007370500,8.26537060546875,-2.5410385131835938,0.15625333786010742,-0.9015358686447144
1772810374017070300,8.2750703125,-2.6159257888793945,0.24178028106689453,-0.6387845277786255
1772810374026770400,8.2847705078125,-2.2564120292663574,0.19171667098999023,-0.29381412267684937
1772810374036470300,8.29447021484375,-1.6494855880737305,0.0415186882019043,0.19495165348052979
1772810374046170400,8.30417041015625,-0.8717970848083496,-0.3007025718688965,0.6880989670753479
1772810374055870500,8.313870361328124,-0.030686378479003906,-0.7583756446838379,0.8566373586654663
1772810374065570300,8.3235703125,0.8420009613037109,-1.1275062561035156,0.8123405575752258
1772810374084970200,8.34297021484375,1.8129820823669434,-1.5882172584533691,0.3408697247505188
1772810374094670300,8.35267041015625,2.036163330078125,-1.5192885398864746,-0.06687986850738525
1772810374114070300,8.3720703125,1.7821602821350098,-1.2200684547424316,-0.7428253293037415
1772810374123770400,8.381770263671875,1.5319733619689941,-0.8763389587402344,-0.9429286122322083
1772810374133470200,8.39147021484375,1.2926697731018066,-0.5585122108459473,-1.050418734550476
1772810374143170300,8.40117041015625,1.0992860794067383,-0.2499837875366211,-1.0337306261062622
1772810374152870100,8.4108701171875,1.0207242965698242,0.003551006317138672,-0.8492772579193115
1772810374162570200,8.4205703125,1.032482624053955,0.29607534408569336,-0.47866809368133545
1772810374172270000,8.43027001953125,0.7998690605163574,0.5413980484008789,0.14256632328033447
1772810374181970200,8.43997021484375,0.5823736190795898,0.6846270561218262,0.9375691413879395
1772810374191670300,8.449670166015625,-0.21586036682128906,0.728085994720459,1.5637586116790771
1772810374201370000,8.4593701171875,-0.5715632438659668,1.2243075370788574,2.0585241317749023
1772810374211070200,8.4690703125,-0.7933230400085449,1.1206145286560059,2.631312847137451
1772810374230470100,8.48847021484375,-0.5086789131164551,0.8577919006347656,2.994102954864502
1772810374240170000,8.498169921875,0.15390968322753906,0.5474867820739746,2.7077884674072266
