time,seconds_elapsed,z,y,x
1772810159151738600,0.114738525390625,0,0,0
1772810159161439000,0.12443896484375,0.006259441375732422,-0.004875659942626953,0.013514444231987
1772810159171139000,0.13413916015625,0.020028114318847656,-0.016504764556884766,0.028444916009902954
1772810159180839400,0.14383935546875,0.04012918472290039,-0.02127361297607422,0.025148391723632812
1772810159190539800,0.153539794921875,0.0738363265991211,-0.030272960662841797,0.02753552794456482
1772810159200239900,0.163239990234375,0.09626483917236328,-0.047502994537353516,0.02972710132598877
1772810159209940200,0.172940185546875,0.1038522720336914,-0.060764312744140625,0.012047752737998962
1772810159219640600,0.182640625,0.10063886642456055,-0.05237102508544922,-0.011243626475334167
1772810159229340700,0.192340576171875,0.08325719833374023,-0.043447017669677734,-0.02156969904899597
1772810159239041000,0.202041015625,0.036637306213378906,-0.032843589782714844,-0.020172521471977234
1772810159248741400,0.211741455078125,-0.029507160186767578,-0.015450000762939453,-0.020432233810424805
1772810159258441700,0.221441650390625,-0.07541704177856445,0.0021448135375976562,-0.020453378558158875
1772810159268141800,0.231141845703125,-0.08960676193237305,0.017537593841552734,-0.007038816809654236
1772810159277842200,0.24084228515625,-0.09484386444091797,0.026935100555419922,0.009468108415603638
1772810159287542500,0.25054248046875,-0.09905242919921875,0.022444725036621094,0.029320836067199707
1772810159297243000,0.260242919921875,-0.08986949920654297,0.011497020721435547,0.04561111330986023
1772810159306943000,0.26994287109375,-0.07318353652954102,0.0017352104187011719,0.039385274052619934
1772810159316643300,0.279643310546875,-0.05472087860107422,0.0006690025329589844,0.021688342094421387
1772810159326343400,0.289343505859375,-0.03232383728027344,-0.004459381103515625,-0.0031505972146987915
1772810159336043800,0.299043701171875,-0.030268192291259766,-0.01530599594116211,-0.03430478274822235
1772810159345744100,0.308744140625,-0.05608415603637695,-0.015031814575195312,-0.0631459653377533
1772810159355444200,0.3184443359375,-0.09441232681274414,-0.015914440155029297,-0.06435596942901611
1772810159365144600,0.32814453125,-0.12122631072998047,-0.024248600006103516,-0.04454641044139862
1772810159374845000,0.337844970703125,-0.1519465446472168,-0.03290510177612305,-0.021813318133354187
1772810159384545300,0.347545166015625,-0.15877580642700195,-0.048978328704833984,0.012078166007995605
1772810159394245400,0.357245361328125,-0.14786434173583984,-0.06134748458862305,0.03736966848373413
1772810159403945700,0.36694580078125,-0.12384748458862305,-0.06975936889648438,0.04263529181480408
1772810159413646000,0.37664599609375,-0.07988166809082031,-0.0747838020324707,0.02463732659816742
1772810159423346200,0.38634619140625,-0.03130626678466797,-0.07682609558105469,-0.0004972368478775024
1772810159433046500,0.396046630859375,-0.0044078826904296875,-0.09374189376831055,-0.016174718737602234
1772810159442747000,0.405746826171875,0.01523447036743164,-0.10861968994140625,-0.028427332639694214
1772810159452447000,0.415447021484375,0.02970409393310547,-0.1070399284362793,-0.0505935400724411
1772810159462147300,0.425147216796875,0.034008026123046875,-0.0899806022644043,-0.066690593957901
1772810159471847700,0.43484765625,0.015129566192626953,-0.06761360168457031,-0.0631750226020813
1772810159481547800,0.4445478515625,-0.009021282196044922,-0.05379056930541992,-0.0458357036113739
1772810159491248000,0.454248046875,-0.028985023498535156,-0.035490989685058594,-0.017803877592086792
1772810159500948500,0.463948486328125,-0.03514242172241211,-0.01566171646118164,0.012221097946166992
1772810159510648600,0.473648681640625,-0.018863201141357422,-0.010492324829101562,0.04322293400764465
1772810159520349000,0.483348876953125,0.004362583160400391,-0.004705905914306641,0.0674285963177681
1772810159530049300,0.49304931640625,0.024990558624267578,-0.0029168128967285156,0.0828319787979126
1772810159539749600,0.50274951171875,0.05503129959106445,-0.007693767547607422,0.0824103057384491
1772810159549449700,0.51244970703125,0.08699607849121094,-0.006865978240966797,0.06080280989408493
1772810159559150000,0.522150146484375,0.09576702117919922,0.0129852294921875,0.020076394081115723
1772810159568850400,0.531850341796875,0.10424232482910156,0.03957939147949219,-0.007732465863227844
1772810159578550800,0.54155078125,0.10551786422729492,0.06332921981811523,-0.025419093668460846
1772810159588251000,0.5512509765625,0.1072072982788086,0.08496761322021484,-0.017496488988399506
1772810159597951200,0.560951171875,0.10131454467773438,0.09610462188720703,0.006977781653404236
1772810159607651300,0.5706513671875,0.09524059295654297,0.09785079956054688,0.026305489242076874
1772810159617351700,0.5803515625,0.09605884552001953,0.09853219985961914,0.037806324660778046
1772810159627052000,0.590052001953125,0.10160350799560547,0.10363149642944336,0.04316769167780876
1772810159636752100,0.599752197265625,0.09139871597290039,0.09250211715698242,0.04663972556591034
1772810159646452500,0.609452392578125,0.07926654815673828,0.07199716567993164,0.03551425784826279
1772810159656152800,0.61915283203125,0.05284404754638672,0.05013561248779297,0.021713245660066605
1772810159665853200,0.628853271484375,0.011135101318359375,0.038753509521484375,0.0016129575669765472
1772810159675553300,0.63855322265625,-0.016879558563232422,0.02670431137084961,-0.010702129453420639
1772810159685253600,0.648253662109375,-0.033453941345214844,0.01472616195678711,-0.0073541924357414246
1772810159694954000,0.6579541015625,-0.04340934753417969,0.016803264617919922,-0.003655955195426941
1772810159704654300,0.667654296875,-0.03609037399291992,0.012465476989746094,0.004862882196903229
1772810159714354400,0.6773544921875,-0.013644695281982422,-0.0011548995971679688,0.020423706620931625
1772810159724054800,0.6870546875,0.008553504943847656,-0.01822948455810547,0.028879372403025627
1772810159733755100,0.696755126953125,0.025840282440185547,-0.01874542236328125,0.016728390008211136
1772810159743455200,0.706455322265625,0.035207271575927734,-0.005892753601074219,-0.012014934793114662
1772810159753155600,0.716155517578125,0.03193855285644531,0.007344722747802734,-0.03856927528977394
1772810159762855700,0.725855712890625,0.016086101531982422,0.009396076202392578,-0.04792490601539612
1772810159772556000,0.73555615234375,-0.01217508316040039,0.012256145477294922,-0.04090370610356331
1772810159782256400,0.74525634765625,-0.02440643310546875,0.010030746459960938,-0.02215176448225975
1772810159791956700,0.754956787109375,-0.026740550994873047,0.0039577484130859375,0.005012856796383858
1772810159801656800,0.76465673828125,-0.029505252838134766,0.009181976318359375,0.018449217081069946
1772810159811357200,0.774357177734375,-0.025529861450195312,0.01596689224243164,0.023561641573905945
1772810159821057500,0.7840576171875,-0.01826333999633789,0.028747081756591797,0.01219451054930687
1772810159830757600,0.793757568359375,-0.015009880065917969,0.04061126708984375,-0.014631952159106731
1772810159840458000,0.8034580078125,-0.006186962127685547,0.05496835708618164,-0.043244555592536926
1772810159850158300,0.813158447265625,0.010605335235595703,0.07512903213500977,-0.07427777349948883
1772810159859858700,0.822858642578125,0.03905916213989258,0.08532238006591797,-0.09257466346025467
1772810159869558800,0.832558837890625,0.11723804473876953,0.09046506881713867,-0.12156841158866882
1772810159879259100,0.842259033203125,0.18472528457641602,0.08304500579833984,-0.13972419500350952
1772810159888959500,0.85195947265625,0.2980923652648926,0.07396316528320312,-0.11861665546894073
1772810159898659600,0.86165966796875,0.3925743103027344,0.01799631118774414,-0.097208172082901
1772810159908360000,0.87135986328125,0.42075395584106445,-0.05932283401489258,-0.09602463245391846
1772810159918060000,0.88106005859375,0.39512109756469727,-0.09407758712768555,-0.10309118777513504
1772810159927760400,0.890760498046875,0.24585628509521484,-0.09832096099853516,-0.13108563423156738
1772810159937460700,0.900460693359375,0.06274700164794922,-0.05523395538330078,-0.14848364889621735
1772810159947161000,0.9101611328125,0.026841163635253906,0.09803009033203125,-0.14489196240901947
1772810159956861200,0.919861083984375,-0.023973464965820312,0.25489044189453125,-0.025786936283111572
1772810159966561500,0.9295615234375,-0.03363323211669922,0.3570737838745117,0.1809452474117279
1772810159976262000,0.939261962890625,-0.06130266189575195,0.429995059967041,0.4181986153125763
1772810159985962200,0.948962158203125,-0.15412092208862305,0.5001821517944336,0.6149751543998718
1772810159995662300,0.958662353515625,-0.3397212028503418,0.5004005432128906,0.8016427755355835
1772810160005362700,0.96836279296875,-0.5230612754821777,0.051705360412597656,0.9058653116226196
1772810160015063000,0.97806298828125,-0.5055241584777832,-0.2454514503479004,0.7807216644287109
1772810160024763100,0.98776318359375,-0.9157438278198242,-0.7048192024230957,0.6997697353363037
1772810160034463500,0.99746337890625,-1.3797054290771484,-1.0023698806762695,0.7498687505722046
1772810160044163800,1.007163818359375,-1.6494922637939453,-0.8266034126281738,0.6890048980712891
1772810160053864000,1.016864013671875,-1.7232699394226074,-0.49442148208618164,0.5303955674171448
1772810160063564300,1.026564208984375,-1.4107036590576172,-0.18996286392211914,0.25093966722488403
1772810160073264600,1.0362646484375,-0.7142281532287598,0.09972858428955078,-0.04153037071228027
1772810160082964700,1.04596484375,0.15030956268310547,0.2914743423461914,-0.23435425758361816
1772810160092665000,1.0556650390625,0.6654424667358398,0.31918859481811523,-0.27597522735595703
1772810160102365400,1.065365478515625,0.29367828369140625,0.13465356826782227,-0.1898900270462036
1772810160112065800,1.075065673828125,-0.45714473724365234,-0.02825307846069336,-0.03871583938598633
1772810160121766000,1.084765869140625,-0.9870977401733398,-0.07820844650268555,0.15184485912322998
1772810160131466200,1.09446630859375,-1.0568222999572754,-0.005824565887451172,0.2528306245803833
1772810160141166600,1.10416650390625,-0.6174583435058594,0.2975893020629883,0.22213375568389893
1772810160150866700,1.11386669921875,0.05790901184082031,0.7193470001220703,0.005435585975646973
1772810160160567000,1.123567138671875,0.4876976013183594,1.0287823677062988,-0.27964353561401367
1772810160170267400,1.133267333984375,0.5172338485717773,1.0510897636413574,-0.6357765197753906
1772810160179967500,1.142967529296875,0.32823657989501953,0.798673152923584,-0.7652370929718018
1772810160189667800,1.152667724609375,0.1774158477783203,0.4663267135620117,-0.5247416496276855
1772810160199368200,1.1623681640625,0.027963638305664062,0.057464599609375,-0.06304991245269775
1772810160209068300,1.172068359375,-0.0789031982421875,-0.4079775810241699,0.2111746072769165
1772810160218768600,1.1817685546875,-0.07846927642822266,-0.8292803764343262,0.27907490730285645
1772810160228469000,1.191468994140625,0.07635688781738281,-1.1014714241027832,0.3399784564971924
1772810160238169000,1.201169189453125,0.15851306915283203,-1.1497669219970703,0.4583244323730469
1772810160247869400,1.210869384765625,0.1381378173828125,-1.1002607345581055,0.6111953258514404
1772810160257569800,1.22056982421875,0.02167987823486328,-1.023857593536377,0.7752974033355713
1772810160267270100,1.230270263671875,-0.11061763763427734,-0.9280605316162109,0.9023810029029846
1772810160276970200,1.23997021484375,-0.20550060272216797,-0.7832639217376709,0.9410305023193359
1772810160286670600,1.249670654296875,-0.3980894088745117,0.12830257415771484,-0.03176146745681763
1772810160296371000,1.259370849609375,-0.6570076942443848,2.0729565620422363,-2.1551787853240967
1772810160306071000,1.269071044921875,-1.0703415870666504,2.861732006072998,-3.200988292694092
1772810160315771400,1.278771484375,-1.303227424621582,1.579444408416748,-2.5582261085510254
1772810160325471700,1.2884716796875,-1.288466453552246,0.548759937286377,-1.7208316326141357
1772810160335171800,1.298171875,-1.1586580276489258,0.4681205749511719,-1.2027993202209473
1772810160344872200,1.3078720703125,-1.001112461090088,0.5057024955749512,-0.8831626772880554
1772810160354572500,1.317572509765625,-0.8496088981628418,0.3555150032043457,-0.6816160678863525
1772810160364272600,1.327272705078125,-0.8251972198486328,0.14064598083496094,-0.549472451210022
1772810160373973000,1.336972900390625,-0.9806962013244629,-0.13178586959838867,-0.45024144649505615
1772810160383673300,1.34667333984375,-1.20294189453125,0.04109001159667969,-0.4875953793525696
1772810160393373700,1.356373779296875,-1.4014410972595215,0.5451722145080566,-0.5372183918952942
1772810160403073800,1.36607373046875,-1.406540870666504,0.8138537406921387,-0.7032721042633057
1772810160412774100,1.375774169921875,-1.4114928245544434,0.7005519866943359,-0.7174241542816162
1772810160422474500,1.385474609375,-1.350966453552246,0.30022764205932617,-0.6618999242782593
1772810160432174600,1.395174560546875,-1.1398258209228516,0.16556119918823242,-0.5440358519554138
1772810160441875000,1.404875,-0.8969507217407227,0.08317852020263672,-0.640904426574707
1772810160451575300,1.4145751953125,-0.6417689323425293,-0.2086329460144043,-0.6193377375602722
1772810160461275400,1.424275390625,-0.40130138397216797,-0.6093282699584961,-0.3581959009170532
1772810160470975700,1.433975830078125,-0.33792877197265625,-0.9339888095855713,-0.03135573863983154
1772810160480676000,1.443676025390625,-0.41156578063964844,-1.0413343906402588,0.22260327637195587
1772810160490376200,1.453376220703125,-0.6211748123168945,-1.0124454498291016,0.3210904598236084
1772810160500076500,1.46307666015625,-1.0032424926757812,-0.9468874931335449,0.3204910159111023
1772810160509777000,1.47277685546875,-1.5291128158569336,-0.883753776550293,0.29412662982940674
1772810160519477200,1.482477294921875,-2.0924434661865234,-0.8615381717681885,0.3173656463623047
1772810160529177300,1.49217724609375,-2.4766578674316406,-0.942763090133667,0.45820990204811096
1772810160538877700,1.501877685546875,-2.710470199584961,-0.9719624519348145,0.4835132658481598
1772810160548578000,1.511578125,-2.84181547164917,-0.8128325939178467,0.32521218061447144
1772810160558278400,1.5212783203125,-3.0186328887939453,-0.6172423362731934,0.12834182381629944
1772810160567978500,1.530978515625,-3.2748470306396484,-0.6054832935333252,-0.08560096472501755
1772810160577678800,1.540678955078125,-3.623448371887207,-0.8198685646057129,-0.14998754858970642
1772810160587379000,1.55037890625,-4.066008567810059,-1.0598070621490479,-0.03294342756271362
1772810160597079300,1.560079345703125,-4.389270782470703,-1.194570779800415,0.16986656188964844
1772810160606779600,1.569779541015625,-4.297801494598389,-1.3253743648529053,0.42291027307510376
1772810160616479700,1.579479736328125,-4.194803237915039,-1.5349639654159546,0.6411834359169006
1772810160626180000,1.58918017578125,-4.3047661781311035,-1.7845616340637207,0.7972111105918884
1772810160635880400,1.59888037109375,-4.341223239898682,-2.014186382293701,1.0467745065689087
1772810160645580800,1.608580810546875,-4.2859392166137695,-2.1447982788085938,1.5926616191864014
1772810160655281000,1.618281005859375,-4.088869571685791,-2.0271801948547363,1.9460508823394775
1772810160664981200,1.627981201171875,-3.2932004928588867,-1.7562224864959717,2.018209457397461
1772810160674681600,1.637681640625,-2.0508108139038086,-1.4733541011810303,2.0293633937835693
1772810160684381700,1.647381591796875,-0.46323585510253906,-1.3121434450149536,1.9387913942337036
1772810160694082000,1.65708203125,1.299025535583496,-1.303173303604126,1.7739999294281006
1772810160703782400,1.666782470703125,3.0561609268188477,-1.400060772895813,1.5457487106323242
1772810160713482500,1.676482421875,4.726779937744141,-1.5408297777175903,1.2781054973602295
1772810160723182800,1.686182861328125,6.1491498947143555,-1.6196057796478271,0.95386803150177
1772810160732883200,1.69588330078125,7.01788330078125,-1.6193997859954834,0.5240896940231323
1772810160742583300,1.705583251953125,7.323217391967773,-1.4108490943908691,0.13985073566436768
1772810160752283600,1.71528369140625,7.138570785522461,-1.1037695407867432,-0.23816442489624023
1772810160761984000,1.72498388671875,6.548708915710449,-0.7792901992797852,-0.5172616243362427
1772810160771684000,1.73468408203125,5.59696102142334,-0.4423358738422394,-0.730827808380127
1772810160781384400,1.744384521484375,4.3923444747924805,-0.05086759477853775,-0.9542298316955566
1772810160791084800,1.754084716796875,2.9819955825805664,0.33211255073547363,-1.1397814750671387
1772810160800785200,1.76378515625,1.505335807800293,0.6578179597854614,-1.2104963064193726
1772810160810485200,1.7734853515625,0.328338623046875,1.0089139938354492,-1.100099802017212
1772810160820185600,1.783185546875,-0.6240310668945312,1.2961024045944214,-0.890064001083374
1772810160829886000,1.792885986328125,-1.3827199935913086,1.437406301498413,-0.6242567300796509
1772810160839586000,1.8025859375,-1.9824247360229492,1.49666166305542,-0.4248626232147217
1772810160849286400,1.812286376953125,-2.4442920684814453,1.5240724086761475,-0.32914018630981445
1772810160858986800,1.82198681640625,-2.5418434143066406,1.5786855220794678,-0.29499006271362305
1772810160868686800,1.831686767578125,-2.532442092895508,1.5735983848571777,-0.37743568420410156
1772810160878387200,1.84138720703125,-2.7040891647338867,1.375147819519043,-0.3870203495025635
1772810160888087600,1.851087646484375,-2.952369213104248,1.003719449043274,-0.4610269069671631
1772810160897787600,1.86078759765625,-3.0769777297973633,1.0988819599151611,-0.829686164855957
1772810160907488000,1.870488037109375,-3.267178535461426,1.372880458831787,-0.9734413623809814
1772810160917188400,1.880188232421875,-3.416271686553955,1.4033639430999756,-0.9926626682281494
1772810160926888700,1.889888671875,-3.646071434020996,1.3192400932312012,-0.9550454616546631
1772810160936588800,1.8995888671875,-3.9337263107299805,1.189432978630066,-0.8928961753845215
1772810160946289200,1.9092890625,-4.250213623046875,1.0960613489151,-0.7521082162857056
1772810160955989500,1.918989501953125,-4.549282550811768,0.9950685501098633,-0.5394365787506104
1772810160965689600,1.928689697265625,-4.195504188537598,1.0118916034698486,-0.29845452308654785
1772810160975390000,1.938389892578125,-3.510145664215088,0.6811268329620361,-0.012413978576660156
1772810160985090300,1.94809033203125,-2.6979851722717285,-0.23258209228515625,0.5707595348358154
1772810160994790400,1.957790283203125,-1.140711784362793,-1.6895928382873535,1.5373518466949463
1772810161004490800,1.96749072265625,1.3354263305664062,-3.6065454483032227,2.733938455581665
1772810161014191000,1.977191162109375,4.566769123077393,-5.4600725173950195,3.941324472427368
1772810161023891200,1.98689111328125,8.087871551513672,-7.209144115447998,4.9170122146606445
1772810161033591600,1.996591552734375,11.014599800109863,-8.65839958190918,5.602051734924316
1772810161043292000,2.0062919921875,12.978597640991211,-9.948147773742676,6.072098731994629
1772810161052992300,2.0159921875,14.333595275878906,-10.83066463470459,6.940434455871582
1772810161062692400,2.0256923828125,14.736249923706055,-11.095515251159668,7.941192150115967
1772810161072392700,2.035392822265625,14.696659088134766,-10.901665687561035,8.825277328491211
1772810161082093000,2.045093017578125,14.674043655395508,-10.614450454711914,9.243339538574219
1772810161091793200,2.054793212890625,14.877642631530762,-10.354538917541504,9.293157577514648
1772810161101493500,2.064493408203125,14.972967147827148,-9.627243041992188,8.897658348083496
1772810161111193900,2.07419384765625,14.742454528808594,-8.521024703979492,8.029474258422852
1772810161120894000,2.08389404296875,14.148688316345215,-7.276201248168945,6.721635818481445
1772810161130594300,2.09359423828125,13.44038200378418,-6.090735912322998,5.259617328643799
1772810161140294700,2.103294677734375,12.456992149353027,-4.949265003204346,3.8924760818481445
1772810161149994800,2.112994873046875,11.305953979492188,-3.7478599548339844,2.7166385650634766
1772810161159695000,2.122695068359375,9.911199569702148,-2.4649085998535156,1.728607177734375
1772810161169395500,2.1323955078125,8.381424903869629,-1.2079076766967773,0.881598949432373
1772810161179095600,2.142095458984375,6.813141345977783,0.1535482406616211,0.11017656326293945
1772810161188796000,2.1517958984375,5.2763261795043945,1.3026328086853027,-0.518944263458252
1772810161198496300,2.161496337890625,3.8118371963500977,2.1552023887634277,-1.0360474586486816
1772810161208196600,2.171196533203125,2.4994640350341797,2.9571871757507324,-1.6955318450927734
1772810161217896700,2.180896728515625,1.4948482513427734,3.8417482376098633,-2.597320318222046
1772810161227597000,2.19059716796875,0.6784310340881348,4.729294776916504,-3.525747299194336
1772810161237297400,2.20029736328125,-0.0072917938232421875,5.494898319244385,-4.325660705566406
1772810161246997500,2.20999755859375,-0.6120390892028809,6.041759490966797,-4.8966217041015625
1772810161256697900,2.21969775390625,-1.1970009803771973,6.2480340003967285,-5.1630706787109375
1772810161266398200,2.229398193359375,-1.742009162902832,6.209103584289551,-5.178620338439941
1772810161276098300,2.239098388671875,-2.2071003913879395,6.024386405944824,-4.994795799255371
1772810161285798700,2.248798583984375,-2.39805269241333,5.751785755157471,-4.7263641357421875
1772810161295499000,2.2584990234375,-2.353592872619629,5.463813781738281,-4.43956184387207
1772810161305199000,2.26819921875,-2.237819194793701,5.176311492919922,-4.156739711761475
1772810161314899500,2.2778994140625,-2.0512495040893555,4.870458602905273,-3.870729446411133
1772810161324599800,2.287599853515625,-1.697967529296875,4.484408855438232,-3.6125378608703613
1772810161334300200,2.297300048828125,-1.239497184753418,3.992429256439209,-3.4571115970611572
1772810161344000300,2.307000244140625,-0.7462854385375977,3.4852733612060547,-3.3320508003234863
1772810161353700600,2.31670068359375,-0.37014150619506836,3.05281138420105,-3.2853429317474365
1772810161363401000,2.32640087890625,-0.16425323486328125,2.64062237739563,-3.354787826538086
1772810161373101000,2.33610107421875,-0.15114784240722656,2.2568747997283936,-3.476128101348877
1772810161382801400,2.345801513671875,-0.4211239814758301,2.0223841667175293,-3.578592538833618
1772810161392501800,2.355501708984375,-0.9696512222290039,1.8158570528030396,-3.585413694381714
1772810161402201900,2.365201904296875,-1.560586929321289,1.5536706447601318,-3.5449962615966797
1772810161411902200,2.374902099609375,-2.0370779037475586,1.2582036256790161,-3.453439950942993
1772810161421602600,2.3846025390625,-2.367279052734375,0.9337730407714844,-3.32395339012146
1772810161431302700,2.394302734375,-2.620737075805664,0.6076288223266602,-3.172956943511963
1772810161441003000,2.4040029296875,-2.8906235694885254,0.2640634775161743,-3.008192539215088
1772810161450703400,2.413703369140625,-3.0183000564575195,-0.14751917123794556,-2.85197377204895
1772810161460403700,2.42340380859375,-3.007441520690918,-0.6172671318054199,-2.7073729038238525
1772810161470103800,2.433103759765625,-2.923229694366455,-1.0643976926803589,-2.593843460083008
1772810161479804200,2.44280419921875,-2.7726378440856934,-1.547590970993042,-2.4390902519226074
1772810161489504500,2.45250439453125,-2.536351203918457,-2.12418532371521,-2.21343994140625
1772810161499204600,2.46220458984375,-2.334578037261963,-2.726228952407837,-1.947007179260254
1772810161508905000,2.471905029296875,-2.290766716003418,-3.220338821411133,-1.7229266166687012
1772810161518605000,2.48160498046875,-2.35984468460083,-3.442652940750122,-1.5414540767669678
1772810161528305400,2.491305419921875,-2.5166940689086914,-3.6672942638397217,-1.279219150543213
1772810161538005800,2.501005859375,-2.5896968841552734,-4.099421977996826,-0.8496053218841553
1772810161547706000,2.5107060546875,-2.39101505279541,-4.246037483215332,-0.44940638542175293
1772810161557406200,2.52040625,-1.984591007232666,-3.946730613708496,-0.1386280059814453
1772810161567106600,2.5301064453125,-1.5139002799987793,-3.438741683959961,0.396167516708374
1772810161576807000,2.539806884765625,-0.8281707763671875,-3.029329299926758,1.1045410633087158
1772810161586507000,2.549507080078125,0.5150823593139648,-2.698711633682251,1.6328377723693848
1772810161596207400,2.559207275390625,2.1364622116088867,-2.080867290496826,1.7116248607635498
1772810161605907700,2.56890771484375,3.8762311935424805,-1.4595677852630615,1.7723067998886108
1772810161615608000,2.578608154296875,5.970142364501953,-1.757389783859253,2.375227451324463
1772810161625308200,2.58830810546875,7.988624572753906,-2.4213759899139404,2.9987611770629883
1772810161635008500,2.598008544921875,9.488127708435059,-2.7087035179138184,3.288723945617676
1772810161644708600,2.60770849609375,10.420371055603027,-2.7732203006744385,3.2807669639587402
1772810161654409000,2.617408935546875,10.696622848510742,-2.772989511489868,3.0899457931518555
1772810161664109300,2.627109375,10.448822975158691,-2.5974655151367188,2.8644118309020996
1772810161673809400,2.636809326171875,9.802009582519531,-2.3648123741149902,2.7411205768585205
1772810161683509800,2.646509765625,8.779106140136719,-2.0962486267089844,2.722651720046997
1772810161693210000,2.656210205078125,7.411226272583008,-1.6490833759307861,2.7768869400024414
1772810161702910500,2.665910400390625,5.78226375579834,-1.0386309623718262,2.8609321117401123
1772810161712610600,2.675610595703125,4.001439094543457,-0.39626646041870117,3.020266056060791
1772810161722311000,2.685310791015625,2.0607776641845703,0.20362567901611328,3.2044730186462402
1772810161732011300,2.69501123046875,0.10159587860107422,0.7028131484985352,3.2874624729156494
1772810161741711400,2.70471142578125,-1.6959471702575684,1.1111550331115723,3.154235363006592
1772810161751411700,2.71441162109375,-3.185096263885498,1.3941912651062012,2.746640920639038
1772810161761112000,2.724112060546875,-4.2466535568237305,1.4877080917358398,2.1248764991760254
1772810161770812200,2.733812255859375,-4.844899654388428,1.425973892211914,1.4239580631256104
1772810161780512500,2.743512451171875,-5.038489818572998,1.252492904663086,0.7677547931671143
1772810161790212900,2.753212890625,-5.020596981048584,0.9936327934265137,0.2730260491371155
1772810161799913000,2.762912841796875,-4.9784088134765625,0.6967606544494629,-0.04036647081375122
1772810161809613300,2.77261328125,-4.993586540222168,0.3821849822998047,-0.21351051330566406
1772810161819313700,2.782313720703125,-5.095117092132568,0.0812826156616211,-0.29340606927871704
1772810161829014000,2.792013916015625,-5.297516822814941,-0.19337987899780273,-0.2865127921104431
1772810161838714000,2.801714111328125,-5.562193870544434,-0.4269261360168457,-0.2512838840484619
1772810161848414500,2.81141455078125,-5.856001853942871,-0.6430506706237793,-0.2449702024459839
1772810161858114800,2.82111474609375,-6.143694877624512,-0.8808097839355469,-0.27836668491363525
1772810161867815000,2.83081494140625,-6.438742160797119,-1.1422638893127441,-0.33754962682724
1772810161877515300,2.840515380859375,-6.740959167480469,-1.4116935729980469,-0.3895609974861145
1772810161887215400,2.85021533203125,-7.010567665100098,-1.6894240379333496,-0.40740615129470825
1772810161896915700,2.859915771484375,-7.265598773956299,-1.9641942977905273,-0.3982337415218353
1772810161906616000,2.869615966796875,-7.496695041656494,-2.2269721031188965,-0.3946771025657654
1772810161916316400,2.87931640625,-7.60660457611084,-2.51417875289917,-0.41567593812942505
1772810161926016500,2.8890166015625,-7.5871429443359375,-2.795839786529541,-0.4654845595359802
1772810161935716900,2.898716796875,-7.486886024475098,-3.018939971923828,-0.5243355631828308
1772810161945417200,2.908417236328125,-7.314894676208496,-3.163963794708252,-0.5879174470901489
1772810161955117600,2.91811767578125,-7.0197343826293945,-3.254176139831543,-0.644925057888031
1772810161964817700,2.927817626953125,-6.593749523162842,-3.3512134552001953,-0.6873660683631897
1772810161974518000,2.93751806640625,-6.024932861328125,-3.4993083477020264,-0.6833729147911072
1772810161984218000,2.947218017578125,-5.357552528381348,-3.678692579269409,-0.5474771857261658
1772810161993918500,2.95691845703125,-4.536919593811035,-3.816201686859131,-0.26549336314201355
1772810162003618800,2.966618896484375,-3.3443970680236816,-3.860363483428955,0.10397511720657349
1772810162013319000,2.97631884765625,-1.88740873336792,-3.6526565551757812,0.44619250297546387
1772810162023019300,2.986019287109375,-0.6988329887390137,-3.013965129852295,0.6902748346328735
1772810162032719600,2.9957197265625,0.1642446517944336,-1.8950376510620117,0.8666918873786926
1772810162042419700,3.005419677734375,0.9845466613769531,-0.33596038818359375,0.8328565359115601
1772810162052120000,3.0151201171875,1.927696704864502,1.6246485710144043,0.4633634686470032
1772810162061820400,3.0248203125,3.230997085571289,3.8316965103149414,-0.07636299729347229
1772810162071520800,3.034520751953125,5.464763641357422,5.7313103675842285,-0.6209746599197388
1772810162081220900,3.044220947265625,8.698861122131348,6.563155651092529,-0.7950485348701477
1772810162090921200,3.053921142578125,12.7332181930542,6.488888263702393,-0.4784145951271057
1772810162100621300,3.063621337890625,17.17101287841797,6.124413967132568,0.1457163691520691
1772810162110321700,3.07332177734375,21.17998504638672,5.629971027374268,0.9362643957138062
1772810162120022000,3.08302197265625,23.91350555419922,5.179737091064453,1.7268006801605225
1772810162129722000,3.09272216796875,25.001953125,5.1602373123168945,2.270057201385498
1772810162139422500,3.10242236328125,24.436599731445312,5.604518413543701,2.492556095123291
1772810162149122800,3.112122802734375,22.593746185302734,6.151501178741455,2.5046231746673584
1772810162158823200,3.1218232421875,19.998180389404297,6.621471881866455,2.4108381271362305
1772810162168523300,3.131523193359375,17.021427154541016,6.9167633056640625,2.3138179779052734
1772810162178223600,3.1412236328125,13.894183158874512,6.924310207366943,2.2130002975463867
1772810162187924000,3.150924072265625,10.820353507995605,6.607177257537842,2.0503954887390137
1772810162197624000,3.1606240234375,7.899016857147217,6.014380931854248,1.751594066619873
1772810162207324400,3.170324462890625,5.181817531585693,5.262362957000732,1.293287992477417
1772810162217024800,3.180024658203125,2.7312402725219727,4.359243392944336,0.7434583306312561
1772810162226724900,3.189724853515625,0.5369038581848145,3.324883460998535,0.19686591625213623
1772810162236425200,3.19942529296875,-1.4151439666748047,2.217601776123047,-0.3635823130607605
1772810162246125600,3.20912548828125,-2.89467191696167,0.9796628952026367,-0.8869346380233765
1772810162255825700,3.21882568359375,-3.657897472381592,-0.4036865234375,-1.2550541162490845
1772810162265526000,3.228526123046875,-3.803746223449707,-1.8116240501403809,-1.3930295705795288
1772810162275226400,3.238226318359375,-3.7627382278442383,-3.125709056854248,-1.3325399160385132
1772810162284926700,3.2479267578125,-3.811553955078125,-4.263350963592529,-1.1163811683654785
1772810162294626800,3.257626708984375,-4.079776763916016,-5.197564125061035,-0.8264265060424805
1772810162304327200,3.2673271484375,-4.561770439147949,-5.927433967590332,-0.5361602306365967
1772810162314027500,3.277027587890625,-5.208393573760986,-6.433507442474365,-0.3235040307044983
1772810162323727600,3.2867275390625,-5.952997207641602,-6.733434677124023,-0.157551109790802
1772810162333428000,3.296427978515625,-6.72145938873291,-6.904043197631836,0.034063637256622314
1772810162343128000,3.306128173828125,-7.505270957946777,-6.981400012969971,0.2418929934501648
1772810162352828400,3.315828369140625,-8.21651840209961,-6.978395462036133,0.44823408126831055
1772810162362528800,3.32552880859375,-8.801794052124023,-6.942630767822266,0.6419590711593628
1772810162372229000,3.33522900390625,-9.21351146697998,-6.875973701477051,0.8193349838256836
1772810162381929200,3.34492919921875,-9.460430145263672,-6.7901763916015625,0.9512209296226501
1772810162391629600,3.354629638671875,-9.505936622619629,-6.6982574462890625,1.0329413414001465
1772810162401330000,3.364329833984375,-9.360016822814941,-6.552166938781738,1.1110807657241821
1772810162411030000,3.374030029296875,-9.164527893066406,-6.649418354034424,1.0638394355773926
1772810162420730400,3.38373046875,-8.914007186889648,-6.844578266143799,1.0335769653320312
1772810162430430700,3.3934306640625,-8.52523422241211,-6.931789398193359,0.9219059348106384
1772810162440130800,3.403130859375,-8.119352340698242,-6.965304374694824,0.7487119436264038
1772810162449831200,3.4128310546875,-7.692193031311035,-7.026111125946045,0.6394816637039185
1772810162459531500,3.422531494140625,-7.192664623260498,-7.074512004852295,0.5984125137329102
1772810162469231600,3.432231689453125,-6.623376846313477,-7.055185317993164,0.6491360068321228
1772810162478932000,3.441931884765625,-6.064507961273193,-6.98561954498291,0.7436028122901917
1772810162488632300,3.45163232421875,-5.5725274085998535,-6.906921863555908,0.8335654735565186
1772810162498332700,3.461332763671875,-5.059951305389404,-6.803415298461914,0.8935463428497314
1772810162508032800,3.47103271484375,-4.457639694213867,-6.626739501953125,0.8780168294906616
1772810162517733000,3.480733154296875,-3.8326144218444824,-6.297651290893555,0.7210732102394104
1772810162527433500,3.49043359375,-3.2183265686035156,-5.74095344543457,0.43998149037361145
1772810162537133600,3.500133544921875,-2.693817615509033,-4.854912757873535,0.04009586572647095
1772810162546834000,3.509833984375,-2.2770566940307617,-3.647639274597168,-0.3535938560962677
1772810162556534000,3.519533935546875,-1.8673691749572754,-2.3328189849853516,-0.527462363243103
1772810162566234400,3.529234375,-1.3179163932800293,-1.2290229797363281,-0.41842153668403625
1772810162575934700,3.538934814453125,-0.7394051551818848,-0.3969693183898926,-0.14105814695358276
1772810162585634800,3.548634765625,-0.22828102111816406,0.32181262969970703,0.14227509498596191
1772810162595335200,3.558335205078125,0.5094404220581055,1.0165562629699707,0.28288519382476807
1772810162605035500,3.568035400390625,1.506727695465088,1.708676815032959,0.2897787094116211
1772810162614736000,3.57773583984375,2.4815173149108887,2.4783759117126465,0.22157369554042816
1772810162624436000,3.58743603515625,3.4731569290161133,3.1108202934265137,0.17789970338344574
1772810162634136300,3.59713623046875,4.2727861404418945,3.727078914642334,0.26088201999664307
1772810162643836700,3.606836669921875,4.758749008178711,4.470522403717041,0.41153523325920105
1772810162653536800,3.616536865234375,5.115712642669678,5.21116828918457,0.4397684931755066
1772810162663237000,3.626237060546875,5.344702243804932,5.891014099121094,0.3016625940799713
1772810162672937200,3.635937255859375,5.522493362426758,6.309504508972168,0.17835941910743713
1772810162682637600,3.645637451171875,5.84251070022583,6.300114631652832,0.2602076530456543
1772810162692338000,3.655337890625,6.278757095336914,5.959249019622803,0.6056876182556152
1772810162702038300,3.665038330078125,6.718001842498779,5.414313316345215,1.16214919090271
1772810162711738400,3.67473828125,7.000035285949707,4.804264545440674,1.7273342609405518
1772810162721438700,3.684438720703125,6.941365718841553,4.270997047424316,2.053645610809326
1772810162731139000,3.69413916015625,6.467744827270508,3.8908371925354004,2.0294742584228516
1772810162740839200,3.703839111328125,5.708418846130371,3.553225517272949,1.7594159841537476
1772810162750539500,3.71353955078125,4.821782112121582,3.204183578491211,1.3807826042175293
1772810162760239900,3.723239990234375,3.9334206581115723,2.770998954772949,1.0182245969772339
1772810162769940000,3.73293994140625,3.1322102546691895,2.230721950531006,0.7567161321640015
1772810162779640300,3.742640380859375,2.38277530670166,1.6249051094055176,0.5725682973861694
1772810162789340700,3.752340576171875,1.6141481399536133,1.0044441223144531,0.46610382199287415
1772810162799040800,3.762040771484375,0.80084228515625,0.3973965644836426,0.40593093633651733
1772810162808741000,3.7717412109375,-0.03151082992553711,-0.18236017227172852,0.35352206230163574
1772810162818441500,3.78144140625,-0.7036409378051758,-0.7885041236877441,0.30046865344047546
1772810162828141800,3.791141845703125,-1.167858600616455,-1.3933744430541992,0.2593860924243927
1772810162837842000,3.800842041015625,-1.528709888458252,-1.8973774909973145,0.21583229303359985
1772810162847542300,3.810542236328125,-1.862401008605957,-2.308274269104004,0.1519278883934021
1772810162857242400,3.820242431640625,-2.228344440460205,-2.638850212097168,0.0907016396522522
1772810162866942700,3.829942626953125,-2.6494507789611816,-2.8288369178771973,0.031651973724365234
1772810162876643000,3.83964306640625,-3.1392388343811035,-2.874199390411377,-0.031315505504608154
1772810162886343200,3.84934326171875,-3.6945533752441406,-2.8221850395202637,-0.1137009859085083
1772810162896043500,3.85904345703125,-4.261254787445068,-2.706674098968506,-0.2153325080871582
1772810162905744000,3.868743896484375,-4.783193588256836,-2.590033531188965,-0.31587666273117065
1772810162915444200,3.8784443359375,-5.244949817657471,-2.5015416145324707,-0.3626479506492615
1772810162925144300,3.888144287109375,-5.6069464683532715,-2.4675378799438477,-0.35707080364227295
1772810162934844700,3.8978447265625,-5.841062545776367,-2.5083632469177246,-0.2834639549255371
1772810162944545000,3.907544921875,-5.9484052658081055,-2.645848274230957,-0.1515955924987793
1772810162954245000,3.9172451171875,-5.810012340545654,-2.911576747894287,0.031705498695373535
1772810162963945500,3.926945556640625,-5.502262115478516,-3.1956396102905273,0.20678699016571045
1772810162973645600,3.9366455078125,-5.145541191101074,-3.4177908897399902,0.3608524799346924
1772810162983346000,3.946345947265625,-4.824233055114746,-3.5430121421813965,0.51615309715271
1772810162993046300,3.95604638671875,-4.595391750335693,-3.5964033603668213,0.626069188117981
1772810163002746600,3.96574658203125,-4.453766822814941,-3.6107091903686523,0.7172654271125793
1772810163012446700,3.97544677734375,-4.359904766082764,-3.589649200439453,0.7733046412467957
1772810163022147000,3.98514697265625,-4.252420902252197,-3.570565700531006,0.74017333984375
1772810163031847400,3.994847412109375,-4.143339157104492,-3.5201869010925293,0.6275587677955627
1772810163041547500,4.004547607421875,-4.060420989990234,-3.4523348808288574,0.5053051710128784
1772810163051247900,4.014247802734375,-3.9566872119903564,-3.392226457595825,0.39528876543045044
1772810163060948200,4.0239482421875,-3.6797871589660645,-3.3358399868011475,0.30338263511657715
1772810163070648300,4.0336484375,-3.105994462966919,-3.2198710441589355,0.23377883434295654
1772810163080348700,4.0433486328125,-2.042962074279785,-3.045522451400757,0.20718121528625488
1772810163090049000,4.053049072265625,-0.4727768898010254,-2.5602383613586426,0.13759422302246094
1772810163099749000,4.0627490234375,1.4394111633300781,-1.5525727272033691,0.013959169387817383
1772810163109449500,4.072449462890625,3.6816086769104004,-0.040715694427490234,-0.14883887767791748
1772810163119149800,4.08214990234375,5.9591264724731445,1.8331828117370605,-0.2651926279067993
1772810163128850000,4.091849853515625,7.940584182739258,3.7083420753479004,-0.10519444942474365
1772810163138550300,4.10155029296875,9.623563766479492,5.418081283569336,0.24900925159454346
1772810163148250600,4.111250732421875,11.056428909301758,6.8979387283325195,0.471366286277771
1772810163157950700,4.12095068359375,12.202714920043945,8.211661338806152,0.3123966455459595
1772810163167651000,4.130651123046875,12.968892097473145,9.516267776489258,-0.3261970281600952
1772810163177351400,4.140351318359375,13.376543998718262,10.677072525024414,-1.4180781841278076
1772810163187051500,4.150051513671875,13.705181121826172,11.721271514892578,-2.770915985107422
1772810163196752000,4.159751953125,14.372003555297852,12.528417587280273,-3.9846551418304443
1772810163206452200,4.1694521484375,15.255556106567383,12.995357513427734,-4.777403354644775
1772810163216152300,4.17915234375,15.834199905395508,13.023946762084961,-5.05036735534668
1772810163225852700,4.188852783203125,15.63244342803955,12.688262939453125,-4.972725868225098
1772810163235553000,4.198552978515625,14.446866989135742,12.234598159790039,-4.852599620819092
1772810163245253000,4.208253173828125,12.437400817871094,11.735940933227539,-4.612411022186279
1772810163254953500,4.217953369140625,9.97198486328125,11.234432220458984,-4.172752857208252
1772810163264653800,4.22765380859375,7.608151435852051,10.66715145111084,-3.612513542175293
1772810163274354000,4.23735400390625,5.711433410644531,9.748309135437012,-3.0297060012817383
1772810163284054300,4.24705419921875,4.368227005004883,8.419678688049316,-2.5333564281463623
1772810163293754600,4.256754638671875,3.4196581840515137,6.726673126220703,-2.176881790161133
1772810163303454700,4.266454833984375,2.6063504219055176,4.763761520385742,-1.9135648012161255
1772810163313155000,4.276155029296875,1.7851314544677734,2.6893959045410156,-1.6093509197235107
1772810163322855400,4.28585546875,0.8965950012207031,0.6961994171142578,-1.1544253826141357
1772810163332555800,4.2955556640625,-0.09275579452514648,-1.0831050872802734,-0.5416359901428223
1772810163342255900,4.305255859375,-1.1341161727905273,-2.727327346801758,0.21311402320861816
1772810163351956200,4.314956298828125,-2.120392084121704,-4.298928260803223,1.045893907546997
1772810163361656300,4.32465625,-2.9886398315429688,-5.709208011627197,1.794217586517334
1772810163371356700,4.334356689453125,-3.699733257293701,-6.919380187988281,2.36506724357605
1772810163381057000,4.34405712890625,-4.195484638214111,-7.9182329177856445,2.7106003761291504
1772810163390757000,4.353757080078125,-4.512435436248779,-8.679666519165039,2.853186845779419
1772810163400457500,4.36345751953125,-4.747605800628662,-9.22655963897705,2.8104348182678223
1772810163410157800,4.37315771484375,-5.005613327026367,-9.638324737548828,2.6194822788238525
1772810163419858200,4.382858154296875,-5.248383522033691,-9.8628511428833,2.3480756282806396
1772810163429558300,4.392558349609375,-5.484435081481934,-9.936235427856445,2.053475856781006
1772810163439258600,4.402258544921875,-5.721466064453125,-9.968900680541992,1.7927513122558594
1772810163448958700,4.411958740234375,-5.902896404266357,-9.996675491333008,1.610866665840149
1772810163458659000,4.4216591796875,-6.047638416290283,-9.9884033203125,1.5231761932373047
1772810163468359400,4.431359375,-6.13090705871582,-9.945382118225098,1.540038824081421
1772810163478059500,4.4410595703125,-6.13089656829834,-9.904088973999023,1.6439564228057861
1772810163487760000,4.450759765625,-6.032549858093262,-9.86616325378418,1.7329094409942627
1772810163497460200,4.460460205078125,-5.80594539642334,-9.793269157409668,1.7420612573623657
1772810163507160600,4.47016064453125,-5.49967098236084,-9.72294807434082,1.6607894897460938
1772810163516860700,4.479860595703125,-5.160171985626221,-9.682170867919922,1.4720875024795532
1772810163526561000,4.48956103515625,-4.806354522705078,-9.664692878723145,1.2216161489486694
1772810163536261400,4.499261474609375,-4.435634136199951,-9.69400405883789,0.9697195887565613
1772810163545961500,4.50896142578125,-4.106123924255371,-9.729108810424805,0.732512354850769
1772810163555661800,4.518661865234375,-3.82246732711792,-9.742814064025879,0.5655436515808105
1772810163565362000,4.52836181640625,-3.526496171951294,-9.715414047241211,0.517605721950531
1772810163575062300,4.538062255859375,-3.234694004058838,-9.641321182250977,0.554295539855957
1772810163584762600,4.5477626953125,-3.0091748237609863,-9.491046905517578,0.6170786023139954
1772810163594463000,4.557462890625,-2.8934545516967773,-9.282452583312988,0.6942824721336365
1772810163604163000,4.5671630859375,-2.9186007976531982,-9.049762725830078,0.7555559873580933
1772810163613863400,4.576863525390625,-3.018054485321045,-8.719127655029297,0.7745405435562134
1772810163623563800,4.586563720703125,-3.1128334999084473,-8.23105525970459,0.6888549327850342
1772810163633263900,4.596263916015625,-3.0142199993133545,-7.596160888671875,0.4915260970592499
1772810163642964200,4.605964111328125,-2.6565585136413574,-6.730805397033691,0.16768324375152588
1772810163652664300,4.615664306640625,-2.1704704761505127,-5.527954578399658,-0.2441866397857666
1772810163662364700,4.62536474609375,-1.5076229572296143,-4.058010578155518,-0.5650959610939026
1772810163672065000,4.63506494140625,-0.6078531742095947,-2.561143398284912,-0.7410740256309509
1772810163681765400,4.644765380859375,0.3496861457824707,-1.2315998077392578,-0.6950661540031433
1772810163691465500,4.654465576171875,1.121842861175537,-0.13757705688476562,-0.492497980594635
1772810163701165800,4.664165771484375,1.7014636993408203,0.7816534042358398,-0.4229412078857422
1772810163710866200,4.6738662109375,2.1974477767944336,1.7079954147338867,-0.6759612560272217
1772810163720566300,4.683566162109375,2.5604171752929688,2.706690788269043,-1.1445512771606445
1772810163730266600,4.6932666015625,2.6754913330078125,3.9299402236938477,-1.5593230724334717
1772810163739966700,4.702966796875,2.6254734992980957,5.296445846557617,-1.7526400089263916
1772810163749667000,4.7126669921875,2.4814648628234863,7.000829696655273,-1.9610869884490967
1772810163759367400,4.722367431640625,2.2947182655334473,9.425408363342285,-2.4432146549224854
1772810163769067800,4.73206787109375,2.3279218673706055,12.186549186706543,-3.159773588180542
1772810163778768000,4.741767822265625,2.91740083694458,14.072150230407715,-3.521988868713379
1772810163788468200,4.75146826171875,4.105264663696289,14.593549728393555,-3.1650876998901367
1772810163798168600,4.76116845703125,5.70789098739624,13.993428230285645,-2.1620099544525146
1772810163807868700,4.77086865234375,7.4734978675842285,12.579723358154297,-0.877512514591217
1772810163817569000,4.780569091796875,8.909402847290039,10.886040687561035,0.17234709858894348
1772810163827269400,4.790269287109375,9.641178131103516,9.406628608703613,0.6283062100410461
1772810163836969500,4.799969482421875,9.690553665161133,8.227482795715332,0.43308043479919434
1772810163846669800,4.809669921875,9.276015281677246,7.250362396240234,-0.20697170495986938
1772810163856370200,4.8193701171875,8.620903968811035,6.325520992279053,-0.9621431231498718
1772810163866070300,4.8290703125,7.788583278656006,5.34173583984375,-1.5427836179733276
1772810163875770600,4.8387705078125,6.759051322937012,4.2796950340271,-1.7674859762191772
1772810163885471000,4.848470947265625,5.483397960662842,3.228147029876709,-1.690673828125
1772810163895171000,4.858171142578125,3.9316835403442383,2.222714900970459,-1.4509401321411133
1772810163904871400,4.867871337890625,2.1679892539978027,1.3288564682006836,-1.153762698173523
1772810163914571800,4.87757177734375,0.36609315872192383,0.5540533065795898,-0.8649078011512756
1772810163924271900,4.88727197265625,-1.333153247833252,-0.23801183700561523,-0.5800641775131226
1772810163933972200,4.89697216796875,-2.7743940353393555,-1.0508527755737305,-0.3289608657360077
1772810163943672300,4.90667236328125,-3.860759973526001,-1.8352704048156738,-0.15330296754837036
1772810163953372700,4.91637255859375,-4.623201847076416,-2.576322555541992,0.009115666151046753
1772810163963073000,4.926072998046875,-5.137481212615967,-3.2307686805725098,0.13440772891044617
1772810163972773400,4.9357734375,-5.485456943511963,-3.7291030883789062,0.1860843002796173
1772810163982473500,4.945473388671875,-5.73021125793457,-4.0614914894104,0.13225919008255005
1772810163992173800,4.955173828125,-5.886068344116211,-4.294529438018799,0.007496058940887451
1772810164001874200,4.964874267578125,-5.998903751373291,-4.484208583831787,-0.16103821992874146
1772810164011574300,4.97457421875,-6.112637519836426,-4.646327018737793,-0.35516566038131714
1772810164021274600,4.984274658203125,-6.182546138763428,-4.825362205505371,-0.5231581926345825
1772810164030974700,4.993974609375,-6.228800296783447,-5.018558979034424,-0.6413648128509521
1772810164040675000,5.003675048828125,-6.2608866691589355,-5.199254989624023,-0.7274865508079529
1772810164050375400,5.01337548828125,-6.292511940002441,-5.318947792053223,-0.7731977701187134
1772810164060075800,5.02307568359375,-6.319029808044434,-5.3811116218566895,-0.7908048033714294
1772810164069776000,5.03277587890625,-6.391346454620361,-5.4235029220581055,-0.7940497398376465
1772810164079476200,5.042476318359375,-6.486450672149658,-5.4744720458984375,-0.7768841981887817
1772810164089176600,5.052176513671875,-6.567981719970703,-5.55631160736084,-0.7358412146568298
1772810164098876700,5.061876708984375,-6.698177337646484,-5.62227725982666,-0.7061773538589478
1772810164108577000,5.071576904296875,-6.898637771606445,-5.668861389160156,-0.6724808216094971
1772810164118277000,5.081277099609375,-7.059534549713135,-5.761973857879639,-0.6282755136489868
1772810164127977500,5.0909775390625,-7.071771144866943,-5.849537372589111,-0.5956410765647888
1772810164137677800,5.100677734375,-6.841182231903076,-5.757424354553223,-0.5950253009796143
1772810164147378200,5.110378173828125,-6.23120641708374,-5.482076644897461,-0.542971670627594
1772810164157078300,5.120078369140625,-4.977153301239014,-5.111288070678711,-0.352089524269104
1772810164166778600,5.129778564453125,-3.2746782302856445,-4.503403663635254,-0.1004343032836914
1772810164176479000,5.13947900390625,-1.5601134300231934,-3.570678949356079,0.22465664148330688
1772810164186179000,5.149178955078125,-0.1653575897216797,-2.23867130279541,0.5584114193916321
1772810164195879400,5.15887939453125,0.8245925903320312,-0.21078109741210938,0.7080607414245605
1772810164205579500,5.16857958984375,1.8289966583251953,2.75791072845459,0.27955979108810425
1772810164215279900,5.17827978515625,3.1433939933776855,6.75322961807251,-0.9978312849998474
1772810164224980200,5.187980224609375,5.384375095367432,11.125608444213867,-2.651029348373413
1772810164234680600,5.1976806640625,9.354677200317383,14.431498527526855,-3.8517913818359375
1772810164244380700,5.207380615234375,15.53753662109375,16.24375343322754,-3.743025302886963
1772810164254081000,5.2170810546875,22.818302154541016,16.661664962768555,-1.8365448713302612
1772810164263781400,5.226781494140625,28.963844299316406,16.333572387695312,1.3001514673233032
1772810164273481500,5.2364814453125,32.09955978393555,15.767406463623047,4.7423553466796875
1772810164283181800,5.246181884765625,32.30162048339844,15.41806697845459,7.154439449310303
1772810164292882000,5.2558818359375,30.049827575683594,15.325578689575195,7.838220119476318
1772810164302582300,5.265582275390625,26.0687255859375,15.271760940551758,6.720103740692139
1772810164312282600,5.27528271484375,21.330791473388672,14.972251892089844,4.425009250640869
1772810164321983000,5.28498291015625,16.400135040283203,14.281164169311523,1.7388614416122437
1772810164331683000,5.29468310546875,11.622602462768555,13.10590648651123,-0.6528961658477783
1772810164341383400,5.304383544921875,7.0381879806518555,11.095606803894043,-2.2773633003234863
1772810164351083800,5.314083740234375,2.845101833343506,10.316282272338867,-3.8678488731384277
1772810164360784000,5.323783935546875,-1.1002416610717773,9.481541633605957,-4.931079387664795
1772810164370484200,5.333484130859375,-3.429591655731201,7.462552070617676,-5.122027397155762
1772810164380184300,5.343184326171875,-3.7251977920532227,4.80312442779541,-4.818668365478516
1772810164389884700,5.352884765625,-3.2595176696777344,2.3075056076049805,-4.3423237800598145
1772810164399585000,5.3625849609375,-2.674355983734131,0.01311492919921875,-3.5231637954711914
1772810164409285400,5.372285400390625,-2.123957872390747,-2.237429618835449,-2.3944449424743652
1772810164418985500,5.3819853515625,-1.75203275680542,-4.290524482727051,-1.1641552448272705
1772810164428685800,5.391685791015625,-1.7395405769348145,-5.983551025390625,0.006532788276672363
1772810164438386200,5.40138623046875,-2.2450222969055176,-7.356990814208984,1.0156594514846802
1772810164448086300,5.411086181640625,-3.173764228820801,-8.383550643920898,1.7209062576293945
1772810164457786600,5.42078662109375,-4.293187618255615,-9.056804656982422,2.128117561340332
1772810164467486700,5.43048681640625,-5.426738739013672,-9.430599212646484,2.3620786666870117
1772810164477187000,5.44018701171875,-6.457274913787842,-9.62314224243164,2.474168062210083
1772810164486887400,5.449887451171875,-7.1753387451171875,-9.702869415283203,2.382429599761963
1772810164496587800,5.459587890625,-7.5277509689331055,-9.991532325744629,2.2581889629364014
1772810164506287900,5.469287841796875,-7.61663293838501,-10.437679290771484,2.124297857284546
1772810164515988200,5.47898828125,-7.520380020141602,-10.759598731994629,1.9171509742736816
1772810164525688600,5.4886884765625,-7.312119483947754,-10.889142036437988,1.6555129289627075
1772810164535388700,5.498388671875,-7.028445243835449,-11.038313865661621,1.3985987901687622
1772810164545089000,5.508089111328125,-6.695501327514648,-11.22860336303711,1.1451560258865356
1772810164554789000,5.5177890625,-6.35746431350708,-11.390366554260254,0.9410067200660706
1772810164564489500,5.527489501953125,-6.011795997619629,-11.52854061126709,0.9214946031570435
1772810164574189800,5.53718994140625,-5.618344306945801,-11.596366882324219,0.9937562942504883
1772810164583890000,5.546889892578125,-5.174663543701172,-11.574069023132324,1.0095094442367554
1772810164593590300,5.55659033203125,-4.780938625335693,-11.517313003540039,0.9890247583389282
1772810164603290600,5.56629052734375,-4.44856071472168,-11.532501220703125,0.9138413667678833
1772810164612991000,5.575990966796875,-4.139244079589844,-11.634136199951172,0.7714484930038452
1772810164622691000,5.585691162109375,-3.911174774169922,-11.864261627197266,0.6051397323608398
1772810164632391400,5.595391357421875,-3.7430765628814697,-12.092228889465332,0.3692523241043091
1772810164642091500,5.605091552734375,-3.485590934753418,-12.210817337036133,0.17637529969215393
1772810164651792000,5.6147919921875,-3.058161735534668,-12.23952579498291,0.08530578017234802
1772810164661492200,5.6244921875,-2.5738914012908936,-12.251138687133789,0.07806023955345154
1772810164671192300,5.6341923828125,-2.1556239128112793,-12.281213760375977,0.1775532364845276
1772810164680892700,5.643892578125,-1.755131721496582,-12.331052780151367,0.3775441646575928
1772810164690593000,5.653593017578125,-1.304260492324829,-12.411359786987305,0.5951349139213562
1772810164700293000,5.663293212890625,-0.8356469869613647,-12.495503425598145,0.764120876789093
1772810164709993500,5.672993408203125,-0.44489526748657227,-12.553141593933105,0.8653556108474731
1772810164719693800,5.68269384765625,-0.2226707935333252,-12.525766372680664,0.9278872609138489
1772810164729394000,5.692393798828125,-0.23601949214935303,-12.392013549804688,0.9601283073425293
1772810164739094300,5.70209423828125,-0.4340355396270752,-12.159093856811523,0.978615939617157
1772810164748794600,5.711794677734375,-0.6761109828948975,-11.853307723999023,0.9312564134597778
1772810164758494700,5.72149462890625,-0.954392671585083,-11.543832778930664,0.8320863246917725
1772810164768195000,5.731195068359375,-1.2515753507614136,-11.198240280151367,0.7044755220413208
1772810164777895400,5.7408955078125,-1.7096741199493408,-10.708978652954102,0.6378237009048462
1772810164787595500,5.750595458984375,-2.3101022243499756,-10.02621078491211,0.621133029460907
1772810164797295900,5.7602958984375,-2.813878297805786,-9.215409278869629,0.3868388533592224
1772810164806996000,5.769995849609375,-3.0404107570648193,-8.15340805053711,-0.1694185733795166
1772810164816696300,5.7796962890625,-2.9200148582458496,-6.602176189422607,-1.0239152908325195
1772810164826396700,5.789396728515625,-2.5507869720458984,-4.779419898986816,-1.8571109771728516
1772810164836097000,5.799096923828125,-1.8367578983306885,-3.652071952819824,-2.1466217041015625
1772810164845797000,5.808797119140625,-0.5439960956573486,-2.417736053466797,-2.163066864013672
1772810164855497500,5.81849755859375,1.4886298179626465,-0.02014780044555664,-2.2166521549224854
1772810164865197800,5.82819775390625,4.358369827270508,3.5390586853027344,-1.9487422704696655
1772810164874898000,5.83789794921875,8.05814266204834,7.738246917724609,-1.070267677307129
1772810164884598300,5.847598388671875,12.322271347045898,11.950946807861328,0.17795729637145996
1772810164894298400,5.85729833984375,16.907821655273438,16.345964431762695,1.3206167221069336
1772810164903998700,5.866998779296875,20.971940994262695,20.445030212402344,2.249422550201416
1772810164913699000,5.876698974609375,24.024757385253906,23.596275329589844,2.751708745956421
1772810164923399400,5.8863994140625,26.102405548095703,25.726255416870117,2.6402170658111572
1772810164933099500,5.896099609375,27.624849319458008,26.723417282104492,2.2381837368011475
1772810164942800000,5.9057998046875,28.56719970703125,26.309837341308594,2.158877372741699
1772810164952500200,5.915500244140625,28.921375274658203,24.59334373474121,2.698775291442871
1772810164962200300,5.925200439453125,28.408363342285156,22.051219940185547,3.591559410095215
1772810164971900700,5.934900634765625,26.482349395751953,19.213687896728516,4.538901329040527
1772810164981600800,5.944600830078125,23.040254592895508,16.39518928527832,5.421869277954102
1772810164991301000,5.954301025390625,18.49245834350586,13.729021072387695,6.069919586181641
1772810165001001500,5.96400146484375,13.418764114379883,11.202088356018066,6.29954719543457
1772810165010701800,5.973701904296875,8.495039939880371,8.774394989013672,6.041176795959473
1772810165020402000,5.98340185546875,4.2683424949646,6.394786357879639,5.368534088134766
1772810165030102300,5.993102294921875,1.0831990242004395,4.051830291748047,4.450425624847412
1772810165039802400,6.00280224609375,-1.1729040145874023,1.8003559112548828,3.4659509658813477
1772810165049502700,6.012502685546875,-2.702914237976074,-0.3407602310180664,2.5146777629852295
1772810165059203000,6.022203125,-3.607880115509033,-2.4639668464660645,1.6652309894561768
1772810165068903200,6.031903076171875,-3.9717721939086914,-4.5109381675720215,0.9654900431632996
1772810165078603500,6.041603515625,-4.11026668548584,-6.413905620574951,0.3739784359931946
1772810165088303900,6.051303955078125,-4.283109664916992,-8.090290069580078,-0.060054711997509
1772810165098004200,6.061004150390625,-4.6182756423950195,-9.409162521362305,-0.3200162351131439
1772810165107704300,6.070704345703125,-5.166684150695801,-10.306742668151855,-0.4715433120727539
1772810165117404700,6.08040478515625,-5.941477298736572,-10.820959091186523,-0.601608395576477
1772810165127104800,6.090104736328125,-6.706775665283203,-11.054428100585938,-0.7710534334182739
1772810165136805000,6.09980517578125,-7.320648193359375,-11.108802795410156,-0.9569522142410278
1772810165146505500,6.10950537109375,-7.6756510734558105,-11.033308982849121,-1.1112624406814575
1772810165156205600,6.11920556640625,-7.774436950683594,-10.921791076660156,-1.1850955486297607
1772810165165906000,6.128906005859375,-7.694738388061523,-10.805749893188477,-1.145677089691162
1772810165175606300,6.138606201171875,-7.518146514892578,-10.631284713745117,-1.0464081764221191
1772810165185306400,6.148306396484375,-7.247919082641602,-10.406173706054688,-0.8774373531341553
1772810165195006700,6.1580068359375,-6.947347640991211,-10.20283031463623,-0.6652045249938965
1772810165204707000,6.16770703125,-6.632905006408691,-9.990772247314453,-0.4487835168838501
1772810165214407200,6.1774072265625,-6.264813423156738,-9.765096664428711,-0.24327120184898376
1772810165224107500,6.187107421875,-5.797921657562256,-9.555100440979004,-0.09861555695533752
1772810165233808000,6.196807861328125,-5.193632125854492,-9.302574157714844,-0.05143153667449951
1772810165243508000,6.206508056640625,-4.542017459869385,-8.903412818908691,-0.14480426907539368
1772810165253208300,6.216208251953125,-3.909778594970703,-8.323823928833008,-0.2819937765598297
1772810165262908700,6.22590869140625,-3.2020821571350098,-7.566809177398682,-0.3806731402873993
1772810165272608800,6.23560888671875,-2.359226942062378,-6.526111602783203,-0.4856151044368744
1772810165282309000,6.24530908203125,-1.335571050643921,-5.102393627166748,-0.6385818719863892
1772810165292009200,6.25500927734375,-0.13011598587036133,-3.2295703887939453,-0.8317651748657227
1772810165301709600,6.26470947265625,1.1409454345703125,-0.9672532081604004,-1.0404901504516602
1772810165311410000,6.274409912109375,2.225043773651123,1.6961212158203125,-1.3283112049102783
1772810165321110300,6.2841103515625,3.248566150665283,4.797861099243164,-1.7843596935272217
1772810165330810400,6.293810302734375,4.323012828826904,8.267532348632812,-2.3836493492126465
1772810165340510700,6.3035107421875,5.4376654624938965,11.975936889648438,-3.0577971935272217
1772810165350211000,6.313211181640625,7.1226983070373535,15.109589576721191,-3.4768943786621094
1772810165359911200,6.3229111328125,9.537910461425781,16.99114990234375,-3.279177188873291
1772810165369611500,6.332611572265625,12.124279022216797,17.893138885498047,-2.292668104171753
1772810165379311600,6.3423115234375,14.46756649017334,18.07220458984375,-0.7424184083938599
1772810165389012000,6.352011962890625,16.159866333007812,18.02426528930664,0.972609281539917
1772810165398712300,6.36171240234375,16.921236038208008,17.897796630859375,2.605114459991455
1772810165408412700,6.37141259765625,16.75841522216797,17.66814422607422,3.831775188446045
1772810165418112800,6.38111279296875,15.800058364868164,17.39659881591797,4.316412448883057
1772810165427813000,6.390813232421875,14.225004196166992,16.998424530029297,4.123530387878418
1772810165437513200,6.40051318359375,12.17970085144043,16.23488998413086,3.426016330718994
1772810165447213600,6.410213623046875,9.839284896850586,15.040741920471191,2.3924238681793213
1772810165456914000,6.419913818359375,7.282898426055908,13.372808456420898,1.1811563968658447
1772810165466614000,6.429614013671875,4.844810485839844,11.363446235656738,0.0217912495136261
1772810165476314400,6.439314453125,2.8683788776397705,9.099944114685059,-1.0167484283447266
1772810165486014700,6.4490146484375,1.6654763221740723,6.6294450759887695,-1.825797438621521
1772810165495714800,6.45871484375,1.3360068798065186,4.069466590881348,-2.2117602825164795
1772810165505415200,6.468415283203125,1.7667109966278076,1.4999847412109375,-2.0102005004882812
1772810165515115500,6.478115478515625,2.3921597003936768,-1.0586395263671875,-1.2215328216552734
1772810165524815600,6.487815673828125,2.7784290313720703,-3.5458426475524902,-0.00565415620803833
1772810165534516000,6.497515869140625,2.8459136486053467,-5.842919826507568,1.4078015089035034
1772810165544216300,6.50721630859375,2.445772647857666,-7.845912933349609,2.7640414237976074
1772810165553916400,6.51691650390625,1.5327301025390625,-9.400785446166992,3.765964984893799
1772810165563616800,6.52661669921875,0.33962059020996094,-10.547015190124512,4.2172932624816895
1772810165573317000,6.536317138671875,-1.0095999240875244,-11.345307350158691,4.177440643310547
1772810165583017200,6.546017333984375,-2.4071998596191406,-11.822846412658691,3.7549076080322266
1772810165592717600,6.555717529296875,-3.5998759269714355,-11.991467475891113,3.1050033569335938
1772810165602417700,6.565417724609375,-4.532829761505127,-11.988964080810547,2.4803028106689453
1772810165612118000,6.575117919921875,-5.207556247711182,-11.936128616333008,2.062453269958496
1772810165621818400,6.584818359375,-5.569249629974365,-11.866340637207031,1.8247636556625366
1772810165631518500,6.5945185546875,-5.605556964874268,-11.777593612670898,1.6690342426300049
1772810165641218800,6.60421875,-5.436375141143799,-11.694382667541504,1.4905915260314941
1772810165650919200,6.613919189453125,-5.129482746124268,-11.653356552124023,1.266965389251709
1772810165660619500,6.62361962890625,-4.748653411865234,-11.677541732788086,1.0486642122268677
1772810165670319600,6.633319580078125,-4.299521446228027,-11.781645774841309,0.8638366460800171
1772810165680020000,6.64302001953125,-3.761265754699707,-11.913585662841797,0.7305814027786255
1772810165689720000,6.652719970703125,-3.1790733337402344,-12.008135795593262,0.6644819974899292
1772810165699420400,6.66242041015625,-2.648138999938965,-12.096506118774414,0.6595677733421326
1772810165709120800,6.672120849609375,-2.214216947555542,-12.188058853149414,0.6981362104415894
1772810165718820900,6.68182080078125,-1.9072468280792236,-12.221756935119629,0.7463904023170471
1772810165728521200,6.691521240234375,-1.7053141593933105,-12.208389282226562,0.7927827835083008
1772810165738221600,6.7012216796875,-1.579035758972168,-12.177717208862305,0.8576878309249878
1772810165747921700,6.710921630859375,-1.5228019952774048,-12.139082908630371,0.9244849681854248
1772810165757622000,6.7206220703125,-1.5111143589019775,-12.075616836547852,0.9716722369194031
1772810165767322000,6.730322021484375,-1.5412333011627197,-11.974357604980469,0.952276349067688
1772810165777022500,6.7400224609375,-1.5914947986602783,-11.872529983520508,0.8943516612052917
1772810165786722800,6.749722900390625,-1.6312713623046875,-11.830910682678223,0.816652238368988
1772810165796423200,6.759423095703125,-1.626501441001892,-11.827949523925781,0.739866316318512
1772810165806123300,6.769123291015625,-1.6142175197601318,-11.794685363769531,0.6547360420227051
1772810165815823600,6.77882373046875,-1.6032962799072266,-11.759919166564941,0.5699535608291626
1772810165825523700,6.788523681640625,-1.5890717506408691,-11.736785888671875,0.5048696398735046
1772810165835224000,6.79822412109375,-1.5368177890777588,-11.617643356323242,0.4809108078479767
1772810165844924400,6.80792431640625,-1.530125379562378,-11.380460739135742,0.5016359090805054
1772810165854624500,6.81762451171875,-1.4528788328170776,-11.064769744873047,0.5170388221740723
1772810165864324900,6.827324951171875,-1.2944958209991455,-10.558996200561523,0.37956249713897705
1772810165874025200,6.837025146484375,-1.2124807834625244,-9.712628364562988,0.14734482765197754
1772810165883725600,6.8467255859375,-1.4368412494659424,-8.643128395080566,-0.07907688617706299
1772810165893425700,6.85642578125,-1.9627256393432617,-7.404997825622559,-0.2858380079269409
1772810165903126000,6.8661259765625,-2.4982659816741943,-5.888368606567383,-0.46879518032073975
1772810165912826000,6.875826171875,-2.7066116333007812,-4.041859149932861,-0.9481408596038818
1772810165922526500,6.8855263671875,-2.6897430419921875,-1.6115989685058594,-1.9013959169387817
1772810165932226800,6.895226806640625,-2.422244071960449,1.289494514465332,-2.9449543952941895
1772810165941927000,6.904927001953125,-1.7736388444900513,4.477250099182129,-3.8289151191711426
1772810165951627300,6.914627197265625,-0.6394674777984619,8.014477729797363,-4.42479944229126
1772810165961327600,6.92432763671875,1.078216791152954,11.564109802246094,-4.320746421813965
1772810165971027700,6.93402783203125,3.1094119548797607,15.000391960144043,-3.6534454822540283
1772810165980728000,6.94372802734375,5.666706085205078,18.287479400634766,-2.593428611755371
1772810165990428200,6.95342822265625,8.48208999633789,20.839054107666016,-1.1176583766937256
1772810166000128500,6.96312841796875,10.890556335449219,22.087011337280273,0.8573273420333862
1772810166009828900,6.972828857421875,12.806467056274414,22.11324691772461,3.1209158897399902
1772810166019529200,6.982529296875,14.477180480957031,21.148197174072266,5.18162202835083
1772810166029229300,6.992229248046875,15.621635437011719,19.63713836669922,6.5097270011901855
1772810166038929700,7.0019296875,16.04998779296875,18.1496639251709,6.5836663246154785
1772810166048629800,7.011629638671875,15.733772277832031,16.875762939453125,5.206295013427734
1772810166058330000,7.021330078125,14.727659225463867,15.697141647338867,2.715097665786743
1772810166068030500,7.031030517578125,13.446626663208008,14.322588920593262,0.07085591554641724
1772810166077730600,7.04073046875,12.032388687133789,12.580094337463379,-1.9650930166244507
1772810166087431000,7.050430908203125,10.464069366455078,10.540639877319336,-3.0469183921813965
1772810166097131300,7.06013134765625,8.745891571044922,8.393038749694824,-3.222987413406372
1772810166106831600,7.06983154296875,6.8781304359436035,6.326164245605469,-2.759260654449463
1772810166116531700,7.07953173828125,4.844961166381836,4.419379234313965,-1.9361882209777832
1772810166126232000,7.089232177734375,2.8007819652557373,2.5906496047973633,-0.9334036707878113
1772810166135932200,7.09893212890625,0.9709837436676025,0.7861928939819336,0.08561624586582184
1772810166145632500,7.108632568359375,-0.5353641510009766,-0.9425554275512695,0.9195024967193604
1772810166155332900,7.118332763671875,-1.689591646194458,-2.5201096534729004,1.4413458108901978
1772810166165033000,7.128032958984375,-2.5058679580688477,-3.948899269104004,1.604196548461914
1772810166174733300,7.1377333984375,-3.054992437362671,-5.2649736404418945,1.4975894689559937
1772810166184433700,7.14743359375,-3.412038564682007,-6.458704471588135,1.2455841302871704
1772810166194133800,7.1571337890625,-3.6651387214660645,-7.480859756469727,0.892392635345459
1772810166203834000,7.166834228515625,-3.6875054836273193,-8.344674110412598,0.49780845642089844
1772810166213534200,7.1765341796875,-3.571197509765625,-9.019929885864258,0.20017048716545105
1772810166223234600,7.186234619140625,-3.5705461502075195,-9.481993675231934,0.08015841245651245
1772810166232935000,7.195934814453125,-3.7858550548553467,-9.73076057434082,0.11149492859840393
1772810166242635300,7.20563525390625,-4.131551742553711,-9.767687797546387,0.23304006457328796
1772810166252335400,7.21533544921875,-4.4871931076049805,-9.598784446716309,0.342506468296051
1772810166262035700,7.22503564453125,-4.892504692077637,-9.2810697555542,0.3643891513347626
1772810166271735800,7.23473583984375,-5.3662004470825195,-8.920342445373535,0.3352207541465759
1772810166281436200,7.244436279296875,-5.8582234382629395,-8.59091567993164,0.32113882899284363
1772810166291136500,7.254136474609375,-6.231049537658691,-8.352012634277344,0.3450241982936859
1772810166300836600,7.263836669921875,-6.476809024810791,-8.211034774780273,0.42948195338249207
1772810166310537000,7.273536865234375,-6.516539573669434,-8.124735832214355,0.5441950559616089
1772810166320237300,7.2832373046875,-6.233145713806152,-8.098433494567871,0.6423593759536743
1772810166329937400,7.2929375,-5.735825538635254,-8.132750511169434,0.7425906658172607
1772810166339637800,7.3026376953125,-5.142393589019775,-8.1677827835083,0.8380453586578369
1772810166349337900,7.312337890625,-4.5408477783203125,-8.11424732208252,0.8889342546463013
1772810166359038200,7.3220380859375,-3.9654810428619385,-7.972407341003418,0.8894311785697937
1772810166368738600,7.331738525390625,-3.341002941131592,-7.731230735778809,0.8355605602264404
1772810166378439000,7.34143896484375,-2.630361795425415,-7.355724334716797,0.7045835852622986
1772810166388139000,7.351138916015625,-1.830161213874817,-6.863266944885254,0.5673646926879883
1772810166397839400,7.36083935546875,-0.856149435043335,-6.2805962562561035,0.4877902567386627
1772810166407539700,7.370539794921875,0.28147053718566895,-5.515668869018555,0.46297889947891235
1772810166417239800,7.38023974609375,1.360816478729248,-4.49361515045166,0.5188686847686768
1772810166426940200,7.389940185546875,2.189620018005371,-3.149341583251953,0.6040468215942383
1772810166436640300,7.39964013671875,2.8579423427581787,-1.4527616500854492,0.6909140944480896
1772810166446340600,7.409340576171875,5.160801887512207,5.108078956604004,0.9124590754508972
1772810166456041000,7.419041015625,7.133069038391113,8.434467315673828,0.858151912689209
1772810166465741300,7.4287412109375,9.658622741699219,11.573262214660645,0.889214038848877
1772810166475441400,7.43844140625,11.534744262695312,14.458410263061523,1.31839919090271
1772810166485141800,7.448141845703125,12.702930450439453,16.580936431884766,2.127796173095703
1772810166494841900,7.457841796875,13.184502601623535,18.574508666992188,2.4427075386047363
1772810166504542200,7.467542236328125,12.554447174072266,20.60293197631836,1.458433747291565
1772810166514242600,7.47724267578125,11.892135620117188,22.641632080078125,-0.4873737692832947
1772810166523942700,7.486942626953125,11.53007698059082,23.99786376953125,-2.457754135131836
1772810166533643000,7.49664306640625,11.464897155761719,24.50678825378418,-3.858137369155884
1772810166543343400,7.50634326171875,11.909942626953125,23.88412094116211,-4.406036853790283
1772810166553043500,7.51604345703125,12.146951675415039,22.851242065429688,-3.8926243782043457
1772810166562743800,7.525743896484375,12.169677734375,20.976778030395508,-2.6351547241210938
1772810166572444000,7.53544384765625,11.580266952514648,18.89460563659668,-1.3004707098007202
1772810166582144300,7.545144287109375,10.117825508117676,16.736473083496094,0.245158389210701
1772810166591844600,7.5548447265625,7.817950248718262,14.35464096069336,1.462005853652954
1772810166601545000,7.564544921875,5.5458984375,11.82107925415039,2.026916027069092
1772810166611245000,7.5742451171875,3.7097673416137695,9.212847709655762,2.247363328933716
1772810166620945400,7.5839453125,2.2707340717315674,6.595033645629883,1.9775563478469849
1772810166630645500,7.5936455078125,1.203723669052124,3.652914047241211,1.6820399761199951
1772810166640345900,7.603345947265625,0.41630876064300537,0.3422060012817383,1.396698236465454
1772810166650046200,7.613046142578125,-0.34874701499938965,-3.046232223510742,0.7823218703269958
1772810166659746300,7.622746337890625,-0.7625241875648499,-5.967041015625,-0.15288293361663818
1772810166669446700,7.63244677734375,-1.1848440170288086,-8.49488639831543,-1.3581030368804932
1772810166679147000,7.64214697265625,-1.6238361597061157,-10.476778030395508,-2.506659984588623
1772810166688847000,7.65184716796875,-2.3156940937042236,-11.812153816223145,-3.335841417312622
1772810166698547500,7.66154736328125,-2.9277305603027344,-12.622818946838379,-3.839586019515991
1772810166708247600,7.67124755859375,-3.3003947734832764,-13.1160888671875,-3.664086103439331
1772810166717948000,7.680947998046875,-3.6640219688415527,-13.310240745544434,-3.144298553466797
1772810166727648300,7.690648193359375,-3.6487104892730713,-13.143017768859863,-2.4924912452697754
1772810166737348600,7.7003486328125,-2.998788833618164,-13.098627090454102,-1.5551996231079102
1772810166747048700,7.710048583984375,-2.41068434715271,-13.041570663452148,-0.5051168203353882
1772810166756749000,7.7197490234375,-1.8563549518585205,-12.922714233398438,0.7046131491661072
1772810166766449200,7.72944921875,-1.4317582845687866,-12.695981979370117,1.9847798347473145
1772810166776149500,7.7391494140625,-1.451933741569519,-12.472358703613281,3.1169145107269287
1772810166785849900,7.748849853515625,-1.5333194732666016,-12.247058868408203,3.8879356384277344
1772810166795550000,7.758550048828125,-1.5147324800491333,-11.93878173828125,4.208885192871094
1772810166805250300,7.768250244140625,-1.4280874729156494,-11.644872665405273,4.0654616355896
1772810166814950700,7.77795068359375,-1.1484302282333374,-11.393754005432129,3.5016515254974365
1772810166824650800,7.787650634765625,-0.7123172283172607,-11.215815544128418,2.8331515789031982
1772810166834351000,7.79735107421875,-0.14156979322433472,-11.19504165649414,2.261671781539917
1772810166844051200,7.80705126953125,0.4311530888080597,-11.082366943359375,1.841443419456482
1772810166853751600,7.81675146484375,0.8512993454933167,-10.865817070007324,1.5652375221252441
1772810166863452000,7.826451904296875,0.9197319149971008,-10.713820457458496,1.2931264638900757
1772810166873152300,7.83615234375,0.8687213063240051,-10.74307918548584,1.1389271020889282
1772810166882852400,7.845852294921875,0.7891640067100525,-10.73698616027832,1.0708651542663574
1772810166892552700,7.855552734375,0.6404443979263306,-10.701505661010742,1.0459849834442139
1772810166902252800,7.865252685546875,0.38027137517929077,-10.631882667541504,1.0818771123886108
1772810166911953200,7.874953125,-0.027475208044052124,-10.622386932373047,1.1590813398361206
1772810166921653500,7.884653564453125,-0.49592411518096924,-10.72994327545166,1.2181591987609863
1772810166931353600,7.894353515625,-0.8062062859535217,-10.845396995544434,1.0766682624816895
1772810166941054000,7.904053955078125,-0.9776307940483093,-10.930429458618164,0.8788206577301025
1772810166950754300,7.91375439453125,-1.137034296989441,-10.904081344604492,0.7435635924339294
1772810166960454400,7.923454345703125,-1.2466565370559692,-10.860006332397461,0.7546243071556091
1772810166970154800,7.93315478515625,-1.3884172439575195,-10.638731956481934,0.8208085298538208
1772810166979854800,7.942854736328125,-1.4275143146514893,-10.40248966217041,0.8084075450897217
1772810166989555200,7.95255517578125,-1.6299039125442505,-10.14956283569336,0.8864727020263672
1772810166999255600,7.962255615234375,-2.023209810256958,-9.835762023925781,0.8593897819519043
1772810167008956000,7.971955810546875,-2.098440170288086,-9.355673789978027,0.7717796564102173
1772810167018656000,7.981656005859375,-2.2806224822998047,-8.299099922180176,0.5552189946174622
1772810167028356400,7.9913564453125,-2.7552967071533203,-6.622283935546875,0.2792101502418518
1772810167038056400,8.001056396484374,-3.7874021530151367,-4.732918739318848,-0.17003196477890015
1772810167047756800,8.0107568359375,-4.771692752838135,-2.7024760246276855,-0.7126962542533875
1772810167057457200,8.02045703125,-5.21793270111084,0.14038944244384766,-1.3476665019989014
1772810167067157200,8.0301572265625,-4.514894962310791,3.268096923828125,-1.9152802228927612
1772810167076857600,8.039857666015624,-3.029033660888672,5.243124961853027,-2.0993595123291016
1772810167086558000,8.049557861328125,-1.93555748462677,7.853595733642578,-2.9548301696777344
1772810167096258000,8.059258056640624,-0.5341804027557373,11.535483360290527,-4.450762748718262
1772810167105958400,8.06895849609375,1.5468220710754395,15.535567283630371,-5.949370861053467
1772810167115658500,8.078658447265624,3.7366299629211426,19.655332565307617,-6.70592737197876
1772810167125358800,8.08835888671875,5.684181213378906,23.433223724365234,-6.44818115234375
1772810167135059200,8.09805908203125,8.122482299804688,24.833023071289062,-4.8849992752075195
1772810167144759300,8.10775927734375,11.155410766601562,23.351215362548828,-2.246522903442383
1772810167154459600,8.117459716796875,14.03332805633545,21.375797271728516,0.3306923508644104
1772810167164160000,8.127159912109375,16.357563018798828,18.56781768798828,2.3599345684051514
1772810167173860000,8.136860107421874,17.4797306060791,15.669000625610352,3.4054415225982666
1772810167183560400,8.146560546875,16.77518653869629,13.455702781677246,3.012690782546997
1772810167193260800,8.1562607421875,14.725608825683594,12.870378494262695,1.6573443412780762
1772810167202961000,8.1659609375,11.793618202209473,12.620080947875977,0.2882721424102783
1772810167212661200,8.1756611328125,8.66042423248291,11.83389949798584,-0.9000232219696045
1772810167222361600,8.185361572265625,5.334458827972412,10.695523262023926,-1.4782015085220337
1772810167232061700,8.195061767578125,2.459882974624634,8.646758079528809,-1.3562086820602417
1772810167241762000,8.204761962890625,0.5016360282897949,6.207645416259766,-1.089952826499939
1772810167251462100,8.214462158203125,-0.7231700420379639,3.695789337158203,-0.7124329805374146
1772810167261162500,8.22416259765625,-1.5864561796188354,1.2720394134521484,-0.27171385288238525
1772810167270862800,8.23386279296875,-2.0629868507385254,-0.8610734939575195,-0.04510165750980377
1772810167280563000,8.24356298828125,-2.177678346633911,-2.8970565795898438,0.018928222358226776
1772810167290263300,8.25326318359375,-2.025747776031494,-4.711602210998535,0.006581142544746399
1772810167299963600,8.262963623046875,-1.9644558429718018,-6.112346649169922,-0.0023007094860076904
1772810167309663700,8.272663818359375,-2.0868771076202393,-7.210277080535889,-0.13258403539657593
1772810167319364000,8.282364013671875,-2.3134193420410156,-8.025121688842773,-0.36765649914741516
1772810167329064200,8.292064208984375,-2.755406141281128,-8.42871379852295,-0.5825981497764587
1772810167338764500,8.3017646484375,-3.611720561981201,-8.48382568359375,-0.6136735677719116
1772810167348465000,8.31146484375,-4.612152099609375,-8.40159797668457,-0.4920198619365692
1772810167358165200,8.321165283203126,-5.7026896476745605,-8.336224555969238,-0.21828603744506836
1772810167367865300,8.330865234375,-6.638571739196777,-8.17188835144043,0.020626544952392578
1772810167377565700,8.340565673828126,-7.083879470825195,-8.10176944732666,0.1560784876346588
1772810167387265800,8.350265869140625,-7.1220550537109375,-8.010293960571289,0.16887317597866058
1772810167396966100,8.359966064453126,-6.875771522521973,-7.82879638671875,0.24393099546432495
1772810167406666500,8.36966650390625,-6.346147537231445,-7.7339582443237305,0.4310150146484375
1772810167416366600,8.37936669921875,-5.611879825592041,-7.651265621185303,0.7037218809127808
1772810167426067000,8.38906689453125,-4.725218772888184,-7.420123100280762,0.9639166593551636
1772810167435767300,8.398767333984376,-4.253259181976318,-7.276610374450684,1.2299020290374756
1772810167445467400,8.40846728515625,-4.112443923950195,-7.27498722076416,1.4307353496551514
1772810167455167700,8.418167724609376,-4.043788909912109,-7.276556968688965,1.5183500051498413
1772810167464867800,8.427867919921875,-4.0231451988220215,-7.200805187225342,1.351757526397705
1772810167474568200,8.437568115234376,-4.088329792022705,-7.145694732666016,0.9626305103302002
1772810167484268500,8.4472685546875,-3.6454217433929443,-7.148704528808594,0.7151498794555664
1772810167493969000,8.456968994140626,-3.0967671871185303,-7.302698612213135,0.5571073889732361
1772810167503669000,8.4666689453125,-2.4924023151397705,-7.423546314239502,0.39199328422546387
1772810167513369300,8.476369384765626,-1.7672030925750732,-7.2172369956970215,0.12552940845489502
1772810167523069400,8.4860693359375,-1.3261334896087646,-6.971464157104492,0.011900663375854492
1772810167532769800,8.495769775390626,-1.47124183177948,-6.591738700866699,0.014334231615066528
1772810167542470100,8.50547021484375,-1.786591649055481,-5.658742427825928,0.06803622841835022
1772810167552170200,8.515170166015626,-1.8701090812683105,-4.323429107666016,-0.028525888919830322
1772810167561870600,8.52487060546875,-1.667651891708374,-2.56362247467041,-0.23517468571662903
1772810167571571000,8.534571044921876,-1.4300596714019775,-0.6513710021972656,-0.2340330183506012
1772810167581271000,8.54427099609375,-1.2818248271942139,1.515772819519043,-0.13562387228012085
1772810167590971400,8.553971435546876,-0.8350706100463867,4.212838172912598,-0.03567811846733093
1772810167600671500,8.56367138671875,0.8187105655670166,7.576118469238281,-0.11460989713668823
1772810167610371800,8.573371826171876,3.402259588241577,12.073612213134766,-0.6899411082267761
1772810167620072200,8.583072265625,7.718128204345703,17.691482543945312,-1.4668266773223877
1772810167629772500,8.5927724609375,14.297595977783203,22.1148681640625,-2.8891022205352783
1772810167639472600,8.60247265625,21.329126358032227,24.303260803222656,-3.642662525177002
1772810167649173000,8.612173095703126,26.189590454101562,25.614837646484375,-3.1400060653686523
1772810167658873000,8.621873046875,28.092567443847656,27.09328842163086,-2.2778818607330322
1772810167668573400,8.631573486328126,25.79080581665039,28.067729949951172,-1.571986436843872
1772810167678273800,8.641273681640625,21.30160140991211,28.08819580078125,-0.10923135280609131
1772810167687974000,8.650973876953126,17.041767120361328,26.687816619873047,1.7971665859222412
1772810167697674200,8.66067431640625,13.873663902282715,23.699481964111328,3.154242515563965
1772810167707374600,8.67037451171875,11.418270111083984,19.37112045288086,3.04590106010437
1772810167717074700,8.68007470703125,9.63008975982666,15.06869888305664,1.6075150966644287
1772810167726775000,8.689775146484376,8.532711029052734,11.259787559509277,-0.10208249092102051
1772810167736475100,8.69947509765625,7.171247959136963,7.70742130279541,-1.5207722187042236
1772810167746175500,8.709175537109376,5.493943691253662,4.917065620422363,-2.1598520278930664
1772810167755875800,8.718875732421875,3.6060547828674316,2.555124282836914,-1.6385676860809326
1772810167765576200,8.728576171875,1.178429126739502,0.43251895904541016,-0.7307616472244263
1772810167775276300,8.7382763671875,-1.1620798110961914,-1.1585721969604492,-0.27222782373428345
1772810167784976600,8.7479765625,-2.7312862873077393,-2.5893325805664062,0.07616323232650757
1772810167794676700,8.7576767578125,-3.963106155395508,-3.765697479248047,0.29191142320632935
1772810167804377000,8.767377197265626,-5.056530475616455,-4.4767866134643555,0.34254610538482666
1772810167814077400,8.777077392578125,-6.059939861297607,-5.096962928771973,0.06240946054458618
1772810167823777500,8.786777587890626,-6.968667984008789,-6.2184319496154785,-0.5393106937408447
1772810167833478000,8.796477783203125,-7.609860897064209,-7.125322341918945,-1.4207448959350586
1772810167843178000,8.806177978515626,-7.263786792755127,-7.91827392578125,-2.3307647705078125
1772810167852878300,8.81587841796875,-5.787991046905518,-9.032917976379395,-2.7466859817504883
1772810167862578700,8.82557861328125,-3.737123966217041,-10.464465141296387,-2.3602700233459473
1772810167872278800,8.83527880859375,-1.7334343194961548,-11.883672714233398,-1.3770073652267456
1772810167881979100,8.844979248046876,-0.6339644193649292,-13.068010330200195,-0.07084774971008301
1772810167891679500,8.854679443359375,-0.5991164445877075,-13.70041275024414,1.0869994163513184
1772810167901379600,8.864379638671876,-1.1491751670837402,-13.477312088012695,2.0967936515808105
1772810167911080000,8.874079833984375,-2.1621713638305664,-12.758793830871582,3.0425429344177246
1772810167920780000,8.883780029296876,-3.4465060234069824,-11.969215393066406,3.8051486015319824
1772810167930480400,8.89348046875,-4.403084754943848,-11.30819320678711,4.203585147857666
1772810167940180700,8.9031806640625,-4.505609512329102,-10.975227355957031,4.41667366027832
1772810167949881000,8.912881103515625,-4.223843574523926,-11.254104614257812,4.487651824951172
1772810167959581200,8.922581298828124,-3.587416648864746,-11.123435974121094,4.084530830383301
1772810167969281500,8.932281494140625,-2.3696305751800537,-11.115449905395508,3.6132686138153076
1772810167978981600,8.941981689453126,-0.8740351796150208,-11.630680084228516,3.343961238861084
1772810167988682000,8.951681884765625,0.028487563133239746,-12.064762115478516,3.083162307739258
1772810167998382300,8.96138232421875,0.6187036633491516,-12.26779556274414,2.927281618118286
1772810168008082400,8.97108251953125,1.0001612901687622,-12.264114379882812,2.6121976375579834
1772810168017782800,8.98078271484375,1.0211050510406494,-12.019397735595703,2.2475976943969727
1772810168027483100,8.990483154296875,0.8029038906097412,-11.80122184753418,1.9406640529632568
1772810168037183200,9.000183349609374,0.46804261207580566,-11.538894653320312,1.5693477392196655
1772810168046883600,9.009883544921875,0.1820431351661682,-11.213362693786621,1.0918022394180298
1772810168056583700,9.019583740234374,0.005528151988983154,-10.884590148925781,0.6632996201515198
1772810168066284000,9.029283935546875,-0.2538243532180786,-10.570613861083984,0.2953263819217682
1772810168075984400,9.038984375,-0.5236618518829346,-10.264366149902344,0.03414660692214966
1772810168085684700,9.048684814453125,-0.6206601858139038,-9.875310897827148,-0.06487780809402466
1772810168095384800,9.058384765625,-0.6113703846931458,-9.674063682556152,-0.02482813596725464
1772810168105085200,9.068085205078125,-0.6826643943786621,-9.405546188354492,0.14524811506271362
1772810168114785300,9.077785400390624,-0.7008469104766846,-9.018844604492188,0.38223496079444885
1772810168124485600,9.087485595703125,-0.9417376518249512,-8.471026420593262,0.6039430499076843
1772810168134186000,9.09718603515625,-1.3999881744384766,-7.825103282928467,0.800108790397644
1772810168143886000,9.106885986328125,-2.0898385047912598,-7.277048587799072,0.914700984954834
1772810168153586400,9.11658642578125,-2.7243242263793945,-6.708733081817627,0.9649056792259216
1772810168163286800,9.126286865234375,-3.0726723670959473,-5.8476152420043945,0.8348559141159058
1772810168172987000,9.13598681640625,-3.392247200012207,-4.9844465255737305,0.6457837820053101
1772810168182687200,9.145687255859375,-3.266066551208496,-3.971864700317383,0.5494130849838257
1772810168192387300,9.15538720703125,-3.255751609802246,-3.2698493003845215,1.0792195796966553
1772810168202087700,9.165087646484375,-4.183536052703857,-2.7972965240478516,1.3233721256256104
1772810168211788000,9.1747880859375,-4.357791423797607,-0.11674880981445312,-0.07335019111633301
1772810168221488000,9.184488037109375,-3.3215794563293457,3.576289176940918,-1.4306343793869019
1772810168231188500,9.1941884765625,-2.1470859050750732,6.508792877197266,-2.1970126628875732
1772810168240888600,9.203888671875,-0.39930975437164307,8.564905166625977,-2.7304253578186035
1772810168250589000,9.2135888671875,0.67987060546875,10.096120834350586,-3.1064908504486084
1772810168260289300,9.223289306640625,1.2532176971435547,12.938310623168945,-3.5877461433410645
1772810168269989600,9.23298974609375,1.5908565521240234,17.066539764404297,-4.723635673522949
1772810168279689700,9.242689697265625,2.2955119609832764,22.138076782226562,-5.638592720031738
1772810168289390000,9.25239013671875,3.912210702896118,24.811355590820312,-5.932960510253906
1772810168299090200,9.262090087890625,5.08857536315918,23.94969940185547,-5.168098449707031
1772810168308790500,9.27179052734375,6.7797532081604,20.96756362915039,-3.6418991088867188
1772810168318491000,9.281490966796875,8.640944480895996,16.982892990112305,-1.7850220203399658
1772810168328191000,9.29119091796875,10.00492000579834,13.435432434082031,-0.24758929014205933
1772810168337891300,9.300891357421875,10.37941837310791,10.985153198242188,0.25340956449508667
1772810168347591700,9.310591796875,10.120579719543457,9.698312759399414,-0.005269527435302734
1772810168357291800,9.320291748046875,9.183439254760742,9.135783195495605,-0.5896499752998352
1772810168366992100,9.3299921875,8.000051498413086,8.131017684936523,-0.7556146383285522
1772810168376692200,9.339692138671875,6.314038276672363,7.167290687561035,-0.7714799642562866
1772810168386392600,9.349392578125,4.838815689086914,6.169833183288574,-0.7388526797294617
1772810168396093000,9.359093017578125,3.433086395263672,4.922512054443359,-0.5714938044548035
1772810168405793000,9.36879296875,2.0891237258911133,3.430591583251953,-0.37973785400390625
1772810168415493400,9.378493408203125,0.9644918441772461,1.9424324035644531,-0.0704050064086914
1772810168425193500,9.388193359375,-0.29755496978759766,0.34944915771484375,0.48264333605766296
1772810168434893800,9.397893798828125,-1.6504027843475342,-1.2370901107788086,1.1036741733551025
1772810168444594200,9.40759423828125,-2.7592294216156006,-2.74185848236084,1.5596013069152832
1772810168454294500,9.41729443359375,-3.4914004802703857,-4.1629157066345215,1.7823231220245361
1772810168463994600,9.42699462890625,-3.666886568069458,-5.435424327850342,1.676874041557312
1772810168473695000,9.436695068359375,-3.7331457138061523,-6.557922840118408,1.3306021690368652
1772810168483395000,9.44639501953125,-3.7656660079956055,-7.574800491333008,1.1524461507797241
1772810168493095400,9.456095458984375,-4.035256385803223,-8.452510833740234,1.1227861642837524
1772810168502795800,9.465795654296874,-4.329919338226318,-9.179628372192383,1.344855785369873
1772810168512495900,9.475495849609375,-4.750037670135498,-9.728218078613281,1.7090812921524048
1772810168522196200,9.4851962890625,-5.219914436340332,-10.049538612365723,2.1175193786621094
1772810168531896600,9.494896484375,-5.497045516967773,-10.183396339416504,2.432835817337036
1772810168541596700,9.5045966796875,-5.415781497955322,-10.241841316223145,2.7475504875183105
1772810168551297000,9.514297119140625,-4.920527458190918,-10.223786354064941,3.0365750789642334
1772810168560997000,9.5239970703125,-3.9698591232299805,-10.06421947479248,3.3768701553344727
1772810168570697500,9.533697509765625,-3.345240592956543,-9.827486991882324,3.654963493347168
1772810168580397800,9.543397705078124,-3.041283130645752,-9.463919639587402,3.840139389038086
1772810168590098000,9.553097900390625,-3.201632499694824,-8.72385311126709,3.7703733444213867
1772810168599798300,9.56279833984375,-4.0555806159973145,-7.719918727874756,3.5442306995391846
1772810168609498400,9.572498291015625,-5.569411754608154,-6.678659915924072,3.416839838027954
1772810168619198700,9.58219873046875,-6.977594375610352,-5.173849105834961,2.985607624053955
1772810168628899000,9.591899169921875,-7.76827335357666,-4.0652570724487305,2.5191330909729004
1772810168638599400,9.601599365234375,-8.689811706542969,-4.606411933898926,2.399677038192749
1772810168648299500,9.611299560546875,-7.759222984313965,-4.576510429382324,1.8751745223999023
1772810168658000000,9.620999755859375,-4.666749000549316,-3.7842588424682617,0.9916270971298218
1772810168667700000,9.630699951171875,-1.439409852027893,-3.9422993659973145,0.2872108221054077
1772810168677400300,9.640400390625,1.2267258167266846,-4.701437473297119,0.38472867012023926
1772810168687100700,9.6501005859375,2.554152250289917,-5.399635314941406,0.9195278882980347
1772810168696800800,9.65980078125,1.4123120307922363,-5.340465068817139,1.2762564420700073
1772810168706501000,9.669501220703125,-0.26465487480163574,-4.352015018463135,1.052219033241272
1772810168716201500,9.679201416015625,-1.5794777870178223,-2.0762500762939453,-0.19544625282287598
1772810168725901600,9.688901611328125,-2.149919033050537,0.7971038818359375,-2.046860694885254
1772810168735602000,9.698601806640625,-0.95719313621521,3.1180667877197266,-2.8898348808288574
1772810168745302000,9.708302001953125,1.37082839012146,4.539319038391113,-2.8913466930389404
1772810168755002400,9.71800244140625,4.303050994873047,6.926491737365723,-3.315032482147217
1772810168764702700,9.72770263671875,8.636883735656738,10.259685516357422,-3.739837884902954
1772810168774402800,9.73740283203125,12.971467971801758,14.041162490844727,-4.272215843200684
1772810168784103200,9.747103271484375,15.001267433166504,18.749452590942383,-5.258552551269531
1772810168793803300,9.75680322265625,16.280208587646484,24.017642974853516,-6.427089214324951
1772810168803503600,9.766503662109375,16.658321380615234,28.396272659301758,-8.483842849731445
1772810168813204000,9.776203857421875,17.144655227661133,30.855854034423828,-9.819924354553223
1772810168822904300,9.785904296875,19.99236297607422,30.321819305419922,-9.317106246948242
1772810168832604400,9.7956044921875,23.49587631225586,27.247268676757812,-7.616222381591797
1772810168842304800,9.8053046875,25.874465942382812,24.032405853271484,-6.063902854919434
1772810168852004900,9.8150048828125,25.31554412841797,21.646894454956055,-5.346287727355957
1772810168861705200,9.824705322265626,22.343536376953125,19.055973052978516,-4.7920637130737305
1772810168871405600,9.834405517578125,18.009254455566406,16.095481872558594,-3.932474374771118
1772810168881105700,9.844105712890626,13.698366165161133,13.139083862304688,-3.2523698806762695
1772810168890806000,9.853805908203125,9.508260726928711,10.589863777160645,-2.53220796585083
1772810168900506400,9.86350634765625,4.8020429611206055,8.404950141906738,-2.0918984413146973
1772810168910206500,9.87320654296875,-0.18774890899658203,6.820591926574707,-2.102396011352539
1772810168919906800,9.88290673828125,-3.3310651779174805,4.966630935668945,-2.11728572845459
1772810168929607000,9.89260693359375,-4.994530200958252,2.5918006896972656,-1.920980453491211
1772810168939307300,9.902307373046876,-5.074815273284912,-0.1795644760131836,-0.9288726449012756
1772810168949007600,9.912007568359375,-4.207289218902588,-3.6307525634765625,0.8058754801750183
1772810168958707700,9.921707763671876,-3.0904245376586914,-7.349621772766113,2.6722545623779297
1772810168968408000,9.931407958984375,-2.380265235900879,-10.529231071472168,3.7316629886627197
1772810168978108200,9.941108154296876,-2.303192615509033,-12.680821418762207,3.7350525856018066
1772810168987808500,9.95080859375,-2.731830596923828,-13.377687454223633,2.9038126468658447
1772810168997508900,9.9605087890625,-3.167543411254883,-13.353952407836914,1.8091976642608643
1772810169007209200,9.970209228515625,-3.898071765899658,-13.505098342895508,1.1810792684555054
1772810169016909300,9.979909423828126,-4.793081283569336,-13.559423446655273,0.7352760434150696
1772810169026609700,9.989609619140625,-5.322663307189941,-13.669684410095215,0.3133813738822937
1772810169036309800,9.999309814453126,-5.485666275024414,-13.423059463500977,-0.1461416482925415
1772810169046010000,10.009010009765625,-5.293964862823486,-13.228254318237305,-0.3481813669204712
1772810169055710500,10.01871044921875,-4.822946071624756,-13.456608772277832,0.16522371768951416
1772810169065410600,10.02841064453125,-4.476889610290527,-13.759811401367188,1.177304744720459
1772810169075111000,10.03811083984375,-4.186591625213623,-13.741737365722656,2.0642895698547363
1772810169084811000,10.04781103515625,-3.564751625061035,-13.771934509277344,2.4252688884735107
1772810169094511400,10.057511474609376,-3.3721189498901367,-13.477360725402832,2.3928449153900146
1772810169104211700,10.067211669921875,-3.23184871673584,-12.917543411254883,2.0491249561309814
1772810169113911800,10.076911865234376,-3.003023862838745,-12.325651168823242,1.7641271352767944
1772810169123612200,10.086612060546875,-2.91717791557312,-11.775386810302734,1.5626882314682007
1772810169133312500,10.0963125,-2.7588579654693604,-11.192398071289062,1.462854027748108
1772810169143012600,10.1060126953125,-2.4972174167633057,-10.772332191467285,1.3710520267486572
1772810169152713000,10.115712890625,-2.438694953918457,-10.636296272277832,1.3406453132629395
1772810169162413000,10.1254130859375,-2.426800012588501,-10.478403091430664,1.3119401931762695
1772810169172113400,10.135113525390626,-2.0756919384002686,-10.383727073669434,1.2943001985549927
1772810169181813800,10.144813720703125,-1.5989662408828735,-10.418790817260742,1.4037680625915527
1772810169191513900,10.154513916015626,-1.047870397567749,-10.37791633605957,1.4470946788787842
1772810169201214200,10.164214111328125,-0.4914117455482483,-10.254364967346191,1.4140397310256958
1772810169210914300,10.173914306640626,-0.10113468766212463,-10.18616771697998,1.2316163778305054
1772810169220614700,10.18361474609375,0.21167391538619995,-9.977150917053223,1.0764771699905396
1772810169230315000,10.19331494140625,0.453361451625824,-9.688844680786133,0.9613499045372009
1772810169240015400,10.203015380859375,0.48742878437042236,-9.37474250793457,0.955706000328064
1772810169249715500,10.212715576171876,0.33098435401916504,-9.016470909118652,1.118217945098877
1772810169259415800,10.222415771484375,-0.04018259048461914,-8.659943580627441,1.3878999948501587
1772810169269116000,10.232115966796876,-0.4265640079975128,-8.457021713256836,1.7400978803634644
1772810169278816300,10.241816162109375,-0.706505298614502,-8.160603523254395,2.084629535675049
1772810169288516600,10.2515166015625,-0.979556143283844,-7.817646026611328,2.3299593925476074
1772810169298216700,10.261216796875,-1.0554016828536987,-7.548357009887695,2.364631175994873
1772810169307917000,10.2709169921875,-0.6363630294799805,-7.437824249267578,2.2895898818969727
1772810169317617200,10.2806171875,0.23760008811950684,-7.464436054229736,2.0321455001831055
1772810169327317500,10.2903173828125,0.8360953330993652,-7.348153114318848,1.6413300037384033
1772810169337017900,10.300017822265625,1.3169344663619995,-6.907291412353516,1.0849705934524536
1772810169346718000,10.309718017578126,1.516345500946045,-6.071378707885742,0.452528715133667
1772810169356418300,10.319418212890625,1.3417094945907593,-4.712584972381592,-0.1018834114074707
1772810169366118700,10.32911865234375,1.2315940856933594,-3.1082582473754883,-0.5825093984603882
1772810169375818800,10.33881884765625,0.05435824394226074,-1.0546598434448242,-0.8577470779418945
1772810169385519000,10.34851904296875,-1.3915417194366455,1.2899417877197266,-1.1480990648269653
1772810169395219200,10.35821923828125,-1.7366981506347656,3.1004934310913086,-1.174344539642334
1772810169404919600,10.36791943359375,-1.0372308492660522,5.005427360534668,-1.3359031677246094
1772810169414620000,10.377619873046875,-0.5419114828109741,6.718809127807617,-1.2103520631790161
1772810169424320000,10.387320068359376,-1.0728645324707031,6.935548782348633,-1.143524169921875
1772810169434020400,10.397020263671875,-0.6269994974136353,8.570585250854492,-2.4873480796813965
1772810169443720400,10.406720458984376,0.2813739776611328,12.157094955444336,-4.565629005432129
1772810169453420800,10.4164208984375,1.2399964332580566,15.790916442871094,-5.367138385772705
1772810169463121200,10.42612109375,2.065222978591919,18.24776840209961,-5.500646591186523
1772810169472821500,10.435821533203125,2.362807273864746,20.31052589416504,-5.368668556213379
1772810169482521600,10.445521484375,2.3730998039245605,21.51339340209961,-4.854677677154541
1772810169492222000,10.455221923828125,3.3349061012268066,21.288959503173828,-3.5068225860595703
1772810169501922000,10.464922119140626,4.496607780456543,19.90503692626953,-1.4387322664260864
1772810169511622400,10.474622314453125,6.438323974609375,17.281028747558594,0.8876001834869385
1772810169521322800,10.48432275390625,9.055366516113281,14.066675186157227,2.3566932678222656
1772810169531022800,10.49402294921875,10.706701278686523,11.407702445983887,2.547978401184082
1772810169540723200,10.50372314453125,10.752252578735352,9.876961708068848,1.4698669910430908
1772810169550423300,10.51342333984375,9.819755554199219,9.576319694519043,-0.26589900255203247
1772810169560123600,10.52312353515625,7.776601314544678,9.422962188720703,-1.8294566869735718
1772810169569824000,10.532823974609375,5.339292049407959,8.386581420898438,-2.503110885620117
1772810169579524000,10.542524169921874,3.090977668762207,7.021074295043945,-2.5489110946655273
1772810169589224400,10.552224365234375,1.2900335788726807,5.513625144958496,-2.07936429977417
1772810169598924800,10.5619248046875,0.065582275390625,3.881514549255371,-1.5653223991394043
1772810169608625000,10.571625,-0.7259500026702881,2.2453298568725586,-0.9543254375457764
1772810169618325200,10.5813251953125,-1.1232798099517822,0.4913921356201172,-0.4278651475906372
1772810169628025300,10.591025390625,-1.1286780834197998,-1.2979660034179688,0.16033637523651123
1772810169637725700,10.6007255859375,-1.0769658088684082,-2.8507022857666016,0.5559545755386353
1772810169647426000,10.610426025390625,-0.939018964767456,-4.262432098388672,0.7714789509773254
1772810169657126100,10.620126220703124,-0.7011899948120117,-5.407420635223389,0.7732275128364563
1772810169666826500,10.629826416015625,-0.7527668476104736,-6.159242630004883,0.7137948274612427
1772810169676526600,10.639526611328124,-0.9990365505218506,-6.743629455566406,0.5669238567352295
1772810169686227000,10.64922705078125,-1.4481992721557617,-7.121768951416016,0.5686967372894287
1772810169695927300,10.65892724609375,-2.001612663269043,-7.381640911102295,0.6510792970657349
1772810169705627600,10.668627685546875,-2.6230928897857666,-7.6368207931518555,0.7549936771392822
1772810169715327700,10.67832763671875,-3.100987434387207,-7.852823257446289,0.8984668850898743
1772810169725028000,10.688028076171875,-3.387016773223877,-8.173261642456055,0.9968314170837402
1772810169734728200,10.697728271484374,-3.4462432861328125,-8.5233793258667,0.9684410691261292
1772810169744428500,10.707428466796875,-3.269219398498535,-8.85206413269043,0.9788236618041992
1772810169754129000,10.71712890625,-3.1636691093444824,-9.18910026550293,1.0397754907608032
1772810169763829000,10.7268291015625,-3.1585469245910645,-9.373366355895996,1.280562400817871
1772810169773529300,10.736529296875,-3.1341512203216553,-9.536133766174316,1.656484842300415
1772810169783229400,10.7462294921875,-3.1172900199890137,-9.709598541259766,1.9806233644485474
1772810169792929800,10.7559296875,-3.1391069889068604,-9.809309005737305,2.1206626892089844
1772810169802630100,10.765630126953125,-3.106107473373413,-9.821884155273438,2.030902624130249
1772810169812330200,10.775330322265624,-3.2306137084960938,-9.69700813293457,1.8255594968795776
1772810169822030600,10.785030517578125,-3.4356188774108887,-9.60260009765625,1.5965074300765991
1772810169831731000,10.79473095703125,-3.6602730751037598,-9.345635414123535,1.2630584239959717
1772810169841431000,10.80443115234375,-3.648838520050049,-8.722641944885254,0.9912028312683105
1772810169851131400,10.81413134765625,-3.429093837738037,-7.744457244873047,0.4572746753692627
1772810169860831500,10.82383154296875,-3.5879111289978027,-8.153072357177734,0.5790954828262329
1772810169870531800,10.83353173828125,-3.4310007095336914,-7.847186088562012,0.6507230997085571
1772810169880232200,10.843232177734375,-3.7472143173217773,-6.401529788970947,0.6007503867149353
1772810169889932300,10.852932373046874,-4.64769983291626,-4.713923454284668,0.4363898038864136
1772810169899632600,10.862632568359375,-4.832275867462158,-2.913640022277832,0.003945112228393555
1772810169909332700,10.872332763671874,-4.344542503356934,-0.8170595169067383,-0.5893726348876953
1772810169919033000,10.882033203125,-3.5565433502197266,2.046555519104004,-1.4908781051635742
1772810169928733400,10.8917333984375,-1.723034143447876,5.908979415893555,-2.8081445693969727
1772810169938433800,10.901433837890625,0.7354464530944824,10.14824104309082,-3.5827479362487793
1772810169948134000,10.9111337890625,2.6695168018341064,14.065037727355957,-3.618802070617676
1772810169957834000,10.920833984375,5.410214424133301,18.05860137939453,-3.758601665496826
1772810169967534300,10.930534423828124,10.015457153320312,22.59825897216797,-4.457376956939697
1772810169977234700,10.940234619140625,15.743477821350098,25.64602279663086,-4.692934989929199
1772810169986935000,10.94993505859375,21.83929443359375,26.788265228271484,-3.985966205596924
1772810169996635100,10.95963525390625,26.13971519470215,27.321876525878906,-3.0211257934570312
1772810170006335500,10.96933544921875,28.26233673095703,27.96417999267578,-1.539778232574463
1772810170016035600,10.97903564453125,29.202686309814453,29.101852416992188,0.062169939279556274
1772810170025736000,10.98873583984375,28.80142593383789,28.69002342224121,2.0132317543029785
1772810170035436300,10.998436279296875,27.385711669921875,26.430816650390625,3.2208919525146484
1772810170045136400,11.008136474609374,25.805322647094727,22.73727798461914,3.1529438495635986
1772810170054836700,11.017836669921875,23.701950073242188,18.277729034423828,3.148815393447876
1772810170064536800,11.027536865234374,20.448589324951172,13.90800952911377,3.1226298809051514
1772810170074237200,11.0372373046875,16.245676040649414,10.118993759155273,3.0900444984436035
1772810170083937500,11.0469375,11.903696060180664,6.543303489685059,2.554405689239502
1772810170093637600,11.0566376953125,8.210617065429688,2.9613494873046875,2.2746341228485107
1772810170103338000,11.066337890625,5.259113788604736,-0.7632970809936523,2.3900513648986816
1772810170113038300,11.076038330078125,2.5206398963928223,-4.154910564422607,1.7062911987304688
1772810170122738400,11.085738525390624,0.2924191951751709,-7.053384780883789,1.0602748394012451
1772810170132438800,11.095438720703125,-2.1537234783172607,-9.514257431030273,0.6163712739944458
1772810170142139000,11.105138916015624,-3.7497615814208984,-11.768893241882324,0.6132196187973022
1772810170151839200,11.114839111328125,-4.62592887878418,-13.952030181884766,0.7067286968231201
1772810170161539600,11.12453955078125,-5.479578018188477,-15.607521057128906,0.4854818284511566
1772810170171239700,11.13423974609375,-5.428288459777832,-16.85137176513672,-0.2612876892089844
1772810170180940000,11.14393994140625,-5.030054092407227,-17.69738006591797,-1.019622564315796
1772810170190640000,11.15364013671875,-4.995902061462402,-18.278045654296875,-1.459613561630249
1772810170200340500,11.163340576171874,-4.970961570739746,-18.801593780517578,-1.665848731994629
1772810170210040800,11.173040771484375,-4.892873287200928,-18.920936584472656,-1.7271591424942017
1772810170219741000,11.182740966796874,-4.983371734619141,-18.577009201049805,-1.5018153190612793
1772810170229441300,11.192441162109375,-4.945943832397461,-18.363910675048828,-0.8762826323509216
1772810170239141600,11.2021416015625,-4.871484756469727,-18.62512969970703,0.28080928325653076
1772810170248841700,11.211841796875,-5.049227714538574,-19.198535919189453,1.585482120513916
1772810170258542000,11.2215419921875,-5.183004379272461,-19.284809112548828,2.353024482727051
1772810170268242400,11.231242431640625,-4.978260040283203,-18.846471786499023,2.628096103668213
1772810170277942500,11.240942626953125,-4.662798881530762,-18.397544860839844,2.4952166080474854
1772810170287643000,11.250642822265625,-3.9964451789855957,-18.074275970458984,2.154876232147217
1772810170297343000,11.260343017578125,-3.156789779663086,-17.651165008544922,1.750724196434021
1772810170307043300,11.270043212890625,-2.3417086601257324,-17.077077865600586,1.293631672859192
1772810170316743700,11.27974365234375,-1.4930866956710815,-16.248037338256836,0.8943791389465332
1772810170326443800,11.28944384765625,-0.8188331127166748,-15.331780433654785,0.6364521384239197
1772810170336144100,11.29914404296875,-0.3728301525115967,-14.337248802185059,0.5135673880577087
1772810170345844200,11.30884423828125,-0.0419001579284668,-13.443882942199707,0.4290558695793152
1772810170355544600,11.318544677734375,0.1309393048286438,-12.664933204650879,0.47908663749694824
1772810170365245000,11.328244873046875,0.1404191255569458,-12.154105186462402,0.5467993021011353
1772810170374945300,11.3379453125,0.9018043875694275,-10.441092491149902,-0.036795735359191895
1772810170384645400,11.347645263671875,1.5620120763778687,-9.499170303344727,-0.11524820327758789
1772810170394345500,11.357345458984375,2.1330654621124268,-9.295570373535156,-0.010427236557006836
1772810170404045800,11.3670458984375,2.5012733936309814,-8.953227996826172,-0.0013854503631591797
1772810170413746200,11.37674609375,2.92232084274292,-8.273431777954102,0.008840680122375488
1772810170423446500,11.386446533203125,3.2540130615234375,-7.675792217254639,0.08808350563049316
1772810170433146600,11.396146728515625,3.260377883911133,-7.209782600402832,0.21972990036010742
1772810170442847000,11.405846923828125,2.9213085174560547,-6.572632789611816,0.40646910667419434
1772810170452547000,11.415547119140625,2.5352883338928223,-6.102659702301025,0.67140793800354
1772810170462247400,11.425247314453125,2.0273513793945312,-5.589065074920654,0.8558566570281982
1772810170471947800,11.43494775390625,1.525973916053772,-5.009735107421875,0.8643687963485718
1772810170481647900,11.44464794921875,1.3454399108886719,-4.597751617431641,0.6874423623085022
1772810170491348200,11.45434814453125,0.9587535858154297,-4.305486679077148,0.3769204020500183
1772810170501048300,11.46404833984375,1.0827360153198242,-2.6219358444213867,-0.8986915349960327
1772810170510748700,11.473748779296875,1.0552504062652588,-0.077056884765625,-2.224675178527832
1772810170520449000,11.483448974609376,0.7200707197189331,2.4640207290649414,-3.268388509750366
1772810170530149000,11.493149169921875,0.5684692859649658,4.312817573547363,-3.575526237487793
1772810170539849500,11.502849365234376,1.0770187377929688,6.63935661315918,-3.052124500274658
1772810170549549600,11.512549560546875,1.2288901805877686,9.94214153289795,-2.1276421546936035
1772810170559250000,11.52225,0.8633356094360352,11.612454414367676,-1.0897787809371948
1772810170568950300,11.5319501953125,0.7139256000518799,11.7415189743042,-0.018922030925750732
1772810170578650400,11.541650390625,0.8588032722473145,12.473309516906738,0.16070008277893066
1772810170588350700,11.551350830078125,1.7746825218200684,13.355592727661133,0.047930896282196045
1772810170598051000,11.561051025390626,3.6140997409820557,13.770779609680176,0.5448694229125977
1772810170607751200,11.570751220703125,5.7074294090271,14.204626083374023,1.2862355709075928
1772810170617451500,11.580451416015626,7.394502639770508,13.98980712890625,1.699219822883606
1772810170627151600,11.590151611328125,8.521644592285156,12.908285140991211,1.8357528448104858
1772810170636852000,11.59985205078125,8.808245658874512,12.025137901306152,1.7971107959747314
1772810170646552300,11.60955224609375,8.653578758239746,11.161349296569824,2.180706024169922
1772810170656252400,11.61925244140625,7.7034783363342285,10.691313743591309,3.196199417114258
1772810170665952800,11.628952880859375,6.336500644683838,10.156033515930176,4.257457733154297
1772810170675652900,11.63865283203125,5.46921968460083,9.425529479980469,4.297155857086182
1772810170685353200,11.648353271484375,5.319393634796143,8.196172714233398,3.4780945777893066
1772810170695053600,11.658053466796876,5.608161449432373,7.426603317260742,2.720691680908203
1772810170704753700,11.667753662109375,4.133286952972412,6.791863441467285,2.915745258331299
1772810170714454000,11.6774541015625,6.4836907386779785,3.5743112564086914,1.9403455257415771
1772810170724154000,11.687154052734375,8.518539428710938,1.6096162796020508,-0.4326149821281433
1772810170733854500,11.6968544921875,8.165746688842773,1.1855192184448242,-1.9887802600860596
1772810170743554800,11.706554931640625,5.920657157897949,0.9819107055664062,-2.330815315246582
1772810170753255200,11.716255126953126,2.8368496894836426,0.4785041809082031,-1.732177972793579
1772810170762955300,11.725955322265625,0.9575238227844238,0.49027442932128906,-1.4101158380508423
1772810170772655400,11.7356552734375,-0.12227773666381836,-0.5763578414916992,-1.0209637880325317
1772810170782355700,11.745355712890625,-1.341540813446045,-1.3673992156982422,-1.0682885646820068
1772810170792056000,11.75505615234375,-2.330051898956299,-1.9375419616699219,-1.0476059913635254
1772810170801756400,11.76475634765625,-3.4475884437561035,-2.430079460144043,-0.881953239440918
1772810170811456500,11.77445654296875,-4.307498455047607,-2.560873031616211,-0.9105275869369507
1772810170821156900,11.784156982421875,-4.689460277557373,-2.15518856048584,-1.0486210584640503
1772810170830857000,11.79385693359375,-5.071730613708496,-1.469374656677246,-0.5983825922012329
1772810170840557300,11.803557373046875,-5.140913963317871,-1.5220718383789062,0.041318997740745544
1772810170850257700,11.813257568359376,-4.286210060119629,-1.4137907028198242,0.30919918417930603
1772810170859957800,11.822957763671875,-3.4202051162719727,-1.199462890625,0.7931737303733826
1772810170869658000,11.832658203125,-2.6075639724731445,-1.3460750579833984,1.2033823728561401
1772810170879358200,11.842358154296875,-1.7313175201416016,-1.5225229263305664,1.3528921604156494
1772810170889058600,11.85205859375,-1.0357766151428223,-1.6317634582519531,1.178472876548767
1772810170898759000,11.861759033203125,-0.4729146957397461,-1.654902458190918,0.9229531288146973
1772810170908459000,11.871458984375,-0.32274436950683594,-1.514113426208496,0.6023415327072144
1772810170918159400,11.881159423828125,-0.23433685302734375,-1.4418096542358398,0.29453861713409424
1772810170927859500,11.890859375,-0.1685466766357422,-1.425180435180664,0.13395479321479797
1772810170937559800,11.900559814453125,-0.007739543914794922,-1.3234729766845703,0.12498277425765991
1772810170947260200,11.91026025390625,0.28989267349243164,-1.196202278137207,0.1059047281742096
1772810170956960300,11.919960205078125,0.7103819847106934,-1.0400652885437012,0.10587570071220398
1772810170966660600,11.92966064453125,0.8612284660339355,-0.8011703491210938,0.21511834859848022
1772810170976361000,11.93936083984375,0.9728522300720215,-0.6052646636962891,0.23513385653495789
1772810170986061000,11.94906103515625,1.0025596618652344,-0.45900535583496094,0.10786604881286621
1772810170995761400,11.958761474609375,0.688962459564209,-0.23479557037353516,-0.055281251668930054
1772810171005461500,11.96846142578125,0.16450834274291992,-0.11361026763916016,-0.27446794509887695
1772810171015161900,11.978161865234375,-0.07317781448364258,-0.007561683654785156,-0.5335706472396851
1772810171024862200,11.9878623046875,-0.25127315521240234,-0.08349895477294922,-0.8028050661087036
1772810171034562300,11.997562255859375,-0.4248185157775879,0.2705373764038086,-0.6380640268325806
1772810171044262700,12.0072626953125,-0.2926630973815918,0.3143157958984375,-0.2974095344543457
1772810171053962800,12.016962646484375,-0.21479034423828125,0.4272603988647461,-0.041341632604599
1772810171063663000,12.0266630859375,-0.15579986572265625,0.5900812149047852,0.06455975770950317
1772810171073363500,12.036363525390625,-0.17511796951293945,0.6713457107543945,0.19745796918869019
1772810171083063600,12.0460634765625,-0.14441490173339844,0.6797056198120117,0.056785404682159424
1772810171092764000,12.055763916015625,-0.30687475204467773,1.0019588470458984,0.5894080400466919
1772810171102464000,12.065464111328126,-0.25417280197143555,0.6669721603393555,0.8763794898986816
1772810171112164400,12.075164306640625,-0.40035438537597656,1.0203590393066406,0.7039442658424377
1772810171121864700,12.08486474609375,-0.2317361831665039,0.8691697120666504,0.6165222525596619
1772810171131564800,12.094564697265625,-0.18554306030273438,0.7517108917236328,0.6420112252235413
1772810171141265200,12.10426513671875,-0.22157716751098633,0.8794846534729004,0.8422373533248901
1772810171150965200,12.11396533203125,-0.1908121109008789,0.9190454483032227,0.8690570592880249
1772810171160665600,12.12366552734375,-0.029887676239013672,0.9103994369506836,0.6579877734184265
1772810171170366000,12.133365966796875,0.18698787689208984,0.46271705627441406,0.43647369742393494
