time,seconds_elapsed,z,y,x
1772810205383029000,0.082029052734375,0,0,0
1772810205402429400,0.101429443359375,-0.16534185409545898,-0.07554292678833008,0.005640566349029541
1772810205412129500,0.111129638671875,0.042147159576416016,-0.15830373764038086,-0.22259162366390228
1772810205421829600,0.12082958984375,0.29357337951660156,-0.3704395294189453,-0.524431049823761
1772810205431529700,0.13052978515625,0.3700108528137207,-0.5832924842834473,-0.7273359894752502
1772810205441229800,0.140229736328125,0.4538440704345703,-0.8612570762634277,-0.8529804944992065
1772810205450930200,0.14993017578125,0.7714920043945312,-0.7995147705078125,-0.5656202435493469
1772810205460630300,0.15963037109375,0.016602516174316406,-1.523836612701416,-0.6689180135726929
1772810205470330400,0.169330322265625,-0.6196479797363281,-2.042026996612549,-0.9038349986076355
1772810205480030700,0.17903076171875,-0.6798067092895508,-1.4630370140075684,-0.6661010980606079
1772810205489730800,0.188730712890625,-0.2748274803161621,-0.4146151542663574,-0.4334721565246582
1772810205499431000,0.198430908203125,0.16329288482666016,0.34087324142456055,-0.5460320115089417
1772810205509131000,0.208131103515625,-0.037639617919921875,0.4534296989440918,-0.6196669340133667
1772810205518831400,0.217831298828125,-0.7666258811950684,0.1661548614501953,-0.41160792112350464
1772810205528531500,0.227531494140625,-1.4865837097167969,-0.04326963424682617,-0.30333957076072693
1772810205538231600,0.2372314453125,-2.0678911209106445,0.10630559921264648,-0.21140679717063904
1772810205547932000,0.246931884765625,-1.9318363666534424,0.347989559173584,-0.2704468369483948
1772810205557632000,0.256632080078125,-1.3377125263214111,-0.041567325592041016,-0.500289797782898
1772810205567332000,0.26633203125,-0.6019725799560547,-0.3206949234008789,-0.7994665503501892
1772810205577032400,0.276032470703125,-0.5934658050537109,0.10330438613891602,-0.811904788017273
1772810205586732500,0.285732666015625,-0.9330787658691406,0.19343852996826172,-0.43277159333229065
1772810205596432600,0.2954326171875,-0.8963680267333984,-0.43244171142578125,0.11898042261600494
1772810205606132700,0.3051328125,-0.7379560470581055,-1.029940128326416,0.776174783706665
1772810205615833000,0.3148330078125,-0.8131122589111328,-1.7718143463134766,1.4564685821533203
1772810205625533200,0.324533203125,-0.39635515213012695,-2.6555256843566895,1.0407456159591675
1772810205635233300,0.3342333984375,-0.21430730819702148,-1.8489136695861816,0.8398944139480591
1772810205644933400,0.343933349609375,-1.2366108894348145,-1.0923995971679688,0.28119319677352905
1772810205654633700,0.3536337890625,-1.7065715789794922,-0.8177909851074219,0.0036325454711914062
1772810205664333800,0.363333740234375,-1.8753225803375244,-1.066483974456787,0.019375383853912354
1772810205674034000,0.373033935546875,-1.3921680450439453,-1.40122652053833,0.18667739629745483
1772810205683734300,0.382734375,-0.8928847312927246,-1.4630012512207031,0.8626880645751953
1772810205693434400,0.392434326171875,-0.3598313331604004,-1.1333308219909668,1.4390788078308105
1772810205703134500,0.402134521484375,0.05918312072753906,-0.7171630859375,1.4518721103668213
1772810205712834800,0.411834716796875,0.7825970649719238,-0.3620028495788574,1.123421311378479
1772810205722535000,0.421534912109375,1.4601106643676758,-0.034610748291015625,0.6537157893180847
1772810205732235000,0.431235107421875,1.876845359802246,0.7305727005004883,0.4536251425743103
1772810205741935000,0.44093505859375,2.097341537475586,1.509490966796875,0.3808724880218506
1772810205751635500,0.450635498046875,2.179198741912842,2.3997626304626465,0.12176269292831421
1772810205761335600,0.46033544921875,1.801591396331787,3.014704704284668,0.018070578575134277
1772810205771035600,0.47003564453125,3.816133975982666,4.373576641082764,0.9519992470741272
1772810205780736000,0.479736083984375,7.044456958770752,5.827101230621338,1.5961692333221436
1772810205790436000,0.48943603515625,8.26282024383545,7.002218246459961,1.7582730054855347
1772810205800136200,0.49913623046875,9.688926696777344,8.146430969238281,1.6223387718200684
1772810205809836300,0.508836181640625,11.065485000610352,9.447465896606445,1.225555419921875
1772810205819536400,0.518536376953125,11.401969909667969,10.663034439086914,0.9668834209442139
1772810205829236700,0.52823681640625,10.724092483520508,12.048084259033203,0.756067156791687
1772810205838936800,0.537936767578125,10.299018859863281,13.60879135131836,0.6313676834106445
1772810205848637000,0.547636962890625,11.233901977539062,14.006112098693848,0.9740965366363525
1772810205858337300,0.557337158203125,12.772486686706543,13.606589317321777,0.8712730407714844
1772810205868037400,0.567037353515625,15.403873443603516,13.03186321258545,0.5867806673049927
1772810205877737500,0.576737548828125,17.704692840576172,12.288409233093262,-0.06676265597343445
1772810205887437800,0.586437744140625,18.44316864013672,11.780206680297852,-1.329535961151123
1772810205897138000,0.596137939453125,17.68262481689453,10.94326400756836,-2.684818744659424
1772810205906838000,0.605838134765625,15.854076385498047,10.031708717346191,-3.5597636699676514
1772810205916538400,0.615538330078125,13.571072578430176,8.931995391845703,-3.6416778564453125
1772810205926238500,0.625238525390625,10.776450157165527,7.319567680358887,-3.2356367111206055
1772810205935938600,0.6349384765625,7.423251152038574,5.734744071960449,-2.6657512187957764
1772810205945638700,0.644638671875,3.7373785972595215,4.301064491271973,-1.9366719722747803
1772810205955339000,0.654339111328125,0.3777194023132324,2.953789710998535,-1.3512632846832275
1772810205965039000,0.6640390625,-1.6542878150939941,1.432143211364746,-0.9058892130851746
1772810205974739200,0.6737392578125,-2.561767101287842,-0.6396827697753906,-0.2924557328224182
1772810205984439300,0.683439208984375,-2.782252788543701,-3.0226192474365234,0.4777904748916626
1772810205994139600,0.6931396484375,-2.6008620262145996,-5.221302509307861,1.133884072303772
1772810206003839700,0.70283984375,-2.3873300552368164,-6.768567085266113,1.5425206422805786
1772810206013539800,0.712539794921875,-2.370504379272461,-8.029009819030762,1.8358697891235352
1772810206023240000,0.722239990234375,-2.2239770889282227,-9.663171768188477,2.2846598625183105
1772810206032940300,0.731940185546875,-2.4812068939208984,-11.726126670837402,2.7312448024749756
1772810206042640400,0.741640380859375,-3.039803981781006,-13.258804321289062,2.602057456970215
1772810206052340500,0.751340576171875,-3.95908784866333,-14.21565055847168,2.059068202972412
1772810206062040800,0.761040771484375,-5.233677387237549,-15.128037452697754,1.32154381275177
1772810206071741000,0.770740966796875,-6.504986763000488,-15.608335494995117,0.232684925198555
1772810206081441000,0.78044091796875,-7.58786678314209,-15.774744033813477,-0.6555477976799011
1772810206091141400,0.790141357421875,-8.47192096710205,-15.468133926391602,-1.3072974681854248
1772810206100841500,0.799841552734375,-9.27425765991211,-14.766006469726562,-1.5024172067642212
1772810206110541600,0.80954150390625,-10.089570999145508,-14.090909957885742,-1.2834103107452393
1772810206120242000,0.819241943359375,-10.745285034179688,-13.280582427978516,-1.0875755548477173
1772810206129942000,0.82894189453125,-11.14422607421875,-13.093809127807617,-0.6184833645820618
1772810206139642000,0.83864208984375,-11.29089069366455,-13.051691055297852,-0.313545823097229
1772810206149342200,0.84834228515625,-11.25901985168457,-12.547394752502441,-0.30428287386894226
1772810206159042600,0.85804248046875,-11.308067321777344,-12.072166442871094,-0.5376360416412354
1772810206168742700,0.86774267578125,-10.565217018127441,-11.625161170959473,-0.8672546148300171
1772810206178442800,0.87744287109375,-9.40644645690918,-11.204782485961914,-1.1453063488006592
1772810206188142800,0.887142822265625,-8.264854431152344,-10.676560401916504,-1.335389256477356
1772810206197843000,0.896843017578125,-7.164089202880859,-10.335268020629883,-1.328549861907959
1772810206207543300,0.906543212890625,-6.115346908569336,-10.06943130493164,-1.19970703125
1772810206217243400,0.916243408203125,-5.263241767883301,-9.729188919067383,-1.0846567153930664
1772810206226943500,0.925943603515625,-4.6577558517456055,-9.37157154083252,-0.8438431620597839
1772810206236643800,0.935643798828125,-4.211818695068359,-9.147884368896484,-0.48724859952926636
1772810206246344000,0.945343994140625,-3.8700408935546875,-8.996533393859863,-0.211287260055542
1772810206256044000,0.9550439453125,-3.295315742492676,-8.73953628540039,0.054120421409606934
1772810206265744400,0.964744384765625,-2.820985794067383,-8.543489456176758,0.38237690925598145
1772810206275444500,0.974444580078125,-2.339607000350952,-8.43208122253418,0.7120669484138489
1772810206285144600,0.98414453125,-1.8454983234405518,-8.236498832702637,0.9964245557785034
1772810206294845000,0.993844970703125,-1.3276619911193848,-8.115662574768066,1.364163875579834
1772810206304545000,1.003544921875,-0.8302123546600342,-7.923271656036377,1.5555026531219482
1772810206314245000,1.0132451171875,-0.469165563583374,-7.575423717498779,1.6893459558486938
1772810206323945200,1.0229453125,-0.24748635292053223,-7.263380527496338,1.852501392364502
1772810206333645600,1.0326455078125,-0.16591691970825195,-6.942042827606201,2.0387072563171387
1772810206343345700,1.042345703125,0.012683391571044922,-6.438126564025879,1.9636030197143555
1772810206353045800,1.052045654296875,0.08733129501342773,-5.822043418884277,1.8861887454986572
1772810206362746000,1.06174609375,-0.09984827041625977,-5.357262134552002,1.8681342601776123
1772810206372446200,1.0714462890625,-0.3645458221435547,-4.89729118347168,1.7961012125015259
1772810206382146300,1.081146240234375,-0.3496072292327881,-4.287847995758057,1.7179688215255737
1772810206391846400,1.090846435546875,-0.28850364685058594,-3.282109260559082,1.5977078676223755
1772810206401546500,1.10054638671875,-0.2743213176727295,-1.755444049835205,1.149253249168396
1772810206411246800,1.110246826171875,-0.23119473457336426,0.8958930969238281,0.21363645792007446
1772810206420947000,1.119947021484375,-0.6286683082580566,3.7721781730651855,-0.7752206921577454
1772810206430647000,1.12964697265625,-0.7279675006866455,5.624035358428955,-0.8364534974098206
1772810206440347400,1.139347412109375,0.24645662307739258,6.489405155181885,-0.03284688666462898
1772810206450047500,1.149047607421875,2.0656485557556152,8.16119384765625,0.3461490571498871
1772810206459747600,1.15874755859375,3.1983931064605713,11.388509750366211,-1.0233333110809326
1772810206469447700,1.16844775390625,4.317558288574219,14.531824111938477,-2.657121419906616
1772810206479148000,1.17814794921875,5.095664024353027,16.68110466003418,-2.955115556716919
1772810206488848100,1.18784814453125,5.932173252105713,16.335575103759766,-1.5576915740966797
1772810206498548200,1.19754833984375,6.724310874938965,15.933663368225098,-0.049172140657901764
1772810206508248600,1.20724853515625,7.899344444274902,15.964509963989258,0.9126347303390503
1772810206517948700,1.21694873046875,9.49354362487793,15.604658126831055,1.650259017944336
1772810206527648800,1.226648681640625,11.619115829467773,15.125856399536133,2.0631985664367676
1772810206537349000,1.23634912109375,14.010167121887207,14.737038612365723,2.102299213409424
1772810206547049200,1.24604931640625,14.99769401550293,13.845966339111328,2.466930866241455
1772810206556749300,1.255749267578125,14.590261459350586,13.375802993774414,2.4346399307250977
1772810206566449400,1.265449462890625,14.190437316894531,13.580099105834961,1.581818699836731
1772810206576149500,1.2751494140625,11.816560745239258,12.269508361816406,0.8530701398849487
1772810206585849900,1.284849853515625,8.434370040893555,10.964812278747559,0.24869447946548462
1772810206595550000,1.294550048828125,5.395973205566406,9.391261100769043,-0.15957015752792358
1772810206605250000,1.30425,2.731930732727051,7.368191719055176,-0.22380393743515015
1772810206614950100,1.3139501953125,0.5420141220092773,5.6003875732421875,-0.2881470322608948
1772810206624650500,1.323650390625,-0.8665804862976074,4.058574676513672,-0.2848755717277527
1772810206634350600,1.3333505859375,-1.7688775062561035,2.546039581298828,-0.29430150985717773
1772810206644050700,1.34305078125,-2.3926901817321777,1.0197982788085938,-0.2895565629005432
1772810206653751000,1.3527509765625,-2.750073194503784,-0.45966148376464844,-0.4011448323726654
1772810206663451100,1.362451171875,-2.9857702255249023,-1.6060733795166016,-0.49099403619766235
1772810206673151200,1.372151123046875,-3.3577141761779785,-2.5663986206054688,-0.5823829770088196
1772810206682851600,1.3818515625,-3.932621955871582,-3.3830270767211914,-0.6599631905555725
1772810206692551700,1.3915517578125,-4.619548797607422,-4.084272861480713,-0.777938723564148
1772810206702251800,1.401251708984375,-5.11122465133667,-4.6269636154174805,-0.9360857605934143
1772810206711952000,1.410951904296875,-5.58819055557251,-5.037152290344238,-1.0854525566101074
1772810206721652200,1.42065234375,-6.023964881896973,-5.398658752441406,-1.2376832962036133
1772810206731352300,1.430352294921875,-6.22971248626709,-5.723890781402588,-1.3749668598175049
1772810206741052400,1.440052490234375,-6.361016273498535,-6.0978240966796875,-1.5053863525390625
1772810206750752800,1.449752685546875,-6.425360679626465,-6.475829124450684,-1.6504408121109009
1772810206760452900,1.459452880859375,-6.4855756759643555,-6.852331161499023,-1.7425053119659424
1772810206770153000,1.469153076171875,-6.573561668395996,-7.175143241882324,-2.0621023178100586
1772810206779853000,1.47885302734375,-6.396424293518066,-7.326445579528809,-2.3343358039855957
1772810206789553200,1.48855322265625,-6.081544399261475,-7.447100639343262,-2.4324114322662354
1772810206799253500,1.49825341796875,-5.7389140129089355,-7.643181324005127,-2.3876445293426514
1772810206808953600,1.50795361328125,-5.345158576965332,-7.788191795349121,-2.2560131549835205
1772810206818653700,1.51765380859375,-4.974767684936523,-7.831927299499512,-1.9454705715179443
1772810206828354000,1.52735400390625,-4.607628345489502,-7.902477741241455,-1.4834296703338623
1772810206838054100,1.53705419921875,-4.381689071655273,-7.959573745727539,-1.0603994131088257
1772810206847754200,1.546754150390625,-4.052427291870117,-8.00062084197998,-0.5888815522193909
1772810206857454300,1.556454345703125,-3.808856964111328,-8.040589332580566,-0.17409056425094604
1772810206867154700,1.56615478515625,-3.5444092750549316,-8.001737594604492,0.14531588554382324
1772810206876854800,1.575854736328125,-3.137878894805908,-7.8637824058532715,0.3205034136772156
1772810206886555000,1.585554931640625,-2.7895374298095703,-7.530637741088867,0.49374890327453613
1772810206896255200,1.595255126953125,-2.542360544204712,-7.106249809265137,0.614068329334259
1772810206905955300,1.604955322265625,-1.9147706031799316,-6.659465312957764,0.8035601377487183
1772810206915655400,1.614655517578125,-1.0261707305908203,-6.256998062133789,1.130526065826416
1772810206925355800,1.624355712890625,-0.040175437927246094,-5.356329917907715,1.382988691329956
1772810206935056000,1.634055908203125,1.3943004608154297,-4.0530524253845215,1.6930437088012695
1772810206944756000,1.643755859375,2.8200154304504395,-2.5588674545288086,2.0799355506896973
1772810206954456000,1.6534560546875,3.9908523559570312,-0.7214641571044922,2.4420418739318848
1772810206964156400,1.663156494140625,5.160761833190918,1.3973217010498047,2.65983247756958
1772810206973856500,1.6728564453125,6.648404598236084,3.658291816711426,2.6358447074890137
1772810206983556600,1.682556640625,8.277063369750977,6.420029640197754,2.3903040885925293
1772810206993256700,1.692256591796875,10.237659454345703,9.309030532836914,1.9702579975128174
1772810207002956800,1.701956787109375,12.073129653930664,12.298137664794922,1.890765905380249
1772810207012657200,1.7116572265625,13.331893920898438,14.853322982788086,2.6748061180114746
1772810207022357200,1.721357177734375,14.485664367675781,15.305376052856445,4.497011184692383
1772810207032057300,1.731057373046875,14.881059646606445,16.761032104492188,5.620840549468994
1772810207041757700,1.7407578125,15.843742370605469,18.89411163330078,5.852044105529785
1772810207051457800,1.750457763671875,17.094093322753906,19.81301498413086,5.56412935256958
1772810207061158000,1.760157958984375,17.9064884185791,20.630441665649414,4.377242565155029
1772810207070858000,1.76985791015625,18.61502456665039,20.968353271484375,2.6135873794555664
1772810207080558300,1.779558349609375,18.51639175415039,20.603971481323242,0.8711327314376831
1772810207090258400,1.789258544921875,17.338829040527344,19.804088592529297,-0.5462396144866943
1772810207099958500,1.79895849609375,15.394318580627441,18.430299758911133,-1.4852256774902344
1772810207109659000,1.808658935546875,12.44019889831543,16.242488861083984,-1.8824248313903809
1772810207119359000,1.81835888671875,9.01272964477539,13.366562843322754,-1.5786505937576294
1772810207129059000,1.82805908203125,5.954588413238525,10.223987579345703,-1.137815237045288
1772810207138759200,1.83775927734375,3.3676137924194336,7.046402931213379,-0.5500355958938599
1772810207148459500,1.84745947265625,0.9094681739807129,3.7285709381103516,0.05217170715332031
1772810207158159600,1.85715966796875,-1.3166694641113281,0.4342803955078125,0.5929036140441895
1772810207167859700,1.866859619140625,-3.0798981189727783,-2.4530043601989746,0.9399282932281494
1772810207177560000,1.87656005859375,-4.593316078186035,-4.881439208984375,0.96651291847229
1772810207187260200,1.88626025390625,-5.659262657165527,-6.778305530548096,0.5710849761962891
1772810207196960300,1.895960205078125,-6.16603422164917,-7.947232246398926,-0.1359877586364746
1772810207206660400,1.905660400390625,-6.189453125,-8.763677597045898,-0.831268310546875
1772810207216360400,1.9153603515625,-6.042457580566406,-9.639394760131836,-1.323843002319336
1772810207226060800,1.925060791015625,-5.634845733642578,-10.542543411254883,-1.735945701599121
1772810207235761000,1.934760986328125,-5.020354270935059,-11.301509857177734,-2.200967311859131
1772810207245461000,1.9444609375,-4.455938339233398,-11.760843276977539,-2.8150670528411865
1772810207255161000,1.9541611328125,-4.107558727264404,-11.855759620666504,-3.567941665649414
1772810207264861400,1.963861328125,-3.8900866508483887,-11.735272407531738,-4.152352333068848
1772810207274561500,1.9735615234375,-3.817673921585083,-11.528546333312988,-4.546109199523926
1772810207284261600,1.98326171875,-3.910534381866455,-11.240092277526855,-4.717141151428223
1772810207293962000,1.9929619140625,-4.073015213012695,-10.853602409362793,-4.631314277648926
1772810207303662000,2.002662109375,-4.28361177444458,-10.491514205932617,-4.262763023376465
1772810207313362200,2.012362060546875,-4.4808783531188965,-10.316996574401855,-3.705155849456787
1772810207323062300,2.022062255859375,-4.706499099731445,-10.29532527923584,-3.1193935871124268
1772810207332762600,2.0317626953125,-4.771505355834961,-10.253257751464844,-2.657576560974121
1772810207342462700,2.041462646484375,-4.731172561645508,-10.333451271057129,-2.194885015487671
1772810207352162800,2.051162841796875,-4.5089030265808105,-10.379964828491211,-1.9007172584533691
1772810207361863200,2.06086328125,-4.415083885192871,-10.881864547729492,-1.6696782112121582
1772810207371563300,2.070563232421875,-4.116243362426758,-10.874524116516113,-1.446419596672058
1772810207381263400,2.080263427734375,-3.830841064453125,-10.606332778930664,-1.496778964996338
1772810207390963500,2.08996337890625,-3.695773124694824,-10.448223114013672,-1.6045587062835693
1772810207400663800,2.099663818359375,-3.400430917739868,-10.551168441772461,-1.6448075771331787
1772810207410364000,2.109364013671875,-3.003227472305298,-10.6651029586792,-1.6767032146453857
1772810207420064000,2.11906396484375,-2.8357784748077393,-10.635077476501465,-1.7076466083526611
1772810207429764000,2.12876416015625,-2.8874826431274414,-10.529916763305664,-1.6988946199417114
1772810207439464200,2.138464111328125,-2.9945359230041504,-10.396490097045898,-1.6218243837356567
1772810207449164500,2.14816455078125,-3.132502317428589,-10.179014205932617,-1.5049057006835938
1772810207458864600,2.15786474609375,-3.2977640628814697,-10.040908813476562,-1.2770105600357056
1772810207468564700,2.167564697265625,-3.2977664470672607,-9.948485374450684,-1.0124855041503906
1772810207478265000,2.17726513671875,-3.218384265899658,-9.774420738220215,-0.803598165512085
1772810207487965200,2.186965087890625,-3.1588222980499268,-9.520078659057617,-0.6537356376647949
1772810207497665300,2.196665283203125,-2.98675799369812,-9.263656616210938,-0.5742915868759155
1772810207507365400,2.206365478515625,-2.767108201980591,-8.948101997375488,-0.467676043510437
1772810207517065700,2.216065673828125,-2.473928451538086,-8.623400688171387,-0.2116502821445465
1772810207526765800,2.225765869140625,-2.1557505130767822,-8.24020767211914,0.05647122859954834
1772810207536466000,2.2354658203125,-1.4720573425292969,-7.4663920402526855,0.2237706184387207
1772810207546166300,2.245166259765625,-0.8311209678649902,-6.188484191894531,0.3123452961444855
1772810207555866400,2.254866455078125,-0.4355494976043701,-4.635261058807373,0.19819903373718262
1772810207565566500,2.26456640625,-0.4067497253417969,-2.5820727348327637,-0.2490275502204895
1772810207575266600,2.2742666015625,-0.27163124084472656,-0.23929119110107422,-0.832627534866333
1772810207584967000,2.283966796875,0.5944004058837891,1.7059602737426758,-1.1130166053771973
1772810207594667000,2.2936669921875,2.377072334289551,3.4194865226745605,-1.3200764656066895
1772810207604367000,2.3033671875,3.80906343460083,6.640041828155518,-2.6866605281829834
1772810207614067500,2.3130673828125,4.410712242126465,10.939582824707031,-4.572182655334473
1772810207623767600,2.322767578125,5.8323798179626465,12.124771118164062,-3.8115272521972656
1772810207633467600,2.332467529296875,7.354622840881348,12.253384590148926,-2.375516891479492
1772810207643167700,2.342167724609375,8.698986053466797,13.427254676818848,-1.0964754819869995
1772810207652867800,2.351867919921875,9.600072860717773,13.78512191772461,0.5535743236541748
1772810207662568200,2.361568115234375,10.60784912109375,14.024173736572266,1.8330512046813965
1772810207672268300,2.371268310546875,12.062655448913574,14.266385078430176,2.5936245918273926
1772810207681968400,2.380968505859375,13.708061218261719,14.064778327941895,3.151759624481201
1772810207691668500,2.39066845703125,15.179455757141113,13.233731269836426,3.3896303176879883
1772810207701368800,2.400368896484375,15.44865608215332,12.08967399597168,3.198765277862549
1772810207711069000,2.41006884765625,14.550783157348633,11.542412757873535,2.174862861633301
1772810207720769000,2.41976904296875,12.823713302612305,11.156055450439453,0.989825963973999
1772810207730469000,2.42946923828125,9.961544036865234,10.076921463012695,0.3750036954879761
1772810207740169500,2.43916943359375,6.675810813903809,8.653343200683594,0.31207001209259033
1772810207749869600,2.44886962890625,3.5475387573242188,7.177513599395752,0.5325632095336914
1772810207759569700,2.458569580078125,0.7421422004699707,5.996631145477295,0.90887451171875
1772810207769270000,2.46827001953125,-1.3713974952697754,5.249385833740234,1.4277937412261963
1772810207778970000,2.47797021484375,-2.7458693981170654,4.522408485412598,2.033111095428467
1772810207788670200,2.487670166015625,-3.5255327224731445,3.5415782928466797,2.4318199157714844
1772810207798370300,2.497370361328125,-3.6886518001556396,2.530815601348877,2.4710171222686768
1772810207808070700,2.507070556640625,-3.578756093978882,1.499685287475586,2.08591365814209
1772810207817770800,2.516770751953125,-3.2027926445007324,0.48981714248657227,1.4221646785736084
1772810207827470800,2.526470947265625,-2.7069969177246094,-0.5122599601745605,0.6888015270233154
1772810207837171200,2.536171142578125,-2.2225875854492188,-1.5698575973510742,-0.01422119140625
1772810207846871300,2.545871337890625,-2.1570591926574707,-2.5278077125549316,-0.5824577808380127
1772810207856571400,2.5555712890625,-2.2253708839416504,-3.304683208465576,-1.1200079917907715
1772810207866271500,2.565271484375,-2.4322333335876465,-3.9056084156036377,-1.5902632474899292
1772810207875971800,2.574971923828125,-2.8996267318725586,-4.360121726989746,-1.9189022779464722
1772810207885672000,2.584671875,-3.588798761367798,-4.743130683898926,-2.1607823371887207
1772810207895372000,2.5943720703125,-4.220020294189453,-5.008421897888184,-2.3193228244781494
1772810207905072000,2.604072021484375,-4.748662948608398,-5.252734184265137,-2.3956298828125
1772810207914772200,2.613772216796875,-5.266062259674072,-5.496277809143066,-2.426210641860962
1772810207924472600,2.62347265625,-5.733504295349121,-5.79665994644165,-2.322744369506836
1772810207934172700,2.633172607421875,-6.264423370361328,-6.17250919342041,-2.22633957862854
1772810207943872800,2.642872802734375,-6.591218948364258,-6.144128322601318,-2.1381638050079346
1772810207953572900,2.65257275390625,-6.648703098297119,-6.085320949554443,-2.0785350799560547
1772810207963273200,2.662273193359375,-6.648698329925537,-6.169568061828613,-1.8395814895629883
1772810207972973300,2.671973388671875,-6.636491775512695,-6.276353359222412,-1.588786244392395
1772810207982672400,2.68167236328125,-6.556748867034912,-6.231574535369873,-1.515533685684204
1772810207992372500,2.69137255859375,-6.306128025054932,-6.156273365020752,-1.3292171955108643
1772810208002072600,2.701072509765625,-5.914153099060059,-6.287930488586426,-0.9142395257949829
1772810208011772700,2.710772705078125,-5.497969627380371,-6.377280235290527,-0.5337386131286621
1772810208021472800,2.72047265625,-5.18532657623291,-6.206587314605713,-0.4768953323364258
1772810208031173000,2.730173095703125,-4.773716926574707,-5.813718795776367,-0.3322308659553528
1772810208040873200,2.739873291015625,-4.301671028137207,-5.4669575691223145,-0.09142041206359863
1772810208050573300,2.7495732421875,-3.9052414894104004,-5.06928825378418,0.08682656288146973
1772810208060273400,2.7592734375,-3.4164257049560547,-4.484413146972656,0.1693120002746582
1772810208069973800,2.768973876953125,-2.830495834350586,-3.7057929039001465,0.24869567155838013
1772810208079673900,2.778673828125,-2.277200222015381,-2.8012261390686035,0.5142511129379272
1772810208089374000,2.7883740234375,-1.5895838737487793,-2.132899284362793,0.8710119128227234
1772810208099074300,2.79807421875,-0.8202166557312012,-1.4807777404785156,1.0180143117904663
1772810208108774400,2.8077744140625,0.08098793029785156,-0.520688533782959,0.82090824842453
1772810208118474500,2.817474609375,0.928494930267334,1.0242304801940918,0.1423426866531372
1772810208128174600,2.827174560546875,1.6083755493164062,3.2124996185302734,-0.7103968262672424
1772810208137875000,2.836875,2.3016014099121094,6.421316623687744,-1.8820858001708984
1772810208147575000,2.846574951171875,3.4297080039978027,9.729928016662598,-2.6563851833343506
1772810208157275100,2.856275146484375,5.514863014221191,11.53184986114502,-2.759896993637085
1772810208166975500,2.8659755859375,8.753437042236328,14.04954719543457,-2.761429786682129
1772810208176675600,2.875675537109375,12.89587688446045,17.520401000976562,-2.157809257507324
1772810208186375700,2.885375732421875,16.784116744995117,19.745223999023438,-0.4063175916671753
1772810208196075800,2.89507568359375,20.315168380737305,19.986221313476562,3.6477484703063965
1772810208205776100,2.904776123046875,22.143434524536133,18.088027954101562,9.814584732055664
1772810208215476200,2.914476318359375,22.1866455078125,15.206758499145508,14.61372184753418
1772810208225176300,2.92417626953125,22.956754684448242,13.708234786987305,15.468992233276367
1772810208234876400,2.93387646484375,25.002925872802734,13.467050552368164,13.063973426818848
1772810208244576800,2.94357666015625,25.459564208984375,12.500118255615234,10.179220199584961
1772810208254276900,2.95327685546875,24.16461753845215,10.827352523803711,7.412618160247803
1772810208263977000,2.96297705078125,21.466053009033203,9.196157455444336,4.955476760864258
1772810208273677000,2.972677001953125,16.888736724853516,7.09647798538208,3.101606845855713
1772810208283377200,2.982377197265625,12.412765502929688,6.396612644195557,1.540374994277954
1772810208293077500,2.992077392578125,7.1536736488342285,4.926113128662109,0.4261295795440674
1772810208302777600,3.001777587890625,1.587904930114746,3.276266098022461,-0.06466460227966309
1772810208312477700,3.011477783203125,-2.280017375946045,1.4749279022216797,-0.14306926727294922
1772810208322177800,3.021177734375,-5.491556167602539,0.296844482421875,-0.3114652633666992
1772810208331878100,3.030878173828125,-7.403572082519531,-1.1077685356140137,-0.6283950805664062
1772810208341578200,3.040578125,-7.925835609436035,-3.501553535461426,-0.9299044609069824
1772810208351278300,3.0502783203125,-7.549578666687012,-5.648473739624023,-1.3547980785369873
1772810208360978700,3.059978759765625,-7.0140533447265625,-6.919707298278809,-2.1086630821228027
1772810208370678800,3.0696787109375,-6.077408313751221,-8.268020629882812,-3.0486745834350586
1772810208380379000,3.07937890625,-5.355214595794678,-9.573708534240723,-3.662890911102295
1772810208390079000,3.089078857421875,-5.251986503601074,-10.675226211547852,-3.7204649448394775
1772810208399779300,3.098779296875,-5.281115531921387,-11.52618408203125,-3.529035806655884
1772810208409479400,3.1084794921875,-5.328115463256836,-11.706077575683594,-3.495023250579834
1772810208419179500,3.118179443359375,-5.5754547119140625,-11.224254608154297,-3.49169921875
1772810208428879600,3.127879638671875,-6.15177059173584,-10.514693260192871,-3.273695468902588
1772810208438580000,3.137580078125,-6.888293743133545,-10.082070350646973,-2.916499614715576
1772810208448280000,3.147280029296875,-7.575560092926025,-9.776715278625488,-2.441986322402954
1772810208457980200,3.156980224609375,-8.175256729125977,-9.554383277893066,-1.880194902420044
1772810208467680500,3.166680419921875,-8.457188606262207,-9.45811653137207,-1.3906478881835938
1772810208477380600,3.176380615234375,-8.351668357849121,-9.425923347473145,-0.9936774969100952
1772810208487080700,3.186080810546875,-8.069926261901855,-9.553531646728516,-0.6306942701339722
1772810208496780800,3.19578076171875,-7.634313583374023,-9.677472114562988,-0.3917577266693115
1772810208506481000,3.20548095703125,-7.1619462966918945,-9.73251724243164,-0.2628951072692871
1772810208516181000,3.215180908203125,-6.783587455749512,-9.73098087310791,-0.14220207929611206
1772810208525881300,3.22488134765625,-6.6130218505859375,-9.78043270111084,-0.110562264919281
1772810208535581400,3.23458154296875,-6.435455799102783,-9.930044174194336,-0.13549789786338806
1772810208545281500,3.244281494140625,-6.148627281188965,-9.986860275268555,-0.21525147557258606
1772810208554981600,3.253981689453125,-5.848340034484863,-9.971844673156738,-0.29748186469078064
1772810208564682000,3.263681884765625,-5.5325026512146,-9.957945823669434,-0.3614859879016876
1772810208574382000,3.273382080078125,-5.212018966674805,-9.901969909667969,-0.41228702664375305
1772810208584082200,3.283082275390625,-4.8447980880737305,-9.868175506591797,-0.3971415162086487
1772810208593782500,3.292782470703125,-4.580214500427246,-9.808494567871094,-0.3734559416770935
1772810208603482600,3.302482666015625,-4.478391647338867,-9.724772453308105,-0.38850995898246765
1772810208613182700,3.3121826171875,-4.22124719619751,-9.598482131958008,-0.11654156446456909
1772810208622882800,3.3218828125,-4.0173563957214355,-9.631197929382324,0.3111916184425354
1772810208632583200,3.331583251953125,-3.9393153190612793,-9.657804489135742,0.6855772137641907
1772810208642283300,3.341283203125,-3.8071281909942627,-9.424100875854492,0.9867411255836487
1772810208651983400,3.3509833984375,-3.6128950119018555,-9.18862533569336,1.386915683746338
1772810208661683500,3.360683349609375,-3.3871829509735107,-9.122963905334473,1.8359308242797852
1772810208671383800,3.3703837890625,-3.164952039718628,-8.950201034545898,2.1204886436462402
1772810208681084000,3.380083984375,-2.649049758911133,-8.363306999206543,2.5090863704681396
1772810208690784000,3.389783935546875,-1.8880529403686523,-7.735282897949219,2.8506546020507812
1772810208700484000,3.399484130859375,-1.3046231269836426,-6.698371410369873,3.1380343437194824
1772810208710184400,3.409184326171875,-0.8710637092590332,-5.039694786071777,3.018465518951416
1772810208719884500,3.418884521484375,-0.03778219223022461,-2.995175838470459,2.6103243827819824
1772810208729584600,3.428584716796875,1.1937665939331055,-0.7819013595581055,2.731703281402588
1772810208739285000,3.438284912109375,3.585165023803711,1.4776921272277832,3.206226110458374
1772810208748985000,3.447985107421875,7.068193435668945,4.401485919952393,3.7300422191619873
1772810208758685200,3.457685302734375,9.409969329833984,8.822717666625977,2.8534045219421387
1772810208768385300,3.46738525390625,9.822463989257812,14.33139419555664,-0.0810849666595459
1772810208778085400,3.47708544921875,9.670740127563477,16.535343170166016,-2.198098659515381
1772810208787785500,3.486785400390625,7.759275913238525,16.852855682373047,-3.767988681793213
1772810208797485800,3.49648583984375,6.70670223236084,18.892257690429688,-5.1397705078125
1772810208807186000,3.50618603515625,7.461668014526367,19.55105209350586,-4.649483680725098
1772810208816886000,3.515885986328125,9.617703437805176,19.025108337402344,-3.622361183166504
1772810208826586000,3.525586181640625,12.360660552978516,19.397180557250977,-4.44027042388916
1772810208836286500,3.535286376953125,14.159895896911621,19.564319610595703,-5.455760478973389
1772810208845986600,3.544986572265625,15.21153450012207,18.48250389099121,-4.818511009216309
1772810208855686700,3.554686767578125,14.739072799682617,17.101716995239258,-3.6897225379943848
1772810208865387000,3.564386962890625,12.602707862854004,15.762831687927246,-2.918100595474243
1772810208875087000,3.574087158203125,9.488195419311523,14.199105262756348,-2.092057228088379
1772810208884787200,3.583787109375,5.761721611022949,12.081945419311523,-0.9460820555686951
1772810208894487300,3.5934873046875,2.4170174598693848,9.64949893951416,0.24012458324432373
1772810208904187600,3.603187744140625,-0.057908058166503906,7.261143684387207,1.0063591003417969
1772810208913887700,3.6128876953125,-1.5254111289978027,5.16615104675293,1.1067458391189575
1772810208923587800,3.622587890625,-2.2902512550354004,3.261789321899414,0.9835042953491211
1772810208933288000,3.632287841796875,-2.6597256660461426,1.2811336517333984,0.828507125377655
1772810208942988300,3.64198828125,-2.8277831077575684,-0.36221981048583984,0.5469623804092407
1772810208952688400,3.6516884765625,-2.9001832008361816,-1.6990318298339844,0.1549443006515503
1772810208962388500,3.661388427734375,-2.8187246322631836,-2.9939680099487305,-0.2318214625120163
1772810208972088600,3.671088623046875,-2.743145227432251,-4.12048864364624,-0.6136587858200073
1772810208981789000,3.680788818359375,-2.9817066192626953,-5.009611129760742,-0.9337222576141357
1772810208991489000,3.690489013671875,-3.4283154010772705,-5.841442108154297,-1.0128847360610962
1772810209001189000,3.700189208984375,-3.9577815532684326,-6.625809669494629,-0.8263243436813354
1772810209010889200,3.70988916015625,-4.481348037719727,-7.34004545211792,-0.5759834051132202
1772810209020589600,3.719589599609375,-4.970539093017578,-7.963263988494873,-0.30874836444854736
1772810209030289700,3.72928955078125,-5.3182525634765625,-8.429152488708496,-0.12276194989681244
1772810209039989800,3.73898974609375,-5.431117534637451,-8.681593894958496,-0.011996090412139893
1772810209049689900,3.74868994140625,-5.4815216064453125,-8.828401565551758,0.04745000600814819
1772810209059390000,3.758389892578125,-5.481876373291016,-8.981627464294434,0.12475456297397614
1772810209069090300,3.76809033203125,-5.523427963256836,-8.976957321166992,0.03226508945226669
1772810209078790400,3.777790283203125,-5.588395118713379,-8.840811729431152,-0.10349415242671967
1772810209088490500,3.787490478515625,-5.605136394500732,-8.752866744995117,-0.10948146879673004
1772810209098190600,3.797190673828125,-5.707399845123291,-8.633440971374512,-0.10468585044145584
1772810209107891000,3.806890869140625,-5.840238571166992,-8.503113746643066,0.018401555716991425
1772810209117591000,3.816591064453125,-5.926053047180176,-8.496223449707031,0.08725002408027649
1772810209127291100,3.826291015625,-6.034177780151367,-8.429817199707031,0.10996691882610321
1772810209136991200,3.8359912109375,-6.207576274871826,-8.25752067565918,0.16146928071975708
1772810209146691600,3.845691650390625,-6.367346286773682,-8.10262393951416,0.31545284390449524
1772810209156391700,3.8553916015625,-6.5137152671813965,-8.012840270996094,0.46062514185905457
1772810209166091800,3.865091796875,-6.723883152008057,-8.039258003234863,0.6687865257263184
1772810209175791900,3.8747919921875,-6.64918851852417,-7.955589771270752,0.7571982145309448
1772810209185492200,3.8844921875,-6.266265869140625,-7.881317615509033,0.8962838649749756
1772810209195192300,3.8941923828125,-5.916700839996338,-7.920188903808594,0.9728638529777527
1772810209204892400,3.903892333984375,-5.415072441101074,-7.846827983856201,1.0553162097930908
1772810209214592500,3.913592529296875,-4.815201759338379,-7.501108169555664,1.0696730613708496
1772810209224292900,3.92329296875,-4.108574390411377,-6.79534912109375,1.0546506643295288
1772810209233993000,3.932992919921875,-3.3380486965179443,-5.547245025634766,0.7821919918060303
1772810209243693000,3.942693115234375,-2.5402302742004395,-3.7063498497009277,0.08874779939651489
1772810209253393200,3.95239306640625,-1.7876362800598145,-1.2417845726013184,-0.714006245136261
1772810209263093500,3.962093505859375,-0.6411266326904297,1.490342617034912,-1.1558541059494019
1772810209272793600,3.971793701171875,1.4250941276550293,4.331311225891113,-1.3800286054611206
1772810209282493700,3.98149365234375,4.15854549407959,7.203644752502441,-1.1591072082519531
1772810209292193800,3.99119384765625,6.973174095153809,9.494295120239258,-0.4951741695404053
1772810209301894100,4.00089404296875,8.454774856567383,12.567678451538086,-0.7548158168792725
1772810209311594200,4.01059423828125,9.252618789672852,16.246444702148438,-1.6060810089111328
1772810209321294300,4.02029443359375,11.641393661499023,16.821130752563477,-1.6670202016830444
1772810209330994400,4.029994384765625,14.176319122314453,17.527347564697266,-2.540208578109741
1772810209340694800,4.03969482421875,18.041976928710938,19.387989044189453,-4.396592617034912
1772810209350395000,4.049394775390625,22.89005470275879,19.782997131347656,-4.806359767913818
1772810209360095000,4.059094970703125,25.459800720214844,19.146711349487305,-3.5086488723754883
1772810209369795000,4.068795166015625,26.697181701660156,18.18914794921875,-1.8636397123336792
1772810209379495200,4.0784951171875,25.63323211669922,17.569591522216797,-0.5701791048049927
1772810209389195500,4.088195556640625,23.167030334472656,17.146183013916016,-0.1748744547367096
1772810209398895600,4.0978955078125,20.468219757080078,16.42319107055664,-0.8552824258804321
1772810209408595700,4.107595703125,16.080482482910156,14.738170623779297,-1.8847200870513916
1772810209418295800,4.1172958984375,11.07502555847168,12.393692016601562,-2.4610917568206787
1772810209427996200,4.12699609375,6.917874813079834,9.68090534210205,-2.149199962615967
1772810209437696300,4.1366962890625,3.2824225425720215,6.848269462585449,-1.1281392574310303
1772810209447396400,4.146396240234375,-0.21823692321777344,4.96766471862793,-0.45211201906204224
1772810209457096400,4.156096435546875,-3.0598528385162354,4.355198860168457,-0.2567688822746277
1772810209466796800,4.165796875,-5.28939151763916,4.1238203048706055,-0.33001798391342163
1772810209476497000,4.175496826171875,-6.652693748474121,3.0901918411254883,-0.009191155433654785
1772810209486197000,4.185197021484375,-7.244017124176025,1.0399913787841797,0.9293016791343689
1772810209495897000,4.19489697265625,-7.19795036315918,-1.1291017532348633,1.8912004232406616
1772810209505597400,4.204597412109375,-6.412098407745361,-3.135195732116699,2.28924560546875
1772810209515297500,4.214297607421875,-5.5784010887146,-4.844215393066406,2.333599090576172
1772810209524997600,4.22399755859375,-4.704414367675781,-6.41640567779541,2.3459231853485107
1772810209534697700,4.23369775390625,-4.014906883239746,-7.591787338256836,2.2631423473358154
1772810209544398000,4.243398193359375,-3.4297757148742676,-8.105886459350586,2.145128011703491
1772810209554098200,4.25309814453125,-3.065128803253174,-8.478796005249023,1.9709231853485107
1772810209563798300,4.26279833984375,-3.180960178375244,-8.751914024353027,1.4318374395370483
1772810209573498400,4.272498291015625,-3.766448974609375,-8.658147811889648,0.5670807361602783
1772810209583198700,4.28219873046875,-4.753025054931641,-8.512203216552734,-0.20111620426177979
1772810209592898800,4.29189892578125,-5.700225353240967,-8.671222686767578,-0.6380846500396729
1772810209602599000,4.301598876953125,-6.410267353057861,-8.77647876739502,-0.7312401533126831
1772810209612299000,4.311299072265625,-7.354255676269531,-8.64949893951416,-0.5461367964744568
1772810209621999400,4.320999267578125,-8.308652877807617,-8.642845153808594,-0.05642315745353699
1772810209631699500,4.330699462890625,-8.725714683532715,-8.812090873718262,0.45803970098495483
1772810209641399600,4.340399658203125,-8.556947708129883,-8.863588333129883,0.7871693968772888
1772810209651099600,4.350099609375,-7.739475250244141,-8.826607704162598,0.8736146092414856
1772810209660799700,4.3597998046875,-6.690008640289307,-8.857434272766113,0.7345440983772278
1772810209670500000,4.3695,-5.965868949890137,-8.84874153137207,0.5035671591758728
1772810209680200200,4.3792001953125,-5.285866737365723,-8.883706092834473,0.2609885334968567
1772810209689900300,4.388900390625,-4.429173469543457,-8.91930866241455,0.15202312171459198
1772810209699600400,4.398600341796875,-3.6064770221710205,-8.979485511779785,0.21061499416828156
1772810209709300500,4.408300537109375,-3.0366673469543457,-9.075540542602539,0.22101154923439026
1772810209719000800,4.418000732421875,-2.7516860961914062,-9.151066780090332,0.17702017724514008
1772810209728701000,4.427700927734375,-2.7854092121124268,-9.240798950195312,0.15887705981731415
1772810209738401000,4.437401123046875,-3.0114693641662598,-9.389165878295898,0.23729661107063293
1772810209748101000,4.44710107421875,-3.2934212684631348,-9.441166877746582,0.2928779125213623
1772810209757801500,4.456801513671875,-3.5940163135528564,-9.444635391235352,0.3278903663158417
1772810209767501600,4.46650146484375,-3.8026981353759766,-9.417139053344727,0.35282018780708313
1772810209777201700,4.47620166015625,-3.8622946739196777,-9.425206184387207,0.3621038496494293
1772810209786901800,4.48590185546875,-3.854055643081665,-9.429997444152832,0.37491363286972046
1772810209796602000,4.49560205078125,-3.690108060836792,-9.426919937133789,0.2891765832901001
1772810209806302200,4.50530224609375,-3.3574862480163574,-9.36031723022461,0.1680048108100891
1772810209816002300,4.515002197265625,-3.0024192333221436,-9.218059539794922,0.02088022232055664
1772810209825702400,4.524702392578125,-2.6893045902252197,-8.862533569335938,-0.16889411211013794
1772810209835402800,4.53440283203125,-2.388546943664551,-8.305728912353516,-0.3987947106361389
1772810209845102800,4.544102783203125,-2.1583251953125,-7.533407211303711,-0.5704634189605713
1772810209854803000,4.553802978515625,-1.9807863235473633,-6.5050272941589355,-0.6875799298286438
1772810209864503000,4.5635029296875,-1.8914110660552979,-5.413439750671387,-0.6692306995391846
1772810209874203400,4.573203369140625,-1.8719180822372437,-4.401480197906494,-0.5440367460250854
1772810209883903500,4.582903564453125,-1.8167736530303955,-3.498530387878418,-0.23838269710540771
1772810209893603600,4.592603515625,-1.9235641956329346,-2.7479400634765625,0.041811466217041016
1772810209903303700,4.6023037109375,-1.8858470916748047,-1.8580255508422852,0.27582457661628723
1772810209913004000,4.612004150390625,-0.9793987274169922,-0.4939742088317871,0.4467161297798157
1772810209922704100,4.6217041015625,1.0233306884765625,0.8414707183837891,0.5594935417175293
1772810209932404200,4.631404296875,3.032522201538086,2.8676910400390625,0.6227957606315613
1772810209942104300,4.641104248046875,4.572064399719238,6.097637176513672,0.30794835090637207
1772810209951804700,4.6508046875,5.67470121383667,8.906088829040527,-0.22012585401535034
1772810209961504800,4.6605048828125,6.411607265472412,10.863177299499512,-0.869592010974884
1772810209971204900,4.670204833984375,8.075525283813477,13.92190170288086,-2.4271903038024902
1772810209980905000,4.679905029296875,9.08474349975586,16.943981170654297,-4.291647911071777
1772810209990605000,4.68960498046875,10.823028564453125,18.8735294342041,-4.994081020355225
1772810210000305400,4.699305419921875,12.449540138244629,18.620269775390625,-4.166199684143066
1772810210010005500,4.709005615234375,13.104063034057617,17.83908462524414,-3.249349355697632
1772810210019705600,4.71870556640625,13.717022895812988,17.43265151977539,-3.0793449878692627
1772810210029405700,4.72840576171875,14.240819931030273,17.143861770629883,-3.187472343444824
1772810210039105800,4.738105712890625,14.461923599243164,16.536476135253906,-3.087909698486328
1772810210048806000,4.747805908203125,14.256587982177734,15.186127662658691,-2.3875486850738525
1772810210058506200,4.75750634765625,13.362131118774414,12.865589141845703,-1.2777239084243774
1772810210068206300,4.767206298828125,11.920504570007324,10.483389854431152,-0.45621824264526367
1772810210077906400,4.776906494140625,9.734111785888672,8.34575366973877,0.07085923850536346
1772810210087606500,4.7866064453125,6.867312908172607,6.215767860412598,0.5146000385284424
1772810210097307000,4.796306884765625,3.6477818489074707,4.261502265930176,0.9808241128921509
1772810210107007000,4.806007080078125,0.477048397064209,2.6217403411865234,1.3293569087982178
1772810210116707000,4.81570703125,-2.1820425987243652,1.1144695281982422,1.5195508003234863
1772810210126407200,4.8254072265625,-4.378565311431885,-0.3867073059082031,1.6315603256225586
1772810210136107500,4.835107421875,-6.0651631355285645,-1.5924348831176758,1.4761650562286377
1772810210145807600,4.8448076171875,-7.042248725891113,-2.8556723594665527,1.2065484523773193
1772810210155507700,4.8545078125,-7.65937614440918,-3.9519424438476562,0.7115250825881958
1772810210165207800,4.864207763671875,-7.706353187561035,-4.671850204467773,0.1527268886566162
1772810210174908200,4.873908203125,-7.313007354736328,-5.480568885803223,-0.29038697481155396
1772810210184608300,4.883608154296875,-6.787803649902344,-6.537019729614258,-0.5652957558631897
1772810210194308400,4.893308349609375,-6.319518566131592,-7.58723783493042,-0.8024135828018188
1772810210204008400,4.903008544921875,-5.576532363891602,-8.526593208312988,-1.0681917667388916
1772810210213708800,4.912708740234375,-4.625624656677246,-9.299551010131836,-1.2380001544952393
1772810210223409000,4.922408935546875,-3.8814666271209717,-9.818553924560547,-1.4502089023590088
1772810210233109000,4.93210888671875,-3.27020001411438,-10.04987621307373,-1.6291000843048096
1772810210242809000,4.94180908203125,-2.7135629653930664,-10.034697532653809,-1.6860630512237549
1772810210252509400,4.951509521484375,-2.4582812786102295,-9.991291046142578,-1.684030532836914
1772810210262209500,4.96120947265625,-2.328171491622925,-9.94793701171875,-1.6618653535842896
1772810210271909600,4.97090966796875,-2.4403319358825684,-9.833106994628906,-1.653206467628479
1772810210281609700,4.980609619140625,-2.9070048332214355,-9.648963928222656,-1.6247432231903076
1772810210291309800,4.990309814453125,-3.593158721923828,-9.471548080444336,-1.687496304512024
1772810210301010200,5.00001025390625,-4.248936653137207,-9.187856674194336,-1.6991218328475952
1772810210310710300,5.009710205078125,-4.8001203536987305,-8.940792083740234,-1.604407787322998
1772810210320410400,5.019410400390625,-5.302273273468018,-8.803350448608398,-1.3996131420135498
1772810210330110500,5.0291103515625,-5.6643476486206055,-8.638492584228516,-1.1632428169250488
1772810210339810800,5.038810791015625,-5.856880187988281,-8.408548355102539,-0.8826163411140442
1772810210349511000,5.048510986328125,-5.947676658630371,-8.301608085632324,-0.43651890754699707
1772810210359211000,5.0582109375,-5.924410820007324,-8.377829551696777,0.1563529372215271
1772810210368911000,5.0679111328125,-5.8025922775268555,-8.435362815856934,0.61562180519104
1772810210378611200,5.077611083984375,-5.626217365264893,-8.312994956970215,1.0631005764007568
1772810210388311600,5.0873115234375,-5.365637302398682,-8.24681568145752,1.6692090034484863
1772810210398011600,5.09701171875,-4.936905384063721,-8.185834884643555,2.1303203105926514
1772810210407711700,5.106711669921875,-4.43258810043335,-7.559110641479492,2.411543846130371
1772810210417411800,5.116411865234375,-3.8390603065490723,-6.290168762207031,2.341686725616455
1772810210427112000,5.12611181640625,-3.2397494316101074,-4.6002302169799805,2.1512699127197266
1772810210436812300,5.135812255859375,-2.709526538848877,-2.428013801574707,2.090688467025757
1772810210446512400,5.145512451171875,-1.5210585594177246,0.08277511596679688,2.1272194385528564
1772810210456212500,5.15521240234375,0.2642483711242676,3.5417537689208984,2.004209041595459
1772810210465912600,5.16491259765625,3.190092086791992,7.889511585235596,2.2555530071258545
1772810210475612700,5.17461279296875,7.001224517822266,11.834320068359375,2.920114040374756
1772810210485313000,5.18431298828125,10.27071475982666,15.674422264099121,3.3717868328094482
1772810210495013000,5.19401318359375,12.632737159729004,20.039424896240234,2.68390154838562
1772810210504713200,5.203713134765625,16.657840728759766,23.96634864807129,1.2327898740768433
1772810210514413300,5.213413330078125,22.653043746948242,26.863346099853516,0.20193275809288025
1772810210533813800,5.232813720703125,33.13350296020508,32.705726623535156,1.9346652030944824
1772810210543513900,5.242513916015625,35.51187515258789,31.995479583740234,5.7633795738220215
1772810210553214000,5.2522138671875,34.67351150512695,30.59678840637207,8.769326210021973
1772810210562914300,5.261914306640625,31.649782180786133,28.36273765563965,10.48308277130127
1772810210572614400,5.271614501953125,25.883634567260742,25.62488555908203,10.37778091430664
1772810210582314500,5.281314453125,19.14462661743164,22.438283920288086,7.883288383483887
1772810210592014600,5.2910146484375,13.176823616027832,19.16179656982422,4.016130447387695
1772810210601715000,5.30071484375,8.370465278625488,15.055007934570312,0.5981878638267517
1772810210611415000,5.3104150390625,5.581946849822998,11.250317573547363,-2.0940074920654297
1772810210621115100,5.320115234375,3.4587812423706055,7.251049041748047,-3.278956651687622
1772810210630815200,5.329815185546875,2.720517873764038,2.7023096084594727,-2.7185494899749756
1772810210640515300,5.339515380859375,2.257439136505127,-1.5366525650024414,-2.1546459197998047
1772810210650215700,5.349215576171875,2.2923731803894043,-5.4270172119140625,-2.176541805267334
1772810210659915800,5.358915771484375,0.9021241664886475,-9.007296562194824,-1.686213731765747
1772810210669615900,5.368615966796875,-1.4679466485977173,-12.317309379577637,-0.864721417427063
1772810210679316000,5.37831591796875,-3.6459338665008545,-14.586851119995117,-0.6232590675354004
1772810210689016300,5.388016357421875,-4.940180778503418,-15.590963363647461,-1.407165765762329
1772810210698716400,5.39771630859375,-5.8015570640563965,-16.424148559570312,-2.6212565898895264
1772810210708416500,5.40741650390625,-6.789304733276367,-17.380611419677734,-3.742250442504883
1772810210718116600,5.41711669921875,-6.507006645202637,-18.454965591430664,-4.427553176879883
1772810210727817000,5.42681689453125,-5.1671247482299805,-19.425491333007812,-4.669565677642822
1772810210737517000,5.43651708984375,-4.259223461151123,-19.226318359375,-4.861696720123291
1772810210747217200,5.446217041015625,-3.380244731903076,-18.677654266357422,-4.730949401855469
1772810210756917200,5.455917236328125,-2.855659246444702,-18.77164077758789,-4.045408725738525
1772810210766617600,5.46561767578125,-2.97411847114563,-18.40169906616211,-3.4533801078796387
1772810210776317700,5.475317626953125,-3.439119815826416,-17.539670944213867,-2.869030714035034
1772810210786017800,5.485017822265625,-3.909013271331787,-16.751300811767578,-2.114386558532715
1772810210795718000,5.4947177734375,-4.400010585784912,-15.852323532104492,-1.385321021080017
1772810210805418000,5.50441796875,-4.75233793258667,-15.089855194091797,-0.7331601977348328
1772810210824818400,5.523818359375,-4.63598108291626,-14.312101364135742,-0.16588222980499268
1772810210834518500,5.5335185546875,-4.212400913238525,-14.011935234069824,-0.3380054235458374
1772810210844218600,5.543218505859375,-3.443142890930176,-13.571208953857422,-0.5321984887123108
1772810210853918700,5.552918701171875,-2.4637234210968018,-13.072561264038086,-0.6523385047912598
1772810210873319200,5.572319091796875,-0.9166175127029419,-11.705926895141602,-0.9618380069732666
1772810210883019300,5.582019287109375,-0.6194274425506592,-10.974102020263672,-1.3637596368789673
1772810210892719400,5.59171923828125,-0.5777362585067749,-10.210197448730469,-1.803732991218567
1772810210902419500,5.60141943359375,-0.8084471225738525,-9.489951133728027,-2.2529067993164062
1772810210912119600,5.61111962890625,-1.152433156967163,-8.797422409057617,-2.3547911643981934
1772810210921820000,5.62081982421875,-1.6086682081222534,-8.316149711608887,-2.000174045562744
1772810210931520000,5.63052001953125,-1.8822723627090454,-8.057879447937012,-1.3841140270233154
1772810210941220000,5.64022021484375,-1.7891809940338135,-7.856668472290039,-0.6611416339874268
1772810210950920200,5.649920166015625,-1.704768419265747,-7.637029647827148,0.024548888206481934
1772810210960620500,5.65962060546875,-1.4250091314315796,-7.571297645568848,0.6268788576126099
1772810210970320600,5.669320556640625,-1.0361522436141968,-7.53859806060791,1.0680086612701416
1772810210980020700,5.679020751953125,-0.7542431354522705,-7.379969596862793,1.406256914138794
1772810210989720800,5.688720947265625,-0.4031519889831543,-7.15263557434082,1.729069471359253
1772810210999421000,5.6984208984375,-0.20323991775512695,-6.738675594329834,1.974328875541687
1772810211009121300,5.708121337890625,-0.01979684829711914,-6.260674476623535,2.2742691040039062
1772810211018821400,5.7178212890625,0.11349892616271973,-5.6375017166137695,2.6567800045013428
1772810211028521500,5.727521484375,0.29889535903930664,-4.789230823516846,3.2123332023620605
1772810211038221600,5.7372216796875,0.29660630226135254,-4.194238662719727,3.889206647872925
1772810211047922000,5.746921875,0.24914169311523438,-3.7932095527648926,4.616103172302246
1772810211057622000,5.7566220703125,0.36460447311401367,-3.143303394317627,5.262247085571289
1772810211067322000,5.766322021484375,0.7710371017456055,-2.274716377258301,5.767173767089844
1772810211077022200,5.776022216796875,1.1341028213500977,-0.9764671325683594,5.950993061065674
1772810211086722600,5.78572265625,1.33730149269104,0.7593669891357422,5.67001485824585
1772810211096422700,5.795422607421875,1.4831669330596924,2.3175601959228516,5.235514163970947
1772810211106122800,5.805122802734375,1.820385456085205,3.3238916397094727,5.019774913787842
1772810211115822800,5.81482275390625,2.0791351795196533,4.921100616455078,4.619521617889404
1772810211125523000,5.82452294921875,2.22332501411438,7.735001564025879,3.391423463821411
1772810211135223300,5.834223388671875,2.0682034492492676,9.855988502502441,1.8748703002929688
1772810211144923400,5.84392333984375,2.1054861545562744,11.00194263458252,-0.014092370867729187
1772810211154623500,5.85362353515625,1.7409939765930176,13.574653625488281,-2.490126848220825
1772810211164323600,5.863323486328125,1.5454492568969727,16.692480087280273,-4.871182441711426
1772810211174024000,5.87302392578125,2.017855644226074,19.21239471435547,-5.88300895690918
1772810211183724000,5.88272412109375,3.807020425796509,20.68712615966797,-5.359079837799072
1772810211193424100,5.892424072265625,7.271993160247803,20.454498291015625,-3.5043556690216064
1772810211203124200,5.902124267578125,10.581670761108398,20.012470245361328,-1.2051061391830444
1772810211212824300,5.91182421875,13.334108352661133,19.340871810913086,1.0207276344299316
1772810211222524700,5.921524658203125,15.521708488464355,17.818103790283203,3.5097527503967285
1772810211232224800,5.931224853515625,16.761329650878906,15.29250717163086,6.043380260467529
1772810211241924900,5.9409248046875,17.042266845703125,12.623775482177734,7.520373821258545
1772810211251625000,5.950625,16.35744857788086,10.719908714294434,7.1618242263793945
1772810211261325000,5.960324951171875,14.272571563720703,9.464611053466797,5.482130527496338
1772810211271025400,5.970025390625,11.21578598022461,8.011101722717285,3.4517195224761963
1772810211280725500,5.9797255859375,7.458995342254639,6.646291732788086,1.2764127254486084
1772810211290425600,5.989425537109375,3.687290668487549,5.588793754577637,-0.5810694694519043
1772810211300125700,5.999125732421875,0.32051563262939453,4.4479522705078125,-1.8175036907196045
1772810211309825800,6.00882568359375,-2.6415352821350098,2.906582832336426,-2.3560328483581543
1772810211319526000,6.01852587890625,-5.060521125793457,1.0530920028686523,-2.240445613861084
1772810211329226200,6.028226318359375,-6.497298240661621,-0.7292680740356445,-2.0191407203674316
1772810211338926300,6.03792626953125,-7.139348030090332,-1.968022346496582,-1.830125331878662
1772810211348626400,6.04762646484375,-7.180267333984375,-2.951481819152832,-1.587416172027588
1772810211358326500,6.057326416015625,-6.87825345993042,-4.295654296875,-1.336498498916626
1772810211368026600,6.067026611328125,-5.929681301116943,-5.739696979522705,-1.2620208263397217
1772810211377727000,6.07672705078125,-4.9339399337768555,-6.897913932800293,-1.3523393869400024
1772810211387427000,6.086427001953125,-3.79904842376709,-7.81447696685791,-1.5956875085830688
1772810211397127200,6.096127197265625,-2.7771332263946533,-8.558819770812988,-1.819758653640747
1772810211406827300,6.1058271484375,-2.2330312728881836,-9.119134902954102,-1.8448961973190308
1772810211416527600,6.115527587890625,-2.1482694149017334,-9.495898246765137,-1.8653759956359863
1772810211426227700,6.125227783203125,-2.4120802879333496,-9.559914588928223,-2.0154614448547363
1772810211435927800,6.134927734375,-2.7586817741394043,-9.486113548278809,-2.175379991531372
1772810211445628000,6.1446279296875,-3.325101137161255,-9.325854301452637,-2.1570355892181396
1772810211455328000,6.154327880859375,-4.105160236358643,-8.993581771850586,-1.7457077503204346
1772810211465028400,6.1640283203125,-4.838324546813965,-8.695037841796875,-1.199587106704712
1772810211474728400,6.173728515625,-5.495340347290039,-8.539704322814941,-0.4826761484146118
1772810211484428500,6.183428466796875,-5.881004333496094,-8.504926681518555,0.2695996165275574
1772810211494128600,6.193128662109375,-5.84397029876709,-8.408241271972656,0.8909446597099304
1772810211503829000,6.2028291015625,-5.564762115478516,-8.24675464630127,1.3108704090118408
1772810211513529000,6.212529052734375,-5.250936031341553,-8.311019897460938,1.670730710029602
1772810211523229200,6.222229248046875,-4.890877723693848,-8.508987426757812,1.8661733865737915
1772810211532929300,6.23192919921875,-4.41118049621582,-8.830973625183105,2.012418508529663
1772810211542629400,6.24162939453125,-3.9156551361083984,-9.15295124053955,2.153298854827881
1772810211552329700,6.251329833984375,-3.3777451515197754,-9.515161514282227,2.1599478721618652
1772810211562029800,6.26102978515625,-2.489741086959839,-9.673169136047363,1.8779773712158203
1772810211571730000,6.27072998046875,-1.6036224365234375,-9.706120491027832,1.4381756782531738
1772810211581430000,6.280429931640625,-1.1194663047790527,-9.701986312866211,0.9208448529243469
1772810211591130400,6.29013037109375,-0.9530112743377686,-9.68494701385498,0.6385238170623779
1772810211600830500,6.29983056640625,-1.406615972518921,-9.727896690368652,0.6533687710762024
1772810211610530600,6.309530517578125,-1.4676694869995117,-9.355249404907227,0.7887662649154663
1772810211620230700,6.319230712890625,-1.3991148471832275,-8.270777702331543,0.9451441168785095
1772810211629930800,6.3289306640625,-1.5186281204223633,-6.784934997558594,1.1661860942840576
1772810211639631000,6.338631103515625,-1.8261209726333618,-6.735047340393066,2.268876552581787
1772810211649331200,6.348331298828125,-0.43369436264038086,-3.7822513580322266,2.075197219848633
1772810211659031300,6.35803125,-0.7362697124481201,-0.3844165802001953,1.120958685874939
1772810211668731400,6.3677314453125,-1.2942743301391602,1.733041763305664,0.794335663318634
1772810211678431700,6.377431640625,-1.01381516456604,3.105435371398926,1.2038922309875488
1772810211688131800,6.3871318359375,-0.21308469772338867,5.627314567565918,1.2060917615890503
1772810211697832000,6.39683203125,1.0493764877319336,9.828958511352539,0.6827969551086426
1772810211707532000,6.406531982421875,2.576258659362793,13.454885482788086,0.32483458518981934
1772810211717232000,6.416232177734375,4.860786437988281,16.991676330566406,-1.4810372591018677
1772810211726932500,6.425932373046875,7.187875747680664,22.096616744995117,-4.375851631164551
1772810211736632600,6.435632568359375,9.2242431640625,26.733688354492188,-7.133504390716553
1772810211746332700,6.445332763671875,12.179502487182617,30.357173919677734,-8.171184539794922
1772810211756032800,6.45503271484375,13.60861587524414,35.31071472167969,-7.677474021911621
1772810211765732900,6.46473291015625,14.426288604736328,39.92782211303711,-6.26556921005249
1772810211775433200,6.47443310546875,13.632625579833984,36.92854309082031,-2.1227283477783203
1772810211785133300,6.48413330078125,12.812402725219727,34.06210708618164,0.020848989486694336
1772810211794833400,6.49383349609375,14.154548645019531,33.322296142578125,-1.4635467529296875
1772810211804533500,6.503533447265625,14.482156753540039,30.167076110839844,-3.0548348426818848
1772810211814233600,6.513233642578125,15.939285278320312,24.75368881225586,-5.053186416625977
1772810211823934000,6.522933837890625,16.148584365844727,20.583465576171875,-6.8085432052612305
1772810211833634000,6.532634033203125,14.227999687194824,16.084148406982422,-7.558545112609863
1772810211843334100,6.542334228515625,11.125319480895996,11.802311897277832,-7.28102970123291
1772810211853034200,6.5520341796875,8.48748779296875,7.345054626464844,-5.534441947937012
1772810211862734300,6.561734375,5.936783313751221,3.429964065551758,-3.3209762573242188
1772810211872434400,6.571434326171875,3.6099894046783447,0.46712398529052734,-1.9659676551818848
1772810211882134800,6.581134765625,1.693867564201355,-2.079920768737793,-0.9770368337631226
1772810211891835000,6.5908349609375,0.3568190336227417,-4.46165657043457,-0.13715726137161255
1772810211901535000,6.600534912109375,-0.17821279168128967,-6.736309051513672,0.6955217123031616
1772810211911235000,6.610235107421875,0.1519554853439331,-8.934850692749023,2.2708892822265625
1772810211920935200,6.61993505859375,0.49114149808883667,-11.12147331237793,4.188747406005859
1772810211930635500,6.629635498046875,0.6858271360397339,-12.753654479980469,5.7654547691345215
1772810211940335600,6.639335693359375,1.0721889734268188,-14.743929862976074,6.6466217041015625
1772810211950035700,6.64903564453125,1.428246021270752,-15.836641311645508,6.587556838989258
1772810211959735800,6.65873583984375,1.7230521440505981,-16.851560592651367,5.8699188232421875
1772810211969436000,6.668435791015625,2.145542860031128,-17.2958984375,4.444889068603516
1772810211988836400,6.68783642578125,2.3671276569366455,-17.907896041870117,1.3539841175079346
1772810211998536400,6.697536376953125,2.118691921234131,-17.083412170410156,0.010958671569824219
1772810212008236500,6.707236572265625,1.7481653690338135,-15.976503372192383,-0.8496003150939941
1772810212017936600,6.7169365234375,1.4801201820373535,-15.001605033874512,-0.7418315410614014
1772810212027637000,6.726636962890625,1.1129050254821777,-14.555927276611328,0.34225165843963623
1772810212037337000,6.736337158203125,0.6107368469238281,-14.410622596740723,1.8856415748596191
1772810212047037200,6.746037109375,0.21906638145446777,-14.380023002624512,3.1977593898773193
1772810212056737300,6.7557373046875,-0.0766453742980957,-14.341029167175293,3.7266433238983154
1772810212066437600,6.765437744140625,-0.28380393981933594,-14.120863914489746,3.4591445922851562
1772810212076137700,6.7751376953125,0.0015752315521240234,-13.877716064453125,2.7646031379699707
1772810212085837800,6.784837890625,0.503333330154419,-13.678114891052246,1.789745807647705
1772810212095538000,6.794537841796875,1.1143207550048828,-13.349523544311523,0.6764941215515137
1772810212105238000,6.804238037109375,1.6881201267242432,-13.108272552490234,0.01585865020751953
1772810212114938400,6.8139384765625,2.2342257499694824,-13.028543472290039,-0.2256786823272705
1772810212124638500,6.823638427734375,2.533081293106079,-13.141744613647461,-0.000461578369140625
1772810212134338600,6.833338623046875,2.568080186843872,-13.348028182983398,0.3876056671142578
1772810212144038700,6.84303857421875,2.5167124271392822,-13.175189971923828,0.7323492765426636
1772810212153738800,6.85273876953125,2.4530296325683594,-12.783525466918945,1.0336718559265137
1772810212163439000,6.862439208984375,2.471461057662964,-12.615245819091797,1.5561416149139404
1772810212173139200,6.87213916015625,2.622363567352295,-12.661537170410156,2.0106499195098877
1772810212182839300,6.88183935546875,2.8560686111450195,-12.681314468383789,2.1275017261505127
1772810212192539400,6.891539306640625,2.9554405212402344,-12.69668960571289,2.1632230281829834
1772810212202239500,6.901239501953125,2.97377872467041,-12.954705238342285,2.179511308670044
1772810212211939800,6.91093994140625,3.152189016342163,-13.4011812210083,2.218086004257202
1772810212221640000,6.920639892578125,3.445864677429199,-13.765625953674316,2.163209915161133
1772810212231340000,6.930340087890625,3.8647170066833496,-14.005491256713867,2.042343854904175
1772810212241040100,6.9400400390625,4.619869232177734,-14.11391544342041,1.9728176593780518
1772810212250740200,6.949740234375,5.347657680511475,-14.13189697265625,2.0431158542633057
1772810212260440600,6.959440673828125,5.929770469665527,-13.995390892028809,1.933624029159546
1772810212270140700,6.969140625,6.0714006423950195,-13.449950218200684,1.8896725177764893
1772810212279840800,6.9788408203125,5.543629169464111,-12.803783416748047,2.0017740726470947
1772810212289540900,6.988540771484375,4.664085388183594,-11.760271072387695,2.180422782897949
1772810212299241200,6.9982412109375,3.705484390258789,-10.353628158569336,2.1959800720214844
1772810212308941300,7.00794140625,2.691987991333008,-8.821517944335938,1.9314134120941162
1772810212318641400,7.017641357421875,1.5415894985198975,-6.513670921325684,1.2204394340515137
1772810212328341500,7.027341552734375,0.9644855260848999,-3.071599006652832,0.31783223152160645
1772810212338041600,7.03704150390625,0.9753309488296509,1.1505908966064453,-0.6999247074127197
1772810212347742000,7.046741943359375,1.0754225254058838,7.077694892883301,-2.267404317855835
1772810212357442000,7.056442138671875,1.4792622327804565,14.302382469177246,-3.5860776901245117
1772810212367142100,7.06614208984375,2.1275620460510254,20.02164649963379,-3.847827672958374
1772810212376842200,7.07584228515625,3.1775355339050293,26.322267532348633,-3.681548595428467
1772810212386542300,7.085542236328125,5.496083736419678,33.00350570678711,-2.6787824630737305
1772810212396242700,7.09524267578125,8.016281127929688,35.74307632446289,1.0045033693313599
1772810212405942800,7.10494287109375,9.628641128540039,35.30519104003906,5.607321739196777
1772810212415643000,7.114642822265625,12.256425857543945,33.63397979736328,8.876518249511719
1772810212425343000,7.124343017578125,15.134102821350098,32.636207580566406,9.923413276672363
1772810212435043000,7.13404296875,17.69473648071289,31.731285095214844,8.72551441192627
1772810212444743400,7.143743408203125,19.01753044128418,29.936138153076172,6.608487129211426
1772810212454443500,7.153443603515625,18.685935974121094,27.228389739990234,5.093412399291992
1772810212464143600,7.1631435546875,16.08864974975586,23.593976974487305,4.376600742340088
1772810212473843700,7.17284375,11.615249633789062,20.02576446533203,3.7977967262268066
1772810212483543800,7.182543701171875,6.454733848571777,16.81348419189453,3.2029733657836914
1772810212493244200,7.192244140625,1.4017499685287476,13.668318748474121,2.9095821380615234
1772810212502944300,7.2019443359375,-2.735139846801758,10.684130668640137,2.7479772567749023
1772810212512644400,7.211644287109375,-5.485118389129639,8.210628509521484,2.3503332138061523
1772810212522344400,7.221344482421875,-6.847090244293213,6.133440017700195,1.7308897972106934
1772810212532044500,7.23104443359375,-7.432141304016113,3.9330148696899414,1.1102010011672974
1772810212541744600,7.24074462890625,-7.024135589599609,1.9211606979370117,0.6431344747543335
1772810212551445000,7.250445068359375,-6.046135902404785,-0.3408393859863281,0.24650222063064575
1772810212561145000,7.26014501953125,-4.862283229827881,-2.3063621520996094,-0.22104305028915405
1772810212570845200,7.26984521484375,-3.5668578147888184,-3.9695472717285156,-0.8127440810203552
1772810212580545300,7.279545166015625,-2.2774460315704346,-5.52289342880249,-1.3404996395111084
1772810212590245400,7.289245361328125,-1.1949952840805054,-7.094109058380127,-1.5253045558929443
1772810212599945500,7.298945556640625,-0.016972899436950684,-8.860360145568848,-1.316739559173584
1772810212609645800,7.308645751953125,0.9736738204956055,-10.355757713317871,-0.8724930882453918
1772810212619346000,7.318345947265625,1.59883451461792,-11.505454063415527,-0.41441792249679565
1772810212629046000,7.3280458984375,2.170012950897217,-12.409581184387207,0.012667462229728699
1772810212638746000,7.33774609375,2.3371825218200684,-13.03184986114502,0.15783585608005524
1772810212648446200,7.3474462890625,2.1115360260009766,-13.345453262329102,0.0273129865527153
1772810212658146600,7.357146484375,1.6774468421936035,-13.369653701782227,-0.44268763065338135
1772810212667846700,7.3668466796875,0.9058452248573303,-13.32652759552002,-0.9785977005958557
1772810212677546800,7.376546630859375,0.14728349447250366,-13.327302932739258,-1.5744218826293945
1772810212687246800,7.386246826171875,-0.5553175806999207,-13.128046989440918,-2.1644413471221924
1772810212696947000,7.395947021484375,-1.2997357845306396,-12.805765151977539,-2.4813244342803955
1772810212706647300,7.405647216796875,-1.9668190479278564,-12.51626205444336,-2.417926073074341
1772810212716347400,7.415347412109375,-2.524963855743408,-12.413686752319336,-2.0714821815490723
1772810212726047500,7.425047607421875,-2.666663885116577,-12.371210098266602,-1.5339634418487549
1772810212735747600,7.43474755859375,-2.4288649559020996,-12.350579261779785,-1.0421383380889893
1772810212745447700,7.44444775390625,-2.0500214099884033,-12.220617294311523,-0.573245644569397
1772810212755148000,7.45414794921875,-1.9608484506607056,-12.079549789428711,-0.217967689037323
1772810212764848000,7.46384814453125,-2.045421600341797,-12.038290977478027,0.062346965074539185
1772810212774548200,7.47354833984375,-2.265758752822876,-11.929216384887695,0.2875249683856964
1772810212784248300,7.483248291015625,-2.5781562328338623,-11.846261978149414,0.6069356799125671
1772810212793948400,7.492948486328125,-2.988069534301758,-11.812397003173828,0.853074848651886
1772810212803648800,7.502648681640625,-3.2158517837524414,-11.830289840698242,1.0484360456466675
1772810212813348900,7.512348876953125,-3.312971591949463,-11.886141777038574,1.264176845550537
1772810212823049000,7.522049072265625,-3.314187526702881,-11.75047492980957,1.4637587070465088
1772810212832749000,7.5317490234375,-3.18355655670166,-11.486028671264648,1.627537727355957
1772810212842449200,7.54144921875,-2.881380081176758,-11.1416597366333,1.6615889072418213
1772810212852149500,7.5511494140625,-2.435016632080078,-10.463326454162598,1.3545018434524536
1772810212861849600,7.560849609375,-2.211413860321045,-9.249814987182617,0.9503986835479736
1772810212871549700,7.5705498046875,-2.0916340351104736,-7.637485027313232,0.480431467294693
1772810212881249800,7.580249755859375,-1.9756782054901123,-4.9903154373168945,-0.22712910175323486
1772810212890950000,7.589949951171875,-1.4777575731277466,-0.5086650848388672,-1.5546934604644775
1772810212900650200,7.599650146484375,-0.05260491371154785,5.754339218139648,-2.6400465965270996
1772810212910350300,7.609350341796875,2.110529661178589,12.223341941833496,-2.294858932495117
1772810212920050400,7.619050537109375,4.307310104370117,19.037429809570312,-1.1777055263519287
1772810212929750500,7.62875048828125,7.648360252380371,24.96559715270996,1.215749979019165
1772810212939450600,7.63845068359375,11.997207641601562,27.94887924194336,4.217647075653076
1772810212949150700,7.648150634765625,15.972892761230469,30.665054321289062,5.761023044586182
1772810212958851000,7.65785107421875,21.00533676147461,32.981319427490234,6.328195095062256
1772810212968551200,7.66755126953125,24.603683471679688,33.57948684692383,7.125283241271973
1772810212978251300,7.677251220703125,26.838651657104492,33.12961959838867,7.29447603225708
1772810212987951400,7.686951416015625,28.565044403076172,32.71723937988281,6.527726173400879
1772810212997651500,7.6966513671875,28.677318572998047,31.712106704711914,5.729886054992676
1772810213007351800,7.706351806640625,26.8897762298584,30.358705520629883,4.63716983795166
1772810213017052000,7.716052001953125,23.040128707885742,28.13135528564453,4.722808361053467
1772810213026752000,7.725751953125,18.29560661315918,24.953475952148438,5.047003269195557
1772810213036452000,7.7354521484375,12.716028213500977,21.25032615661621,5.358152389526367
1772810213046152200,7.745152099609375,7.503600120544434,17.259262084960938,5.078042030334473
1772810213055852500,7.7548525390625,3.0649609565734863,13.369669914245605,3.764400005340576
1772810213065552600,7.764552734375,-0.417292058467865,9.649151802062988,1.7384865283966064
1772810213075252700,7.774252685546875,-2.3567066192626953,6.570030212402344,-0.3601897656917572
1772810213084952800,7.783952880859375,-3.575725555419922,3.9663963317871094,-1.9347822666168213
1772810213094653000,7.79365283203125,-4.4262166023254395,0.8918294906616211,-2.591564416885376
1772810213104353300,7.803353271484375,-4.6841230392456055,-2.796520709991455,-2.044520616531372
1772810213114053400,7.813053466796875,-4.016116619110107,-6.810914516448975,-1.2245452404022217
1772810213123753500,7.82275341796875,-3.3105294704437256,-10.019390106201172,-0.507472038269043
1772810213133453600,7.83245361328125,-2.785813093185425,-12.398321151733398,0.3799557089805603
1772810213143153700,7.842153564453125,-1.6056729555130005,-14.434205055236816,1.0723565816879272
1772810213152854000,7.85185400390625,-0.40247395634651184,-15.873662948608398,1.5758886337280273
1772810213162554000,7.86155419921875,-0.27638301253318787,-16.796396255493164,1.829132318496704
1772810213172254200,7.871254150390625,0.05239999294281006,-17.36083984375,1.6431748867034912
1772810213181954300,7.880954345703125,-0.01807558536529541,-17.71086883544922,1.1505889892578125
1772810213191654400,7.890654296875,0.1949692964553833,-17.85724639892578,0.4731830358505249
1772810213201354800,7.900354736328125,1.0910214185714722,-17.763324737548828,-0.6451149582862854
1772810213211054800,7.910054931640625,2.1651763916015625,-16.985511779785156,-2.180520534515381
1772810213220755000,7.9197548828125,2.908444881439209,-16.01548194885254,-3.616342782974243
1772810213230455000,7.929455078125,1.9020183086395264,-15.177921295166016,-4.08687686920166
1772810213240155100,7.939155029296875,0.2797890901565552,-14.557622909545898,-3.1134886741638184
1772810213249855200,7.948855224609375,-1.0179693698883057,-14.374606132507324,-1.5598649978637695
1772810213259555600,7.9585556640625,-1.50044846534729,-14.5462007522583,0.27683812379837036
1772810213269255700,7.968255615234375,-0.8880047798156738,-14.574810028076172,1.607201337814331
1772810213278955800,7.977955810546875,0.31946420669555664,-14.405746459960938,2.3730010986328125
1772810213288656000,7.98765576171875,1.2271125316619873,-14.349106788635254,2.5160810947418213
1772810213298356000,7.99735595703125,1.88932466506958,-14.217755317687988,2.089216470718384
1772810213308056300,8.007056396484375,2.371716022491455,-13.818901062011719,1.3652554750442505
1772810213317756400,8.01675634765625,2.4133706092834473,-13.456427574157715,0.6693163514137268
1772810213327456500,8.02645654296875,2.2538845539093018,-13.263463973999023,0.3081820607185364
1772810213337156600,8.036156494140625,1.8361490964889526,-13.055315971374512,0.39582353830337524
1772810213346856700,8.045856689453124,1.434666633605957,-12.866722106933594,0.7152946591377258
1772810213356557000,8.05555712890625,1.1616771221160889,-12.809264183044434,1.190493106842041
1772810213366257200,8.065257080078124,1.139757752418518,-12.723934173583984,1.4659825563430786
1772810213375957200,8.074957275390625,1.1349958181381226,-12.436918258666992,1.5977405309677124
1772810213385657300,8.0846572265625,0.8712096214294434,-12.300288200378418,1.6136431694030762
1772810213395357400,8.094357421875,0.7391618490219116,-12.278112411499023,1.501431941986084
1772810213405057800,8.104057861328124,0.8516626954078674,-11.957594871520996,1.0320504903793335
1772810213414758000,8.1137578125,0.7434926629066467,-11.554588317871094,0.557213306427002
1772810213424458000,8.1234580078125,0.7354049682617188,-11.354608535766602,0.23656749725341797
1772810213434158000,8.133157958984375,0.9044355154037476,-11.246255874633789,-0.11040985584259033
1772810213443858200,8.142858154296874,0.9353118538856506,-10.949515342712402,-0.6337509155273438
1772810213453558300,8.152558349609375,1.2339191436767578,-10.538254737854004,-1.081066608428955
1772810213463258600,8.162258544921874,1.467867136001587,-10.14177131652832,-1.1754752397537231
1772810213472958700,8.171958740234375,1.1692335605621338,-9.890932083129883,-0.8002525568008423
1772810213482658800,8.181658935546874,0.9857017397880554,-9.854970932006836,-0.25444746017456055
1772810213492359000,8.19135888671875,1.3049027919769287,-9.639063835144043,0.37106025218963623
1772810213502059000,8.20105908203125,1.3165737390518188,-8.645938873291016,0.8252596855163574
1772810213511759400,8.21075927734375,1.3530696630477905,-7.291829586029053,1.0393532514572144
1772810213521459500,8.22045947265625,1.2185688018798828,-5.348249435424805,1.0613033771514893
1772810213531159600,8.23015966796875,0.42766278982162476,-2.762958526611328,0.6183165311813354
1772810213540859600,8.239859619140624,-0.5055437684059143,-0.19075775146484375,0.23821943998336792
1772810213550559700,8.249559814453125,-1.755784273147583,1.9567432403564453,0.17627346515655518
1772810213560260000,8.259260009765624,-2.9813437461853027,4.692778587341309,0.10829132795333862
1772810213569960200,8.268960205078125,-4.0139851570129395,7.233733177185059,-0.05525696277618408
1772810213579660300,8.278660400390624,-6.596563816070557,10.773491859436035,-1.5073597431182861
1772810213589360400,8.2883603515625,-7.039779186248779,15.375892639160156,-2.4822211265563965
1772810213599060500,8.298060546875,-3.7466812133789062,18.36035919189453,-1.8791418075561523
1772810213608760600,8.307760498046875,1.4624321460723877,21.239200592041016,-0.7599337697029114
1772810213618461000,8.3174609375,7.581616401672363,23.324670791625977,2.0502512454986572
1772810213628161000,8.3271611328125,16.073923110961914,23.85062026977539,5.728776931762695
1772810213637861000,8.336861083984376,23.44861602783203,23.60000991821289,9.119694709777832
1772810213647561200,8.346561279296875,28.162139892578125,24.430309295654297,10.574806213378906
1772810213657261300,8.35626123046875,29.02225685119629,24.177993774414062,10.328451156616211
1772810213666961400,8.36596142578125,25.772174835205078,25.936241149902344,8.008345603942871
1772810213676661800,8.375661865234376,20.523101806640625,25.936168670654297,4.759583950042725
1772810213686361900,8.38536181640625,14.726719856262207,24.677961349487305,2.025113582611084
1772810213696062000,8.39506201171875,9.861749649047852,21.53502655029297,1.0878150463104248
1772810213705762000,8.404761962890625,5.920989036560059,17.247756958007812,1.5323859453201294
1772810213715462100,8.414462158203126,3.355921745300293,12.440277099609375,2.075751304626465
1772810213725162500,8.42416259765625,1.2435884475708008,8.171732902526855,1.7752496004104614
1772810213734862600,8.433862548828126,-0.07651877403259277,4.604307174682617,0.8777356147766113
1772810213744562700,8.443562744140625,-1.3489747047424316,1.1321039199829102,0.36508607864379883
1772810213754262800,8.4532626953125,-2.559600591659546,-2.318531036376953,0.2255157232284546
1772810213763963000,8.462962890625,-3.2055554389953613,-4.8184919357299805,-0.07109737396240234
1772810213773663000,8.4726630859375,-3.483177661895752,-5.825084209442139,-0.6113510727882385
1772810213783363300,8.48236328125,-4.112860679626465,-6.533932685852051,-0.8639678955078125
1772810213793063400,8.4920634765625,-4.8774871826171875,-7.74308443069458,-0.8443536162376404
1772810213802763500,8.501763427734375,-5.631314277648926,-8.828032493591309,-0.8689143657684326
1772810213812463600,8.511463623046875,-5.953636169433594,-9.48239803314209,-0.9405831098556519
1772810213822163700,8.521163818359375,-5.694986820220947,-10.71692180633545,-0.86958909034729
1772810213831863800,8.53086376953125,-5.071146011352539,-11.995492935180664,-0.7774585485458374
1772810213841564200,8.540564208984375,-4.517447471618652,-11.83804702758789,-1.1968681812286377
1772810213851264300,8.55026416015625,-3.818338394165039,-11.380152702331543,-1.8334037065505981
1772810213860964400,8.55996435546875,-2.7415404319763184,-11.295082092285156,-2.080533504486084
1772810213870664400,8.56966455078125,-2.098378896713257,-11.15273666381836,-2.079348564147949
1772810213880364500,8.579364501953124,-1.73360013961792,-10.89057731628418,-1.990044355392456
1772810213890064600,8.589064697265625,-1.7087533473968506,-10.550442695617676,-1.7239329814910889
1772810213899765000,8.598764892578124,-1.823648452758789,-10.387777328491211,-1.2804994583129883
1772810213909465000,8.608465087890625,-1.977755069732666,-10.282109260559082,-0.7122852802276611
1772810213919165200,8.618165283203124,-2.0722830295562744,-10.05271053314209,-0.10117694735527039
1772810213928865300,8.627865234375,-2.02848744392395,-9.70094108581543,0.36564546823501587
1772810213938565400,8.6375654296875,-2.181492805480957,-9.350874900817871,0.861572265625
1772810213948265500,8.647265380859375,-2.5411720275878906,-9.133131980895996,1.2841295003890991
1772810213957965800,8.6569658203125,-2.747884750366211,-9.003762245178223,1.5569705963134766
1772810213967666000,8.666666015625,-2.8305630683898926,-8.966644287109375,1.7738313674926758
1772810213977366000,8.676365966796874,-3.0515496730804443,-8.897541046142578,1.879658579826355
1772810213987066000,8.686066162109375,-3.239816904067993,-8.928019523620605,1.8410195112228394
1772810213996766200,8.69576611328125,-3.219346284866333,-9.094780921936035,1.7049565315246582
1772810214006466300,8.70546630859375,-3.0295426845550537,-9.130043029785156,1.471992015838623
1772810214016166700,8.715166748046874,-2.8889594078063965,-9.213815689086914,1.1535613536834717
1772810214025866800,8.72486669921875,-2.7450690269470215,-9.179397583007812,0.7760310173034668
1772810214035566800,8.73456689453125,-2.4461588859558105,-8.920104026794434,0.422240287065506
1772810214045267000,8.744266845703125,-2.3424863815307617,-8.788013458251953,0.36126986145973206
1772810214054967000,8.753967041015626,-2.5005602836608887,-8.548051834106445,0.3165733814239502
1772810214064667400,8.76366748046875,-2.6483707427978516,-7.669157028198242,0.27226516604423523
1772810214074367500,8.773367431640626,-3.0033586025238037,-6.536194801330566,0.28461387753486633
1772810214084067600,8.783067626953125,-3.262129545211792,-4.805744171142578,0.3558190166950226
1772810214093767700,8.792767578125,-3.457225799560547,-2.3024673461914062,0.2585084140300751
1772810214103467800,8.8024677734375,-3.15271258354187,0.6016120910644531,0.5751656293869019
1772810214113168000,8.81216796875,-2.2101006507873535,3.816033363342285,1.4379397630691528
1772810214122868200,8.8218681640625,-0.8269772529602051,7.558258056640625,2.3678812980651855
1772810214132568300,8.831568359375,1.022963523864746,11.541994094848633,2.721679449081421
1772810214142268400,8.841268310546875,4.5285468101501465,15.436016082763672,2.3672168254852295
1772810214151968500,8.850968505859376,9.679571151733398,19.399633407592773,0.9470504522323608
1772810214161668600,8.860668701171875,14.470196723937988,23.109853744506836,-1.8133412599563599
1772810214171368700,8.87036865234375,18.624563217163086,27.97100067138672,-5.248600006103516
1772810214181069000,8.880069091796875,22.484907150268555,32.348812103271484,-7.951272487640381
1772810214190769200,8.88976904296875,26.00592803955078,34.915985107421875,-8.690118789672852
1772810214200469200,8.89946923828125,27.218120574951172,35.731353759765625,-8.289888381958008
1772810214210169300,8.90916943359375,27.07984161376953,34.487205505371094,-6.865710735321045
1772810214219869400,8.918869384765625,24.692401885986328,32.31605911254883,-5.052799701690674
1772810214229569500,8.928569580078126,21.638946533203125,29.6337890625,-2.7911107540130615
1772810214239270000,8.938269775390625,20.39496612548828,26.070114135742188,-0.9646285772323608
1772810214248970000,8.947969970703125,19.768863677978516,22.292953491210938,0.13583731651306152
1772810214258670000,8.957670166015625,19.32331085205078,18.26822280883789,0.20992285013198853
1772810214268370200,8.9673701171875,17.87116050720215,14.004498481750488,-0.12770038843154907
1772810214278070300,8.9770703125,15.295287132263184,10.147603988647461,-1.0009801387786865
1772810214287770600,8.9867705078125,12.218870162963867,6.646478652954102,-1.6375641822814941
1772810214297470700,8.996470703125,8.824021339416504,3.4527692794799805,-1.702685832977295
1772810214307170800,9.0061708984375,5.888517379760742,0.6002969741821289,-0.9614117741584778
1772810214316871000,9.015870849609374,3.2062530517578125,-2.1771841049194336,0.047082364559173584
1772810214326571000,9.025571044921875,0.9436774253845215,-5.15473747253418,1.2440402507781982
1772810214336271000,9.03527099609375,-0.6485109329223633,-8.096962928771973,2.4336187839508057
1772810214345971500,9.044971435546875,-1.9405438899993896,-10.47103500366211,3.469750165939331
1772810214355671600,9.054671630859374,-2.566138505935669,-12.365887641906738,3.710153579711914
1772810214365371600,9.06437158203125,-2.5740952491760254,-13.70837116241455,3.4495813846588135
1772810214375071700,9.07407177734375,-2.6493756771087646,-14.638978958129883,2.9395956993103027
1772810214384820500,9.083820556640624,-2.614806652069092,-15.391741752624512,2.131929874420166
1772810214394472200,9.09347216796875,-2.4767906665802,-15.71056842803955,1.1679190397262573
1772810214404172300,9.10317236328125,-2.8452706336975098,-15.9733247756958,0.12568116188049316
1772810214413872400,9.112872314453124,-3.2207846641540527,-16.199777603149414,-0.6104411482810974
1772810214423572500,9.122572509765625,-3.7170984745025635,-16.15731430053711,-1.0591992139816284
1772810214433272600,9.1322724609375,-3.898773670196533,-15.796579360961914,-1.391937255859375
1772810214442972700,9.14197265625,-3.473329782485962,-15.426891326904297,-1.2910008430480957
1772810214452673000,9.151673095703124,-2.581254482269287,-15.637375831604004,-0.4573183059692383
1772810214462373000,9.161373046875,-1.7466905117034912,-15.908797264099121,0.6561285257339478
1772810214472073200,9.1710732421875,-0.7042498588562012,-15.95099925994873,1.6617406606674194
1772810214481773300,9.180773193359375,0.027027606964111328,-16.046438217163086,2.610236167907715
1772810214491473400,9.190473388671874,0.26766204833984375,-15.978271484375,3.1298556327819824
1772810214501173500,9.200173583984375,0.47491776943206787,-15.643644332885742,3.185601234436035
1772810214510873900,9.209873779296874,0.6477938890457153,-15.25154972076416,2.881624221801758
1772810214520574000,9.219573974609375,0.758089542388916,-14.915373802185059,2.331655502319336
1772810214530274000,9.229274169921876,1.003697156906128,-14.610300064086914,1.6520051956176758
1772810214539974100,9.23897412109375,1.4003307819366455,-14.50732707977295,1.1439473628997803
1772810214549674200,9.24867431640625,1.7379367351531982,-14.262736320495605,0.6363494396209717
1772810214559374300,9.258374267578125,2.0546271800994873,-13.943400382995605,0.29325175285339355
1772810214569074700,9.26807470703125,2.101893901824951,-13.630565643310547,0.2336946725845337
1772810214578774800,9.27777490234375,1.8956435918807983,-13.327070236206055,0.2583777904510498
1772810214588475000,9.287474853515626,1.7532322406768799,-12.837794303894043,0.1618746519088745
1772810214598175000,9.297175048828125,1.6958552598953247,-12.285955429077148,0.049498558044433594
1772810214607875000,9.306875,1.5736157894134521,-11.839531898498535,-0.11925649642944336
1772810214617575200,9.3165751953125,1.6198939085006714,-11.313068389892578,-0.3708665370941162
1772810214627275500,9.326275634765626,1.6876903772354126,-10.805419921875,-0.5756367444992065
1772810214636975600,9.3359755859375,1.702532172203064,-10.334875106811523,-0.6801503896713257
1772810214646675700,9.34567578125,1.7305351495742798,-9.892934799194336,-0.7500426769256592
1772810214656375800,9.355375732421875,1.6550214290618896,-9.358428001403809,-0.719399094581604
1772810214666076000,9.365075927734376,1.3644269704818726,-8.797486305236816,-0.4524177312850952
1772810214675776000,9.37477587890625,0.9948620796203613,-8.305282592773438,0.06260347366333008
1772810214685476400,9.384476318359376,0.6352701187133789,-7.971506595611572,0.6188278198242188
1772810214695176400,9.394176513671875,0.3421441316604614,-7.633629322052002,1.1492869853973389
1772810214704876500,9.40387646484375,0.49729806184768677,-7.309503555297852,1.5943176746368408
1772810214714576600,9.41357666015625,1.0708039999008179,-7.09683084487915,2.0130510330200195
1772810214724276700,9.42327685546875,1.334713339805603,-6.783537864685059,2.08777117729187
1772810214733976800,9.432976806640625,1.5705041885375977,-6.351987361907959,1.992468237876892
1772810214743677200,9.44267724609375,1.899970293045044,-5.830968856811523,1.5465174913406372
1772810214753377300,9.452377197265625,2.2319517135620117,-4.87641716003418,0.796907365322113
1772810214763077400,9.462077392578125,2.271066904067993,-2.9366044998168945,-0.5402398109436035
1772810214772777500,9.471777587890625,1.190398931503296,0.17144489288330078,-2.281421422958374
1772810214782477600,9.4814775390625,-0.3943074345588684,3.637068748474121,-3.4046292304992676
1772810214792177700,9.491177734375,-1.4853718280792236,6.000150680541992,-3.892986297607422
1772810214801878000,9.5008779296875,-2.3786511421203613,8.746271133422852,-4.209713459014893
1772810214811578000,9.510578125,-3.0514581203460693,13.27064037322998,-3.8289072513580322
1772810214821278200,9.5202783203125,-3.0185751914978027,17.553810119628906,-1.72463059425354
1772810214830978300,9.529978271484374,-1.8744831085205078,20.974939346313477,1.2231472730636597
1772810214840678400,9.539678466796875,0.35916268825531006,24.2408447265625,4.188488006591797
1772810214850378500,9.54937841796875,2.6903648376464844,26.24864959716797,6.134317874908447
1772810214860078800,9.559078857421875,4.193323135375977,28.335426330566406,6.293055057525635
1772810214869779000,9.568779052734374,5.735793113708496,30.324420928955078,4.677737236022949
1772810214879479000,9.57847900390625,7.924721717834473,30.363262176513672,2.8973276615142822
1772810214889179100,9.58817919921875,10.464388847351074,28.602123260498047,2.165271043777466
1772810214898879200,9.597879150390625,12.742049217224121,25.128055572509766,1.7022032737731934
1772810214908579300,9.607579345703124,13.801566123962402,21.410789489746094,0.8710609078407288
1772810214918279700,9.61727978515625,13.123833656311035,17.869482040405273,-0.47027158737182617
1772810214927979800,9.626979736328124,11.016502380371094,14.418915748596191,-1.5813463926315308
1772810214937680000,9.636679931640625,8.197664260864258,10.794513702392578,-1.4633103609085083
1772810214947380000,9.6463798828125,5.217597484588623,7.3351640701293945,-0.6151302456855774
1772810214957080000,9.656080078125,2.3708126544952393,4.189662933349609,0.015298694372177124
1772810214966780200,9.6657802734375,-0.14084374904632568,1.46307373046875,0.34101229906082153
1772810214976480500,9.67548046875,-2.237574577331543,-0.9672632217407227,0.2406415343284607
1772810214986180600,9.6851806640625,-3.7750563621520996,-3.018024444580078,-0.22984330356121063
1772810214995880700,9.694880615234375,-4.622218608856201,-5.038332939147949,-0.5034065246582031
1772810215005580800,9.704580810546876,-4.710190773010254,-7.139914512634277,-0.5557065010070801
1772810215015281000,9.714281005859375,-4.175544261932373,-8.964574813842773,-0.6946738958358765
1772810215024981000,9.72398095703125,-3.415679454803467,-10.448543548583984,-0.8001710176467896
1772810215034681300,9.733681396484375,-2.6463961601257324,-11.793750762939453,-0.91614830493927
1772810215044381400,9.74338134765625,-1.736560583114624,-12.94124984741211,-1.10886549949646
1772810215054081500,9.75308154296875,-1.1485953330993652,-13.56263542175293,-1.4302842617034912
1772810215063781600,9.76278173828125,-0.8741869926452637,-13.927345275878906,-1.5695807933807373
1772810215073481700,9.772481689453125,-1.051780104637146,-14.086977005004883,-1.4956263303756714
1772810215083182000,9.78218212890625,-1.412529468536377,-13.942977905273438,-1.1373080015182495
1772810215092882200,9.791882080078125,-1.8206899166107178,-13.849251747131348,-0.5645379424095154
1772810215102582300,9.801582275390626,-1.9731827974319458,-13.686513900756836,0.1240072250366211
1772810215112282400,9.811282470703125,-2.2150158882141113,-13.370762825012207,0.6348356604576111
1772810215121982500,9.820982421875,-2.2721662521362305,-12.872125625610352,0.9855432510375977
1772810215131682600,9.8306826171875,-2.393162965774536,-12.280330657958984,1.0311020612716675
1772810215141383000,9.8403828125,-2.4942028522491455,-11.7133207321167,1.0219770669937134
1772810215151083000,9.8500830078125,-2.507338047027588,-11.296010971069336,1.1248371601104736
1772810215160783000,9.859783203125,-2.495469093322754,-10.935832977294922,1.3703796863555908
1772810215170483200,9.869483154296875,-2.48614501953125,-10.677450180053711,1.5880663394927979
1772810215180183300,9.879183349609375,-2.167638063430786,-10.430891036987305,1.8258516788482666
1772810215189883400,9.88888330078125,-1.8785117864608765,-10.152493476867676,2.0288808345794678
1772810215199583700,9.898583740234375,-1.6112613677978516,-10.025238990783691,2.236945152282715
1772810215209283800,9.908283935546875,-1.246244192123413,-10.071922302246094,2.356301784515381
1772810215218984000,9.91798388671875,-0.9059243202209473,-10.00342845916748,2.2432727813720703
1772810215228684000,9.92768408203125,-0.4892294406890869,-9.936564445495605,1.9768085479736328
1772810215238384000,9.937384033203125,-0.19728326797485352,-9.764642715454102,1.5016956329345703
1772810215248084200,9.947084228515624,-0.2021024227142334,-9.193325996398926,0.8690605759620667
1772810215267484700,9.966484619140624,-1.4566001892089844,-7.014827728271484,0.1324915885925293
1772810215277184800,9.976184814453125,-2.0541093349456787,-5.319952487945557,-0.43646240234375
1772810215286884900,9.985884765625,-2.3860621452331543,-2.726470947265625,-1.8836928606033325
1772810215296585000,9.9955849609375,-2.8423826694488525,0.8528642654418945,-3.839409828186035
1772810215306285000,10.00528515625,-2.767548084259033,4.209339141845703,-5.454962253570557
1772810215315985400,10.0149853515625,-1.036600112915039,7.8739118576049805,-6.011481285095215
1772810215325685500,10.024685546875,-0.012198448181152344,12.945789337158203,-5.658421516418457
1772810215335385600,10.034385498046875,1.6183738708496094,17.23952865600586,-4.029773235321045
1772810215345085700,10.044085693359374,5.2220635414123535,19.73687744140625,-1.0774836540222168
1772810215354785800,10.053785888671875,9.301753997802734,23.798254013061523,0.7390991449356079
1772810215364486000,10.06348583984375,13.865839004516602,27.892818450927734,1.3768751621246338
1772810215374186200,10.073186279296875,16.865497589111328,30.960464477539062,0.9085930585861206
1772810215383886300,10.08288623046875,18.979440689086914,33.32128143310547,-0.15342241525650024
1772810215393586400,10.09258642578125,20.93318748474121,34.75532531738281,-1.6495885848999023
1772810215403286500,10.10228662109375,22.321622848510742,35.052825927734375,-2.8764500617980957
1772810215412986600,10.111986572265625,22.456140518188477,33.102108001708984,-3.0952444076538086
1772810215422686700,10.121686767578124,22.008657455444336,29.850318908691406,-2.5912678241729736
1772810215432387000,10.131386962890625,20.562400817871094,25.72483253479004,-1.1998836994171143
1772810215442087200,10.141087158203124,17.704723358154297,21.323070526123047,0.03738364577293396
1772810215451787300,10.150787353515625,13.455977439880371,17.355388641357422,0.5883100032806396
1772810215461487400,10.1604873046875,8.597894668579102,13.525199890136719,0.5248013734817505
1772810215471187500,10.1701875,4.011898040771484,9.758625030517578,-0.10854420065879822
1772810215480887600,10.179887451171876,1.0222020149230957,5.940126419067383,-1.090259075164795
1772810215490588000,10.189587890625,-0.7161993980407715,2.373678207397461,-2.0944008827209473
1772810215500288000,10.1992880859375,-2.037177085876465,-1.2524490356445312,-2.5856733322143555
1772810215509988000,10.208988037109375,-2.813727378845215,-4.015524387359619,-2.6570749282836914
1772810215519688200,10.218688232421876,-3.2453184127807617,-5.929258346557617,-2.455294132232666
1772810215529388300,10.22838818359375,-3.4663169384002686,-7.725769996643066,-2.1889002323150635
1772810215539088400,10.23808837890625,-3.5675299167633057,-9.4968843460083,-1.841552495956421
1772810215548788500,10.24778857421875,-4.22254753112793,-10.671720504760742,-1.579350233078003
1772810215558488800,10.25748876953125,-4.518526077270508,-12.216229438781738,-0.9272883534431458
1772810215568189000,10.26718896484375,-4.275733470916748,-13.215152740478516,-0.36524349451065063
1772810215577889000,10.276888916015626,-3.7947959899902344,-13.953840255737305,0.32723766565322876
1772810215587589000,10.286589111328125,-3.171185255050659,-14.666372299194336,0.9549681544303894
1772810215597289200,10.296289306640626,-2.6799845695495605,-15.105042457580566,1.4826409816741943
1772810215606989300,10.3059892578125,-1.696860909461975,-15.278290748596191,2.2866861820220947
1772810215616689700,10.315689697265626,-0.5071179866790771,-15.097822189331055,3.1774706840515137
1772810215626389800,10.3253896484375,0.06290566921234131,-14.522510528564453,3.6869637966156006
1772810215636089900,10.33508984375,0.18767529726028442,-14.04173755645752,3.8232362270355225
1772810215645790000,10.3447900390625,-0.48361265659332275,-13.610906600952148,3.622549533843994
1772810215655490000,10.354489990234375,-2.0084455013275146,-13.172616958618164,3.4441001415252686
1772810215665190100,10.364190185546875,-3.239856719970703,-12.770723342895508,3.4022457599639893
1772810215674890200,10.37389013671875,-3.0886735916137695,-12.749545097351074,3.680839776992798
1772810215684590600,10.383590576171875,-2.4125661849975586,-12.916993141174316,3.986260175704956
1772810215694290700,10.393290771484375,-1.3812849521636963,-12.810964584350586,3.9819793701171875
1772810215703990800,10.40299072265625,-0.07387650012969971,-13.080026626586914,3.748208999633789
1772810215713691000,10.41269091796875,1.1185919046401978,-13.25301742553711,3.438201665878296
1772810215723391000,10.422390869140624,1.9179376363754272,-13.063796997070312,2.9279704093933105
1772810215733091000,10.432091064453125,2.310047149658203,-12.665138244628906,2.1762635707855225
1772810215742791400,10.44179150390625,2.040692090988159,-12.271495819091797,1.3221955299377441
1772810215752491500,10.451491455078125,1.3080322742462158,-11.712492942810059,0.5025440454483032
1772810215762191600,10.461191650390624,0.4399791955947876,-11.149259567260742,-0.041550517082214355
1772810215771891700,10.4708916015625,-0.3332279920578003,-10.739934921264648,-0.24001675844192505
1772810215781591800,10.480591796875,-0.7847834229469299,-10.38071346282959,-0.13711845874786377
1772810215791292000,10.4902919921875,-1.342066764831543,-9.997421264648438,0.1372508406639099
1772810215800992000,10.499991943359374,-1.8915079832077026,-9.651480674743652,0.5205426216125488
1772810215810692400,10.5096923828125,-2.686609983444214,-9.412665367126465,0.7527057528495789
1772810215820392400,10.519392333984374,-3.406816244125366,-9.043121337890625,0.9107922315597534
1772810215830092500,10.529092529296875,-3.8648107051849365,-8.56149673461914,0.9002742171287537
1772810215839792600,10.538792724609374,-4.509264945983887,-8.151396751403809,0.8415658473968506
1772810215849492700,10.54849267578125,-4.644241809844971,-7.733323097229004,0.7540614604949951
1772810215859192800,10.55819287109375,-4.405173301696777,-7.123971939086914,0.5169566869735718
1772810215868893200,10.56789306640625,-4.357909202575684,-6.239543437957764,-0.029807090759277344
1772810215878593300,10.57759326171875,-4.110670566558838,-4.997000694274902,-0.7562964558601379
1772810215888293400,10.58729345703125,-3.2818260192871094,-3.5412120819091797,-1.4691407680511475
1772810215897993500,10.596993408203126,-1.7060188055038452,-2.008209705352783,-1.8775280714035034
1772810215907693600,10.606693603515625,-0.25825202465057373,-0.14093589782714844,-1.6544694900512695
1772810215917393700,10.6163935546875,1.3589622974395752,1.5723657608032227,-0.7517396807670593
1772810215927093800,10.62609375,3.2568488121032715,2.8896007537841797,0.7677223682403564
1772810215936794000,10.635794189453126,4.184623718261719,4.187577247619629,2.3766469955444336
1772810215946494200,10.645494140625,4.421693325042725,5.40023136138916,3.454167127609253
1772810215956194300,10.6551943359375,4.367222785949707,5.728923797607422,3.464242935180664
1772810215965894400,10.664894287109375,2.6115684509277344,6.270951271057129,1.5446369647979736
1772810215975594500,10.674594482421876,0.702782154083252,8.485410690307617,-1.6487116813659668
1772810215985294600,10.684294677734375,0.28863048553466797,9.57489013671875,-3.7779359817504883
1772810215994995000,10.693994873046876,-0.3178684711456299,10.84344482421875,-5.237431526184082
1772810216004695000,10.703695068359375,-0.6346683502197266,13.634912490844727,-6.574029445648193
1772810216014395100,10.71339501953125,0.9658265113830566,15.276689529418945,-6.3344502449035645
1772810216024095200,10.72309521484375,4.0473785400390625,14.267999649047852,-4.191471099853516
1772810216033795300,10.73279541015625,7.116507530212402,12.880267143249512,-1.3282928466796875
1772810216043495400,10.742495361328125,9.897031784057617,12.687052726745605,1.729696273803711
1772810216053195800,10.75219580078125,12.395025253295898,9.688549041748047,5.639093399047852
1772810216062895900,10.761895751953125,12.462865829467773,6.736138343811035,8.792704582214355
1772810216072596000,10.771595947265626,12.215763092041016,5.906239032745361,9.090750694274902
1772810216082296000,10.781296142578125,10.36652946472168,7.097095489501953,6.612586498260498
1772810216091996200,10.79099609375,7.566683769226074,7.60568380355835,3.971402406692505
1772810216101696300,10.8006962890625,3.9653968811035156,7.498237133026123,1.751720666885376
1772810216111396400,10.810396240234375,0.889223575592041,7.588715553283691,0.23793315887451172
1772810216121096700,10.8200966796875,-1.1833524703979492,6.904406547546387,-0.010965883731842041
1772810216130796800,10.829796875,-2.827441930770874,5.578768730163574,0.5408123731613159
1772810216140497000,10.839496826171874,-3.8927788734436035,4.137930870056152,1.1209290027618408
1772810216150197000,10.849197021484375,-4.313770771026611,2.7459492683410645,1.1519718170166016
1772810216159897000,10.85889697265625,-3.684020757675171,1.3008484840393066,0.6948092579841614
1772810216169597200,10.86859716796875,-2.7224602699279785,-0.03182363510131836,0.1151423454284668
1772810216179297500,10.878297607421874,-1.9579687118530273,-1.2450714111328125,-0.4479462504386902
1772810216188997600,10.88799755859375,-1.399857997894287,-2.239853858947754,-1.006446123123169
1772810216198697700,10.89769775390625,-1.2298555374145508,-2.8833582401275635,-1.6174753904342651
1772810216208397800,10.907397705078125,-1.332282543182373,-3.3121461868286133,-2.045727252960205
1772810216218098000,10.917097900390624,-1.6859731674194336,-3.656571865081787,-2.1360971927642822
1772810216227798000,10.926798095703125,-2.344900608062744,-3.7706332206726074,-2.2777020931243896
1772810216237498000,10.936498046875,-3.4698081016540527,-3.3689112663269043,-2.3709702491760254
1772810216247198500,10.946198486328125,-4.104822158813477,-1.9807491302490234,-1.995049238204956
1772810216256898600,10.955898681640624,-4.583872318267822,-0.7670798301696777,-1.9680970907211304
1772810216266598700,10.9655986328125,-4.194136142730713,-0.2246074676513672,-1.5805470943450928
1772810216285998800,10.984998779296875,-1.743499755859375,0.7084975242614746,-0.8999639749526978
1772810216295699000,10.994698974609374,-0.7498817443847656,0.5509753227233887,-0.6202021837234497
1772810216305399000,11.00439892578125,-0.08228635787963867,0.08170652389526367,-0.6980490684509277
1772810216315099400,11.014099365234374,0.14941787719726562,-0.3085060119628906,-0.7889079451560974
1772810216324799500,11.023799560546875,0.059520721435546875,-0.8066210746765137,-0.8550746440887451
1772810216334499600,11.03349951171875,0.2328658103942871,-1.1843376159667969,-0.8912253379821777
1772810216344199700,11.04319970703125,0.340756893157959,-1.458155632019043,-0.8075215220451355
1772810216353899800,11.052899658203126,-0.1326007843017578,-1.59128999710083,-0.6238147020339966
1772810216363600000,11.062599853515625,-0.030231475830078125,-1.404191493988037,-0.19553756713867188
1772810216373300000,11.072300048828126,-0.2831125259399414,-1.067418098449707,0.2666407823562622
1772810216383000300,11.082000244140625,-0.48551321029663086,-0.5225205421447754,0.7067921161651611
1772810216392700400,11.091700439453126,-0.7328042984008789,-0.13063764572143555,0.9727067947387695
1772810216402400500,11.101400390625,-0.8721714019775391,0.47707319259643555,1.313019871711731
1772810216412100600,11.1111005859375,-0.8908734321594238,0.39658117294311523,1.5300979614257812
1772810216421800700,11.12080078125,-0.4383559226989746,0.4423356056213379,1.6505435705184937
1772810216431500800,11.130500732421876,-0.02150440216064453,0.42606639862060547,1.4929615259170532
1772810216441201000,11.140200927734375,0.5193991661071777,0.2876267433166504,1.283735990524292
1772810216450901200,11.1499013671875,0.9288411140441895,0.11426210403442383,0.9430673122406006
1772810216460601300,11.159601318359375,1.244657039642334,0.19782257080078125,0.5641505718231201
1772810216470301400,11.169301513671876,1.2530460357666016,0.3198094367980957,0.29223501682281494
1772810216480001500,11.17900146484375,1.0216064453125,0.570472240447998,0.24462473392486572
1772810216489701600,11.18870166015625,0.7446603775024414,0.805027961730957,0.07302975654602051
1772810216499401700,11.198401611328125,0.47635698318481445,0.9964914321899414,-0.16675996780395508
1772810216509102000,11.20810205078125,0.2970123291015625,1.0600905418395996,-0.3859466314315796
1772810216518802200,11.21780224609375,0.1519026756286621,1.1226954460144043,-0.4099392890930176
1772810216528502300,11.227502197265625,0.086639404296875,1.1140918731689453,-0.33947277069091797
1772810216538202400,11.237202392578125,0.10560989379882812,1.1379294395446777,-0.18349242210388184
1772810216547902500,11.24690234375,0.08554458618164062,1.1566104888916016,0.049472808837890625
1772810216557602600,11.2566025390625,0.10600805282592773,1.1104226112365723,0.21916747093200684
1772810216577003000,11.2760029296875,0.41449928283691406,1.0003485679626465,0.5783042907714844
1772810216586703000,11.285703125,0.7046141624450684,0.8969664573669434,0.6929502487182617
1772810216596403200,11.2954033203125,0.9672794342041016,0.7801094055175781,0.7883725166320801
1772810216606103300,11.305103271484375,1.1278972625732422,0.6264352798461914,0.7886829376220703
1772810216615803400,11.314803466796874,1.1860156059265137,0.5073003768920898,0.7009625434875488
1772810216625503700,11.324503662109375,1.2178030014038086,0.40117454528808594,0.5977177619934082
1772810216635203800,11.334203857421874,1.308952808380127,0.3506464958190918,0.4476562738418579
1772810216644904000,11.343904052734375,1.2953405380249023,0.35297203063964844,0.3080015182495117
1772810216654604000,11.35360400390625,1.2138614654541016,0.3033285140991211,0.21545088291168213
1772810216664304000,11.36330419921875,0.9283103942871094,0.2660980224609375,0.18662357330322266
1772810216674004200,11.373004150390624,0.5623703002929688,0.20592880249023438,0.1558542251586914
1772810216683704300,11.382704345703125,0.3036332130432129,0.2150726318359375,0.050853848457336426
1772810216693404700,11.39240478515625,0.13145732879638672,0.2700014114379883,-0.060419440269470215
1772810216703104800,11.402104736328125,-0.0737161636352539,0.27065277099609375,-0.15150880813598633
1772810216712804900,11.411804931640624,-0.21034574508666992,0.2996344566345215,-0.21095001697540283
1772810216722505000,11.4215048828125,-0.3649783134460449,0.3501133918762207,-0.2061861753463745
1772810216732205000,11.431205078125,-0.48985862731933594,0.3053402900695801,-0.15841221809387207
1772810216741905200,11.4409052734375,-0.5702996253967285,0.35134410858154297,-0.08803319931030273
1772810216751605200,11.450605224609374,-0.7545008659362793,0.4326748847961426,-0.005205631256103516
1772810216761305600,11.4603056640625,-0.8714666366577148,0.4868330955505371,0.09231364727020264
1772810216771005700,11.470005615234374,-0.9639053344726562,0.48945093154907227,0.21326899528503418
1772810216780705800,11.479705810546875,-0.9333910942077637,0.4797511100769043,0.24156510829925537
1772810216790406000,11.489406005859376,-1.008862018585205,0.4765315055847168,0.204301118850708
1772810216800106000,11.49910595703125,-1.2674684524536133,0.722527027130127,0.49475860595703125
1772810216809806000,11.50880615234375,-1.7212963104248047,0.5079588890075684,0.9580062627792358
1772810216819506200,11.518506103515625,-2.02386474609375,0.6260166168212891,1.3575294017791748
1772810216829206300,11.528206298828126,-2.0214343070983887,0.6999549865722656,1.6279679536819458
1772810216838906600,11.53790673828125,-1.9166173934936523,0.6738200187683105,1.8348907232284546
1772810216848606700,11.547606689453126,-1.5971121788024902,0.6611332893371582,1.9652583599090576
1772810216858306800,11.557306884765625,-0.9919815063476562,0.6141414642333984,1.8062149286270142
1772810216868007000,11.5670068359375,-0.4604778289794922,0.7299084663391113,1.4444149732589722
1772810216877707000,11.57670703125,-0.17456960678100586,0.8073892593383789,1.1052377223968506
1772810216887407000,11.586406982421876,-0.0862741470336914,0.40711212158203125,0.764893651008606
