time,seconds_elapsed,z,y,x
1772810436329801000,0.109801025390625,0,0,0
1772810436339500800,0.119500732421875,-0.10540008544921875,-0.025247573852539062,-0.09518837928771973
1772810436349201000,0.129200927734375,-0.29404163360595703,-0.003360748291015625,-0.19001948833465576
1772810436358900700,0.138900634765625,-0.46636056900024414,0.11836004257202148,-0.2678588628768921
1772810436368600600,0.1486005859375,-0.6241087913513184,0.1852402687072754,-0.32702529430389404
1772810436378300400,0.158300537109375,-0.6864666938781738,0.2035369873046875,-0.31836360692977905
1772810436388000300,0.168000244140625,-0.6381678581237793,0.09156084060668945,-0.3289239704608917
1772810436397700000,0.1777001953125,-0.5720095634460449,-0.05464506149291992,-0.4387107491493225
1772810436407400000,0.18739990234375,-0.5373263359069824,-0.13386201858520508,-0.48256218433380127
1772810436417099800,0.197099853515625,-0.6686043739318848,-0.2167673110961914,-0.09158366918563843
1772810436426799600,0.206799560546875,-0.2400054931640625,-0.6992344856262207,-0.39066165685653687
1772810436436499700,0.216499755859375,-0.14167404174804688,-0.14923858642578125,-1.086417317390442
1772810436446199600,0.226199462890625,-0.19872617721557617,0.4793820381164551,-1.4666943550109863
1772810436455899400,0.2358994140625,0.26085805892944336,0.9346628189086914,-1.6087985038757324
1772810436465599200,0.24559912109375,0.06631135940551758,0.538963794708252,-1.3801387548446655
1772810436475299000,0.255299072265625,-0.6328372955322266,-0.042606353759765625,-1.139389157295227
1772810436484999000,0.2649990234375,-1.0814204216003418,-0.3159065246582031,-0.9176561236381531
1772810436494699000,0.274698974609375,-0.6387248039245605,-0.23056459426879883,-1.075190544128418
1772810436504398600,0.284398681640625,0.21520757675170898,0.16176843643188477,-1.386983871459961
1772810436514098700,0.2940986328125,0.7746109962463379,0.24942398071289062,-1.7467551231384277
1772810436523798500,0.303798583984375,0.4027857780456543,0.4391779899597168,-1.4217573404312134
1772810436533498400,0.313498291015625,-0.0806727409362793,0.7965126037597656,-0.8730753660202026
1772810436543198200,0.3231982421875,0.5012850761413574,0.6183781623840332,-0.7364085912704468
1772810436552898000,0.33289794921875,1.2857699394226074,0.33083343505859375,-0.8628618717193604
1772810436562598000,0.342597900390625,1.2753267288208008,0.031520843505859375,-1.0503640174865723
1772810436572297700,0.352297607421875,0.8387179374694824,-0.6271967887878418,-1.070042610168457
1772810436581997800,0.361997802734375,0.48300933837890625,-1.2912416458129883,-1.3095476627349854
1772810436591697700,0.37169775390625,0.16209936141967773,-2.0166776180267334,-1.1921701431274414
1772810436601397500,0.3813974609375,-0.043265342712402344,-2.277346611022949,-1.188542366027832
1772810436611097300,0.391097412109375,0.10787153244018555,-2.0225017070770264,-1.2389507293701172
1772810436620797200,0.400797119140625,0.15036725997924805,-1.6622960567474365,-1.3393841981887817
1772810436630497000,0.4104970703125,-0.35811281204223633,-1.5580027103424072,-1.4136077165603638
1772810436640196900,0.42019677734375,-1.0762715339660645,-2.0538763999938965,-1.6739587783813477
1772810436649896700,0.429896728515625,-1.6247334480285645,-2.411128044128418,-1.9627766609191895
1772810436659596800,0.4395966796875,-1.7371916770935059,-2.0788962841033936,-2.2462966442108154
1772810436669296600,0.449296630859375,-2.0525498390197754,-1.2243413925170898,-2.323946952819824
1772810436678996500,0.45899658203125,-3.2455339431762695,-0.09303855895996094,-2.0723085403442383
1772810436688696300,0.4686962890625,-2.7060275077819824,0.1856846809387207,-2.5203163623809814
1772810436698396200,0.478396240234375,-2.0843420028686523,1.4818050861358643,-3.269979476928711
1772810436708096000,0.488095947265625,-0.5470023155212402,3.153153896331787,-3.5999128818511963
1772810436717796000,0.497796142578125,0.3115382194519043,4.108033180236816,-3.2018139362335205
1772810436727496000,0.507495849609375,-0.11355781555175781,1.7692060470581055,-1.0511234998703003
1772810436737195800,0.51719580078125,-1.1449131965637207,-1.1299614906311035,0.6225149631500244
1772810436746895600,0.5268955078125,-1.5220890045166016,-2.086121082305908,1.4471369981765747
1772810436756595500,0.536595458984375,-0.4427661895751953,-1.915602684020996,1.882485032081604
1772810436766295300,0.54629541015625,-0.20880794525146484,-1.1873488426208496,1.334520936012268
1772810436775995100,0.5559951171875,-0.6757831573486328,-0.3951530456542969,0.9675619006156921
1772810436785695000,0.565695068359375,-1.308403491973877,-0.043642520904541016,0.2030203938484192
1772810436795394800,0.575394775390625,-1.1135458946228027,0.635491132736206,0.4248887896537781
1772810436805095000,0.585094970703125,-0.6378269195556641,0.8794577121734619,0.5495353937149048
1772810436814794800,0.594794677734375,-0.5261802673339844,0.6175801753997803,0.5252532362937927
1772810436824494600,0.60449462890625,-0.6696133613586426,0.40539073944091797,0.658179521560669
1772810436834194400,0.6141943359375,-0.2931656837463379,0.6410822868347168,0.7902622818946838
1772810436843894300,0.623894287109375,1.26214599609375,0.795154333114624,1.3146367073059082
1772810436853594000,0.633593994140625,3.2930665016174316,0.5961833000183105,1.7746394872665405
1772810436863294200,0.643294189453125,3.998457431793213,0.669818639755249,2.1506552696228027
1772810436872994000,0.652994140625,3.5229620933532715,1.3244249820709229,2.563004970550537
1772810436882694000,0.66269384765625,4.327236175537109,1.8943028450012207,3.1255226135253906
1772810436892393700,0.672393798828125,5.399026870727539,2.689406394958496,3.220649480819702
1772810436902093600,0.682093505859375,6.185983657836914,4.065235137939453,3.2618460655212402
1772810436911793400,0.69179345703125,8.393097877502441,5.02351188659668,4.022056579589844
1772810436921493500,0.701493408203125,11.333160400390625,5.490174293518066,4.743156909942627
1772810436931193300,0.711193359375,14.270655632019043,6.079134941101074,5.5666680335998535
1772810436940893200,0.72089306640625,17.137737274169922,6.001148700714111,6.222184181213379
1772810436950593000,0.730593017578125,19.312274932861328,5.868516445159912,7.564219951629639
1772810436960292900,0.74029296875,21.78144645690918,5.697626113891602,8.719343185424805
1772810436969992700,0.74999267578125,23.538171768188477,5.01458740234375,10.508078575134277
1772810436979692500,0.759692626953125,25.896390914916992,5.5034284591674805,8.584508895874023
1772810436989392600,0.769392578125,25.85959243774414,7.043606758117676,7.339395523071289
1772810436999092500,0.779092529296875,23.916587829589844,4.270873546600342,7.201945781707764
1772810437008792300,0.788792236328125,19.25841522216797,4.562071800231934,5.606818675994873
1772810437018492200,0.7984921875,13.886307716369629,5.215083599090576,3.200042247772217
1772810437028192000,0.80819189453125,9.069174766540527,5.167288780212402,0.6033976078033447
1772810437037891800,0.817891845703125,5.226136207580566,4.689998626708984,-1.3001034259796143
1772810437047592000,0.827592041015625,1.6632757186889648,4.004363059997559,-2.64400577545166
1772810437057291800,0.837291748046875,-2.43936824798584,2.9030089378356934,-3.383450508117676
1772810437066991600,0.84699169921875,-5.84292459487915,1.705796241760254,-4.375130653381348
1772810437076691500,0.85669140625,-8.55972957611084,1.3045778274536133,-5.665010452270508
1772810437086391300,0.866391357421875,-11.963155746459961,0.6898183822631836,-6.481671333312988
1772810437096091100,0.876091064453125,-13.584249496459961,-0.722224235534668,-7.268350124359131
1772810437105791000,0.885791015625,-13.284557342529297,-2.5214481353759766,-6.851640701293945
1772810437115491000,0.895490966796875,-11.956639289855957,-4.1825151443481445,-5.620348930358887
1772810437125191000,0.90519091796875,-9.404959678649902,-5.457810401916504,-4.7193827629089355
1772810437134890800,0.914890869140625,-7.69241189956665,-6.132047653198242,-3.9609732627868652
1772810437144590600,0.924590576171875,-6.622119426727295,-6.36810302734375,-3.3643481731414795
1772810437154290700,0.934290771484375,-6.2686262130737305,-6.267827987670898,-2.5891504287719727
1772810437163990300,0.943990234375,-6.242314338684082,-5.871373653411865,-1.8821088075637817
1772810437173690400,0.9536904296875,-6.436418533325195,-5.229877948760986,-1.6103848218917847
1772810437183390200,0.96339013671875,-7.055647373199463,-4.607295513153076,-1.7080192565917969
1772810437193090000,0.973090087890625,-7.95112419128418,-4.136959075927734,-1.9859893321990967
1772810437202790000,0.982789794921875,-8.91525936126709,-3.841520309448242,-2.250624895095825
1772810437212489700,0.99248974609375,-9.492530822753906,-3.6264278888702393,-2.6465225219726562
1772810437222189800,1.00218994140625,-9.872503280639648,-3.561061382293701,-3.0008394718170166
1772810437231889700,1.0118896484375,-10.129143714904785,-3.673523426055908,-3.2454214096069336
1772810437241589500,1.021589599609375,-10.131587982177734,-3.7410330772399902,-3.321007013320923
1772810437251289300,1.031289306640625,-9.897711753845215,-3.814178943634033,-3.259654998779297
1772810437260989200,1.0409892578125,-9.327058792114258,-3.9224467277526855,-3.02984881401062
1772810437270689000,1.05068896484375,-8.541672706604004,-3.917728900909424,-2.704312324523926
1772810437280389000,1.06038916015625,-7.760089874267578,-3.9730796813964844,-2.4140827655792236
1772810437290089000,1.0700888671875,-6.923275947570801,-4.185734748840332,-2.0862784385681152
1772810437299788800,1.079788818359375,-5.969095706939697,-4.556795120239258,-1.7726633548736572
1772810437309488600,1.089488525390625,-5.027939319610596,-4.820641040802002,-1.3718202114105225
1772810437319188500,1.0991884765625,-4.243581295013428,-5.094940185546875,-1.031159520149231
1772810437328888300,1.108888427734375,-3.7850308418273926,-5.426990985870361,-0.8498786687850952
1772810437338588200,1.118588134765625,-3.408041477203369,-5.717304706573486,-0.7345738410949707
1772810437348288300,1.128288330078125,-3.2139389514923096,-5.9661054611206055,-0.6889004111289978
1772810437357988000,1.137988037109375,-3.269956111907959,-6.169109344482422,-0.6822971701622009
1772810437367688000,1.14768798828125,-3.5076394081115723,-6.284636974334717,-0.7489755153656006
1772810437377387800,1.1573876953125,-3.7145183086395264,-6.201075553894043,-0.6653475761413574
1772810437387088000,1.167087890625,-3.837299346923828,-6.125528335571289,-0.3983573317527771
1772810437396787700,1.17678759765625,-3.857334613800049,-6.082677364349365,-0.15053117275238037
1772810437406487600,1.186487548828125,-3.754669189453125,-5.902836322784424,-0.052102863788604736
1772810437416187400,1.1961875,-3.7028346061706543,-5.695806980133057,0.1696566343307495
1772810437425887200,1.20588720703125,-3.5720019340515137,-5.688903331756592,0.44525814056396484
1772810437435587000,1.215587158203125,-3.5389137268066406,-5.650210380554199,0.628239631652832
1772810437445287000,1.225286865234375,-3.510409116744995,-5.494192600250244,0.6787466406822205
1772810437454987000,1.234987060546875,-3.2524285316467285,-5.185908317565918,0.730364203453064
1772810437464686800,1.244686767578125,-2.9447803497314453,-4.695650100708008,0.7815427184104919
1772810437474386700,1.25438671875,-2.8342480659484863,-4.010085582733154,0.7409197092056274
1772810437484086500,1.26408642578125,-2.5688719749450684,-2.9282894134521484,0.8510023951530457
1772810437493786600,1.27378662109375,-2.1808176040649414,-1.1589741706848145,1.0264308452606201
1772810437503486500,1.283486572265625,-1.1122899055480957,1.5208897590637207,0.8101300597190857
1772810437513186300,1.293186279296875,0.6318426132202148,3.9009571075439453,0.8985084295272827
1772810437522886100,1.30288623046875,2.4566116333007812,5.156107425689697,1.7416608333587646
1772810437532586000,1.3125859375,3.8759751319885254,6.401185512542725,2.012463092803955
1772810437542285800,1.322285888671875,5.1367292404174805,9.109914779663086,1.5811370611190796
1772810437551985700,1.331985595703125,5.491832256317139,10.578956604003906,0.9427313804626465
1772810437561685800,1.341685791015625,4.243412017822266,10.325322151184082,0.0872826874256134
1772810437571385600,1.351385498046875,2.454409122467041,7.5380859375,0.6323155164718628
1772810437581085400,1.36108544921875,2.6906890869140625,7.807217597961426,-1.4140164852142334
1772810437590785300,1.370785400390625,4.455116271972656,9.468192100524902,-3.160357713699341
1772810437600485400,1.3804853515625,6.734307289123535,9.372578620910645,-2.7590603828430176
1772810437610185200,1.390185302734375,9.95639419555664,7.35425329208374,-1.3759400844573975
1772810437619885000,1.399885009765625,12.930318832397461,5.032642841339111,0.5073425769805908
1772810437629585000,1.4095849609375,13.987996101379395,4.120160102844238,2.2117855548858643
1772810437639284700,1.41928466796875,13.943578720092773,4.13287353515625,2.6822381019592285
1772810437648984800,1.42898486328125,13.04951000213623,4.652258396148682,1.5417766571044922
1772810437658684700,1.4386845703125,11.126861572265625,5.143969535827637,0.19906163215637207
1772810437668384500,1.448384521484375,8.518867492675781,5.498960018157959,-1.184352993965149
1772810437678084400,1.45808447265625,5.3048882484436035,4.92877197265625,-2.082321882247925
1772810437687784200,1.4677841796875,2.1878223419189453,4.001753807067871,-2.869579553604126
1772810437697484000,1.477484130859375,0.27568578720092773,3.1477112770080566,-3.612483024597168
1772810437707184000,1.48718408203125,-0.6863627433776855,2.304129123687744,-3.363191604614258
1772810437716884000,1.496884033203125,-0.3752894401550293,1.4644222259521484,-2.093438148498535
1772810437726583800,1.506583740234375,0.35778141021728516,0.7521300315856934,-0.6862601041793823
1772810437736283600,1.51628369140625,0.7288694381713867,0.137115478515625,0.7416136264801025
1772810437745983500,1.5259833984375,0.9028596878051758,-0.4961433410644531,1.6506234407424927
1772810437755683600,1.53568359375,0.6296548843383789,-1.0972890853881836,2.091970443725586
1772810437765383400,1.545383544921875,-0.03531455993652344,-1.5587444305419922,2.1166186332702637
1772810437775083300,1.555083251953125,-1.15806245803833,-1.9270100593566895,1.6511273384094238
1772810437784783000,1.564783203125,-2.505403518676758,-2.2642738819122314,0.9137684106826782
1772810437794483000,1.57448291015625,-3.8153364658355713,-2.703939437866211,0.2584134340286255
1772810437804183000,1.58418310546875,-4.9823784828186035,-3.2592787742614746,-0.311214804649353
1772810437813883000,1.5938828125,-5.889932155609131,-3.742720365524292,-0.873377799987793
1772810437823582700,1.603582763671875,-6.508413314819336,-4.110430717468262,-1.4476673603057861
1772810437833282600,1.613282470703125,-6.691162586212158,-4.36960506439209,-1.868836760520935
1772810437842982700,1.622982666015625,-6.606574058532715,-4.764839172363281,-2.073387384414673
1772810437852682500,1.6326826171875,-6.5403151512146,-5.098104476928711,-1.9844493865966797
1772810437862382300,1.64238232421875,-6.149571418762207,-5.387389183044434,-1.808349847793579
1772810437872082200,1.652082275390625,-5.708223342895508,-5.579607009887695,-1.668410062789917
1772810437881782000,1.661781982421875,-5.600997447967529,-5.70552396774292,-1.4023512601852417
1772810437891482000,1.671482177734375,-5.644537448883057,-5.788791656494141,-1.07937753200531
1772810437901182000,1.681181884765625,-5.664850234985352,-5.927647590637207,-0.649389386177063
1772810437910881800,1.6908818359375,-5.750321865081787,-6.005555629730225,-0.11668992042541504
1772810437920581600,1.70058154296875,-5.878479480743408,-5.923497200012207,0.3270784616470337
1772810437930281500,1.710281494140625,-5.837322235107422,-5.5360565185546875,0.7606143951416016
1772810437939981300,1.719981201171875,-5.737429141998291,-4.539159774780273,1.0489964485168457
1772810437949681400,1.729681396484375,-5.565205097198486,-3.2590503692626953,1.1580380201339722
1772810437959381200,1.73938134765625,-5.126641750335693,-2.2247962951660156,1.3679466247558594
1772810437969081000,1.7490810546875,-3.955791711807251,-1.0301218032836914,1.4147140979766846
1772810437978781000,1.758781005859375,-2.188894271850586,0.823061466217041,1.1395366191864014
1772810437988480800,1.768480712890625,0.5112981796264648,2.857400894165039,0.8345757722854614
1772810437998180900,1.778180908203125,4.0395894050598145,4.023993492126465,0.991455078125
1772810438007880700,1.787880615234375,7.624438762664795,5.042177677154541,1.11307954788208
1772810438017580500,1.79758056640625,10.572422981262207,8.064754486083984,0.1501869410276413
1772810438027280400,1.8072802734375,13.068391799926758,11.724531173706055,-1.0931278467178345
1772810438036980500,1.81698046875,14.467857360839844,13.537614822387695,-1.4811166524887085
1772810438046680300,1.826680419921875,14.996557235717773,14.777444839477539,-1.4159562587738037
1772810438056380200,1.836380126953125,15.399673461914062,16.125686645507812,-1.2488871812820435
1772810438066080000,1.846080078125,15.094400405883789,16.738489151000977,-0.968512773513794
1772810438075779800,1.85577978515625,14.39999008178711,17.11407470703125,-0.5341296792030334
1772810438085480000,1.86547998046875,13.76540470123291,17.025657653808594,0.19594888389110565
1772810438095179800,1.8751796875,12.675481796264648,16.691997528076172,0.5848817825317383
1772810438104879600,1.884879638671875,10.581012725830078,15.764103889465332,0.8963777422904968
1772810438114579500,1.894579345703125,9.190254211425781,13.933385848999023,0.7718076705932617
1772810438124279300,1.904279296875,9.196181297302246,11.071633338928223,0.45729297399520874
1772810438133979400,1.9139794921875,10.209356307983398,7.729433059692383,-0.005856379866600037
1772810438143679200,1.92367919921875,10.781107902526855,4.444883346557617,-0.5992677807807922
1772810438153379000,1.933379150390625,10.098697662353516,1.2967605590820312,-1.1025865077972412
1772810438163079000,1.943078857421875,8.493656158447266,-1.332413673400879,-1.618440866470337
1772810438172779000,1.952779052734375,6.705234527587891,-3.167323112487793,-2.1320579051971436
1772810438182478800,1.962478759765625,4.931205749511719,-4.306439399719238,-2.6822822093963623
1772810438192178700,1.9721787109375,3.3163585662841797,-5.179512977600098,-2.6868534088134766
1772810438201878500,1.98187841796875,1.570488452911377,-6.218840599060059,-1.8245126008987427
1772810438211578400,1.991578369140625,-0.16597223281860352,-6.848030090332031,-0.7207163572311401
1772810438221278500,2.001278564453125,-2.086421489715576,-7.338903427124023,0.20965737104415894
1772810438230978300,2.010978271484375,-3.8357324600219727,-8.084603309631348,0.7915688157081604
1772810438240678100,2.02067822265625,-5.260899543762207,-9.121747970581055,1.0143684148788452
1772810438250378000,2.0303779296875,-6.256387233734131,-10.240154266357422,0.9135798811912537
1772810438260078000,2.040078125,-6.641849994659424,-11.08901309967041,0.790539026260376
1772810438269778000,2.04977783203125,-6.978515148162842,-11.941184997558594,0.6498814821243286
1772810438279477800,2.059477783203125,-7.636177062988281,-12.414838790893555,0.29149314761161804
1772810438289177600,2.069177490234375,-8.440408706665039,-12.336708068847656,-0.07142359018325806
1772810438298877400,2.07887744140625,-9.22542953491211,-12.209467887878418,-0.5610823035240173
1772810438308577500,2.08857763671875,-9.622293472290039,-11.774263381958008,-1.2992948293685913
1772810438318277400,2.09827734375,-9.61381721496582,-11.521929740905762,-2.0179219245910645
1772810438327977200,2.107977294921875,-9.51185417175293,-11.559248924255371,-2.278240203857422
1772810438337677000,2.117677001953125,-9.33842658996582,-11.44291877746582,-2.329238176345825
1772810438347377000,2.127376953125,-8.996233940124512,-11.3277587890625,-2.365370750427246
1772810438357077000,2.137076904296875,-8.615982055664062,-11.375723838806152,-2.119314432144165
1772810438366776800,2.14677685546875,-8.120800971984863,-11.439507484436035,-1.9420905113220215
1772810438376476700,2.1564765625,-7.588836669921875,-11.367364883422852,-1.8174545764923096
1772810438386176500,2.166176513671875,-7.206613540649414,-11.325942993164062,-1.7127795219421387
1772810438395876600,2.175876708984375,-7.004283905029297,-11.296998977661133,-1.5889945030212402
1772810438405576400,2.185576416015625,-6.984200477600098,-11.237825393676758,-1.4148236513137817
1772810438415276300,2.1952763671875,-6.921525001525879,-11.150291442871094,-1.2886576652526855
1772810438424976100,2.20497607421875,-6.79982328414917,-11.054874420166016,-1.2670954465866089
1772810438434676000,2.214676025390625,-6.780313968658447,-10.986143112182617,-1.2882161140441895
1772810438444376000,2.2243759765625,-6.678361892700195,-10.929784774780273,-1.346835970878601
1772810438454076000,2.234075927734375,-6.5696001052856445,-10.83389663696289,-1.386171579360962
1772810438463775700,2.243775634765625,-6.565576553344727,-10.833532333374023,-1.3700844049453735
1772810438473475800,2.253475830078125,-6.504570007324219,-10.841833114624023,-1.3390092849731445
1772810438483175700,2.26317578125,-6.378185272216797,-10.629158020019531,-1.4371542930603027
1772810438492875500,2.27287548828125,-6.158630847930908,-10.355792999267578,-1.6491835117340088
1772810438502575400,2.282575439453125,-5.837590217590332,-10.21885871887207,-1.7296496629714966
1772810438512275500,2.292275390625,-5.348650932312012,-10.302793502807617,-1.6477882862091064
1772810438521975300,2.301975341796875,-4.681134223937988,-10.191665649414062,-1.3063435554504395
1772810438531675100,2.311675048828125,-3.9491448402404785,-9.805962562561035,-0.9709225296974182
1772810438541375000,2.321375,-2.9471473693847656,-9.21440315246582,-0.687127947807312
1772810438551074800,2.33107470703125,-1.7484157085418701,-8.339442253112793,-0.4208298921585083
1772810438560775000,2.34077490234375,-0.7251811027526855,-6.7573347091674805,-0.18671846389770508
1772810438570474800,2.350474853515625,0.22899723052978516,-4.030909061431885,-0.04461801052093506
1772810438580174600,2.360174560546875,1.6826744079589844,-0.7826285362243652,0.7525681257247925
1772810438589874400,2.36987451171875,3.902677059173584,2.7267069816589355,2.407297134399414
1772810438599574500,2.379574462890625,7.598959445953369,7.665733814239502,4.034811019897461
1772810438609274400,2.3892744140625,12.292913436889648,11.845914840698242,5.542193412780762
1772810438618974200,2.39897412109375,17.58267593383789,11.17983627319336,8.257126808166504
1772810438628674000,2.408674072265625,22.102848052978516,8.421964645385742,10.792022705078125
1772810438638374000,2.418373779296875,26.69569969177246,8.92966079711914,11.27651596069336
1772810438648074000,2.428073974609375,30.585880279541016,8.760698318481445,12.191452026367188
1772810438657773800,2.43777392578125,32.2844352722168,8.191550254821777,12.88869571685791
1772810438667473700,2.4474736328125,31.43152618408203,8.850990295410156,11.734776496887207
1772810438677173500,2.457173583984375,29.290428161621094,10.650465965270996,8.975168228149414
1772810438686873600,2.46687353515625,25.84221649169922,11.937546730041504,6.066802024841309
1772810438696573400,2.476573486328125,21.507556915283203,12.720314979553223,3.4738521575927734
1772810438706273300,2.486273193359375,17.77240562438965,12.906335830688477,1.683840274810791
1772810438715973400,2.495973388671875,15.30447769165039,12.235981941223145,1.1990599632263184
1772810438725673200,2.505673095703125,13.769599914550781,10.916236877441406,1.7954883575439453
1772810438735373000,2.515373046875,12.541933059692383,9.41278076171875,2.688431739807129
1772810438745073000,2.525072998046875,10.778539657592773,8.05654525756836,3.236032247543335
1772810438754772700,2.534772705078125,8.828285217285156,7.094748020172119,3.25659441947937
1772810438764472800,2.544472900390625,6.57845401763916,6.194639682769775,2.9452569484710693
1772810438774172700,2.554172607421875,4.153327941894531,5.442251205444336,2.516859531402588
1772810438783872500,2.56387255859375,1.8227272033691406,4.815313816070557,2.0097408294677734
1772810438793572400,2.573572265625,-0.40480995178222656,4.22104024887085,1.1987552642822266
1772810438803272400,2.5832724609375,-2.5023326873779297,3.484602451324463,0.1743474006652832
1772810438812972300,2.59297216796875,-4.1804728507995605,2.604768753051758,-0.9706234931945801
1772810438822672100,2.602672119140625,-5.335833549499512,1.604886531829834,-2.0145390033721924
1772810438832372000,2.6123720703125,-6.144143104553223,0.6146273612976074,-2.912161350250244
1772810438842071800,2.62207177734375,-6.778535842895508,-0.38927793502807617,-3.6200013160705566
1772810438851772000,2.63177197265625,-7.431453704833984,-1.4485037326812744,-4.0674309730529785
1772810438861471700,2.6414716796875,-7.833660125732422,-2.4886114597320557,-4.296931266784668
1772810438871171600,2.651171630859375,-8.236448287963867,-3.3165669441223145,-4.344357490539551
1772810438880871700,2.66087158203125,-8.623820304870605,-4.043837070465088,-4.397798538208008
1772810438890571500,2.670571533203125,-8.89238452911377,-4.670007705688477,-4.5129876136779785
1772810438900271400,2.680271240234375,-9.17483139038086,-5.174038410186768,-4.519058704376221
1772810438909971200,2.68997119140625,-9.551558494567871,-5.582866668701172,-4.478196144104004
1772810438919671300,2.69967138671875,-9.804935455322266,-5.846935749053955,-4.473085403442383
1772810438929371100,2.70937109375,-10.033178329467773,-5.9966278076171875,-4.41483211517334
1772810438939071000,2.719071044921875,-10.208146095275879,-6.044025421142578,-4.3042378425598145
1772810438948770800,2.728770751953125,-10.319591522216797,-6.035487174987793,-4.153021812438965
1772810438958470700,2.738470703125,-10.389822006225586,-6.064940452575684,-4.072235107421875
1772810438968170800,2.748170654296875,-10.292020797729492,-5.940648078918457,-4.096070289611816
1772810438977870600,2.75787060546875,-10.151247024536133,-5.710238456726074,-4.066340446472168
1772810438987570700,2.76757080078125,-9.945915222167969,-5.655852794647217,-3.991137742996216
1772810438997270500,2.7772705078125,-9.68610668182373,-5.5740203857421875,-3.9373316764831543
1772810439006970400,2.786970458984375,-9.470932006835938,-5.416321754455566,-3.890563488006592
1772810439016670200,2.796670166015625,-9.214043617248535,-5.292672157287598,-3.7521753311157227
1772810439026370000,2.8063701171875,-8.991008758544922,-5.2757463455200195,-3.4274885654449463
1772810439036070100,2.816070068359375,-8.923758506774902,-5.329230308532715,-3.137118339538574
1772810439045770000,2.82577001953125,-8.744521141052246,-5.412794589996338,-2.870069980621338
1772810439055469800,2.8354697265625,-8.493420600891113,-5.64556884765625,-2.4099040031433105
1772810439065169700,2.845169677734375,-8.28958511352539,-5.6395344734191895,-1.9665336608886719
1772810439074869500,2.854869384765625,-8.227747917175293,-5.41754150390625,-1.5935190916061401
1772810439084569600,2.864569580078125,-8.059481620788574,-5.223347187042236,-1.3377411365509033
1772810439094269400,2.87426953125,-7.585231781005859,-4.909420967102051,-1.2094169855117798
1772810439103969500,2.883969482421875,-6.867130279541016,-4.101889610290527,-1.421922206878662
1772810439113669400,2.89366943359375,-5.827978610992432,-2.7002081871032715,-1.9827767610549927
1772810439123369200,2.903369140625,-4.157897472381592,-0.5997433662414551,-2.7828726768493652
1772810439133069000,2.913069091796875,-1.4459924697875977,2.0442395210266113,-3.4487574100494385
1772810439142769000,2.922768798828125,3.4840822219848633,4.669792175292969,-3.9300622940063477
1772810439152469000,2.932468994140625,9.989181518554688,6.524065017700195,-2.856729030609131
1772810439162168800,2.9421689453125,16.57012939453125,7.700071811676025,-0.5510261654853821
1772810439171868700,2.95186865234375,21.81906509399414,6.444067478179932,2.752202033996582
1772810439181568800,2.96156884765625,24.207820892333984,5.366427421569824,5.671993732452393
1772810439191268600,2.9712685546875,25.436233520507812,5.890113830566406,7.32165002822876
1772810439200968400,2.980968505859375,26.620290756225586,6.5019145011901855,8.247176170349121
1772810439210668300,2.990668212890625,27.94084930419922,7.853793144226074,8.681466102600098
1772810439220368400,3.000368408203125,29.302974700927734,9.257216453552246,7.847939491271973
1772810439230068200,3.010068115234375,29.501724243164062,10.456365585327148,5.577375411987305
1772810439239768000,3.01976806640625,28.27605438232422,10.736246109008789,3.283639669418335
1772810439249468000,3.029468017578125,26.922578811645508,10.752973556518555,1.8538260459899902
1772810439259167700,3.039167724609375,25.898151397705078,10.380908966064453,1.5386767387390137
1772810439268867800,3.048867919921875,24.737293243408203,9.153676986694336,2.1493210792541504
1772810439278567700,3.058567626953125,23.123727798461914,7.758180618286133,3.50895619392395
1772810439288267500,3.068267578125,20.231029510498047,6.736871719360352,5.132999420166016
1772810439297967600,3.077967529296875,15.613138198852539,5.825907230377197,6.098663330078125
1772810439307667500,3.08766748046875,10.913298606872559,5.109181880950928,5.8295578956604
1772810439317367300,3.0973671875,6.982441425323486,4.265907287597656,4.581624507904053
1772810439327067100,3.107067138671875,4.008942127227783,3.4380483627319336,2.667057752609253
1772810439336767200,3.116767333984375,2.0920915603637695,2.287017345428467,0.7871804237365723
1772810439346467000,3.126467041015625,1.1607632637023926,0.8468184471130371,-0.800269365310669
1772810439356167000,3.1361669921875,0.29202747344970703,-0.4286360740661621,-1.9242284297943115
1772810439365867000,3.145866943359375,-1.2291150093078613,-0.9274539947509766,-3.140436887741089
1772810439375566800,3.15556689453125,-2.7948174476623535,-2.77237606048584,-3.6202168464660645
1772810439385266700,3.1652666015625,-4.675313949584961,-4.45650577545166,-3.8225181102752686
1772810439394966500,3.174966552734375,-6.009485244750977,-6.025834083557129,-3.737896680831909
1772810439404666600,3.18466650390625,-6.987304210662842,-7.954862594604492,-3.287623643875122
1772810439414366500,3.194366455078125,-7.433921813964844,-10.032270431518555,-2.5067615509033203
1772810439424066300,3.20406640625,-7.775957107543945,-11.53405475616455,-1.9587002992630005
1772810439433766400,3.213766357421875,-8.194523811340332,-12.352569580078125,-1.8891303539276123
1772810439443466200,3.22346630859375,-8.633380889892578,-12.609414100646973,-2.4514477252960205
1772810439453166000,3.233166015625,-9.025571823120117,-12.527472496032715,-3.4134836196899414
1772810439462866000,3.242865966796875,-9.301182746887207,-12.388944625854492,-4.406703948974609
1772810439472565800,3.252565673828125,-9.44227409362793,-12.066636085510254,-5.647438049316406
1772810439482265900,3.262265869140625,-9.474225997924805,-11.48837661743164,-6.9390764236450195
1772810439491965700,3.271965576171875,-9.386079788208008,-10.85108757019043,-7.956481456756592
1772810439501665500,3.28166552734375,-9.181376457214355,-10.206478118896484,-8.556909561157227
1772810439511365600,3.29136572265625,-9.063033103942871,-10.104817390441895,-8.688879013061523
1772810439521065500,3.3010654296875,-8.737371444702148,-10.12462043762207,-8.279682159423828
1772810439530765300,3.310765380859375,-8.21225357055664,-10.00576114654541,-7.690677642822266
1772810439540465200,3.320465087890625,-7.711568355560303,-9.772394180297852,-7.13206672668457
1772810439550165200,3.330165283203125,-7.251270294189453,-9.591852188110352,-6.55448055267334
1772810439559865000,3.339864990234375,-6.716937065124512,-9.450003623962402,-5.955694198608398
1772810439569565000,3.34956494140625,-6.346526145935059,-9.382011413574219,-5.465540885925293
1772810439579265000,3.35926513671875,-6.225407123565674,-9.272735595703125,-5.068352699279785
1772810439588964900,3.36896484375,-6.138088703155518,-9.154723167419434,-4.7669219970703125
1772810439598664700,3.378664794921875,-5.681358814239502,-9.190556526184082,-4.717319011688232
1772810439608364500,3.388364501953125,-5.368481636047363,-9.041572570800781,-4.601421356201172
1772810439618064600,3.398064697265625,-5.4937944412231445,-8.945381164550781,-4.515780925750732
1772810439627764500,3.407764404296875,-5.440027236938477,-9.12119197845459,-4.6284499168396
1772810439637464300,3.41746435546875,-5.224728584289551,-9.240945816040039,-4.596452713012695
1772810439647164200,3.4271640625,-5.056368350982666,-9.236917495727539,-4.541840553283691
1772810439656864300,3.4368642578125,-4.889251232147217,-9.213727951049805,-4.319324493408203
1772810439666564000,3.446564208984375,-4.612124919891357,-9.156312942504883,-3.9344863891601562
1772810439676264000,3.456263916015625,-4.222288131713867,-8.91592025756836,-3.4757163524627686
1772810439685963800,3.4659638671875,-4.024193286895752,-8.406972885131836,-2.952890634536743
1772810439695663900,3.475663818359375,-3.635906219482422,-7.87898063659668,-2.387204170227051
1772810439705363700,3.48536376953125,-3.059023857116699,-7.284306526184082,-1.7327438592910767
1772810439715063800,3.495063720703125,-2.4971442222595215,-6.439755916595459,-0.9606114625930786
1772810439724763600,3.504763671875,-1.707519769668579,-5.396426200866699,-0.15221810340881348
1772810439734463500,3.51446337890625,-0.7194724082946777,-4.010524272918701,0.30074334144592285
1772810439744163300,3.524163330078125,1.0310258865356445,-2.0758728981018066,0.2617342472076416
1772810439753863200,3.53386328125,3.4465742111206055,0.23501062393188477,0.4118802547454834
1772810439763563300,3.543563232421875,5.974052906036377,2.458885669708252,1.5701110363006592
1772810439773263000,3.55326318359375,8.735122680664062,4.628367900848389,2.9151201248168945
1772810439782963000,3.562962890625,11.284801483154297,7.1293721199035645,4.1353559494018555
1772810439792663000,3.5726630859375,13.183293342590332,9.792783737182617,4.873936653137207
1772810439802363000,3.58236279296875,14.465692520141602,13.472894668579102,3.842410087585449
1772810439812062700,3.592062744140625,15.496294021606445,15.771402359008789,3.228008270263672
1772810439821762600,3.601762451171875,15.138141632080078,13.851577758789062,4.1499810218811035
1772810439831462700,3.611462646484375,14.75466537475586,14.824281692504883,3.1300597190856934
1772810439841162500,3.62116259765625,15.503939628601074,15.327455520629883,2.946488380432129
1772810439850862300,3.6308623046875,16.577007293701172,13.417743682861328,3.6975133419036865
1772810439860562400,3.6405625,17.850589752197266,11.321354866027832,3.9645466804504395
1772810439870262300,3.65026220703125,19.46270179748535,10.761675834655762,3.188326835632324
1772810439879962000,3.659962158203125,19.97567367553711,10.417200088500977,2.2427923679351807
1772810439889662000,3.669661865234375,18.51244354248047,10.205324172973633,1.399856686592102
1772810439899362000,3.679362060546875,16.45200538635254,10.160067558288574,0.49893665313720703
1772810439909062000,3.689061767578125,14.334785461425781,10.107992172241211,-0.1966780424118042
1772810439918761700,3.69876171875,12.317447662353516,9.617323875427246,-0.18806862831115723
1772810439928461800,3.7084619140625,10.011151313781738,8.438289642333984,0.31269562244415283
1772810439938161700,3.71816162109375,7.447079181671143,6.764003276824951,0.9118783473968506
1772810439947861500,3.727861572265625,4.697766304016113,4.912912368774414,1.3843332529067993
1772810439957561600,3.7375615234375,1.9452624320983887,3.385194778442383,1.5929234027862549
1772810439967261400,3.747261474609375,-0.3016166687011719,1.8673830032348633,1.5997977256774902
1772810439976961300,3.756961181640625,-1.8562464714050293,0.3384275436401367,1.5188859701156616
1772810439986661000,3.7666611328125,-2.829340934753418,-0.9134621620178223,1.5232130289077759
1772810439996361000,3.77636083984375,-3.57468318939209,-1.8123784065246582,1.48891282081604
1772810440006061000,3.78606103515625,-4.276439666748047,-2.6619863510131836,1.3881330490112305
1772810440015761000,3.795760986328125,-4.944360733032227,-3.4426794052124023,1.2079203128814697
1772810440025461000,3.8054609375,-5.69981575012207,-4.097542762756348,1.0688914060592651
1772810440035160800,3.815160888671875,-6.569432735443115,-4.720467567443848,0.9608392715454102
1772810440044860700,3.824860595703125,-7.4635090827941895,-5.3121538162231445,0.8216878175735474
1772810440054560500,3.834560546875,-8.329575538635254,-5.890058994293213,0.6735706925392151
1772810440064260600,3.844260498046875,-9.082414627075195,-6.4460320472717285,0.48057615756988525
1772810440073960400,3.85396044921875,-9.606123924255371,-7.005069255828857,0.3354678153991699
1772810440083660300,3.863660400390625,-9.875508308410645,-7.498481273651123,0.22301626205444336
1772810440093360000,3.873360107421875,-10.1422119140625,-7.926888942718506,0.1134042739868164
1772810440103060200,3.883060302734375,-10.346899032592773,-8.320450782775879,-0.00868198275566101
1772810440112760000,3.892760009765625,-10.578134536743164,-8.584203720092773,-0.12998971343040466
1772810440122460200,3.902460205078125,-10.844466209411621,-8.701898574829102,-0.26557469367980957
1772810440132160000,3.912159912109375,-11.025673866271973,-8.813604354858398,-0.4585200846195221
1772810440141859800,3.92185986328125,-11.238821983337402,-8.851122856140137,-0.6630022525787354
1772810440151559700,3.9315595703125,-11.454087257385254,-8.721454620361328,-1.0041111707687378
1772810440161259500,3.941259521484375,-11.527164459228516,-8.672246932983398,-1.2077044248580933
1772810440170959600,3.950959716796875,-11.453843116760254,-8.733448028564453,-1.2791125774383545
1772810440180659500,3.960659423828125,-11.218006134033203,-8.776180267333984,-1.3230297565460205
1772810440190359300,3.970359375,-10.867599487304688,-8.810661315917969,-1.3847289085388184
1772810440200059400,3.980059326171875,-10.430747985839844,-8.84395980834961,-1.4025828838348389
1772810440209759200,3.98975927734375,-9.985662460327148,-8.911524772644043,-1.411522388458252
1772810440219459000,3.999458984375,-9.598677635192871,-8.96144962310791,-1.4280729293823242
1772810440229159200,4.0091591796875,-9.237298965454102,-8.937973022460938,-1.4775102138519287
1772810440238859000,4.01885888671875,-9.048069953918457,-8.737739562988281,-1.6757357120513916
1772810440248558800,4.028558837890625,-8.99002742767334,-8.53657341003418,-1.918424367904663
1772810440258258700,4.0382587890625,-8.962166786193848,-8.276287078857422,-2.1421751976013184
1772810440267958800,4.047958740234375,-8.87993049621582,-8.006999015808105,-2.126893997192383
1772810440277658600,4.05765869140625,-8.53763198852539,-7.71195650100708,-1.8864872455596924
1772810440287358500,4.0673583984375,-7.617317199707031,-7.189524173736572,-1.469472050666809
1772810440297058600,4.07705859375,-6.420700550079346,-6.153651714324951,-1.291612148284912
1772810440306758400,4.08675830078125,-5.263356685638428,-4.600649833679199,-0.9930816888809204
1772810440316458200,4.096458251953125,-4.095282554626465,-2.5281524658203125,-0.496626079082489
1772810440326158300,4.106158447265625,-1.362086296081543,0.4402470588684082,-0.22743403911590576
1772810440335858200,4.115858154296875,3.1865334510803223,4.1679301261901855,0.3149658441543579
1772810440345558000,4.12555810546875,9.729491233825684,6.497086048126221,2.227897882461548
1772810440355257900,4.1352578125,19.433624267578125,5.130309104919434,5.241724014282227
1772810440364958000,4.1449580078125,30.75421905517578,2.643237829208374,7.6169891357421875
1772810440374657800,4.15465771484375,39.02162170410156,1.5546822547912598,9.37824821472168
1772810440384357600,4.164357666015625,43.077613830566406,2.111320972442627,8.702960968017578
1772810440394057700,4.1740576171875,43.31673812866211,4.750452995300293,5.613953113555908
1772810440403757600,4.183757568359375,40.590492248535156,7.051337242126465,2.474315881729126
1772810440413457400,4.19345751953125,36.51165008544922,8.613621711730957,0.7396547794342041
1772810440423157500,4.203157470703125,32.250709533691406,9.895721435546875,0.03717392683029175
1772810440432857300,4.212857421875,28.0452880859375,10.942440032958984,-0.07908284664154053
1772810440442557200,4.22255712890625,23.613529205322266,11.477474212646484,-0.16390973329544067
1772810440452257000,4.232257080078125,19.404163360595703,11.33148193359375,-0.13635146617889404
1772810440461957000,4.24195703125,15.48669719696045,10.731470108032227,0.4287228584289551
1772810440471657000,4.251656982421875,11.40593433380127,9.911341667175293,1.0863715410232544
1772810440481356800,4.261356689453125,7.569502830505371,9.123600959777832,1.422569751739502
1772810440491057000,4.271056884765625,4.5370378494262695,8.247716903686523,1.4365146160125732
1772810440500756700,4.2807568359375,2.425506591796875,6.842909812927246,1.694657564163208
1772810440510456800,4.290456787109375,0.6461267471313477,5.227208137512207,2.0985138416290283
1772810440520156700,4.30015673828125,-0.9979276657104492,3.443450689315796,2.2866950035095215
1772810440529856500,4.3098564453125,-2.6116676330566406,2.39371657371521,1.9845821857452393
1772810440539556400,4.319556396484375,-3.980632781982422,1.9530003070831299,1.2180297374725342
1772810440549256200,4.329256103515625,-5.141434192657471,1.404597520828247,0.2938830852508545
1772810440558956300,4.338956298828125,-6.067028522491455,0.8497612476348877,-0.5285675525665283
1772810440568656100,4.34865625,-6.688222408294678,0.4456336498260498,-1.177691102027893
1772810440578356000,4.35835595703125,-7.216551780700684,0.06989574432373047,-1.7479653358459473
1772810440588056000,4.36805615234375,-7.521688938140869,-0.33664071559906006,-2.1508498191833496
1772810440597756000,4.377755859375,-7.9220147132873535,-0.796750545501709,-2.1742234230041504
1772810440607456000,4.3874560546875,-8.440874099731445,-1.186040997505188,-2.1334831714630127
1772810440617155800,4.39715576171875,-8.957667350769043,-1.477856159210205,-2.25948429107666
1772810440626855700,4.406855712890625,-9.39469051361084,-1.8027079105377197,-2.368992805480957
1772810440636555500,4.416555419921875,-9.763700485229492,-2.224524736404419,-2.4272031784057617
1772810440646255600,4.426255615234375,-10.151826858520508,-2.5489017963409424,-2.4676849842071533
1772810440655955500,4.43595556640625,-10.595979690551758,-2.845541477203369,-2.5117907524108887
1772810440665655300,4.4456552734375,-10.801127433776855,-3.0111513137817383,-2.559425115585327
1772810440675355100,4.455355224609375,-11.08383560180664,-3.1941685676574707,-2.5046629905700684
1772810440685055200,4.46505517578125,-11.323020935058594,-3.397848129272461,-2.3974406719207764
1772810440694755000,4.474755126953125,-11.534223556518555,-3.544452428817749,-2.265578031539917
1772810440704455200,4.484455078125,-11.689863204956055,-3.621288299560547,-2.3898274898529053
1772810440714155000,4.494155029296875,-11.508767127990723,-3.489553213119507,-2.4000236988067627
1772810440723854800,4.503854736328125,-11.037355422973633,-3.4404027462005615,-2.070943832397461
1772810440733555000,4.513554931640625,-10.456825256347656,-3.447028160095215,-1.7226706743240356
1772810440743254800,4.5232548828125,-9.743168830871582,-3.3573074340820312,-1.534936785697937
1772810440752954600,4.53295458984375,-8.895977020263672,-3.3244290351867676,-1.4972097873687744
1772810440762654500,4.542654541015625,-7.984372138977051,-3.415909767150879,-1.5037739276885986
1772810440772354600,4.5523544921875,-7.1163811683654785,-3.626842498779297,-1.4618079662322998
1772810440782054400,4.562054443359375,-6.465861797332764,-3.9963865280151367,-1.2841100692749023
1772810440791754200,4.571754150390625,-6.011369705200195,-4.333581447601318,-1.1480646133422852
1772810440801454300,4.581454345703125,-5.59306526184082,-4.596348285675049,-1.0314693450927734
1772810440811154200,4.591154296875,-5.343705177307129,-4.8601484298706055,-0.925389289855957
1772810440820854000,4.60085400390625,-5.346446990966797,-5.062563896179199,-0.8567764759063721
1772810440830554000,4.61055419921875,-5.348334312438965,-5.201601505279541,-0.946414589881897
1772810440840254000,4.62025390625,-5.3902435302734375,-5.232555389404297,-1.1057935953140259
1772810440849953800,4.629953857421875,-5.586261749267578,-5.306876182556152,-1.2716623544692993
1772810440859654000,4.63965380859375,-5.818177700042725,-5.36685848236084,-1.5053627490997314
1772810440869353700,4.649353759765625,-5.954566478729248,-5.27328634262085,-1.807685136795044
1772810440879053600,4.659053466796875,-6.021211624145508,-5.182929992675781,-2.094989776611328
1772810440888753700,4.668753662109375,-6.054399013519287,-5.193477630615234,-2.1531152725219727
1772810440898453500,4.67845361328125,-6.049302101135254,-5.258440971374512,-1.889858603477478
1772810440908153300,4.6881533203125,-5.827628135681152,-5.13021183013916,-1.3625158071517944
1772810440917853200,4.697853271484375,-5.509956359863281,-4.500948905944824,-1.1960262060165405
1772810440927553300,4.70755322265625,-4.874000549316406,-3.59676456451416,-1.0453702211380005
1772810440937253000,4.717253173828125,-3.724977970123291,-2.9767849445343018,-0.4870610237121582
1772810440946953000,4.726952880859375,-2.722137451171875,-1.9513766765594482,-0.05025672912597656
1772810440956653000,4.736653076171875,-1.7097339630126953,-0.24345970153808594,0.10587882995605469
1772810440966353000,4.746352783203125,0.4446377754211426,0.5784077644348145,0.7165654897689819
1772810440976052700,4.756052734375,3.346437931060791,2.0668320655822754,0.825371265411377
1772810440985752800,4.7657529296875,6.642846584320068,5.900581359863281,-0.12391877174377441
1772810440995452700,4.77545263671875,9.400812149047852,5.050256252288818,1.5747363567352295
1772810441005152800,4.78515283203125,10.88632869720459,1.2775516510009766,4.39438533782959
1772810441014852600,4.7948525390625,12.899378776550293,1.011035442352295,5.437551975250244
1772810441024552400,4.804552490234375,15.642333030700684,1.455256700515747,6.056373596191406
1772810441034252300,4.814252197265625,17.869646072387695,1.319345235824585,6.351001739501953
1772810441043952400,4.823952392578125,19.534481048583984,1.0394866466522217,6.300958633422852
1772810441053652200,4.83365234375,19.960956573486328,0.8005945682525635,6.149232864379883
1772810441063352000,4.84335205078125,19.15561294555664,0.9699640274047852,5.500236511230469
1772810441073052000,4.853052001953125,17.53168296813965,1.43705153465271,4.490429401397705
1772810441082752000,4.862751953125,15.658918380737305,1.9600310325622559,3.360729694366455
1772810441092451800,4.872451904296875,13.69666576385498,2.193094253540039,2.3561081886291504
1772810441102152000,4.88215185546875,11.869026184082031,2.355048656463623,1.4585657119750977
1772810441111851800,4.891851806640625,9.868729591369629,2.37058162689209,0.766960859298706
1772810441121551600,4.901551513671875,7.694308280944824,2.103994369506836,0.37737464904785156
1772810441131251700,4.911251708984375,5.389427185058594,1.8458421230316162,0.16191625595092773
1772810441140951600,4.92095166015625,3.1288928985595703,1.8658558130264282,-0.08794093132019043
1772810441150651400,4.9306513671875,1.0998649597167969,2.1797850131988525,-0.3633909225463867
1772810441160351500,4.9403515625,-0.6071319580078125,2.65674090385437,-0.6521544456481934
1772810441170051300,4.95005126953125,-1.9669866561889648,2.908188819885254,-0.7044626474380493
1772810441179751200,4.959751220703125,-3.04573392868042,2.762620687484741,-0.4691277742385864
1772810441189451000,4.969450927734375,-3.914872169494629,2.394547700881958,0.09499430656433105
1772810441199151000,4.979151123046875,-4.5285491943359375,1.8943332433700562,0.9191348552703857
1772810441208851000,4.988850830078125,-4.827881813049316,1.5700409412384033,1.3069489002227783
1772810441218550800,4.99855078125,-4.862809658050537,1.3629871606826782,1.198563575744629
1772810441228251000,5.0082509765625,-4.825238227844238,1.2066643238067627,0.6188952922821045
1772810441237950700,5.01795068359375,-5.027627944946289,1.2038201093673706,-0.2649095058441162
1772810441247650600,5.027650634765625,-5.5653276443481445,1.0289316177368164,-1.188896656036377
1772810441257350700,5.0373505859375,-6.025479793548584,0.6680386066436768,-1.9697847366333008
1772810441267050500,5.047050537109375,-6.217451095581055,0.3509538173675537,-2.684065580368042
1772810441276750300,5.056750244140625,-6.279576778411865,-0.03343522548675537,-2.9514694213867188
1772810441286450400,5.066450439453125,-6.177243232727051,-0.39882564544677734,-2.857226610183716
1772810441296150300,5.076150390625,-5.861328125,-0.5944620370864868,-2.673417329788208
1772810441305850400,5.085850341796875,-5.415081024169922,-0.5603344440460205,-2.67610239982605
1772810441315550200,5.09555029296875,-5.1696367263793945,-0.47785234451293945,-2.7265536785125732
1772810441325250000,5.10525,-5.188076019287109,-0.3719600439071655,-2.8013384342193604
1772810441334950100,5.1149501953125,-5.381276607513428,-0.20229220390319824,-2.8943445682525635
1772810441344650000,5.12464990234375,-5.650315284729004,-0.012230992317199707,-3.011197090148926
1772810441354349800,5.134349853515625,-5.913216590881348,0.010491609573364258,-2.944134473800659
1772810441364049700,5.144049560546875,-6.073620796203613,0.03507804870605469,-2.799229621887207
1772810441373749800,5.153749755859375,-5.964271068572998,0.008953571319580078,-2.5590412616729736
1772810441383449600,5.16344970703125,-5.702878952026367,-0.10634899139404297,-2.1734094619750977
1772810441393149400,5.1731494140625,-5.181458950042725,-0.13205218315124512,-1.901109218597412
1772810441402849500,5.182849609375,-4.454616069793701,-0.14941644668579102,-1.6179702281951904
1772810441412549400,5.19254931640625,-3.682765007019043,-0.23151373863220215,-1.3329710960388184
1772810441422249200,5.202249267578125,-2.8178625106811523,-0.19534730911254883,-1.0816738605499268
1772810441431949300,5.21194921875,-1.7930779457092285,0.075408935546875,-0.8193726539611816
1772810441441649200,5.221649169921875,-0.4205160140991211,0.48684024810791016,-0.4255032539367676
1772810441451349000,5.231348876953125,1.0494194030761719,0.791834831237793,0.08825373649597168
1772810441461049000,5.241049072265625,2.8616180419921875,1.2203154563903809,0.8132925033569336
1772810441470749000,5.2507490234375,4.6526336669921875,1.9315574169158936,1.3233091831207275
1772810441480449000,5.260448974609375,6.168170928955078,1.9979770183563232,1.9220077991485596
1772810441490148900,5.27014892578125,7.8651533126831055,2.057908773422241,2.6301705837249756
1772810441499848700,5.2798486328125,9.440266609191895,2.681013822555542,2.975857973098755
1772810441509548800,5.289548828125,10.76294994354248,2.694767475128174,3.5629148483276367
1772810441519248600,5.29924853515625,11.676239013671875,2.0227394104003906,4.564680099487305
1772810441528948500,5.308948486328125,12.927451133728027,2.049877643585205,5.224785804748535
1772810441538648300,5.3186484375,14.772533416748047,2.820002794265747,5.673631191253662
1772810441548348400,5.328348388671875,16.629032135009766,3.6397101879119873,5.9150848388671875
1772810441558048300,5.33804833984375,17.69839096069336,4.500104904174805,6.386322021484375
1772810441567748000,5.347748046875,18.01383399963379,5.479976654052734,6.933274745941162
1772810441577448200,5.3574482421875,18.237464904785156,5.9727373123168945,7.4204559326171875
1772810441587148000,5.36714794921875,17.992855072021484,5.806310653686523,8.243844985961914
1772810441596847900,5.376847900390625,17.347515106201172,5.281929016113281,9.227974891662598
1772810441606548000,5.3865478515625,16.221397399902344,4.879123687744141,9.632010459899902
1772810441616247800,5.396247802734375,14.337244987487793,4.734416961669922,9.21231746673584
1772810441625947600,5.40594775390625,11.986634254455566,4.572233200073242,7.954882621765137
1772810441635647700,5.415647705078125,9.405679702758789,4.390389442443848,6.166695594787598
1772810441645347600,5.42534765625,6.928851127624512,4.332874298095703,4.025125980377197
1772810441655047400,5.43504736328125,4.585269927978516,3.9046201705932617,2.0656087398529053
1772810441664747500,5.44474755859375,2.1347122192382812,3.1686768531799316,0.5187854766845703
1772810441674447400,5.454447265625,-0.19079303741455078,2.1525840759277344,-0.5545353889465332
1772810441684147500,5.4641474609375,-2.3744473457336426,0.8712525367736816,-0.9959143400192261
1772810441693847300,5.473847412109375,-4.234170913696289,-0.5428485870361328,-0.5925421714782715
1772810441703547100,5.483547119140625,-5.883316993713379,-1.8170390129089355,-0.002471446990966797
1772810441713247200,5.493247314453125,-7.159318923950195,-2.8680434226989746,0.15346479415893555
1772810441722947000,5.502947021484375,-8.051656723022461,-3.812364339828491,0.06463408470153809
1772810441732647000,5.51264697265625,-8.861787796020508,-4.528755187988281,-0.2079155445098877
1772810441742347000,5.522346923828125,-9.92673110961914,-5.006338119506836,-0.6258469820022583
1772810441752046800,5.532046875,-10.948770523071289,-5.373013496398926,-1.1058248281478882
1772810441761746700,5.54174658203125,-11.687026977539062,-5.62941312789917,-1.629307508468628
1772810441771446800,5.55144677734375,-12.08205509185791,-5.758206844329834,-1.9825783967971802
1772810441781146600,5.561146728515625,-12.159509658813477,-5.719801902770996,-2.1310791969299316
1772810441790846500,5.570846435546875,-12.148387908935547,-5.66741418838501,-2.116584539413452
1772810441800546300,5.58054638671875,-11.978816986083984,-5.637361526489258,-2.1006276607513428
1772810441810246400,5.590246337890625,-11.843071937561035,-5.664483547210693,-1.94632089138031
1772810441819946200,5.5999462890625,-11.698341369628906,-5.661759376525879,-1.8437050580978394
1772810441829646000,5.60964599609375,-11.566288948059082,-5.614584445953369,-1.8100967407226562
1772810441839346200,5.61934619140625,-11.396265029907227,-5.555668830871582,-1.7273774147033691
1772810441849046000,5.6290458984375,-11.132083892822266,-5.536577224731445,-1.5740034580230713
1772810441858745900,5.638745849609375,-10.823446273803711,-5.6036200523376465,-1.1976253986358643
1772810441868446000,5.648446044921875,-10.616336822509766,-5.619913101196289,-0.8686354160308838
1772810441878145800,5.658145751953125,-10.445511817932129,-5.572202205657959,-0.5454818606376648
1772810441887846000,5.667845947265625,-10.14318561553955,-5.458643913269043,-0.37653106451034546
1772810441897545700,5.677545654296875,-9.81229019165039,-5.465275287628174,-0.2239992618560791
1772810441907245600,5.68724560546875,-9.52112865447998,-5.438354015350342,-0.0832059383392334
1772810441916945700,5.696945556640625,-9.207059860229492,-5.263825416564941,0.09281682968139648
1772810441926645500,5.7066455078125,-8.93735122680664,-5.0631632804870605,0.11449897289276123
1772810441936345300,5.716345458984375,-8.736617088317871,-4.904041290283203,0.07486855983734131
1772810441946045400,5.72604541015625,-8.487412452697754,-4.646219730377197,0.10025238990783691
1772810441955745300,5.735745361328125,-8.03116226196289,-4.373537063598633,0.26334309577941895
1772810441965445400,5.7454453125,-7.800807952880859,-3.9869649410247803,0.4808502793312073
1772810441975145200,5.755145263671875,-7.601264476776123,-3.673293113708496,0.8830164670944214
1772810441984845000,5.764844970703125,-7.400658130645752,-3.532888174057007,1.3004393577575684
1772810441994545200,5.774545166015625,-7.1315083503723145,-3.465428113937378,1.6937673091888428
1772810442004245000,5.784244873046875,-6.885529518127441,-3.610074520111084,2.0350258350372314
1772810442013944800,5.79394482421875,-6.516143798828125,-3.9005069732666016,2.197026014328003
1772810442023645000,5.80364501953125,-5.922889232635498,-3.9850497245788574,2.0528018474578857
1772810442033344800,5.8133447265625,-5.395052909851074,-4.034083843231201,1.754333257675171
1772810442043044600,5.823044677734375,-4.474321365356445,-3.873364210128784,1.5100462436676025
1772810442052744700,5.83274462890625,-3.4037890434265137,-3.3963582515716553,0.9928773045539856
1772810442062444500,5.842444580078125,-2.1194205284118652,-2.5235657691955566,0.1410706639289856
1772810442072144400,5.852144287109375,-0.7496914863586426,-1.22845458984375,-0.9424012899398804
1772810442081844500,5.861844482421875,0.5124011039733887,1.4457993507385254,-2.330683469772339
1772810442091544300,5.87154443359375,2.5995283126831055,2.9103636741638184,-2.1430163383483887
1772810442101244200,5.881244140625,5.399051666259766,4.277967929840088,-2.016578435897827
1772810442110944300,5.8909443359375,8.43112564086914,5.95651912689209,-1.3067830801010132
1772810442120644000,5.90064404296875,12.519824981689453,5.245564937591553,0.9904448986053467
1772810442130344000,5.910343994140625,16.345441818237305,5.6937103271484375,3.68123722076416
1772810442140043800,5.920043701171875,19.495994567871094,4.288068771362305,7.614331245422363
1772810442149743900,5.929743896484375,22.158218383789062,2.1627697944641113,10.55685806274414
1772810442159443700,5.939443603515625,25.226776123046875,1.310129165649414,10.04076862335205
1772810442169143800,5.949143798828125,28.422813415527344,2.831332206726074,5.946761608123779
1772810442178843600,5.95884375,29.15494155883789,3.824899196624756,1.6489472389221191
1772810442188543500,5.96854345703125,27.403736114501953,4.163875579833984,-1.250828504562378
1772810442198243600,5.97824365234375,24.377559661865234,5.430737495422363,-3.572917938232422
1772810442207943400,5.987943359375,20.040264129638672,6.142578125,-4.669268608093262
1772810442217643300,5.997643310546875,15.102444648742676,5.896762371063232,-4.43780517578125
1772810442227343400,6.00734326171875,10.75216007232666,5.676473617553711,-3.8088717460632324
1772810442237043200,6.017043212890625,6.903227806091309,5.236403942108154,-3.0941781997680664
1772810442246743000,6.026742919921875,3.890188217163086,4.724097728729248,-2.407567024230957
1772810442256443100,6.036443115234375,1.6189289093017578,4.490153789520264,-1.895580768585205
1772810442266143000,6.04614306640625,-0.17816638946533203,4.286860942840576,-1.2297958135604858
1772810442275843000,6.055843017578125,-1.921065330505371,3.8578438758850098,-0.4395899772644043
1772810442285543000,6.06554296875,-3.973446846008301,3.4332900047302246,0.0819387435913086
1772810442295242800,6.07524267578125,-6.0119171142578125,3.011385917663574,0.09301209449768066
1772810442304942800,6.08494287109375,-7.628810882568359,2.5267558097839355,-0.44130897521972656
1772810442314642700,6.094642578125,-8.723690032958984,1.6585192680358887,-1.0706067085266113
1772810442324342500,6.104342529296875,-9.051358222961426,0.5411903858184814,-1.752652645111084
1772810442334042600,6.114042724609375,-8.679908752441406,-0.5645220279693604,-2.600726842880249
1772810442343742500,6.123742431640625,-7.805541038513184,-1.320101022720337,-3.4208240509033203
1772810442353442600,6.133442626953125,-7.036660194396973,-1.870316982269287,-3.9021408557891846
1772810442363142400,6.143142333984375,-6.684898853302002,-2.2970104217529297,-4.001640319824219
1772810442372842200,6.15284228515625,-6.625438690185547,-2.4981603622436523,-3.720156192779541
1772810442382542300,6.162542236328125,-6.888589859008789,-2.5797765254974365,-3.337824821472168
1772810442392242200,6.1722421875,-7.35853385925293,-2.6651735305786133,-2.9005298614501953
1772810442401942000,6.18194189453125,-8.101859092712402,-2.8131582736968994,-2.3761119842529297
1772810442411642000,6.19164208984375,-8.840779304504395,-2.9342055320739746,-1.9854607582092285
1772810442421342000,6.201342041015625,-9.453084945678711,-3.030045509338379,-1.9047222137451172
1772810442431041800,6.211041748046875,-10.234427452087402,-3.0357303619384766,-2.0315089225769043
1772810442440742000,6.220741943359375,-11.193974494934082,-3.0488641262054443,-2.223628520965576
1772810442450441700,6.230441650390625,-11.858532905578613,-3.1026062965393066,-2.451148509979248
1772810442460141800,6.240141845703125,-12.17732048034668,-3.1891562938690186,-2.726928234100342
1772810442469841700,6.249841552734375,-12.290485382080078,-3.1522648334503174,-2.9066591262817383
1772810442479541500,6.25954150390625,-12.472433090209961,-3.116170644760132,-2.6739015579223633
1772810442489241600,6.26924169921875,-12.584945678710938,-3.260298252105713,-2.45474910736084
1772810442498941400,6.27894140625,-12.425722122192383,-3.398707628250122,-2.3670947551727295
1772810442508641300,6.288641357421875,-12.195844650268555,-3.50056791305542,-2.332383394241333
1772810442518341400,6.29834130859375,-11.744312286376953,-3.7029683589935303,-2.2180087566375732
1772810442528041200,6.308041259765625,-11.057941436767578,-3.8588101863861084,-2.1593096256256104
1772810442537741000,6.317740966796875,-10.313413619995117,-3.9656693935394287,-1.9952166080474854
1772810442547441200,6.327441162109375,-9.542197227478027,-4.172905921936035,-1.5785160064697266
1772810442557141000,6.33714111328125,-8.613309860229492,-4.2928056716918945,-1.2770230770111084
1772810442566840800,6.3468408203125,-7.646041393280029,-4.336204528808594,-1.1773319244384766
1772810442576541000,6.356541015625,-6.56602668762207,-4.322044372558594,-1.1796433925628662
1772810442586240800,6.36624072265625,-5.346485614776611,-4.193237781524658,-1.2700401544570923
1772810442595940600,6.375940673828125,-3.6161160469055176,-3.7450361251831055,-1.4554530382156372
1772810442605640700,6.385640625,-1.3034839630126953,-2.6431760787963867,-1.8317323923110962
1772810442615340500,6.395340576171875,0.8502111434936523,-0.5871162414550781,-2.2816028594970703
1772810442625040400,6.405040283203125,3.4986953735351562,1.5705604553222656,-1.9409586191177368
1772810442634740500,6.414740478515625,8.007981300354004,3.0048787593841553,0.6189289093017578
1772810442644440300,6.4244404296875,13.209939956665039,4.449065208435059,4.883384704589844
1772810442654140400,6.434140380859375,18.08228302001953,5.222818374633789,9.950927734375
1772810442663840300,6.44384033203125,23.380657196044922,2.0857057571411133,16.650548934936523
1772810442673540000,6.4535400390625,28.793760299682617,1.1844780445098877,19.5058650970459
1772810442683240200,6.463240234375,33.432491302490234,2.130425214767456,18.44338607788086
1772810442692940000,6.47293994140625,37.21101379394531,1.8977348804473877,16.37348175048828
1772810442702639900,6.482639892578125,39.42091369628906,2.4152755737304688,12.727105140686035
1772810442712340000,6.492340087890625,40.009971618652344,3.12807559967041,8.948812484741211
1772810442722039800,6.502039794921875,38.43560791015625,3.78231143951416,5.915410995483398
1772810442731740000,6.511739990234375,34.09075927734375,4.223305702209473,4.015659332275391
1772810442741439700,6.521439697265625,28.749191284179688,4.781336784362793,3.02698016166687
1772810442751139600,6.5311396484375,22.678852081298828,5.71463680267334,2.8433969020843506
1772810442760839700,6.540839599609375,16.333993911743164,6.425314903259277,3.537404775619507
1772810442770539500,6.55053955078125,10.197198867797852,6.716979503631592,4.2996039390563965
1772810442780239400,6.5602392578125,4.412640571594238,6.613628387451172,4.568485260009766
1772810442789939500,6.569939453125,-0.5364627838134766,6.26023006439209,3.685673952102661
1772810442799639300,6.579639404296875,-4.6002373695373535,6.059757232666016,1.438797950744629
1772810442809339100,6.589339111328125,-7.62089729309082,5.7084736824035645,-1.206148386001587
1772810442819039200,6.599039306640625,-9.876832962036133,4.882652759552002,-3.2108306884765625
1772810442828739000,6.608739013671875,-11.59210205078125,3.565042018890381,-3.959735631942749
1772810442838439200,6.618439208984375,-12.656280517578125,2.1599860191345215,-4.213677406311035
1772810442848139000,6.628138916015625,-12.906600952148438,1.0342216491699219,-4.190398693084717
1772810442857838800,6.6378388671875,-12.536836624145508,-0.020782470703125,-4.11179256439209
1772810442867539000,6.6475390625,-11.43884563446045,-1.0800771713256836,-4.063563346862793
1772810442877238800,6.65723876953125,-10.054084777832031,-2.188108205795288,-3.80753755569458
1772810442886938600,6.666938720703125,-8.984378814697266,-3.207914113998413,-3.427861213684082
1772810442896638700,6.676638671875,-8.37834358215332,-3.891158103942871,-3.1238677501678467
1772810442906338600,6.686338623046875,-8.359943389892578,-4.252719402313232,-3.0871620178222656
1772810442916038700,6.69603857421875,-8.825139999389648,-4.362472057342529,-3.142589569091797
1772810442925738500,6.705738525390625,-9.44442081451416,-4.4251203536987305,-3.18595552444458
1772810442935438300,6.715438232421875,-10.18346118927002,-4.44316291809082,-3.1812238693237305
1772810442945138400,6.725138427734375,-10.840824127197266,-4.359255313873291,-3.2233481407165527
1772810442954838300,6.73483837890625,-11.287205696105957,-4.487179756164551,-3.2315850257873535
1772810442964538000,6.7445380859375,-11.478933334350586,-4.627236366271973,-3.031550407409668
1772810442974238200,6.75423828125,-11.563310623168945,-4.776427745819092,-2.636600971221924
1772810442983938000,6.76393798828125,-11.453875541687012,-4.81394624710083,-2.3467319011688232
1772810442993638000,6.773637939453125,-11.19088077545166,-4.8418989181518555,-2.049643039703369
1772810443003338000,6.783337890625,-10.824796676635742,-5.080632209777832,-1.8797593116760254
1772810443013037800,6.793037841796875,-10.292665481567383,-5.2281599044799805,-1.8830355405807495
1772810443022738000,6.802738037109375,-9.693366050720215,-5.21743106842041,-2.022186756134033
1772810443032437800,6.812437744140625,-9.079842567443848,-5.312840461730957,-2.0025391578674316
1772810443042137600,6.8221376953125,-8.493131637573242,-5.4401535987854,-1.9248607158660889
1772810443051837700,6.831837646484375,-7.944699764251709,-5.471911430358887,-1.9172050952911377
1772810443061537500,6.84153759765625,-7.559247016906738,-5.514702796936035,-1.8626576662063599
1772810443071237600,6.851237548828125,-7.226593971252441,-5.6166768074035645,-1.7136448621749878
1772810443080937500,6.8609375,-6.854903221130371,-5.589745998382568,-1.5034421682357788
1772810443090637300,6.87063720703125,-6.4192352294921875,-5.527691841125488,-1.2611900568008423
1772810443100337400,6.88033740234375,-6.0586347579956055,-5.445093154907227,-0.9685279726982117
1772810443110037200,6.890037353515625,-5.900784492492676,-5.327183246612549,-0.7090818285942078
1772810443119737000,6.899737060546875,-5.756015300750732,-5.13809871673584,-0.4557746648788452
1772810443129437200,6.909437255859375,-5.679678916931152,-4.857879638671875,-0.1308983564376831
1772810443139137000,6.919136962890625,-5.67476749420166,-4.42164945602417,0.03575694561004639
1772810443148837000,6.928837158203125,-5.641807556152344,-4.025125503540039,0.15835940837860107
1772810443158537000,6.938536865234375,-5.345408916473389,-3.843189001083374,0.4598947763442993
1772810443168236800,6.94823681640625,-4.970602989196777,-3.5732226371765137,0.636315107345581
1772810443177937000,6.95793701171875,-4.558712005615234,-3.1914443969726562,0.7683511972427368
1772810443187636700,6.96763671875,-4.333891868591309,-3.060269832611084,1.013553500175476
1772810443197336600,6.977336669921875,-4.260589599609375,-2.8214969635009766,1.6668391227722168
1772810443207036700,6.98703662109375,-3.5565218925476074,-2.049161434173584,2.3795385360717773
1772810443216736500,6.996736572265625,-2.136575222015381,-1.1135592460632324,2.9180164337158203
1772810443226436600,7.0064365234375,-0.21358442306518555,1.1887702941894531,2.9768974781036377
1772810443236136400,7.016136474609375,1.5251765251159668,5.694966793060303,1.6466724872589111
1772810443245836300,7.025836181640625,2.7914586067199707,11.099552154541016,-0.5478019714355469
1772810443255536400,7.035536376953125,5.276867389678955,15.441790580749512,-2.0621094703674316
1772810443265236200,7.045236328125,10.98957633972168,17.190202713012695,-1.5113639831542969
1772810443274936000,7.05493603515625,18.847312927246094,17.0225830078125,0.7162234783172607
1772810443284636200,7.06463623046875,27.850236892700195,16.18970489501953,4.1333160400390625
1772810443294336000,7.0743359375,36.2190055847168,12.749885559082031,8.854101181030273
1772810443304036000,7.0840361328125,38.55387496948242,8.28963851928711,13.228304862976074
1772810443313736000,7.09373583984375,36.396671295166016,6.972644805908203,14.138432502746582
1772810443323435800,7.103435791015625,31.282278060913086,8.573568344116211,11.515890121459961
1772810443333136000,7.113135986328125,23.789180755615234,10.005102157592773,7.780494689941406
1772810443342835700,7.122835693359375,16.259258270263672,10.684285163879395,4.6197285652160645
1772810443352535600,7.13253564453125,9.72088623046875,10.732498168945312,2.1192049980163574
1772810443362235600,7.142235595703125,4.548376083374023,9.690828323364258,0.20033681392669678
1772810443371935500,7.151935546875,1.1070899963378906,7.814426422119141,-1.442102313041687
1772810443381635600,7.161635498046875,-1.0194849967956543,5.728633880615234,-2.6198973655700684
1772810443391335400,7.17133544921875,-2.040947437286377,3.470743179321289,-3.5863170623779297
1772810443401035300,7.18103515625,-2.923597812652588,1.8828043937683105,-4.37768030166626
1772810443410735400,7.1907353515625,-3.864307403564453,1.1314868927001953,-4.63425350189209
1772810443420435200,7.200435302734375,-3.996821403503418,0.2553215026855469,-3.9436445236206055
1772810443430135000,7.210135009765625,-3.1082539558410645,-0.7346134185791016,-2.702881336212158
1772810443439835100,7.219835205078125,-2.408233642578125,-1.9408636093139648,-1.4677820205688477
1772810443449535000,7.229534912109375,-2.4914069175720215,-2.9884772300720215,-0.47548148036003113
1772810443459234800,7.23923486328125,-3.5980496406555176,-4.005354404449463,0.3371938467025757
1772810443468935000,7.248934814453125,-5.385947227478027,-5.080074787139893,0.9540209770202637
1772810443478634800,7.258634765625,-7.148801803588867,-6.131670951843262,1.3279483318328857
1772810443488334800,7.2683349609375,-8.54874324798584,-6.988089084625244,1.3463623523712158
1772810443498034700,7.27803466796875,-9.679706573486328,-7.736748695373535,1.1696562767028809
1772810443507734500,7.287734619140625,-10.388006210327148,-8.458271980285645,0.7811695337295532
1772810443517434600,7.2974345703125,-10.452654838562012,-9.088947296142578,0.35983338952064514
1772810443527134500,7.307134521484375,-10.332115173339844,-9.699682235717773,-0.005016148090362549
1772810443536834300,7.316834228515625,-10.042049407958984,-10.172646522521973,-0.2654338479042053
1772810443546534400,7.326534423828125,-9.725706100463867,-10.532746315002441,-0.40749987959861755
1772810443556234200,7.336234130859375,-9.474498748779297,-10.577308654785156,-0.5023238658905029
1772810443565934300,7.345934326171875,-9.36868667602539,-10.334734916687012,-0.7402942180633545
1772810443575634200,7.35563427734375,-9.395086288452148,-10.395214080810547,-0.9042748212814331
1772810443585334000,7.365333984375,-9.63223648071289,-10.502254486083984,-0.8605272769927979
1772810443595034000,7.3750341796875,-9.889047622680664,-10.286598205566406,-0.6770647764205933
1772810443604734000,7.38473388671875,-9.946969985961914,-10.045392990112305,-0.37399375438690186
1772810443614433800,7.394433837890625,-9.85205364227295,-9.757328033447266,0.06534472107887268
1772810443624134000,7.4041337890625,-9.712606430053711,-9.268095970153809,0.5732554197311401
1772810443633833700,7.413833740234375,-9.311830520629883,-8.782917022705078,1.0172278881072998
1772810443643533800,7.423533935546875,-8.983179092407227,-8.410054206848145,1.4493372440338135
1772810443653233700,7.433233642578125,-8.546808242797852,-7.943917751312256,1.6877690553665161
1772810443662933800,7.442933837890625,-7.870844841003418,-7.382265567779541,1.7702304124832153
1772810443672633600,7.452633544921875,-7.428268909454346,-6.907450199127197,1.7649452686309814
1772810443682333400,7.46233349609375,-6.91325569152832,-6.565196514129639,1.8245737552642822
1772810443692033500,7.472033447265625,-6.190075874328613,-6.0016984939575195,1.8020175695419312
1772810443701733400,7.4817333984375,-5.431637763977051,-5.501262664794922,1.7181756496429443
1772810443711433500,7.49143359375,-4.836880207061768,-5.13504695892334,1.7014394998550415
1772810443721133300,7.50113330078125,-4.025703430175781,-4.562030792236328,1.67336905002594
1772810443730833200,7.510833251953125,-3.3959877490997314,-3.901444673538208,1.6206344366073608
1772810443740533200,7.520533203125,-3.203105926513672,-2.931253433227539,1.5641099214553833
1772810443750233000,7.530233154296875,-3.061044216156006,-2.00924015045166,1.538067102432251
1772810443759933200,7.53993310546875,-2.889371871948242,-1.1686606407165527,1.9091968536376953
1772810443769633000,7.549633056640625,-1.8263535499572754,-0.13414812088012695,2.4503841400146484
1772810443779332900,7.559332763671875,-0.1555767059326172,0.8689131736755371,2.4063057899475098
1772810443789033000,7.569032958984375,1.908243179321289,2.6692519187927246,1.6941468715667725
1772810443798732800,7.57873291015625,4.5872111320495605,4.410599231719971,1.040135383605957
1772810443808432600,7.5884326171875,7.990627288818359,5.829043388366699,0.5436921715736389
1772810443818132700,7.5981328125,12.009669303894043,7.211223602294922,1.1756739616394043
1772810443827832600,7.60783251953125,17.32341766357422,8.928488731384277,2.5269949436187744
1772810443837532400,7.617532470703125,23.603801727294922,11.536306381225586,3.6674556732177734
1772810443847232500,7.627232421875,29.9385929107666,13.499506950378418,5.322587966918945
1772810443856932400,7.636932373046875,36.75865936279297,14.741594314575195,7.073395729064941
1772810443866632400,7.646632568359375,41.50611877441406,15.246993064880371,7.89585018157959
1772810443876332300,7.656332275390625,42.71989440917969,15.07953929901123,7.078000545501709
1772810443886032100,7.6660322265625,41.625244140625,14.461170196533203,4.6814751625061035
1772810443895732200,7.675732177734375,38.21603775024414,13.776863098144531,1.578506588935852
1772810443905432000,7.68543212890625,33.09267807006836,12.816452026367188,-0.9970722794532776
1772810443915132000,7.6951318359375,27.090530395507812,12.042533874511719,-3.4510233402252197
1772810443924832000,7.70483203125,21.059581756591797,10.897297859191895,-5.374364376068115
1772810443934531800,7.71453173828125,15.064029693603516,9.059762954711914,-6.3573760986328125
1772810443944232000,7.72423193359375,9.267032623291016,7.16510534286499,-6.406783580780029
1772810443953931800,7.733931884765625,3.832724094390869,5.321701526641846,-5.69366979598999
1772810443963631900,7.7436318359375,-0.9367237091064453,3.91471529006958,-4.856852054595947
1772810443973331700,7.753331787109375,-4.765621662139893,3.15909481048584,-4.30904483795166
1772810443983031600,7.763031494140625,-7.289667129516602,2.015519618988037,-3.4137961864471436
1772810443992731600,7.772731689453125,-8.751404762268066,0.3941631317138672,-2.3402295112609863
1772810444002431500,7.782431396484375,-9.373205184936523,-0.9929542541503906,-1.4535019397735596
1772810444012131600,7.792131591796875,-9.482109069824219,-2.1205811500549316,-0.8743106126785278
1772810444021831400,7.80183154296875,-9.097345352172852,-3.3382248878479004,-0.35916584730148315
1772810444031531300,7.81153125,-8.29483413696289,-4.404102802276611,-0.14742136001586914
1772810444041231400,7.8212314453125,-6.991230487823486,-5.518052101135254,-0.1760263442993164
1772810444050931200,7.83093115234375,-5.772917747497559,-6.617714881896973,-0.11020660400390625
1772810444060631300,7.84063134765625,-5.319649696350098,-7.305535316467285,0.13697242736816406
1772810444070331100,7.8503310546875,-5.2541823387146,-8.089323043823242,0.4948842525482178
1772810444080031000,7.860031005859375,-5.214909553527832,-8.562131881713867,0.6364999413490295
1772810444089731000,7.86973095703125,-5.337516784667969,-9.028319358825684,1.0714678764343262
1772810444099431000,7.879430908203125,-5.463117599487305,-9.761078834533691,1.843886137008667
1772810444109130800,7.889130859375,-5.685802459716797,-10.295443534851074,2.6666996479034424
1772810444118830800,7.898830810546875,-5.9741621017456055,-10.399164199829102,2.8604774475097656
1772810444128530700,7.90853076171875,-6.5266900062561035,-10.694950103759766,2.903168201446533
1772810444138230800,7.918230712890625,-7.181654453277588,-11.23312759399414,2.7265706062316895
1772810444147930600,7.9279306640625,-7.481423854827881,-11.834901809692383,2.6169846057891846
1772810444157630500,7.93763037109375,-7.888630390167236,-12.41263198852539,2.6663999557495117
1772810444167330600,7.94733056640625,-8.250214576721191,-12.663287162780762,2.651559352874756
1772810444177030400,7.957030517578125,-8.551763534545898,-12.750807762145996,2.646275758743286
1772810444186730200,7.966730224609375,-8.657211303710938,-12.581260681152344,2.4412055015563965
1772810444196430300,7.976430419921875,-8.838592529296875,-12.261608123779297,2.0904343128204346
1772810444206130200,7.986130126953125,-9.048103332519531,-12.00692081451416,1.728193998336792
1772810444215830300,7.995830322265625,-8.983416557312012,-11.846381187438965,1.4400532245635986
1772810444225530000,8.005530029296875,-8.867752075195312,-11.55910587310791,1.343929409980774
1772810444235230200,8.015230224609375,-8.761149406433105,-11.36070442199707,1.3736047744750977
1772810444244930000,8.024929931640624,-8.35560417175293,-11.291101455688477,1.4180580377578735
1772810444254630000,8.0346298828125,-7.6338090896606445,-11.070375442504883,1.3566287755966187
1772810444264330000,8.044330078125,-6.788602352142334,-10.837214469909668,1.1691958904266357
1772810444274029800,8.05402978515625,-6.006826877593994,-10.51054573059082,0.8730252981185913
1772810444283730000,8.06372998046875,-5.445699691772461,-10.096882820129395,0.7099674940109253
1772810444293429800,8.0734296875,-5.263689994812012,-9.685810089111328,0.6355483531951904
1772810444303129900,8.0831298828125,-5.113300800323486,-8.810908317565918,0.42354798316955566
1772810444312829700,8.09282958984375,-4.870976448059082,-7.879448413848877,0.4526238441467285
1772810444322529500,8.102529541015626,-4.574545383453369,-7.352822303771973,0.9367905855178833
1772810444332229600,8.112229736328125,-4.3353657722473145,-5.914085388183594,0.8976047039031982
1772810444341929500,8.121929443359376,-4.1042046546936035,-3.561542510986328,0.19210493564605713
1772810444351629300,8.13162939453125,-3.521256685256958,-1.909134864807129,-0.2251431941986084
1772810444361329400,8.141329345703125,-2.4588770866394043,-1.016744613647461,-0.2778376340866089
1772810444371029200,8.151029296875,-0.8317365646362305,0.26962852478027344,0.07979941368103027
1772810444380729000,8.16072900390625,1.3665804862976074,1.8572654724121094,0.2231529951095581
1772810444390429200,8.17042919921875,3.5774612426757812,2.857632637023926,0.0906449556350708
1772810444400129000,8.18012890625,5.173221588134766,3.2967872619628906,-0.6445366144180298
1772810444409829000,8.1898291015625,6.2823309898376465,5.526796340942383,-2.5727264881134033
1772810444419529000,8.199529052734375,6.8629608154296875,8.879942893981934,-3.7369332313537598
1772810444429228800,8.209228759765624,6.722100257873535,10.898454666137695,-3.1465249061584473
1772810444438929000,8.218928955078125,6.190443515777588,11.882109642028809,-1.4092174768447876
1772810444448628700,8.228628662109376,6.136505603790283,12.7843599319458,1.1682450771331787
1772810444458328800,8.238328857421875,6.408037185668945,13.98336410522461,2.920058012008667
1772810444468028700,8.248028564453126,6.449589252471924,14.355216979980469,3.6259820461273193
1772810444477728800,8.257728759765625,7.015872001647949,14.171812057495117,2.8685736656188965
1772810444487428600,8.2674287109375,8.647265434265137,13.341228485107422,1.4837689399719238
1772810444497128700,8.277128662109375,10.659754753112793,12.377155303955078,0.160447895526886
1772810444506828500,8.28682861328125,12.289158821105957,11.09772777557373,-0.7234114408493042
1772810444516528400,8.2965283203125,12.609506607055664,9.760093688964844,-0.9445180892944336
1772810444526228500,8.306228515625,12.357585906982422,8.692903518676758,-1.2753723859786987
1772810444535928300,8.31592822265625,11.079547882080078,7.690290451049805,-1.9748101234436035
1772810444545628200,8.325628173828125,8.975526809692383,6.7046709060668945,-2.8334641456604004
1772810444555328300,8.335328369140624,6.675095558166504,5.467721462249756,-3.194706916809082
1772810444565028000,8.345028076171875,4.764561176300049,4.017973899841309,-2.932459592819214
1772810444574728200,8.354728271484374,3.4854636192321777,2.347757339477539,-2.0889382362365723
1772810444584428000,8.364427978515625,2.129039764404297,0.61859130859375,-1.3278833627700806
1772810444594128000,8.3741279296875,0.9984941482543945,-0.8515338897705078,-0.8070427179336548
1772810444603828000,8.383827880859375,-0.23586320877075195,-2.070957660675049,-0.422177791595459
1772810444613527800,8.39352783203125,-1.501427173614502,-2.8239078521728516,-0.2203441858291626
1772810444623227600,8.4032275390625,-2.654384136199951,-3.332106590270996,0.0004647970199584961
1772810444632927700,8.412927734375,-3.689136028289795,-3.835019111633301,0.21245801448822021
1772810444642627600,8.422627685546875,-4.515220642089844,-4.1907453536987305,0.372578501701355
1772810444652327700,8.43232763671875,-5.113773822784424,-4.507761478424072,0.5638958215713501
1772810444662027500,8.442027587890625,-5.709601402282715,-4.901658058166504,0.8036712408065796
1772810444671727600,8.4517275390625,-6.154938220977783,-5.314827919006348,0.891228199005127
1772810444681427500,8.461427490234374,-6.392498016357422,-5.838408470153809,0.8645594120025635
1772810444691127600,8.47112744140625,-6.318811416625977,-6.391862869262695,0.8746769428253174
1772810444700827400,8.480827392578124,-6.18048095703125,-6.908713340759277,0.9134230017662048
1772810444710527200,8.49052734375,-5.841774940490723,-7.446115493774414,0.9768410921096802
1772810444720227300,8.500227294921874,-5.465062618255615,-7.820647716522217,1.053617000579834
1772810444729927200,8.50992724609375,-5.342494964599609,-8.106264114379883,1.2276029586791992
1772810444739627000,8.519626953125,-5.291718482971191,-8.383448600769043,1.4110896587371826
1772810444749327000,8.5293271484375,-5.339465141296387,-8.558960914611816,1.5488815307617188
1772810444759027000,8.53902685546875,-5.725236415863037,-8.741786003112793,1.7220720052719116
1772810444768727000,8.54872705078125,-6.095265865325928,-8.797957420349121,1.8092730045318604
1772810444778427000,8.558427001953126,-6.255532741546631,-8.58993911743164,1.718767523765564
1772810444788126700,8.568126708984375,-6.306326389312744,-8.354180335998535,1.484681487083435
1772810444797826800,8.577826904296876,-6.675202369689941,-7.983962059020996,1.3288147449493408
1772810444807526700,8.587526611328125,-7.249226093292236,-7.565332412719727,1.1940624713897705
1772810444817226800,8.597226806640625,-7.297750473022461,-7.4061408042907715,1.0294625759124756
1772810444826926600,8.606926513671874,-7.102288246154785,-7.433443546295166,1.3143750429153442
1772810444836626400,8.61662646484375,-6.76881742477417,-7.409371376037598,1.7697672843933105
1772810444846326500,8.626326416015624,-6.217859745025635,-7.283705711364746,2.356133460998535
1772810444856026400,8.6360263671875,-4.960903167724609,-7.210826873779297,2.8784356117248535
1772810444865726500,8.6457265625,-3.157120704650879,-6.723362445831299,2.6733736991882324
1772810444875426300,8.65542626953125,-1.3145976066589355,-5.617353439331055,1.9463118314743042
1772810444885126400,8.66512646484375,0.8974857330322266,-4.143082618713379,1.0775620937347412
1772810444894826200,8.674826171875,2.7696571350097656,-1.931788444519043,0.34899646043777466
1772810444904526000,8.684526123046876,3.864531993865967,0.6393437385559082,0.5082738399505615
1772810444914226200,8.69422607421875,5.5176100730896,2.8274574279785156,0.7561502456665039
1772810444923926000,8.703926025390626,7.568143844604492,5.5772294998168945,0.7900611758232117
1772810444933625900,8.7136259765625,10.01505184173584,8.027973175048828,1.5930119752883911
1772810444943326000,8.723325927734376,12.282630920410156,10.053712844848633,1.9262505769729614
1772810444953025800,8.73302587890625,13.497522354125977,13.010087966918945,0.773017406463623
1772810444962726000,8.742725830078125,13.799541473388672,15.564291000366211,-1.0930429697036743
1772810444972425700,8.75242578125,13.50888442993164,17.826465606689453,-2.83420467376709
1772810444982125600,8.76212548828125,15.079381942749023,20.170162200927734,-4.241422653198242
1772810444991825700,8.77182568359375,18.570350646972656,20.922136306762695,-4.8273701667785645
1772810445001525500,8.781525390625,23.929576873779297,20.735563278198242,-4.651514053344727
1772810445011225600,8.7912255859375,28.842315673828125,19.617856979370117,-4.500979900360107
1772810445020925400,8.800925537109375,30.917980194091797,17.40069007873535,-4.281917095184326
1772810445030625500,8.81062548828125,29.98343849182129,14.367118835449219,-4.042544841766357
1772810445040325400,8.820325439453125,26.482677459716797,11.245046615600586,-3.558629274368286
1772810445050025500,8.830025390625,21.605825424194336,8.649685859680176,-3.5634453296661377
1772810445059725300,8.839725341796875,16.490676879882812,6.467581272125244,-4.076790809631348
1772810445069425200,8.849425048828126,11.56822681427002,3.99863338470459,-3.940814971923828
1772810445079125200,8.859125244140625,5.7522478103637695,2.8217358589172363,-2.8288486003875732
1772810445088825000,8.8688251953125,-0.7689700126647949,1.5290250778198242,-2.329751968383789
1772810445098525000,8.87852490234375,-5.882852554321289,1.1776113510131836,-1.9022940397262573
1772810445108225000,8.88822509765625,-7.46920108795166,0.2763948440551758,-2.0016863346099854
1772810445117924900,8.8979248046875,-9.182790756225586,-0.36517810821533203,-2.0992608070373535
1772810445127625000,8.907625,-10.161195755004883,-1.9904098510742188,-2.333493232727051
1772810445137324800,8.91732470703125,-10.825885772705078,-2.389446258544922,-2.2539026737213135
1772810445147025000,8.92702490234375,-11.066848754882812,-3.8391096591949463,-1.7703397274017334
1772810445156724700,8.936724853515624,-11.358695983886719,-5.375259876251221,-1.467336893081665
1772810445166424800,8.9464248046875,-10.838678359985352,-6.350444316864014,-1.871947169303894
1772810445176124700,8.956124755859374,-9.747453689575195,-6.077917098999023,-2.3080837726593018
1772810445185824500,8.965824462890625,-8.949949264526367,-6.268035888671875,-2.2312583923339844
1772810445195524600,8.975524658203126,-8.172357559204102,-5.747958183288574,-1.3199282884597778
1772810445205224400,8.985224365234375,-7.68105411529541,-5.119356632232666,0.47956207394599915
1772810445214924500,8.994924560546876,-7.2824554443359375,-5.775897979736328,2.152656078338623
1772810445224624400,9.004624267578125,-7.328826904296875,-6.021353721618652,3.0023560523986816
1772810445234324200,9.01432421875,-7.421447277069092,-6.2243170738220215,2.519829750061035
1772810445244024300,9.0240244140625,-7.603692531585693,-6.230832099914551,1.2455815076828003
1772810445253724200,9.03372412109375,-7.963886737823486,-6.22541618347168,0.5705753564834595
1772810445263424000,9.043424072265625,-8.008674621582031,-6.0330305099487305,0.7163651585578918
1772810445273124000,9.0531240234375,-7.692629814147949,-5.8290252685546875,1.2023190259933472
1772810445282824000,9.062823974609374,-7.281477928161621,-5.741869926452637,1.6307945251464844
1772810445292524000,9.07252392578125,-6.744531154632568,-6.094415664672852,2.124070882797241
1772810445302224000,9.082223876953124,-5.96030330657959,-6.290486812591553,2.602588176727295
1772810445311924000,9.091924072265625,-4.9838666915893555,-6.943597793579102,2.6766371726989746
1772810445321623800,9.101623779296874,-4.142795562744141,-7.393001079559326,2.5677006244659424
1772810445331324000,9.111323974609375,-3.864748477935791,-7.715726375579834,2.290308952331543
1772810445341023700,9.121023681640626,-3.8708972930908203,-7.9992356300354,2.1092944145202637
1772810445350723600,9.1307236328125,-4.215065956115723,-8.368732452392578,1.9704408645629883
1772810445360423700,9.140423583984376,-4.603605270385742,-8.6373291015625,1.7772825956344604
1772810445370123500,9.15012353515625,-4.844501972198486,-8.981644630432129,1.6455190181732178
1772810445379823400,9.1598232421875,-5.160962104797363,-9.339948654174805,1.3732850551605225
1772810445389523500,9.1695234375,-5.464547157287598,-9.677413940429688,0.9538311958312988
1772810445399223300,9.179223388671875,-5.64980411529541,-9.713530540466309,0.5575399398803711
1772810445408923400,9.18892333984375,-5.649369239807129,-9.660613059997559,0.28277769684791565
1772810445418623200,9.198623291015625,-5.491006374359131,-9.636205673217773,0.14023548364639282
1772810445428323300,9.2083232421875,-5.007702827453613,-9.408480644226074,-0.11462539434432983
1772810445438023200,9.218023193359375,-4.8769755363464355,-8.93893051147461,-0.258250892162323
1772810445447723300,9.22772314453125,-5.049655914306641,-8.62131118774414,-0.5591616034507751
1772810445457423000,9.237423095703125,-5.178947448730469,-7.754059314727783,-1.0621871948242188
1772810445467123000,9.247123046875,-5.468313217163086,-6.027493953704834,-1.7436491250991821
1772810445476823000,9.256822998046875,-5.770364284515381,-5.065433502197266,-1.6641478538513184
1772810445486523000,9.26652294921875,-6.081578254699707,-4.206674098968506,-0.9622458815574646
1772810445496223000,9.276222900390625,-5.781645774841309,-2.8908681869506836,-0.25129812955856323
1772810445505922800,9.2859228515625,-4.368953704833984,-1.566537857055664,0.054615557193756104
1772810445515622700,9.29562255859375,-1.5646562576293945,0.006600856781005859,-0.4659479856491089
1772810445525322800,9.30532275390625,0.9549813270568848,0.9881095886230469,-0.9003686308860779
1772810445535022600,9.315022705078125,2.8955469131469727,1.2628755569458008,-0.665735125541687
1772810445544722700,9.32472265625,4.870392322540283,2.8120946884155273,-0.6742570996284485
1772810445554422500,9.334422607421875,6.984588146209717,4.99594259262085,-0.7473781108856201
1772810445564122400,9.344122314453125,8.964576721191406,7.221199035644531,-0.33233320713043213
1772810445573822500,9.353822509765624,11.358909606933594,9.084558486938477,0.779073178768158
1772810445593222400,9.373222412109374,15.586894989013672,12.702054977416992,1.2311506271362305
1772810445602922200,9.382922119140625,19.47552490234375,13.747980117797852,1.85416579246521
1772810445612622300,9.392622314453124,24.40604019165039,14.104806900024414,1.8972268104553223
1772810445622322200,9.402322265625,28.670291900634766,13.08666706085205,1.8603407144546509
1772810445632022000,9.41202197265625,31.449813842773438,10.986900329589844,1.1367889642715454
1772810445641722000,9.42172216796875,32.01069641113281,9.082380294799805,-0.4539053440093994
1772810445651422000,9.431421875,29.83542251586914,7.799815654754639,-2.5467474460601807
1772810445661121800,9.441121826171875,24.70285987854004,6.384876728057861,-3.980131149291992
1772810445670822000,9.45082177734375,18.477033615112305,5.196125507354736,-4.846706867218018
1772810445680521700,9.460521728515625,12.31712532043457,4.071624755859375,-5.175362586975098
1772810445690221800,9.470221923828126,6.612286567687988,2.6144790649414062,-4.496615886688232
1772810445699921700,9.479921630859375,1.5632562637329102,1.2224183082580566,-3.2787091732025146
1772810445709621800,9.489621826171875,-2.7631454467773438,0.2820000648498535,-2.6069796085357666
1772810445719321600,9.499321533203124,-5.9243927001953125,-0.30257511138916016,-2.201056480407715
1772810445729021700,9.509021728515625,-8.369877815246582,-1.0006732940673828,-2.0456252098083496
1772810445738721500,9.518721435546874,-9.861584663391113,-1.9098365306854248,-1.9951287508010864
1772810445748421400,9.52842138671875,-10.348014831542969,-2.929506778717041,-2.1002113819122314
1772810445758121500,9.53812158203125,-9.741313934326172,-4.105257987976074,-2.4493918418884277
1772810445767821300,9.5478212890625,-8.877245903015137,-5.165512561798096,-2.786830425262451
1772810445777521400,9.557521484375,-8.333112716674805,-5.493177890777588,-2.9265267848968506
1772810445787221200,9.56722119140625,-8.760835647583008,-5.152190208435059,-2.8234410285949707
1772810445796921000,9.576921142578126,-9.36290168762207,-4.975837230682373,-2.437744140625
1772810445806621200,9.58662109375,-9.711294174194336,-4.468450546264648,-1.9872883558273315
1772810445816321000,9.596321044921876,-9.916717529296875,-3.988051176071167,-1.8857476711273193
1772810445826021000,9.606021240234375,-10.003388404846191,-3.7905259132385254,-1.5249168872833252
1772810445835721000,9.615720947265626,-10.417279243469238,-3.7821602821350098,-0.6835165023803711
1772810445845421000,9.625421142578125,-10.974939346313477,-4.010136127471924,0.27098503708839417
1772810445855121000,9.635120849609375,-11.16758918762207,-4.462779998779297,0.870514988899231
1772810445864821000,9.644821044921875,-10.940832138061523,-4.8270792961120605,0.9090477228164673
1772810445874520800,9.654520751953125,-10.205181121826172,-5.239192008972168,0.5791794061660767
1772810445884220700,9.664220703125,-9.492452621459961,-5.705529689788818,0.1396833062171936
1772810445893920800,9.673920654296875,-8.701505661010742,-5.999292373657227,-0.32840168476104736
1772810445903620600,9.68362060546875,-8.185501098632812,-6.195258617401123,-0.40046438574790955
1772810445913320700,9.69332080078125,-8.086745262145996,-6.3841552734375,-0.07760193943977356
1772810445923020500,9.7030205078125,-8.092260360717773,-6.228496074676514,0.11893308162689209
1772810445932720600,9.712720703125,-8.105758666992188,-5.958381175994873,0.07831287384033203
1772810445942420500,9.72242041015625,-8.108612060546875,-5.707011699676514,-0.11925184726715088
1772810445952120600,9.73212060546875,-7.887662887573242,-5.383633136749268,-0.6657466888427734
1772810445961820400,9.7418203125,-7.514255523681641,-5.287138938903809,-1.0343434810638428
1772810445971520300,9.751520263671875,-6.9506096839904785,-5.428746700286865,-1.0782936811447144
1772810445981220400,9.761220458984376,-5.667975425720215,-5.882032871246338,-1.028764009475708
1772810445990920200,9.770920166015625,-3.9966683387756348,-6.307912826538086,-0.8544988036155701
1772810446000620000,9.7806201171875,-2.8730812072753906,-6.185110092163086,-0.26174497604370117
1772810446010320100,9.790320068359375,-2.3834409713745117,-5.623328685760498,1.0311720371246338
1772810446020020000,9.80002001953125,-2.4922423362731934,-4.239443778991699,1.862284779548645
1772810446029720000,9.809719970703124,-2.598259449005127,-1.8880248069763184,1.5518385171890259
1772810446039420000,9.819419921875,-1.6835012435913086,1.196789264678955,0.40098822116851807
1772810446049120000,9.8291201171875,0.0869131088256836,4.536796569824219,-0.5721235871315002
1772810446058819800,9.83881982421875,2.8931355476379395,7.475471496582031,-0.27856725454330444
1772810446068520000,9.84852001953125,6.8980584144592285,8.864577293395996,2.0527901649475098
1772810446078219800,9.8582197265625,11.440740585327148,11.161951065063477,3.768004894256592
1772810446087919600,9.867919677734376,17.338973999023438,12.125822067260742,5.35441780090332
1772810446097619700,9.87761962890625,23.91341209411621,11.54524040222168,6.450412273406982
1772810446107319600,9.887319580078126,29.783527374267578,12.865178108215332,5.901953220367432
1772810446117019600,9.89701953125,33.878570556640625,13.231243133544922,5.465996742248535
1772810446126719500,9.906719482421876,36.87042999267578,13.551237106323242,3.9848175048828125
1772810446136419300,9.91641943359375,38.73701477050781,13.997053146362305,1.6265757083892822
1772810446146119400,9.926119384765625,38.74934387207031,13.827497482299805,-0.020771652460098267
1772810446155819300,9.9358193359375,37.25690460205078,13.10775375366211,-0.7715239524841309
1772810446165519400,9.945519287109375,33.71717071533203,11.512022018432617,-1.0748945474624634
1772810446175219200,9.95521923828125,28.918121337890625,9.785983085632324,-1.545243740081787
1772810446184919300,9.964919189453125,22.760669708251953,7.729910850524902,-1.963158130645752
1772810446194619100,9.974619140625,15.988717079162598,5.817939281463623,-2.1918623447418213
1772810446204319200,9.9843193359375,9.304450988769531,3.8023877143859863,-2.2508950233459473
1772810446214019000,9.99401904296875,3.118009567260742,1.7498722076416016,-1.9924426078796387
1772810446223719000,10.003718994140625,-1.947969913482666,-0.45682430267333984,-1.7952018976211548
1772810446233419000,10.0134189453125,-6.236161231994629,-2.84804630279541,-1.904070258140564
1772810446243118800,10.023118896484375,-9.857123374938965,-5.167235374450684,-2.083700656890869
1772810446252819000,10.03281884765625,-12.513504981994629,-6.863267421722412,-2.2537426948547363
1772810446262518800,10.042518798828125,-14.052896499633789,-7.977154731750488,-2.130642890930176
1772810446272219000,10.052218994140626,-14.233915328979492,-9.356895446777344,-1.2097688913345337
1772810446281918700,10.061918701171875,-13.318052291870117,-10.003293991088867,-0.8421244025230408
1772810446291618800,10.071618896484376,-11.365473747253418,-10.389968872070312,-0.6642276644706726
1772810446301318700,10.081318603515625,-9.502458572387695,-10.568004608154297,-0.5039072036743164
1772810446311018500,10.0910185546875,-8.257475852966309,-10.688651084899902,-0.20919883251190186
1772810446320718600,10.100718505859374,-7.562383651733398,-10.74173355102539,-0.08383861184120178
1772810446330418400,10.11041845703125,-7.29359245300293,-10.723594665527344,0.029980510473251343
1772810446340118300,10.1201181640625,-7.4033050537109375,-10.849418640136719,0.3603578805923462
1772810446349818400,10.129818359375,-7.860653400421143,-10.691818237304688,0.6656286120414734
1772810446359518200,10.139518310546874,-8.217140197753906,-10.612980842590332,0.7987982630729675
1772810446369218300,10.14921826171875,-8.203849792480469,-10.760068893432617,0.7151932716369629
1772810446378918100,10.158918212890624,-7.750430107116699,-10.773828506469727,0.4898092746734619
1772810446388618200,10.1686181640625,-7.173081398010254,-10.513415336608887,0.40387409925460815
1772810446398318000,10.178318115234376,-6.773626804351807,-10.22384262084961,0.526958703994751
1772810446408018200,10.18801806640625,-6.698014259338379,-9.881300926208496,0.5528677105903625
1772810446417718000,10.197718017578126,-6.74398136138916,-9.598346710205078,0.459881991147995
1772810446427417900,10.20741796875,-6.787405967712402,-9.45278263092041,0.3476884067058563
1772810446437118000,10.217117919921876,-6.814244270324707,-9.584223747253418,0.3329397439956665
1772810446446817800,10.22681787109375,-6.660902976989746,-9.912017822265625,0.3542013168334961
1772810446456518000,10.236517822265625,-6.338573932647705,-10.238192558288574,0.4828360080718994
1772810446466217700,10.2462177734375,-6.081099987030029,-10.511634826660156,0.49173077940940857
1772810446475917800,10.255917724609375,-6.019526481628418,-10.692169189453125,0.4249745011329651
1772810446485617700,10.26561767578125,-6.103163242340088,-10.768585205078125,0.34801751375198364
1772810446495317800,10.27531787109375,-6.313475608825684,-10.671883583068848,0.2797715365886688
1772810446505017600,10.285017578125,-6.428483009338379,-10.627767562866211,0.21758270263671875
1772810446514717400,10.294717529296875,-6.468576431274414,-10.578873634338379,0.15556079149246216
1772810446524417500,10.30441748046875,-6.391135215759277,-10.33299446105957,0.11484277248382568
1772810446534117400,10.314117431640625,-6.354954719543457,-10.049741744995117,0.2565041780471802
1772810446543817200,10.323817138671876,-6.342245101928711,-9.669477462768555,0.5003502368927002
1772810446553517300,10.333517333984375,-6.465267181396484,-9.122743606567383,0.5057177543640137
1772810446563217200,10.343217041015626,-6.304523468017578,-8.403816223144531,0.14956367015838623
1772810446572917200,10.352917236328125,-5.759124279022217,-7.450160503387451,-0.29618000984191895
1772810446582617000,10.3626171875,-5.155454635620117,-5.541020393371582,-0.6666685342788696
1772810446592317200,10.372317138671875,-4.625464916229248,-4.044681072235107,-0.46580052375793457
1772810446602017000,10.38201708984375,-4.489025115966797,-2.816586971282959,0.08731675148010254
1772810446611717000,10.391717041015625,-4.466907024383545,-0.5319323539733887,0.6501960158348083
1772810446621417000,10.4014169921875,-3.7166996002197266,1.6518516540527344,1.9137868881225586
1772810446631116800,10.41111669921875,-2.4081850051879883,4.781345844268799,2.623779773712158
1772810446640817000,10.42081689453125,0.4147038459777832,8.367598533630371,2.025270938873291
1772810446650516700,10.430516845703124,3.0453715324401855,9.470802307128906,2.384608030319214
1772810446660216800,10.440216796875,4.421753883361816,9.476934432983398,3.3645260334014893
1772810446679616800,10.45961669921875,9.94737434387207,9.3443603515625,2.533125400543213
1772810446689316600,10.469316650390626,12.90505599975586,9.809464454650879,1.1604385375976562
1772810446699016700,10.4790166015625,15.426870346069336,10.383264541625977,0.0006160736083984375
1772810446708716500,10.488716552734376,16.763187408447266,10.466592788696289,-0.9390174150466919
1772810446718416400,10.49841650390625,17.89379119873047,10.304182052612305,-1.5917370319366455
1772810446728116500,10.508116455078126,19.26132583618164,9.181167602539062,-1.7393920421600342
1772810446737816300,10.51781640625,20.333681106567383,7.8962860107421875,-2.1395821571350098
1772810446747516400,10.527516357421876,20.233139038085938,6.578174591064453,-2.9500198364257812
1772810446757216300,10.53721630859375,18.482681274414062,5.672662258148193,-3.6611876487731934
1772810446766916400,10.546916259765625,15.69577407836914,4.859353542327881,-3.565108299255371
1772810446776616200,10.5566162109375,12.440104484558105,4.265398979187012,-2.38865065574646
1772810446786316300,10.56631640625,8.334676742553711,3.9927310943603516,-1.382699966430664
1772810446796016000,10.57601611328125,5.582346439361572,3.606403350830078,-0.7689776420593262
1772810446805716000,10.585716064453125,2.642601490020752,3.229565143585205,-0.4011833071708679
1772810446815416000,10.595416015625,0.6624612808227539,2.883134365081787,-0.0762399435043335
1772810446825116000,10.605115966796875,-0.9426922798156738,2.344277858734131,0.26704567670822144
1772810446834816000,10.61481591796875,-1.990302562713623,1.753974437713623,0.8239787817001343
1772810446844515800,10.624515869140625,-2.70407772064209,1.1829771995544434,1.4533846378326416
1772810446854215700,10.634215576171876,-3.1216588020324707,0.49388647079467773,1.7478357553482056
1772810446863915800,10.643915771484375,-3.3841915130615234,-0.11853218078613281,1.6610054969787598
1772810446873616000,10.653615966796876,-3.5519027709960938,-0.8458800315856934,1.2808306217193604
1772810446883315700,10.663315673828125,-3.7176218032836914,-1.426161289215088,0.6759926676750183
1772810446893015600,10.673015625,-3.8098738193511963,-1.997096061706543,0.1636098325252533
1772810446902715600,10.682715576171875,-3.569535255432129,-2.467355728149414,-0.15331435203552246
1772810446912415500,10.69241552734375,-3.288374900817871,-2.8669910430908203,-0.31660839915275574
1772810446922115600,10.702115478515625,-2.932281494140625,-3.2958853244781494,-0.30425402522087097
1772810446931815400,10.7118154296875,-2.3513078689575195,-3.506803035736084,-0.23080655932426453
1772810446941515300,10.721515380859374,-1.8818402290344238,-3.5501294136047363,-0.18340760469436646
1772810446951215400,10.73121533203125,-1.5868101119995117,-3.4562368392944336,-0.060830771923065186
1772810446960915500,10.74091552734375,-1.4407248497009277,-3.2098324298858643,0.07325494289398193
1772810446970615300,10.750615234375,-1.5443320274353027,-2.9022321701049805,0.11191752552986145
1772810446980315100,10.760315185546874,-1.654881477355957,-2.4641785621643066,0.006006509065628052
1772810446990015200,10.77001513671875,-1.8052759170532227,-2.111203670501709,0.03119128942489624
1772810446999715000,10.779715087890626,-2.022580623626709,-1.8014507293701172,0.1417119801044464
1772810447009415200,10.789415283203125,-2.224642753601074,-1.531865119934082,0.2944803535938263
1772810447019115000,10.799114990234376,-2.261690139770508,-1.4033231735229492,0.3686628043651581
1772810447028814800,10.80881494140625,-2.062729835510254,-1.296159267425537,0.2615516781806946
1772810447038515000,10.818514892578126,-2.0546064376831055,-1.1509246826171875,0.10436278581619263
1772810447048214800,10.82821484375,-2.02817440032959,-0.9466652870178223,0.2457403689622879
1772810447057915000,10.837914794921875,-2.911827802658081,-0.18555927276611328,0.6207706928253174
1772810447067614700,10.84761474609375,-3.0248327255249023,0.27236318588256836,1.0262978076934814
1772810447077314800,10.857314697265625,-3.062410831451416,0.5628781318664551,1.3821526765823364
1772810447087014700,10.8670146484375,-2.77001953125,0.8042292594909668,1.4835559129714966
1772810447096714800,10.87671484375,-2.3142471313476562,0.7419934272766113,1.2160487174987793
1772810447106414600,10.88641455078125,-1.9722108840942383,0.7653160095214844,0.8132129907608032
1772810447116114400,10.896114501953125,-1.9728784561157227,0.8448858261108398,0.5545796155929565
1772810447125814500,10.905814453125,-2.167847156524658,0.8891158103942871,0.3897274136543274
