time,seconds_elapsed,z,y,x
1772811959157061400,0.095061279296875,0,0,0
1772811959166761700,0.10476171875,0.03168296813964844,0.11213397979736328,-0.05901908874511719
1772811959186163200,0.1241630859375,-0.06142616271972656,0.19282913208007812,0.10620737075805664
1772811959195863800,0.13386376953125,0.0999755859375,0.2754545211791992,0.2127366065979004
1772811959205564400,0.143564453125,0.3280162811279297,0.2975649833679199,0.33574533462524414
1772811959215265000,0.15326513671875,0.34906721115112305,0.2823367118835449,0.511385440826416
1772811959224965600,0.162965576171875,0.3436112403869629,0.28413963317871094,0.64009690284729
1772811959234666200,0.172666259765625,0.4391975402832031,0.23934221267700195,0.703851580619812
1772811959244366800,0.182366943359375,0.4927678108215332,0.20926666259765625,0.745569109916687
1772811959254067500,0.1920673828125,0.4168391227722168,0.2796497344970703,0.789191484451294
1772811959263768000,0.20176806640625,0.3331756591796875,0.33761119842529297,0.7897385954856873
1772811959273468700,0.21146875,0.2900700569152832,0.3879227638244629,0.6895773410797119
1772811959283169300,0.221169189453125,0.34944820404052734,0.47215843200683594,0.6437127590179443
1772811959292870000,0.230869873046875,0.29159116744995117,0.5479612350463867,0.6969398856163025
1772811959302570500,0.240570556640625,0.07487821578979492,0.5643048286437988,0.7472679615020752
1772811959312271000,0.25027099609375,-0.17120933532714844,0.5133790969848633,0.7725217342376709
1772811959321971700,0.2599716796875,-0.237396240234375,0.43535757064819336,0.7431555986404419
1772811959331672300,0.26967236328125,-0.18555784225463867,0.2778964042663574,0.885770857334137
1772811959341373000,0.279373046875,-0.3620319366455078,0.054175376892089844,1.0179693698883057
1772811959351073500,0.289073486328125,-0.5922989845275879,-0.17759466171264648,1.0410435199737549
1772811959360774100,0.298774169921875,-0.7265410423278809,-0.34205198287963867,0.9271581172943115
1772811959370474800,0.308474853515625,-0.722710132598877,-0.36522531509399414,0.6724965572357178
1772811959380175400,0.31817529296875,-0.5702872276306152,-0.3544173240661621,0.45944440364837646
1772811959389876000,0.3278759765625,-0.6014056205749512,-0.39870214462280273,0.3210875391960144
1772811959399576600,0.33757666015625,-0.8347806930541992,-0.496492862701416,0.2189614176750183
1772811959409277200,0.347277099609375,-1.0266337394714355,-0.5222301483154297,0.12864714860916138
1772811959418977800,0.356977783203125,-1.1251411437988281,-0.48389768600463867,-0.00042939186096191406
1772811959428678400,0.366678466796875,-1.2544655799865723,-0.43622398376464844,-0.1566745638847351
1772811959438379000,0.37637890625,-1.3966703414916992,-0.41519594192504883,-0.3521465063095093
1772811959448079600,0.38607958984375,-1.459404468536377,-0.4555392265319824,-0.47664308547973633
1772811959457780200,0.3957802734375,-1.5083928108215332,-0.47360658645629883,-0.4860573410987854
1772811959467480800,0.405480712890625,-1.6381373405456543,-0.5369815826416016,-0.41450631618499756
1772811959477181400,0.415181396484375,-1.7095346450805664,-0.6043620109558105,-0.2886052131652832
1772811959486882000,0.424882080078125,-1.7672138214111328,-0.6998467445373535,-0.20879298448562622
1772811959496582700,0.434582763671875,-1.7958083152770996,-0.7871294021606445,-0.19123584032058716
1772811959506283300,0.444283203125,-1.7204113006591797,-0.7897791862487793,-0.293343186378479
1772811959515984000,0.45398388671875,-1.582181453704834,-0.7918524742126465,-0.4586336612701416
1772811959525684500,0.4636845703125,-1.3864073753356934,-0.7269625663757324,-0.6700711250305176
1772811959535385000,0.473385009765625,-1.3622984886169434,-0.6733388900756836,-0.8156940937042236
1772811959545085700,0.483085693359375,-1.3561854362487793,-0.6228442192077637,-0.8699043989181519
1772811959554786300,0.492786376953125,-1.238685131072998,-0.5387973785400391,-0.9019030332565308
1772811959564487200,0.502487060546875,-1.0989913940429688,-0.4227180480957031,-0.8990861177444458
1772811959574187500,0.5121875,-1.0428619384765625,-0.40039491653442383,-0.872289776802063
1772811959583888100,0.52188818359375,-1.0754375457763672,-0.4277620315551758,-0.8334833383560181
1772811959593588700,0.531588623046875,-0.9960570335388184,-0.41907787322998047,-0.8835741281509399
1772811959603289300,0.541289306640625,-0.7449898719787598,-0.34063243865966797,-1.0319033861160278
1772811959612990000,0.550989990234375,-0.5461974143981934,-0.18912935256958008,-1.205208420753479
1772811959622690800,0.56069091796875,-0.38541078567504883,-0.12009429931640625,-1.3858102560043335
1772811959632391400,0.570391357421875,-0.07061290740966797,-0.08856773376464844,-1.4724202156066895
1772811959642091800,0.580091796875,0.2799949645996094,-0.035651206970214844,-1.5365608930587769
1772811959651792400,0.58979248046875,0.5495753288269043,-0.019095420837402344,-1.5940558910369873
1772811959661493000,0.599492919921875,0.7662649154663086,-0.1423196792602539,-1.6459510326385498
1772811959671193600,0.609193603515625,0.8111405372619629,-0.3604855537414551,-1.540911316871643
1772811959680894500,0.61889453125,0.913663387298584,-0.3075246810913086,-1.272559404373169
1772811959690595000,0.628594970703125,0.9667234420776367,0.12943267822265625,-0.9495023488998413
1772811959700295700,0.638295654296875,0.6518611907958984,-0.004652500152587891,-0.7881981134414673
1772811959709996000,0.64799609375,0.636782169342041,-0.16145706176757812,-0.6319459676742554
1772811959719696600,0.657696533203125,0.9522929191589355,-0.023877620697021484,-0.4968109130859375
1772811959729397200,0.667397216796875,0.6026029586791992,0.10010194778442383,-0.28212928771972656
1772811959739098000,0.67709814453125,0.6984395980834961,-0.11103534698486328,-0.1835092306137085
1772811959748798700,0.686798828125,1.12811279296875,-0.5306692123413086,-0.16230273246765137
1772811959758499300,0.696499267578125,1.2839460372924805,-1.0139412879943848,0.0007615089416503906
1772811959768199700,0.70619970703125,1.28143310546875,-1.5791544914245605,0.20273351669311523
1772811959777900300,0.715900390625,1.0462288856506348,-1.8737704753875732,0.4808685779571533
1772811959787601000,0.725600830078125,0.8481674194335938,-2.0746607780456543,0.7822740077972412
1772811959797301800,0.7353017578125,0.6008524894714355,-2.27632737159729,0.786218523979187
1772811959807002400,0.74500244140625,0.4914422035217285,-2.3910446166992188,0.49772655963897705
1772811959816703000,0.754702880859375,0.442044734954834,-2.359428882598877,0.17981666326522827
1772811959826403600,0.764403564453125,0.22132539749145508,-2.227015972137451,0.062270283699035645
1772811959836104000,0.77410400390625,0.019803524017333984,-2.3351917266845703,0.13426941633224487
1772811959845804500,0.783804443359375,0.8320722579956055,-3.587076187133789,0.4419267177581787
1772811959855505400,0.79350537109375,1.3420639038085938,-4.2309346199035645,0.4196764826774597
1772811959865206000,0.8032060546875,0.5886201858520508,-3.2380943298339844,0.3145662546157837
1772811959874906600,0.81290673828125,-0.13085651397705078,-2.529872417449951,0.5765173435211182
1772811959884607200,0.822607177734375,-0.5937252044677734,-2.1244096755981445,0.7537773847579956
1772811959894307800,0.832307861328125,-0.38918256759643555,-1.4382519721984863,0.6997169852256775
1772811959904008200,0.84200830078125,-0.03255271911621094,-0.6927661895751953,0.4920870065689087
1772811959913708800,0.851708740234375,0.014513492584228516,-0.36256837844848633,0.29801154136657715
1772811959923409700,0.86140966796875,-0.3426246643066406,-0.387113094329834,0.21250885725021362
1772811959933110300,0.8711103515625,-1.2158279418945312,-0.2926750183105469,-0.011186778545379639
1772811959942811000,0.880810791015625,-0.552558422088623,0.36507463455200195,-2.0097455978393555
1772811959952511500,0.890511474609375,-0.4564499855041504,0.24721431732177734,-2.256716728210449
1772811959962211800,0.9002119140625,-1.03450345993042,-0.38539695739746094,-1.8921970129013062
1772811959971912400,0.909912353515625,-1.7516775131225586,-0.736609935760498,-1.9204635620117188
1772811959981613300,0.91961328125,-2.4370598793029785,-1.390495777130127,-1.9186447858810425
1772811959991314000,0.92931396484375,-2.8711185455322266,-2.1633851528167725,-1.6729118824005127
1772811960001014500,0.9390146484375,-2.8759207725524902,-2.802661418914795,-1.3174200057983398
1772811960010715100,0.948715087890625,-2.3002514839172363,-2.915330648422241,-1.0619851350784302
1772811960020415700,0.958415771484375,-1.006453514099121,-2.2470297813415527,-0.9266389012336731
1772811960030116000,0.9681162109375,0.17720985412597656,-1.0792522430419922,-0.7738827466964722
1772811960039817000,0.97781689453125,0.5598912239074707,-0.3891463279724121,-0.6296578645706177
1772811960049517600,0.987517578125,-0.00047969818115234375,-0.771369218826294,-0.1956697404384613
1772811960059218200,0.99721826171875,-0.8709926605224609,-2.3071539402008057,0.5640506744384766
1772811960068918800,1.006918701171875,-1.7403273582458496,-3.667224407196045,1.4107977151870728
1772811960078619400,1.016619384765625,-2.1787662506103516,-4.020329475402832,2.0559797286987305
1772811960088319700,1.02631982421875,-1.9626178741455078,-3.2698328495025635,1.8930621147155762
1772811960098020600,1.0360205078125,-1.6104850769042969,-2.0602004528045654,1.4250164031982422
1772811960107721200,1.04572119140625,-1.1298460960388184,-1.2381118535995483,1.1202117204666138
1772811960117421800,1.055421875,-0.18890953063964844,-1.0270774364471436,0.7748845219612122
1772811960127122400,1.065122314453125,1.004079818725586,-1.303539752960205,0.232604518532753
1772811960136823000,1.074822998046875,1.4810066223144531,-1.5535988807678223,-0.16796240210533142
1772811960146523400,1.0845234375,1.2871999740600586,-1.4325326681137085,-0.39521610736846924
1772811960156224300,1.094224365234375,1.334315299987793,-1.0680464506149292,-0.5045517086982727
1772811960165924900,1.1039248046875,1.6815567016601562,-0.7644093036651611,-0.11637893319129944
1772811960175625500,1.11362548828125,1.871851921081543,-0.9035631418228149,0.48773249983787537
1772811960185326000,1.123326171875,2.0881919860839844,-1.1979091167449951,0.8074598908424377
1772811960195026700,1.133026611328125,2.5890703201293945,-1.2159945964813232,1.1480951309204102
1772811960204727300,1.142727294921875,2.947002410888672,-1.185779094696045,1.2493746280670166
1772811960214428000,1.152427978515625,3.218153953552246,-1.089237928390503,0.7710185050964355
1772811960224128500,1.16212841796875,3.0845813751220703,-0.23648810386657715,0.8730525970458984
1772811960233829000,1.1718291015625,2.438343048095703,0.5839579105377197,1.0621733665466309
1772811960243529700,1.18152978515625,1.8822031021118164,0.49583911895751953,1.327613353729248
1772811960253230300,1.191230224609375,3.062493324279785,0.8266919851303101,2.011218309402466
1772811960262931000,1.200930908203125,4.510371208190918,0.9021544456481934,2.5255558490753174
1772811960272631600,1.210631591796875,5.031105995178223,0.8631938695907593,2.8544814586639404
1772811960282332200,1.220332275390625,4.835874557495117,0.4852118492126465,3.2133023738861084
1772811960292032800,1.23003271484375,4.330265045166016,0.08038461208343506,3.3882691860198975
1772811960301733400,1.2397333984375,3.8255977630615234,-0.20533722639083862,3.2259764671325684
1772811960311434000,1.24943408203125,3.371126174926758,0.05124610662460327,2.6585490703582764
1772811960321134600,1.259134521484375,3.008326530456543,0.7705094814300537,1.829637050628662
1772811960330835000,1.2688349609375,2.7220335006713867,1.1416127681732178,1.2117509841918945
1772811960340535800,1.278535888671875,2.396979331970215,1.0286097526550293,1.0672109127044678
1772811960350236400,1.288236328125,1.820185661315918,0.9290047883987427,1.1456480026245117
1772811960359937000,1.29793701171875,1.328695297241211,0.8581727743148804,1.1128939390182495
1772811960369637600,1.3076376953125,1.1627616882324219,0.830152153968811,0.8064850568771362
1772811960379338200,1.317338134765625,0.17687606811523438,0.20912179350852966,0.43864715099334717
1772811960389038600,1.32703857421875,0.29434967041015625,-0.11576129496097565,-0.31255125999450684
1772811960398739500,1.336739501953125,1.3962831497192383,0.8493877053260803,-1.418759822845459
1772811960408440000,1.346440185546875,1.094346046447754,1.8334691524505615,-1.6859610080718994
1772811960418140700,1.356140625,0.35287952423095703,1.8933324813842773,-1.2079061269760132
1772811960427841300,1.36584130859375,-0.6424427032470703,1.0049433708190918,-1.4093387126922607
1772811960437542000,1.3755419921875,-1.0446510314941406,0.17838068306446075,-1.2040510177612305
1772811960447242200,1.3852421875,-1.7300658226013184,-0.14743497967720032,-1.1225144863128662
1772811960456943000,1.394943115234375,-2.0905613899230957,0.08648192882537842,-1.263502597808838
1772811960466643700,1.404643798828125,-2.2151122093200684,0.36228716373443604,-1.334850788116455
1772811960476344300,1.41434423828125,-2.373061180114746,0.41989871859550476,-1.6057627201080322
1772811960486045000,1.424044921875,-2.4422388076782227,0.37970587611198425,-1.8914127349853516
1772811960495745500,1.43374560546875,-2.5414180755615234,0.141811341047287,-1.7656363248825073
1772811960505446000,1.44344580078125,-2.9781551361083984,0.024304136633872986,-1.668762445449829
1772811960515146800,1.453146728515625,-3.680853843688965,-1.041192889213562,-0.87217116355896
1772811960524847400,1.462847412109375,-3.73854923248291,-0.9482261538505554,-1.03593111038208
1772811960534548000,1.4725478515625,-3.8543920516967773,0.2057611346244812,-1.9865186214447021
1772811960544248600,1.48224853515625,-4.0703887939453125,0.4864724278450012,-2.0477142333984375
1772811960553949000,1.491948974609375,-4.167981147766113,-0.32321253418922424,-1.5661108493804932
1772811960563649500,1.5016494140625,-4.206932067871094,-0.4565541744232178,-1.4923689365386963
1772811960573350400,1.511350341796875,-3.812041759490967,-0.24346959590911865,-1.3552618026733398
1772811960583051000,1.521051025390625,-3.0690536499023438,-0.2125604748725891,-1.1618714332580566
1772811960592751600,1.530751708984375,-2.2500410079956055,-0.22034156322479248,-1.2553462982177734
1772811960602452200,1.5404521484375,-1.5222110748291016,-0.16958367824554443,-1.622298002243042
1772811960612152600,1.550152587890625,-0.9735045433044434,-0.23326674103736877,-1.8284695148468018
1772811960621853200,1.559853271484375,-0.8455810546875,-0.301821231842041,-1.89695405960083
1772811960631554000,1.569553955078125,-0.8618354797363281,-0.4673377275466919,-1.9431509971618652
1772811960641254700,1.579254638671875,-0.789952278137207,-0.48656970262527466,-2.0016191005706787
1772811960650955300,1.588955322265625,-1.1282696723937988,-0.5174574851989746,-2.1418347358703613
1772811960660655900,1.59865576171875,-1.5781488418579102,-0.7084245085716248,-2.0875837802886963
1772811960670356200,1.608356201171875,-1.9097542762756348,-0.7663935422897339,-1.846482515335083
1772811960680056800,1.618056884765625,-1.8018193244934082,-0.6524416208267212,-1.6273679733276367
1772811960689757700,1.6277578125,-1.1462492942810059,-0.3820101022720337,-1.317460536956787
1772811960699458300,1.637458251953125,0.256624698638916,0.23171818256378174,-0.921788215637207
1772811960709159000,1.647158935546875,2.1125168800354004,1.1559661626815796,0.18602800369262695
1772811960718859300,1.656859375,5.051656723022461,2.1565489768981934,2.4055027961730957
1772811960728559900,1.666559814453125,9.718130111694336,3.088216543197632,5.189847946166992
1772811960738260500,1.676260498046875,15.755794525146484,3.1856071949005127,9.285390853881836
1772811960747961300,1.68596142578125,22.322429656982422,2.537426471710205,14.128606796264648
1772811960757662000,1.695661865234375,28.039920806884766,2.344900608062744,17.57625961303711
1772811960767362600,1.705362548828125,30.694564819335938,2.2138047218322754,18.98215675354004
1772811960777063000,1.71506298828125,31.545581817626953,2.4111950397491455,19.015321731567383
1772811960786763500,1.724763427734375,30.78731918334961,2.3369035720825195,18.737680435180664
1772811960796464000,1.734464111328125,28.488502502441406,1.3916875123977661,18.12080192565918
1772811960806164700,1.744164794921875,25.65981101989746,0.38764941692352295,17.103551864624023
1772811960815865600,1.753865478515625,22.01702880859375,-0.6643800139427185,15.784297943115234
1772811960825566200,1.763566162109375,17.992595672607422,-1.3996264934539795,14.306941032409668
1772811960835266600,1.7732666015625,14.137813568115234,-1.5634897947311401,12.701159477233887
1772811960844967200,1.78296728515625,10.855287551879883,-1.6347514390945435,11.277137756347656
1772811960854667800,1.792667724609375,8.53429889678955,-2.1448287963867188,9.973333358764648
1772811960864368400,1.802368408203125,6.699052810668945,-2.8111815452575684,8.102499008178711
1772811960874069200,1.8120693359375,5.185939788818359,-3.228105068206787,5.703786373138428
1772811960883769600,1.82176953125,3.6346397399902344,-3.47750186920166,3.28549861907959
1772811960893470200,1.83147021484375,1.9871301651000977,-3.612126111984253,0.9162235260009766
1772811960903170800,1.8411708984375,-0.6377625465393066,-3.2205467224121094,-0.9455356597900391
1772811960912871400,1.850871337890625,-3.727799892425537,-2.9191579818725586,-2.3465566635131836
1772811960922572000,1.860572021484375,-6.308876037597656,-3.101860761642456,-3.581042766571045
1772811960932272600,1.870272705078125,-8.502067565917969,-3.3870930671691895,-4.6619553565979
1772811960941973200,1.87997314453125,-9.877761840820312,-3.6339800357818604,-5.758303642272949
1772811960951673900,1.889673828125,-10.555948257446289,-4.117286682128906,-6.379918098449707
1772811960961374500,1.89937451171875,-10.932746887207031,-5.187789440155029,-6.682101726531982
1772811960971075000,1.909074951171875,-10.705486297607422,-6.329781532287598,-6.993057727813721
1772811960980775700,1.918775634765625,-10.604923248291016,-7.543313026428223,-7.138696670532227
1772811960990476300,1.928476318359375,-10.224555969238281,-7.540065288543701,-8.44350528717041
1772811961000177000,1.938177001953125,-10.212120056152344,-7.345492362976074,-9.025093078613281
1772811961009877500,1.94787744140625,-9.885688781738281,-7.538983345031738,-9.08706283569336
1772811961019578000,1.957578125,-9.541437149047852,-7.580930233001709,-9.106070518493652
1772811961029278700,1.96727880859375,-9.293964385986328,-7.337786674499512,-8.999701499938965
1772811961038979300,1.976979248046875,-9.02862548828125,-7.141939163208008,-8.622832298278809
1772811961048680000,1.986679931640625,-8.812662124633789,-6.968140602111816,-8.088836669921875
1772811961058380500,1.996380615234375,-8.575325012207031,-6.876051425933838,-7.226528167724609
1772811961068081200,2.0060810546875,-8.131311416625977,-6.716009140014648,-6.582211494445801
1772811961077781800,2.01578173828125,-7.682705879211426,-6.4434075355529785,-6.184841156005859
1772811961087482400,2.025482421875,-7.2664995193481445,-6.219949245452881,-5.966609001159668
1772811961097183000,2.035182861328125,-6.823636054992676,-6.0838942527771,-5.788071155548096
1772811961106883600,2.044883544921875,-6.5109968185424805,-5.93385648727417,-5.662734031677246
1772811961116584200,2.054584228515625,-6.284940242767334,-5.78346061706543,-5.59605598449707
1772811961126284800,2.064284912109375,-6.0510993003845215,-5.699939727783203,-5.504643440246582
1772811961135985400,2.0739853515625,-5.870428562164307,-5.717809677124023,-5.338881969451904
1772811961145686000,2.08368603515625,-5.6133809089660645,-5.780778884887695,-5.181224346160889
1772811961155386600,2.09338671875,-5.463403224945068,-5.808208465576172,-4.999870300292969
1772811961165087200,2.103087158203125,-5.516578674316406,-5.863645553588867,-4.778745651245117
1772811961174787800,2.112787841796875,-5.3724751472473145,-6.022724151611328,-4.613040924072266
1772811961184488400,2.122488525390625,-5.071994781494141,-6.1196088790893555,-4.494641304016113
1772811961194189000,2.13218896484375,-4.831683158874512,-6.089415073394775,-4.434889316558838
1772811961203889700,2.1418896484375,-4.696451187133789,-6.073826789855957,-4.390398979187012
1772811961213590300,2.15159033203125,-4.633545398712158,-6.135544300079346,-4.3450775146484375
1772811961223291000,2.161290771484375,-4.600626468658447,-6.230852127075195,-4.116541862487793
1772811961232991500,2.170991455078125,-4.453188419342041,-6.309714317321777,-3.6805942058563232
1772811961242692000,2.180692138671875,-4.242997646331787,-6.329992294311523,-3.365598201751709
1772811961252392700,2.190392822265625,-4.144310474395752,-6.157992839813232,-3.1707632541656494
1772811961262093300,2.20009326171875,-4.095385551452637,-5.956839561462402,-3.102306365966797
1772811961271794000,2.2097939453125,-4.175255298614502,-5.896538257598877,-2.887505531311035
1772811961281494500,2.21949462890625,-4.129449844360352,-5.8208746910095215,-2.585184097290039
1772811961291195100,2.229195068359375,-3.8562357425689697,-5.546311855316162,-2.0518226623535156
1772811961300895700,2.238895751953125,-3.4931132793426514,-4.99167537689209,-1.562859058380127
1772811961310596400,2.248596435546875,-2.828655958175659,-3.7867355346679688,-1.3867299556732178
1772811961320297000,2.258296875,-2.258300304412842,-2.005919933319092,-1.1115283966064453
1772811961329997600,2.26799755859375,-1.6510992050170898,-0.35736608505249023,-0.16490697860717773
1772811961339698200,2.2776982421875,-0.07398843765258789,0.710233211517334,1.2844295501708984
1772811961349398800,2.287398681640625,3.02945613861084,2.0975804328918457,2.744081497192383
1772811961359099400,2.297099365234375,6.296072006225586,4.857151031494141,3.977968692779541
1772811961368799700,2.3067998046875,9.247713088989258,5.888381004333496,7.688730716705322
1772811961378500600,2.31650048828125,11.923513412475586,3.0014729499816895,13.076031684875488
1772811961388201200,2.326201171875,14.322649002075195,2.9776439666748047,15.734378814697266
1772811961397901800,2.33590185546875,17.16904067993164,5.6653289794921875,17.215322494506836
1772811961407602400,2.3456025390625,17.924781799316406,5.749011993408203,19.609094619750977
1772811961417302800,2.355302734375,16.484413146972656,4.049206256866455,20.7465877532959
1772811961427003400,2.36500341796875,15.328298568725586,3.2213263511657715,18.537189483642578
1772811961436704300,2.374704345703125,14.294452667236328,4.421574592590332,13.268560409545898
1772811961446404900,2.38440478515625,13.015409469604492,6.452023506164551,7.876162528991699
1772811961456105500,2.39410546875,11.246070861816406,7.886550426483154,4.451046943664551
1772811961465805800,2.403805908203125,9.566169738769531,8.16102123260498,2.853733539581299
1772811961475506400,2.41350634765625,7.683156490325928,7.863769054412842,1.863795280456543
1772811961485207000,2.42320703125,5.127771377563477,7.552809715270996,0.9112691879272461
1772811961494908000,2.432907958984375,2.382223129272461,7.103278636932373,0.3436594009399414
1772811961504608500,2.4426083984375,0.08511590957641602,6.398876667022705,0.019048690795898438
1772811961514308900,2.452308837890625,-1.815711498260498,5.522416114807129,-0.2969961166381836
1772811961524009500,2.462009521484375,-3.2139499187469482,4.63641357421875,-0.7051315307617188
1772811961533710000,2.4717099609375,-4.088369369506836,3.7521891593933105,-1.2761273384094238
1772811961543410700,2.48141064453125,-4.781227111816406,2.8876190185546875,-2.0632948875427246
1772811961553111300,2.491111328125,-5.212500095367432,2.020264148712158,-3.0166611671447754
1772811961562812000,2.50081201171875,-5.599661350250244,0.9040255546569824,-4.094000816345215
1772811961572512500,2.510512451171875,-5.700778484344482,0.33440446853637695,-4.938193321228027
1772811961582213000,2.520213134765625,-5.633570671081543,-0.09133672714233398,-5.918733596801758
1772811961591913700,2.529913818359375,-5.768106460571289,-0.9094552993774414,-6.709990978240967
1772811961601614300,2.5396142578125,-5.754725456237793,-1.6536016464233398,-7.153451919555664
1772811961611315000,2.54931494140625,-5.526262283325195,-2.1989994049072266,-7.45465087890625
1772811961621015600,2.559015625,-5.226284027099609,-2.5565478801727295,-7.753809928894043
1772811961630716200,2.568716064453125,-4.859923362731934,-2.878190517425537,-7.874366760253906
1772811961640416800,2.578416748046875,-4.396312713623047,-3.2627007961273193,-7.741479873657227
1772811961650117400,2.588117431640625,-3.940401792526245,-3.561121702194214,-7.545070171356201
1772811961659818000,2.59781787109375,-3.5132193565368652,-3.7919235229492188,-7.377965450286865
1772811961669518600,2.6075185546875,-2.7947583198547363,-4.006209850311279,-7.229920387268066
1772811961679219200,2.61721923828125,-2.0486345291137695,-4.154362678527832,-6.909485816955566
1772811961688919800,2.626919921875,-1.17041015625,-3.945952892303467,-6.4214863777160645
1772811961698620400,2.636620361328125,-0.14340448379516602,-3.2249653339385986,-5.965862274169922
1772811961708321000,2.646321044921875,0.5557107925415039,-1.6596145629882812,-5.506165981292725
1772811961718021600,2.656021728515625,1.1355466842651367,0.16358280181884766,-4.591758728027344
1772811961727722200,2.66572216796875,1.5440897941589355,1.2139348983764648,-2.720402240753174
1772811961737422800,2.6754228515625,1.3851454257965088,1.1200385093688965,0.17395639419555664
1772811961747123500,2.68512353515625,1.2039783000946045,0.15665102005004883,3.415294647216797
1772811961756824000,2.694823974609375,1.6520888805389404,-0.531303882598877,5.2149200439453125
1772811961766524700,2.704524658203125,2.3626270294189453,-0.8787312507629395,5.639819145202637
1772811961776225300,2.714225341796875,2.9308462142944336,-1.1822824478149414,5.40327262878418
1772811961785926000,2.72392578125,3.2796778678894043,-1.498142957687378,4.607663631439209
1772811961795626500,2.73362646484375,3.118152141571045,-1.5908937454223633,3.1625618934631348
1772811961805327000,2.7433271484375,2.6674180030822754,-1.6659750938415527,1.4662446975708008
1772811961815076000,2.753076171875,2.1067981719970703,-1.8593754768371582,-0.09082174301147461
1772811961824728300,2.762728271484375,1.6767644882202148,-2.2463488578796387,-1.2576680183410645
1772811961834429000,2.772428955078125,1.0774517059326172,-2.6423513889312744,-1.9858641624450684
1772811961844129500,2.782129638671875,0.45874643325805664,-2.7771975994110107,-2.6057119369506836
1772811961853830100,2.791830078125,-0.1670999526977539,-2.683526039123535,-3.1435065269470215
1772811961863530500,2.801530517578125,-0.9437789916992188,-2.5174388885498047,-3.3886914253234863
1772811961873231000,2.811231201171875,-1.5993313789367676,-1.8757696151733398,-3.929755687713623
1772811961882932000,2.820931884765625,-1.7987236976623535,-1.254033088684082,-4.183933258056641
1772811961892632600,2.830632568359375,-2.0983500480651855,-1.177168607711792,-3.5177414417266846
1772811961902333000,2.8403330078125,-2.3855981826782227,-1.2547940015792847,-2.5975661277770996
1772811961912033500,2.850033447265625,-2.609344482421875,-1.062241554260254,-2.034245491027832
1772811961921734100,2.859734130859375,-2.834627389907837,-0.8616499900817871,-1.563673973083496
1772811961931434800,2.869434814453125,-3.1859705448150635,-0.7271373271942139,-1.2946314811706543
1772811961941135400,2.87913525390625,-3.4243218898773193,-0.5165894031524658,-1.096045970916748
1772811961950836000,2.8888359375,-3.32064151763916,-0.3009350299835205,-0.7713971138000488
1772811961960536600,2.89853662109375,-3.096198797225952,-0.031076908111572266,-0.4097862243652344
1772811961970237200,2.9082373046875,-2.708101272583008,0.01143646240234375,0.11900186538696289
1772811961979937800,2.917937744140625,-2.2350783348083496,0.02334308624267578,0.7974772453308105
1772811961989638400,2.927638427734375,-1.5094451904296875,0.20581603050231934,1.651944637298584
1772811961999339000,2.937339111328125,-0.5655608177185059,-0.17499399185180664,3.2122249603271484
1772811962009039600,2.94703955078125,1.3891282081604004,1.616105556488037,4.2159318923950195
1772811962018740200,2.956740234375,3.576815605163574,3.083397150039673,5.476141452789307
1772811962028440800,2.96644091796875,5.884177207946777,3.583693265914917,7.560629844665527
1772811962038141400,2.976141357421875,7.7189435958862305,3.7098076343536377,10.301263809204102
1772811962047842000,2.985842041015625,9.888733863830566,3.6874303817749023,12.995877265930176
1772811962057542700,2.995542724609375,11.950664520263672,3.5961813926696777,15.915016174316406
1772811962067243300,3.0052431640625,13.338238716125488,3.2605972290039062,18.510635375976562
1772811962076944000,3.01494384765625,14.146449089050293,2.852555751800537,20.107831954956055
1772811962086644500,3.02464453125,13.891220092773438,2.7645583152770996,20.07218360900879
1772811962096345000,3.034344970703125,13.693501472473145,2.924879789352417,18.616073608398438
1772811962106045700,3.044045654296875,13.445231437683105,3.4093124866485596,16.492755889892578
1772811962115746300,3.053746337890625,12.788908004760742,4.042372703552246,14.20666790008545
1772811962125447000,3.063447021484375,11.95376968383789,4.66246223449707,12.359626770019531
1772811962135147500,3.0731474609375,11.237547874450684,5.1590576171875,11.081167221069336
1772811962144848100,3.08284814453125,10.55057430267334,5.79343843460083,10.013306617736816
1772811962154548700,3.092548828125,9.496994018554688,5.886598587036133,9.23195743560791
1772811962164249300,3.102249267578125,8.302993774414062,5.177626132965088,8.813652038574219
1772811962173950000,3.111949951171875,7.093435764312744,4.212533950805664,7.934806823730469
1772811962183650600,3.121650634765625,5.32327938079834,2.8679776191711426,6.336200714111328
1772811962193351200,3.13135107421875,3.276784896850586,1.4433956146240234,4.25950813293457
1772811962203051500,3.141051513671875,1.2567138671875,-0.10483169555664062,1.823354721069336
1772811962212752400,3.15075244140625,-0.6400554180145264,-1.7660670280456543,-0.8312516212463379
1772811962222453000,3.160452880859375,-2.2864322662353516,-3.2001330852508545,-3.090153217315674
1772811962232153300,3.1701533203125,-3.6154086589813232,-4.141912460327148,-4.28866720199585
1772811962241854000,3.17985400390625,-4.314583778381348,-5.309882164001465,-5.693536758422852
1772811962251554600,3.189554443359375,-5.049808502197266,-7.02170467376709,-7.186199188232422
1772811962261255200,3.199255126953125,-6.286099433898926,-8.6810302734375,-8.069171905517578
1772811962270955800,3.208955810546875,-7.569850444793701,-9.869897842407227,-8.54301643371582
1772811962280656400,3.218656494140625,-8.105292320251465,-10.58881950378418,-9.201753616333008
1772811962290357000,3.22835693359375,-8.02977466583252,-10.88982105255127,-10.196471214294434
1772811962300057600,3.2380576171875,-7.617995262145996,-10.865177154541016,-11.054401397705078
1772811962309758200,3.24775830078125,-6.946344375610352,-10.740579605102539,-11.826112747192383
1772811962319458800,3.257458740234375,-6.378388404846191,-10.4602632522583,-12.592056274414062
1772811962329159400,3.267159423828125,-5.653399467468262,-10.115073204040527,-12.878215789794922
1772811962338860000,3.276860107421875,-4.97341775894165,-9.69179916381836,-12.830439567565918
1772811962348560600,3.286560546875,-4.511594772338867,-9.382311820983887,-12.301197052001953
1772811962358261200,3.29626123046875,-4.40214204788208,-9.327675819396973,-11.295562744140625
1772811962367961900,3.3059619140625,-4.174714088439941,-9.231603622436523,-10.180309295654297
1772811962377662500,3.315662353515625,-3.860905408859253,-9.054495811462402,-9.37173080444336
1772811962387363000,3.325363037109375,-3.5413217544555664,-8.740551948547363,-8.608232498168945
1772811962397063700,3.335063720703125,-3.5246386528015137,-8.477503776550293,-7.842039108276367
1772811962406764300,3.344764404296875,-3.4169015884399414,-8.494085311889648,-7.124433517456055
1772811962416465000,3.35446484375,-3.3035929203033447,-8.608838081359863,-6.415956497192383
1772811962426165500,3.36416552734375,-3.3347697257995605,-8.587944030761719,-5.903141021728516
1772811962435866000,3.3738662109375,-3.4145660400390625,-8.444498062133789,-5.455981254577637
1772811962445566700,3.383566650390625,-3.4667937755584717,-8.21153736114502,-5.114195346832275
1772811962455267300,3.393267333984375,-3.6050479412078857,-8.144953727722168,-4.800213813781738
1772811962464967700,3.4029677734375,-3.8424925804138184,-8.169189453125,-4.485774993896484
1772811962474668300,3.412668212890625,-4.050539970397949,-8.166224479675293,-4.328083515167236
1772811962484369200,3.422369140625,-4.082251071929932,-8.106746673583984,-4.285363674163818
1772811962494069500,3.432069580078125,-3.8929686546325684,-7.907515048980713,-4.2472734451293945
1772811962503770000,3.44177001953125,-3.4055943489074707,-7.535250663757324,-3.904332399368286
1772811962513470700,3.451470703125,-2.5087132453918457,-6.932346820831299,-3.2664661407470703
1772811962523171300,3.46117138671875,-1.7446887493133545,-5.865432262420654,-2.5934219360351562
1772811962532872000,3.470871826171875,-1.3459250926971436,-4.502429962158203,-1.991788387298584
1772811962542572500,3.480572509765625,-0.6688516139984131,-2.548980236053467,-1.1030373573303223
1772811962552273200,3.490273193359375,0.2867159843444824,-0.12373828887939453,0.124786376953125
1772811962561973800,3.499973876953125,2.045891284942627,2.46952486038208,2.199906349182129
1772811962571674400,3.50967431640625,4.641689300537109,5.55992317199707,5.214127063751221
1772811962581375000,3.519375,7.4818830490112305,8.53603744506836,8.468875885009766
1772811962591075600,3.52907568359375,9.949621200561523,10.88309383392334,11.961187362670898
1772811962600776200,3.538776123046875,11.664220809936523,11.389829635620117,16.016637802124023
1772811962610476800,3.548476806640625,11.419256210327148,11.138839721679688,19.81826400756836
1772811962620177400,3.558177490234375,11.148905754089355,13.343820571899414,21.262487411499023
1772811962629878000,3.5678779296875,11.649086952209473,15.259973526000977,22.22566032409668
1772811962639578600,3.57757861328125,11.067899703979492,13.862832069396973,23.12261962890625
1772811962649279200,3.587279296875,11.157207489013672,11.834760665893555,21.082439422607422
1772811962658979800,3.596979736328125,12.921436309814453,11.091324806213379,16.048770904541016
1772811962668680400,3.606680419921875,14.53704833984375,10.57301139831543,10.821220397949219
1772811962678381000,3.616381103515625,14.300558090209961,9.552705764770508,7.190502166748047
1772811962688081700,3.62608154296875,12.773929595947266,8.517563819885254,5.089728355407715
1772811962697782300,3.6357822265625,10.319206237792969,7.355562686920166,3.711045742034912
1772811962707483000,3.64548291015625,7.1733293533325195,5.581218242645264,2.7971444129943848
1772811962717183500,3.65518359375,3.2837610244750977,3.9853243827819824,1.7555675506591797
1772811962726884000,3.664884033203125,-0.4980888366699219,2.890700340270996,0.2853555679321289
1772811962736584400,3.67458447265625,-3.119774341583252,1.4847311973571777,-2.01871395111084
1772811962746285000,3.68428515625,-4.153744220733643,-1.2423501014709473,-3.1833386421203613
1772811962755985700,3.693985595703125,-5.412053108215332,-0.8174824714660645,-5.580819129943848
1772811962765686300,3.703686279296875,-5.712271690368652,-2.495154857635498,-7.97189998626709
1772811962775387000,3.713386962890625,-6.762150764465332,-4.760544776916504,-9.266807556152344
1772811962785087500,3.72308740234375,-7.030852317810059,-6.441538333892822,-10.048233032226562
1772811962794788000,3.7327880859375,-6.524815559387207,-6.965114593505859,-10.720369338989258
1772811962804488700,3.74248876953125,-5.71716833114624,-7.470501899719238,-10.757488250732422
1772811962814189300,3.752189208984375,-4.604406356811523,-7.0333333015441895,-10.735664367675781
1772811962823890000,3.761889892578125,-3.5390660762786865,-6.819236755371094,-10.443702697753906
1772811962833590500,3.771590576171875,-3.4271092414855957,-7.363761901855469,-9.606870651245117
1772811962843291100,3.781291015625,-3.4284372329711914,-7.900200843811035,-8.90021800994873
1772811962852991700,3.79099169921875,-3.3660809993743896,-8.273887634277344,-8.284594535827637
1772811962862692400,3.8006923828125,-3.001154661178589,-7.865714073181152,-8.186232566833496
1772811962872393000,3.81039306640625,-2.9493086338043213,-7.434195041656494,-8.352710723876953
1772811962882093600,3.820093505859375,-3.15743350982666,-7.205773830413818,-8.359198570251465
1772811962891794200,3.829794189453125,-3.208690643310547,-7.070708274841309,-8.11142635345459
1772811962901494800,3.839494873046875,-3.060781717300415,-6.748216152191162,-7.788425922393799
1772811962911195400,3.8491953125,-2.926877737045288,-6.370286464691162,-7.5079240798950195
1772811962920896000,3.85889599609375,-3.1456093788146973,-5.926305770874023,-7.171442985534668
1772811962930596600,3.8685966796875,-3.2298948764801025,-5.557147026062012,-6.59633207321167
1772811962940297200,3.878297119140625,-2.9146151542663574,-5.164803504943848,-6.05430793762207
1772811962949997600,3.88799755859375,-2.5612683296203613,-4.683361053466797,-5.6076812744140625
1772811962959698200,3.8976982421875,-2.028674364089966,-4.335126876831055,-5.19422721862793
1772811962969399000,3.90739892578125,-1.4046330451965332,-3.9476616382598877,-5.039910316467285
1772811962979099400,3.917099365234375,-1.3673733472824097,-3.5443520545959473,-4.7969512939453125
1772811962988800000,3.926800048828125,-1.4940838813781738,-3.5028367042541504,-4.479782581329346
1772811962998500600,3.93650048828125,-1.5047074556350708,-3.5664854049682617,-4.066983222961426
1772811963008201200,3.946201171875,-2.146497964859009,-3.2337393760681152,-3.50830340385437
1772811963017901800,3.95590185546875,-2.454622745513916,-2.604097366333008,-2.848810911178589
1772811963027602400,3.9656025390625,-2.3265762329101562,-1.8985867500305176,-2.2817001342773438
1772811963037303000,3.975302978515625,-2.2716317176818848,-0.7347660064697266,-1.6823763847351074
1772811963047003600,3.985003662109375,-1.5423738956451416,1.0292506217956543,-0.6998796463012695
1772811963056704300,3.994704345703125,-0.2578773498535156,2.8679518699645996,0.2630429267883301
1772811963066404900,4.00440478515625,1.541609764099121,4.865485668182373,2.0831966400146484
1772811963076105500,4.01410546875,5.228527069091797,7.457050323486328,5.551425457000732
1772811963085806000,4.02380615234375,9.505916595458984,10.132887840270996,10.716594696044922
1772811963095506700,4.033506591796875,13.283766746520996,11.506948471069336,17.541528701782227
1772811963105207300,4.043207275390625,14.870615005493164,10.016403198242188,24.343250274658203
1772811963114908000,4.052907958984375,15.367711067199707,8.760581970214844,28.213977813720703
1772811963124608500,4.0626083984375,17.038545608520508,10.015111923217773,28.970170974731445
1772811963134309000,4.07230908203125,16.99794578552246,10.575218200683594,27.76822280883789
1772811963144009700,4.082009765625,15.766356468200684,9.764464378356934,25.09378433227539
1772811963153710300,4.09171044921875,15.666150093078613,9.530241966247559,21.13323211669922
1772811963163410700,4.10141064453125,15.428400039672852,9.216028213500977,17.448820114135742
1772811963173111600,4.111111572265625,14.423154830932617,8.352310180664062,14.634064674377441
1772811963182812000,4.12081201171875,13.094381332397461,8.143956184387207,12.737849235534668
1772811963192512500,4.130512451171875,11.105961799621582,7.93582010269165,11.521294593811035
1772811963202213000,4.140213134765625,7.794119834899902,6.577971458435059,10.790813446044922
1772811963211913700,4.149913818359375,3.6032557487487793,4.94355583190918,8.80879020690918
1772811963221614300,4.1596142578125,0.84230637550354,3.1195507049560547,5.531642436981201
1772811963231315000,4.16931494140625,-1.1442112922668457,1.3034071922302246,2.0350546836853027
1772811963241015600,4.179015625,-2.8876543045043945,0.09138822555541992,-1.435586929321289
1772811963250716200,4.188716064453125,-3.561319589614868,-1.1997733116149902,-4.217994213104248
1772811963260416800,4.198416748046875,-3.912884473800659,-2.5610647201538086,-6.1184515953063965
1772811963270117400,4.208117431640625,-4.4877166748046875,-3.7810709476470947,-7.402634143829346
1772811963279818000,4.21781787109375,-4.967749118804932,-4.758888244628906,-8.309990882873535
1772811963289518600,4.2275185546875,-5.383514404296875,-5.8510966300964355,-8.840044975280762
1772811963299219200,4.23721923828125,-5.543591499328613,-6.802393436431885,-9.148370742797852
1772811963308919800,4.246919921875,-5.2149529457092285,-7.541903972625732,-9.207887649536133
1772811963318620400,4.256620361328125,-4.432292938232422,-8.018289566040039,-9.65103530883789
1772811963328321000,4.266321044921875,-3.9154772758483887,-7.606579780578613,-10.242308616638184
1772811963338021600,4.276021728515625,-4.345785140991211,-7.530479431152344,-10.694229125976562
1772811963347722200,4.28572216796875,-4.025240421295166,-7.647012710571289,-11.264677047729492
1772811963357422800,4.2954228515625,-4.193586349487305,-7.503520488739014,-11.40957260131836
1772811963367123200,4.305123291015625,-4.469076156616211,-7.000445365905762,-11.199056625366211
1772811963376823800,4.31482373046875,-4.450867652893066,-6.410740375518799,-10.558691024780273
1772811963386524400,4.3245244140625,-4.860478401184082,-6.107185363769531,-9.600497245788574
1772811963396225000,4.33422509765625,-4.935688018798828,-6.202733993530273,-8.401123046875
1772811963405925600,4.343925537109375,-4.6854352951049805,-6.256864070892334,-7.217467308044434
1772811963415626200,4.353626220703125,-4.579360485076904,-6.346761703491211,-6.255932331085205
1772811963425326800,4.363326904296875,-4.383065223693848,-6.295544147491455,-5.723899841308594
1772811963435027500,4.37302734375,-4.126694679260254,-6.17002534866333,-5.555679798126221
1772811963444728000,4.38272802734375,-3.712620735168457,-6.092505931854248,-5.837602615356445
1772811963454428700,4.3924287109375,-3.31575608253479,-5.954470157623291,-6.437427043914795
1772811963464129300,4.40212939453125,-3.0340938568115234,-5.711311340332031,-7.029465198516846
1772811963473830000,4.411829833984375,-2.8166544437408447,-5.480501174926758,-7.383708953857422
1772811963483530500,4.421530517578125,-2.6726529598236084,-5.436458587646484,-7.441555023193359
1772811963493231000,4.431231201171875,-2.6103975772857666,-5.505446910858154,-7.339017391204834
1772811963502931700,4.440931640625,-2.4456992149353027,-5.472175121307373,-6.921542644500732
1772811963512632300,4.45063232421875,-2.210308313369751,-5.444619178771973,-6.317146301269531
1772811963522333000,4.4603330078125,-2.3064022064208984,-5.520023822784424,-5.635256290435791
1772811963532033300,4.470033203125,-2.3387091159820557,-5.654045581817627,-5.044830799102783
1772811963541734100,4.479734130859375,-2.3918251991271973,-5.697100639343262,-4.592868328094482
1772811963551434500,4.4894345703125,-2.4519131183624268,-5.57448673248291,-4.233277797698975
1772811963561135000,4.499135009765625,-2.3998780250549316,-5.379181385040283,-3.8386945724487305
1772811963570835700,4.508835693359375,-2.387453556060791,-5.27393102645874,-3.4736504554748535
1772811963580536300,4.518536376953125,-2.5533370971679688,-5.103835105895996,-3.1600849628448486
1772811963590237000,4.52823681640625,-2.6814513206481934,-4.916709899902344,-2.9445204734802246
1772811963599937500,4.5379375,-2.6823346614837646,-4.70433235168457,-2.516735553741455
1772811963609638100,4.54763818359375,-2.4409313201904297,-4.269497871398926,-1.7973899841308594
1772811963619338800,4.5573388671875,-1.7325220108032227,-3.38554048538208,-0.8350558280944824
1772811963629039400,4.567039306640625,-0.7761225700378418,-2.1087539196014404,0.15709447860717773
1772811963638740000,4.576739990234375,0.8274574279785156,-0.27747678756713867,1.2222838401794434
1772811963648440600,4.586440673828125,2.8550214767456055,2.1389007568359375,2.580233097076416
1772811963658141200,4.59614111328125,4.866065979003906,5.131448268890381,5.334442615509033
1772811963667841800,4.605841796875,6.89493465423584,7.778649806976318,8.855814933776855
1772811963677542400,4.61554248046875,9.09160041809082,9.483075141906738,12.443281173706055
1772811963687243000,4.625242919921875,12.083045959472656,10.59200668334961,15.85201644897461
1772811963696943600,4.634943603515625,14.608614921569824,10.764080047607422,18.791419982910156
1772811963706644200,4.644644287109375,15.397357940673828,12.374926567077637,21.151527404785156
1772811963716344800,4.6543447265625,14.809675216674805,14.644485473632812,22.828107833862305
1772811963726045200,4.664045166015625,12.910016059875488,14.67538833618164,24.081787109375
1772811963735745800,4.673745849609375,10.786664962768555,13.02552604675293,23.753253936767578
1772811963745446400,4.6834462890625,10.769014358520508,11.712615966796875,20.996593475341797
1772811963755147000,4.69314697265625,12.266072273254395,10.436468124389648,16.115636825561523
1772811963764847600,4.70284765625,13.647256851196289,9.482017517089844,10.601122856140137
1772811963774548200,4.71254833984375,13.57330322265625,9.501968383789062,6.065568447113037
1772811963784248800,4.722248779296875,12.561595916748047,8.78809928894043,3.691066265106201
1772811963793949400,4.731949462890625,10.513784408569336,6.827929973602295,2.5660595893859863
1772811963803650000,4.741650146484375,7.48586893081665,4.384263515472412,1.8805232048034668
1772811963813350700,4.7513505859375,4.3394036293029785,2.122300624847412,0.8572039604187012
1772811963823051300,4.76105126953125,1.4713757038116455,0.5263514518737793,-0.8788352012634277
1772811963832751900,4.770751953125,-0.61720871925354,-0.48635005950927734,-2.9469404220581055
1772811963842452500,4.780452392578125,-2.287677764892578,-1.2186603546142578,-5.229752540588379
1772811963852153000,4.790153076171875,-3.388946056365967,-2.055093288421631,-6.6673583984375
1772811963861853700,4.799853759765625,-3.708359718322754,-2.8364343643188477,-7.414204120635986
1772811963871554300,4.80955419921875,-4.169346809387207,-3.753613233566284,-8.368298530578613
1772811963881254700,4.819254638671875,-4.1591877937316895,-4.7623677253723145,-8.823095321655273
1772811963890955300,4.828955322265625,-3.9846954345703125,-5.592683792114258,-8.986859321594238
1772811963900655900,4.83865576171875,-4.017735481262207,-6.197290420532227,-9.29755973815918
1772811963910356500,4.8483564453125,-3.9266088008880615,-6.593423366546631,-9.566303253173828
1772811963920057000,4.85805712890625,-3.689882278442383,-6.903709411621094,-9.814428329467773
1772811963929757700,4.8677578125,-3.6187429428100586,-7.112496376037598,-9.857522010803223
1772811963939458300,4.877458251953125,-3.5750269889831543,-7.213802337646484,-9.716979026794434
1772811963949159000,4.887158935546875,-3.5788278579711914,-7.245852470397949,-9.45461368560791
1772811963958859500,4.896859619140625,-3.49910569190979,-7.11831521987915,-9.180252075195312
1772811963968560000,4.90656005859375,-3.5170700550079346,-6.9045586585998535,-8.854366302490234
1772811963978260700,4.9162607421875,-3.5793094635009766,-6.692175388336182,-8.496320724487305
1772811963987961300,4.92596142578125,-3.545290231704712,-6.497259616851807,-8.046526908874512
1772811963997662000,4.935661865234375,-3.6237759590148926,-6.3847455978393555,-7.653318405151367
1772811964007362600,4.945362548828125,-3.6986324787139893,-6.3463006019592285,-7.301158905029297
1772811964017063200,4.955063232421875,-3.6092209815979004,-6.323513507843018,-7.039157390594482
1772811964026763800,4.964763671875,-3.4309473037719727,-6.22646427154541,-6.946001052856445
1772811964036464000,4.974464111328125,-3.314574956893921,-6.117725849151611,-6.881943702697754
1772811964046164700,4.984164794921875,-3.1698360443115234,-6.047732830047607,-6.835024833679199
1772811964055865300,4.993865234375,-3.0706241130828857,-6.037361145019531,-6.748599529266357
1772811964065566000,5.00356591796875,-2.928637742996216,-6.0521039962768555,-6.6274003982543945
1772811964075266600,5.0132666015625,-2.8716444969177246,-6.156684398651123,-6.497725009918213
1772811964084967200,5.02296728515625,-2.785616397857666,-6.296300888061523,-6.307829856872559
1772811964094667800,5.032667724609375,-2.689302682876587,-6.3521833419799805,-6.077051162719727
1772811964104368400,5.042368408203125,-2.619929075241089,-6.328182220458984,-5.7304887771606445
1772811964114069000,5.052069091796875,-2.6217641830444336,-6.2716264724731445,-5.266866683959961
1772811964123769600,5.06176953125,-2.722940683364868,-6.251657485961914,-4.785990238189697
1772811964133470200,5.07147021484375,-2.63568115234375,-6.174718856811523,-4.235857009887695
1772811964143170800,5.0811708984375,-2.5714550018310547,-5.96289587020874,-3.3308444023132324
1772811964152871400,5.090871337890625,-2.513077735900879,-5.637372970581055,-2.029026985168457
1772811964162572000,5.100572021484375,-2.273871421813965,-5.040737152099609,-0.9976305961608887
1772811964172272600,5.110272705078125,-1.840651273727417,-4.048276424407959,-0.44225645065307617
1772811964181973000,5.119972900390625,-1.4363796710968018,-2.2930784225463867,0.027738571166992188
1772811964191673600,5.129673583984375,-0.9333441257476807,0.39638233184814453,0.9216427803039551
1772811964201374500,5.13937451171875,0.28032517433166504,3.5410165786743164,2.4767537117004395
1772811964211074800,5.14907470703125,3.269487142562866,7.040748596191406,5.925120830535889
1772811964220775400,5.158775390625,8.305512428283691,9.598428726196289,11.476449966430664
1772811964230476000,5.16847607421875,13.856481552124023,10.642898559570312,19.4165096282959
1772811964240176600,5.1781767578125,14.414101600646973,8.21330451965332,28.959129333496094
1772811964249877200,5.187877197265625,15.341803550720215,8.398445129394531,34.160099029541016
1772811964259577900,5.197577880859375,14.706403732299805,10.34703254699707,35.04127502441406
1772811964269278500,5.207278564453125,13.039143562316895,12.131195068359375,31.402435302734375
1772811964278979000,5.21697900390625,12.643689155578613,14.017304420471191,24.985563278198242
1772811964288679700,5.2266796875,13.874166488647461,14.338687896728516,19.529470443725586
1772811964298380300,5.23638037109375,15.315027236938477,13.695844650268555,16.863033294677734
1772811964308081000,5.246080810546875,15.300920486450195,12.178911209106445,16.496532440185547
1772811964317781500,5.255781494140625,14.048795700073242,10.644844055175781,16.2010440826416
1772811964327482000,5.265482177734375,11.65036678314209,8.9830961227417,15.44444465637207
1772811964337182500,5.275182373046875,8.897239685058594,7.217614650726318,13.671836853027344
1772811964346883000,5.284883056640625,6.337648868560791,5.691224098205566,10.876835823059082
1772811964356583700,5.294583740234375,4.704468727111816,4.804661750793457,7.430285453796387
1772811964366284300,5.3042841796875,3.4842047691345215,4.311849117279053,3.4952001571655273
1772811964375985000,5.31398486328125,2.8955094814300537,3.875892162322998,-0.4867405891418457
1772811964385685500,5.323685546875,2.162122964859009,3.2541699409484863,-3.456291675567627
1772811964395386000,5.33338623046875,1.523336410522461,2.1111416816711426,-5.051083564758301
1772811964405086700,5.343086669921875,0.6583690643310547,0.5091228485107422,-5.4693708419799805
1772811964414787300,5.352787353515625,-0.17498111724853516,-1.2694473266601562,-5.494292736053467
1772811964424488000,5.362488037109375,-0.9245624542236328,-2.8090662956237793,-5.667661190032959
1772811964434188500,5.3721884765625,-1.737133502960205,-4.051703929901123,-6.000649452209473
1772811964443889200,5.38188916015625,-2.794208288192749,-5.451600551605225,-6.482056617736816
1772811964453589800,5.39158984375,-3.6256911754608154,-6.660465240478516,-7.3369598388671875
1772811964463290400,5.401290283203125,-4.7496490478515625,-7.502396583557129,-8.169763565063477
1772811964472991000,5.410990966796875,-5.68732213973999,-8.362432479858398,-8.765512466430664
1772811964482691300,5.42069140625,-6.672975540161133,-9.401260375976562,-9.810133934020996
1772811964492392000,5.430391845703125,-7.181097984313965,-9.48370361328125,-10.966020584106445
1772811964502092500,5.440092529296875,-7.384632587432861,-9.060779571533203,-11.82252311706543
1772811964511793200,5.449793212890625,-7.2502946853637695,-8.741008758544922,-12.136395454406738
1772811964521493800,5.45949365234375,-7.192811489105225,-8.568532943725586,-11.82160472869873
1772811964531194400,5.4691943359375,-7.139184951782227,-8.456903457641602,-11.132524490356445
1772811964540895000,5.47889501953125,-6.707710266113281,-8.237882614135742,-10.301301002502441
1772811964550595600,5.488595703125,-6.267557144165039,-8.071325302124023,-9.540682792663574
1772811964560296200,5.498296142578125,-5.751279830932617,-7.969035625457764,-8.794551849365234
1772811964569996800,5.507996826171875,-5.244750022888184,-7.783628463745117,-8.188314437866211
1772811964579697400,5.517697509765625,-4.813371658325195,-7.562405586242676,-7.714743137359619
1772811964589398000,5.52739794921875,-4.35463809967041,-7.435327529907227,-7.326423645019531
1772811964599098600,5.5370986328125,-3.937263250350952,-7.493100643157959,-7.016086578369141
1772811964608799200,5.54679931640625,-3.628419876098633,-7.555523872375488,-6.735337734222412
1772811964618499600,5.55649951171875,-3.365018367767334,-7.676279544830322,-6.4889349937438965
1772811964628200200,5.5662001953125,-3.0239017009735107,-7.779693126678467,-6.275635242462158
1772811964637900800,5.57590087890625,-2.7116219997406006,-7.798644542694092,-5.9891438484191895
1772811964647601400,5.585601318359375,-2.2153687477111816,-7.815600395202637,-5.667294502258301
1772811964657302000,5.595302001953125,-2.0160579681396484,-7.787994384765625,-5.068490505218506
1772811964667002600,5.605002685546875,-2.1023805141448975,-7.938222885131836,-4.49733304977417
1772811964676703200,5.614703125,-1.7060956954956055,-8.072175979614258,-4.087348937988281
1772811964686403800,5.62440380859375,-1.7481240034103394,-8.009472846984863,-3.6764612197875977
1772811964696104400,5.6341044921875,-1.8172688484191895,-7.906041145324707,-3.318061590194702
1772811964705805000,5.64380517578125,-1.9316363334655762,-7.690058708190918,-2.978832483291626
1772811964715505700,5.653505615234375,-2.1279678344726562,-7.306483268737793,-2.8525750637054443
1772811964725206300,5.663206298828125,-2.424736738204956,-6.809604167938232,-2.728682518005371
1772811964734906600,5.67290673828125,-2.5279359817504883,-6.303184509277344,-2.6760611534118652
1772811964744607500,5.682607421875,-2.555391788482666,-5.704065322875977,-2.6558480262756348
1772811964754307800,5.692307861328125,-2.5060713291168213,-5.033653259277344,-2.400580883026123
1772811964764008400,5.702008544921875,-2.2442498207092285,-4.30025053024292,-1.5700998306274414
1772811964773709000,5.711708984375,-1.6789274215698242,-3.428036689758301,-0.7103910446166992
1772811964783409700,5.72140966796875,-0.8920183181762695,-2.210796356201172,0.2483682632446289
1772811964793110300,5.7311103515625,0.2694699764251709,-0.40942907333374023,2.264039993286133
1772811964802811000,5.740810791015625,2.088593006134033,2.3235321044921875,5.1689982414245605
1772811964812511500,5.750511474609375,4.411974906921387,6.186948776245117,8.278818130493164
1772811964822212000,5.760212158203125,6.687704563140869,10.462230682373047,11.005268096923828
1772811964831912700,5.76991259765625,8.90716552734375,14.050793647766113,13.369016647338867
1772811964841613300,5.77961328125,10.964580535888672,15.228097915649414,15.432380676269531
1772811964851314000,5.78931396484375,12.667411804199219,14.81377124786377,16.99989128112793
1772811964861014300,5.79901416015625,15.066340446472168,17.540884017944336,17.904621124267578
1772811964870715000,5.80871484375,16.874147415161133,19.44106101989746,20.335403442382812
1772811964880415500,5.81841552734375,16.343244552612305,17.21028709411621,22.636844635009766
1772811964890116000,5.8281162109375,16.619915008544922,14.549619674682617,21.76030158996582
1772811964899816700,5.837816650390625,17.621967315673828,12.854569435119629,18.17059898376465
1772811964909517300,5.847517333984375,17.558910369873047,11.0205659866333,12.985909461975098
1772811964919218000,5.857218017578125,16.86066436767578,10.041152000427246,7.839197158813477
1772811964928918500,5.86691845703125,14.63308334350586,9.269630432128906,4.657290935516357
1772811964938619100,5.876619140625,10.713569641113281,7.822122097015381,2.939136505126953
1772811964948319700,5.88631982421875,6.5299272537231445,6.014987945556641,1.5946884155273438
1772811964958020400,5.896020263671875,2.7675442695617676,2.8630409240722656,0.5806922912597656
1772811964967721000,5.905720947265625,-0.6133308410644531,0.1655120849609375,-1.1628751754760742
1772811964977421600,5.915421630859375,-2.860912322998047,-1.4806699752807617,-3.4085164070129395
1772811964987122200,5.9251220703125,-3.5884697437286377,-2.645418167114258,-4.603970050811768
1772811964996822800,5.93482275390625,-5.013462066650391,-4.761667251586914,-5.9579033851623535
1772811965006523100,5.944523193359375,-6.4018635749816895,-6.889852046966553,-7.24951171875
1772811965016223700,5.9542236328125,-7.219247817993164,-8.1387300491333,-8.545162200927734
1772811965025924400,5.96392431640625,-7.7680511474609375,-8.71750259399414,-9.619997024536133
1772811965035625000,5.973625,-7.929817199707031,-9.049897193908691,-10.000526428222656
1772811965045325600,5.98332568359375,-7.203076362609863,-9.57221508026123,-9.654887199401855
1772811965055026200,5.993026123046875,-6.201959609985352,-9.939407348632812,-9.225112915039062
1772811965064726800,6.002726806640625,-5.090782165527344,-10.09337043762207,-8.743640899658203
1772811965074427400,6.012427490234375,-3.980426788330078,-10.243621826171875,-8.088768005371094
1772811965084128000,6.0221279296875,-3.4534950256347656,-10.348133087158203,-7.446817398071289
1772811965093828600,6.03182861328125,-3.099940299987793,-10.121339797973633,-6.933415412902832
1772811965103529200,6.041529296875,-2.601560592651367,-9.583337783813477,-6.695329666137695
1772811965113229800,6.051229736328125,-2.156266450881958,-8.839105606079102,-6.475717067718506
1772811965122930200,6.06093017578125,-1.919480562210083,-8.043159484863281,-6.207189559936523
1772811965132630800,6.070630859375,-1.829978346824646,-7.463594436645508,-5.812282085418701
1772811965142331400,6.080331298828125,-1.7257328033447266,-7.286396026611328,-5.354042053222656
1772811965152032000,6.090031982421875,-1.8713651895523071,-7.2774200439453125,-4.8914947509765625
1772811965161732600,6.099732666015625,-2.1563854217529297,-7.222837924957275,-4.651390075683594
1772811965171433200,6.10943310546875,-2.321582794189453,-7.043842315673828,-4.572673797607422
1772811965181133800,6.1191337890625,-2.4232420921325684,-6.826037406921387,-4.697965621948242
1772811965190834400,6.12883447265625,-2.469796895980835,-6.671753406524658,-4.84832763671875
1772811965200535000,6.13853515625,-2.5222887992858887,-6.595160007476807,-4.907134056091309
1772811965210235600,6.148235595703125,-2.486185073852539,-6.550326824188232,-4.940868854522705
1772811965219936300,6.157936279296875,-2.523733139038086,-6.528779983520508,-4.89685583114624
1772811965229636900,6.167636962890625,-2.597766876220703,-6.4841790199279785,-4.735112190246582
1772811965239337200,6.177337158203125,-2.5886805057525635,-6.4794745445251465,-4.494564056396484
1772811965249037800,6.187037841796875,-2.6713833808898926,-6.483851432800293,-4.175455093383789
1772811965258738400,6.196738525390625,-2.810844898223877,-6.543684482574463,-3.8153505325317383
1772811965268439000,6.20643896484375,-2.820420265197754,-6.608246803283691,-3.670535087585449
1772811965278139600,6.2161396484375,-2.7650694847106934,-6.573606967926025,-3.596160888671875
1772811965287840300,6.22584033203125,-2.7904443740844727,-6.345484733581543,-3.464376449584961
1772811965297540900,6.235540771484375,-2.7446634769439697,-5.826478481292725,-3.2222909927368164
1772811965307241500,6.245241455078125,-2.679974317550659,-4.775259017944336,-2.7550206184387207
1772811965316942000,6.254942138671875,-2.2431271076202393,-3.242990493774414,-2.0266880989074707
1772811965326642700,6.264642578125,-1.4647870063781738,-0.73968505859375,-0.8691329956054688
1772811965336343300,6.27434326171875,0.6565349102020264,3.3962035179138184,1.1381969451904297
1772811965346043600,6.284043701171875,5.4813618659973145,8.617731094360352,6.168406009674072
1772811965355744300,6.293744140625,11.049429893493652,14.046205520629883,13.984563827514648
1772811965365444900,6.30344482421875,13.476814270019531,16.174274444580078,23.94632339477539
1772811965375145500,6.3131455078125,13.08651351928711,14.573308944702148,33.65596008300781
1772811965384846000,6.32284619140625,12.806587219238281,15.586990356445312,38.56243133544922
1772811965394546700,6.332546630859375,14.295999526977539,17.966110229492188,38.1943244934082
1772811965404247300,6.342247314453125,14.121895790100098,17.772912979125977,34.44181442260742
1772811965413948000,6.351947998046875,12.303499221801758,14.997964859008789,28.368118286132812
1772811965423648500,6.3616484375,12.574278831481934,12.731306076049805,20.948190689086914
1772811965433349000,6.37134912109375,13.174403190612793,12.276779174804688,14.352226257324219
1772811965443049700,6.3810498046875,12.420215606689453,11.575477600097656,9.813899040222168
1772811965452750300,6.390750244140625,10.523775100708008,10.108278274536133,6.988007545471191
1772811965462450700,6.40045068359375,8.02409553527832,8.949039459228516,4.447175979614258
1772811965472151600,6.410151611328125,5.798803329467773,7.809695243835449,1.357407569885254
1772811965481852000,6.419851806640625,4.50992488861084,6.793838024139404,-2.4158358573913574
1772811965491552500,6.429552490234375,3.707103729248047,5.9759521484375,-5.9541826248168945
1772811965501253000,6.439253173828125,2.675117254257202,4.608278274536133,-8.17147445678711
1772811965510953700,6.44895361328125,1.454723596572876,2.3434062004089355,-9.496614456176758
1772811965520654300,6.458654296875,0.462465763092041,0.2837667465209961,-9.898309707641602
1772811965530355000,6.46835498046875,-0.6822123527526855,-1.1323256492614746,-9.383081436157227
1772811965540055600,6.4780556640625,-1.6156208515167236,-2.4858145713806152,-8.457693099975586
1772811965549756200,6.487756103515625,-2.228332757949829,-3.6837496757507324,-7.484737396240234
1772811965559456800,6.497456787109375,-2.52282977104187,-4.519234657287598,-6.71718692779541
1772811965569157400,6.507157470703125,-2.372682571411133,-5.382286071777344,-6.302569389343262
1772811965578857700,6.516857666015625,-2.439561605453491,-6.175922393798828,-5.848522186279297
1772811965588558300,6.526558349609375,-2.7243258953094482,-6.784218788146973,-5.651965141296387
1772811965598259000,6.536259033203125,-2.7818679809570312,-7.333657741546631,-5.840498924255371
1772811965607959600,6.54595947265625,-2.7648322582244873,-7.747198104858398,-6.294412136077881
1772811965617660200,6.55566015625,-2.686363697052002,-7.89061164855957,-6.765665531158447
1772811965627360800,6.56536083984375,-2.6818418502807617,-7.693574905395508,-7.1290106773376465
1772811965637061400,6.575061279296875,-2.8327462673187256,-7.372052192687988,-7.236775875091553
1772811965646762000,6.584761962890625,-3.08963680267334,-7.274219512939453,-7.184906959533691
1772811965656462600,6.594462646484375,-3.218082904815674,-7.3474249839782715,-7.058648586273193
1772811965666163200,6.6041630859375,-3.0827813148498535,-7.317780017852783,-6.83542013168335
1772811965675863800,6.61386376953125,-2.797161102294922,-7.224485874176025,-6.545638084411621
1772811965685564400,6.623564453125,-2.676511526107788,-7.145395278930664,-6.150003433227539
1772811965695264800,6.6332646484375,-2.43540096282959,-7.158173084259033,-5.963284492492676
1772811965704965400,6.64296533203125,-1.9887185096740723,-7.073623180389404,-5.865922451019287
1772811965714666000,6.652666015625,-1.599780559539795,-6.836426258087158,-5.857614517211914
1772811965724366600,6.66236669921875,-1.3191325664520264,-6.585443496704102,-5.85189151763916
1772811965734067200,6.672067138671875,-1.2518999576568604,-6.40524435043335,-5.672362327575684
1772811965743767800,6.681767822265625,-1.3123531341552734,-6.303587913513184,-5.461742401123047
1772811965753468400,6.691468505859375,-1.2967844009399414,-6.170884132385254,-5.314253807067871
1772811965763169000,6.7011689453125,-1.3298488855361938,-6.007009506225586,-5.195321559906006
1772811965772869600,6.71086962890625,-1.4880836009979248,-5.899211883544922,-5.070400238037109
1772811965782570200,6.7205703125,-1.5491211414337158,-5.927502155303955,-5.001059055328369
1772811965792270600,6.7302705078125,-1.5398720502853394,-5.932024002075195,-5.124223709106445
1772811965801971200,6.73997119140625,-1.5201702117919922,-5.778972625732422,-5.256821155548096
1772811965811671800,6.749671875,-1.3336944580078125,-5.464313983917236,-5.197177410125732
1772811965821372400,6.759372314453125,-1.1409919261932373,-5.189856052398682,-5.129554748535156
1772811965831073000,6.769072998046875,-0.805065393447876,-4.882874011993408,-5.086021423339844
1772811965840773600,6.778773681640625,-0.6033233404159546,-4.4062700271606445,-4.6225972175598145
1772811965850474200,6.78847412109375,-0.3883225917816162,-3.9352121353149414,-3.987948417663574
1772811965860174800,6.7981748046875,-0.12393403053283691,-3.379063367843628,-2.9221038818359375
1772811965869875500,6.80787548828125,0.03909039497375488,-2.380324363708496,-1.7950677871704102
1772811965879576000,6.817576171875,0.30916500091552734,-1.031604290008545,-0.7098994255065918
1772811965889276400,6.8272763671875,0.7768285274505615,0.6943402290344238,0.6061577796936035
1772811965898977300,6.836977294921875,1.4587526321411133,2.9634485244750977,2.3853049278259277
1772811965908677600,6.846677734375,2.9869658946990967,5.609502792358398,4.504297733306885
1772811965918378200,6.856378173828125,4.657910346984863,7.896879196166992,6.914010524749756
1772811965928078800,6.866078857421875,6.137697696685791,9.077109336853027,10.188371658325195
1772811965937779500,6.875779541015625,7.719385623931885,9.38979721069336,12.560779571533203
1772811965947480000,6.88547998046875,9.454115867614746,8.686034202575684,14.518235206604004
1772811965957180700,6.8951806640625,10.055102348327637,7.940293788909912,16.89666748046875
1772811965966881300,6.90488134765625,9.919426918029785,9.721919059753418,18.617948532104492
1772811965976582000,6.914581787109375,10.217061996459961,11.957154273986816,19.716991424560547
1772811965986282500,6.924282470703125,9.004976272583008,11.530464172363281,20.394323348999023
1772811965995983000,6.933983154296875,6.638237953186035,9.301997184753418,20.214256286621094
1772811966005683500,6.943683349609375,5.890839576721191,7.7629289627075195,18.175678253173828
1772811966015384000,6.953384033203125,6.650970458984375,7.901455402374268,14.12208366394043
1772811966025084700,6.963084716796875,7.174880027770996,8.123098373413086,9.29787540435791
1772811966034785300,6.972785400390625,8.24051284790039,8.146271705627441,5.416302680969238
1772811966044486000,6.98248583984375,8.420379638671875,8.24713134765625,3.130568027496338
1772811966054186500,6.9921865234375,7.012508869171143,7.316676616668701,2.713348865509033
1772811966063887000,7.00188720703125,4.51801061630249,5.371097564697266,2.878976345062256
1772811966073587700,7.011587646484375,2.240313768386841,3.456009864807129,2.319153308868408
1772811966083288300,7.021288330078125,0.5667448043823242,1.8086776733398438,0.7908334732055664
1772811966092989000,7.030989013671875,-0.8453445434570312,0.43459129333496094,-1.1868433952331543
1772811966102689300,7.040689208984375,-2.2982285022735596,-0.9308276176452637,-3.3523917198181152
1772811966112390000,7.050389892578125,-3.454261302947998,-2.5929412841796875,-5.419874668121338
1772811966122090500,7.060090576171875,-4.306151390075684,-4.307214736938477,-7.040622234344482
1772811966131791000,7.069791015625,-5.094298362731934,-5.817392349243164,-8.444805145263672
1772811966141491700,7.07949169921875,-5.544244766235352,-7.04052734375,-9.697356224060059
1772811966151192300,7.0891923828125,-5.742951393127441,-8.030904769897461,-10.580343246459961
1772811966160893000,7.098892822265625,-5.848583221435547,-8.777241706848145,-10.85154914855957
1772811966170593500,7.108593505859375,-5.855552673339844,-9.402359962463379,-10.642953872680664
1772811966180294100,7.118294189453125,-5.627328872680664,-9.9747314453125,-10.319879531860352
1772811966189994800,7.127994873046875,-5.402453422546387,-10.267793655395508,-9.966558456420898
1772811966199695000,7.137695068359375,-5.252057075500488,-10.213809967041016,-9.545795440673828
1772811966209395700,7.147395751953125,-5.18497371673584,-9.936602592468262,-9.093223571777344
1772811966219096300,7.157096435546875,-4.896448135375977,-9.554351806640625,-8.751960754394531
1772811966228797000,7.166796875,-4.623582363128662,-9.136999130249023,-8.369661331176758
1772811966238497500,7.17649755859375,-4.4901556968688965,-8.745306968688965,-7.989109516143799
1772811966248198100,7.1861982421875,-4.345658302307129,-8.393245697021484,-7.502588748931885
1772811966257898800,7.195898681640625,-4.267061233520508,-8.02871036529541,-6.929482936859131
1772811966267599400,7.205599365234375,-4.255056381225586,-7.671208381652832,-6.464776992797852
1772811966277300000,7.215300048828125,-4.1881561279296875,-7.305629730224609,-5.909430980682373
1772811966287000600,7.22500048828125,-4.070424556732178,-7.059743404388428,-5.447604179382324
1772811966296701200,7.234701171875,-4.131993293762207,-6.899113655090332,-5.030457973480225
1772811966306401500,7.244401611328125,-4.171102523803711,-6.768929958343506,-4.6845855712890625
1772811966316102100,7.25410205078125,-4.071489334106445,-6.605650901794434,-4.524355888366699
1772811966325802800,7.263802734375,-3.843653678894043,-6.479118824005127,-4.368340969085693
1772811966335503400,7.27350341796875,-3.653080701828003,-6.463722229003906,-4.2747955322265625
1772811966345204000,7.283203857421875,-3.534661293029785,-6.524938583374023,-4.232704162597656
1772811966354904600,7.292904541015625,-3.362398624420166,-6.518276691436768,-3.8679051399230957
1772811966364605200,7.302605224609375,-3.2162179946899414,-6.44383430480957,-3.2421929836273193
1772811966374305800,7.312305908203125,-2.8899760246276855,-6.13527250289917,-2.892629623413086
1772811966384006100,7.322006103515625,-2.361543655395508,-5.160367965698242,-2.0171680450439453
1772811966393706800,7.331706787109375,-1.9298813343048096,-3.8011550903320312,-1.0574564933776855
1772811966403407400,7.341407470703125,-1.1705589294433594,-2.1701273918151855,-0.4201970100402832
1772811966413108000,7.35110791015625,0.473635196685791,-0.1537790298461914,0.48125362396240234
1772811966422808600,7.36080859375,2.130990743637085,2.3146400451660156,2.264008045196533
1772811966432509200,7.37050927734375,4.025242805480957,6.015122890472412,4.8863019943237305
1772811966442209800,7.380209716796875,6.12076473236084,10.095786094665527,8.809826850891113
1772811966451910400,7.389910400390625,7.033421516418457,12.242755889892578,14.144481658935547
1772811966461611000,7.399611083984375,6.48050594329834,12.719247817993164,20.030433654785156
1772811966471311600,7.4093115234375,6.937739849090576,13.123046875,23.541706085205078
1772811966481012200,7.41901220703125,9.081626892089844,13.577593803405762,24.59735870361328
1772811966490712600,7.428712646484375,11.141754150390625,13.301111221313477,24.974279403686523
1772811966500413200,7.4384130859375,12.28917121887207,12.498597145080566,23.856769561767578
1772811966510113800,7.44811376953125,13.368282318115234,11.91144847869873,21.453731536865234
1772811966519814400,7.457814453125,14.53438949584961,11.44465446472168,18.346084594726562
1772811966529515000,7.467514892578125,15.152698516845703,11.66894817352295,15.578532218933105
1772811966539215600,7.477215576171875,14.723681449890137,11.928840637207031,14.503536224365234
1772811966548916200,7.486916259765625,12.787269592285156,10.97535514831543,14.493362426757812
1772811966558616800,7.496616943359375,10.426862716674805,9.646417617797852,14.40224838256836
1772811966568317400,7.5063173828125,8.291946411132812,8.844051361083984,13.591726303100586
1772811966578018000,7.51601806640625,6.151983737945557,8.259866714477539,11.976646423339844
1772811966587718400,7.525718505859375,4.094464302062988,7.569998264312744,9.607000350952148
1772811966597419000,7.5354189453125,2.4844799041748047,6.817824363708496,6.626996040344238
1772811966607119600,7.54511962890625,1.4511101245880127,5.734582901000977,3.537940502166748
1772811966616820200,7.5548203125,0.49968552589416504,4.471811771392822,0.6043615341186523
1772811966626520800,7.564520751953125,-0.520338773727417,3.023068428039551,-1.992940902709961
1772811966636221400,7.574221435546875,-1.054727554321289,1.7079973220825195,-3.3469467163085938
1772811966645922000,7.583922119140625,-1.722909927368164,0.14515399932861328,-4.209734916687012
1772811966655622700,7.59362255859375,-2.6759209632873535,-1.7121796607971191,-4.72174072265625
1772811966665323300,7.6033232421875,-3.746091842651367,-3.4721603393554688,-5.158594131469727
1772811966675024000,7.61302392578125,-4.579665184020996,-4.84652042388916,-5.934284210205078
1772811966684724200,7.62272412109375,-5.090561866760254,-5.7263007164001465,-6.941680908203125
1772811966694424800,7.6324248046875,-5.705618381500244,-6.236030101776123,-7.815530776977539
1772811966704125400,7.64212548828125,-6.4906535148620605,-6.624255657196045,-8.594999313354492
1772811966713826000,7.651825927734375,-7.239978790283203,-6.965943813323975,-9.14047622680664
1772811966723526700,7.661526611328125,-7.776674270629883,-7.2401347160339355,-9.374100685119629
1772811966733227300,7.671227294921875,-8.111956596374512,-7.392579078674316,-9.274319648742676
1772811966742928000,7.680927978515625,-8.152098655700684,-7.195525169372559,-8.899150848388672
1772811966752628500,7.69062841796875,-8.089899063110352,-6.687734127044678,-8.1395902633667
1772811966762329000,7.7003291015625,-7.975607872009277,-6.173811912536621,-7.24238395690918
1772811966772029400,7.710029541015625,-7.499398708343506,-5.579405784606934,-6.177003383636475
1772811966781730000,7.71972998046875,-6.980995178222656,-4.805819988250732,-5.108410835266113
1772811966791430700,7.7294306640625,-6.510471343994141,-4.075185775756836,-4.187641143798828
1772811966801131300,7.73913134765625,-5.9114909172058105,-3.6385562419891357,-3.4612910747528076
1772811966810832000,7.748831787109375,-5.260141849517822,-3.451733112335205,-2.930685520172119
1772811966820532500,7.758532470703125,-4.74298095703125,-3.41591739654541,-2.5477590560913086
1772811966830233000,7.768233154296875,-4.369561195373535,-3.389059066772461,-2.3878512382507324
1772811966839933700,7.77793359375,-4.146920204162598,-3.5403332710266113,-2.2656846046447754
1772811966849634300,7.78763427734375,-3.7948009967803955,-3.82273530960083,-2.1533203125
1772811966859334700,7.797334716796875,-3.7125754356384277,-4.056889533996582,-2.0893001556396484
1772811966869035300,7.80703515625,-3.916520118713379,-4.287301063537598,-1.9920227527618408
1772811966878736000,7.81673583984375,-3.9918909072875977,-4.604138374328613,-1.8856184482574463
1772811966888436500,7.8264365234375,-4.222847938537598,-4.915661334991455,-1.7029809951782227
1772811966898137000,7.83613720703125,-4.399882793426514,-5.138545036315918,-1.4589152336120605
1772811966907837700,7.845837646484375,-4.402291774749756,-5.389476776123047,-1.2292416095733643
1772811966917538300,7.855538330078125,-4.545001983642578,-5.375120639801025,-0.9243922233581543
1772811966927239000,7.865239013671875,-4.896383285522461,-5.213448524475098,-0.531258225440979
1772811966936939500,7.874939453125,-5.0685625076293945,-5.329136371612549,-0.26233088970184326
1772811966946640000,7.884639892578125,-5.337243556976318,-5.24117374420166,-0.04234814643859863
1772811966956340500,7.894340576171875,-5.47929573059082,-4.846800804138184,-0.018485307693481445
1772811966966041000,7.904041015625,-5.274496078491211,-4.074694633483887,-0.060351014137268066
1772811966975741700,7.91374169921875,-4.455624580383301,-2.8431153297424316,0.19597041606903076
1772811966985442300,7.9234423828125,-3.0123610496520996,-0.6990323066711426,0.21084904670715332
1772811966995143000,7.933142822265625,-1.0937976837158203,2.44590425491333,0.1677188277244568
1772811967004843500,7.942843505859375,1.6568622589111328,5.840053558349609,1.0918400287628174
1772811967014544100,7.952544189453125,4.677008152008057,8.387822151184082,4.160253524780273
1772811967024244500,7.962244384765625,7.440238952636719,9.204803466796875,9.294310569763184
1772811967033945000,7.971945068359375,9.753173828125,8.288742065429688,14.371390342712402
1772811967043645700,7.981645751953125,10.414682388305664,6.484090805053711,16.600637435913086
1772811967053346300,7.99134619140625,8.041820526123047,5.9633893966674805,15.169285774230957
1772811967063047000,8.001046875,5.391363143920898,6.236184120178223,8.86329174041748
1772811967072747500,8.01074755859375,5.050602912902832,6.788155555725098,0.5194405913352966
1772811967082448100,8.0204482421875,5.834804534912109,7.3277788162231445,-7.292702674865723
1772811967092148700,8.030148681640625,9.230401992797852,7.302335739135742,-12.001911163330078
1772811967101849300,8.039849365234375,13.104707717895508,5.841822624206543,-11.409515380859375
1772811967111550000,8.049550048828126,17.928844451904297,3.5610790252685547,-7.310638904571533
1772811967121250600,8.05925048828125,22.084665298461914,0.6504664421081543,-3.0075674057006836
1772811967130951000,8.068950927734376,22.785625457763672,-0.5619421005249023,-0.1659824252128601
1772811967140651500,8.078651611328125,19.767776489257812,-0.5930666923522949,-1.0050157308578491
1772811967150352100,8.08835205078125,14.224845886230469,1.0349907875061035,-3.4260714054107666
1772811967160052700,8.098052734375,8.147102355957031,2.094971179962158,-5.281928539276123
1772811967169753300,8.10775341796875,2.015652656555176,2.6826343536376953,-5.667485237121582
1772811967179454000,8.117453857421875,-2.2081124782562256,2.5992584228515625,-4.523220539093018
1772811967189154600,8.127154541015624,-4.358631134033203,1.546462059020996,-2.6034929752349854
1772811967198855200,8.136855224609375,-4.8856000900268555,-0.5304536819458008,-0.5782463550567627
1772811967208555500,8.146555419921874,-4.5104289054870605,-3.099350929260254,0.15392355620861053
1772811967218256100,8.156256103515625,-4.232980728149414,-4.443322658538818,-0.45976170897483826
1772811967227956700,8.165956787109375,-4.255377769470215,-5.625625133514404,-1.4272496700286865
1772811967237657300,8.1756572265625,-4.760208606719971,-7.025407314300537,-2.216980457305908
1772811967247358000,8.18535791015625,-5.736973285675049,-8.213897705078125,-2.817318916320801
1772811967257058600,8.19505859375,-6.375110149383545,-10.313262939453125,-3.4764225482940674
1772811967266759200,8.20475927734375,-7.111966133117676,-11.737447738647461,-4.171044826507568
1772811967276459800,8.214459716796876,-7.824657917022705,-12.274663925170898,-4.589327335357666
1772811967286160100,8.22416015625,-8.42818832397461,-12.498945236206055,-4.5261125564575195
1772811967295860700,8.23386083984375,-9.272768020629883,-12.762088775634766,-3.662090539932251
1772811967305561300,8.243561279296875,-10.120790481567383,-13.25829792022705,-2.737757444381714
1772811967315262000,8.253261962890624,-10.456743240356445,-13.522420883178711,-2.2535924911499023
1772811967324962600,8.262962646484375,-10.226409912109375,-13.275815963745117,-2.216723680496216
1772811967334663200,8.2726630859375,-9.230445861816406,-12.710283279418945,-2.117514133453369
1772811967344363800,8.28236376953125,-8.394867897033691,-12.000934600830078,-1.775789499282837
1772811967354064400,8.292064453125,-7.773027420043945,-11.356700897216797,-1.710943579673767
1772811967363764700,8.3017646484375,-7.81615686416626,-10.504825592041016,-1.055221676826477
1772811967373465300,8.31146533203125,-7.830577850341797,-10.263189315795898,-0.08429843932390213
1772811967383166000,8.321166015625,-7.700876712799072,-9.995644569396973,0.916236400604248
1772811967392866600,8.330866455078125,-7.59710693359375,-9.57771110534668,1.6400424242019653
1772811967402567200,8.340567138671876,-7.002742767333984,-9.153244018554688,1.694708228111267
1772811967412267800,8.350267822265625,-6.274442672729492,-8.313907623291016,1.3366799354553223
1772811967421968400,8.359968505859374,-5.528024673461914,-7.7292799949646,1.0771619081497192
1772811967431669000,8.3696689453125,-5.171924114227295,-7.464000225067139,0.9438902735710144
1772811967441369600,8.37936962890625,-5.23293399810791,-6.880773544311523,0.6916419863700867
1772811967451070000,8.389070068359375,-5.305712699890137,-5.788718223571777,0.2739875018596649
1772811967460770600,8.3987705078125,-5.096631050109863,-4.539037227630615,-0.2217862755060196
1772811967470471200,8.40847119140625,-4.604707717895508,-3.2026166915893555,-0.7429447770118713
1772811967480171800,8.418171875,-3.715273857116699,-1.7039079666137695,-0.8799663782119751
1772811967489872400,8.427872314453126,-1.975337028503418,-0.3615097999572754,-0.7023036479949951
1772811967499573000,8.437572998046875,0.6640505790710449,1.3022780418395996,-0.2959688901901245
1772811967509273600,8.447273681640626,3.6973776817321777,3.596553325653076,0.181812584400177
1772811967518974200,8.45697412109375,7.045998573303223,6.081059455871582,0.8586406111717224
1772811967528674800,8.4666748046875,10.454492568969727,7.860093593597412,2.012589693069458
1772811967538375200,8.476375244140625,15.268653869628906,8.852413177490234,3.9111814498901367
1772811967548075800,8.48607568359375,21.4541015625,9.385072708129883,6.495813369750977
1772811967557776400,8.4957763671875,27.075145721435547,10.170934677124023,9.662283897399902
1772811967567477000,8.50547705078125,31.571918487548828,13.765192985534668,10.340975761413574
1772811967577177600,8.515177490234375,33.815673828125,18.36608123779297,10.397377967834473
1772811967586878200,8.524878173828125,34.691627502441406,19.842897415161133,10.063623428344727
1772811967596578800,8.534578857421875,32.622161865234375,21.043657302856445,8.899970054626465
1772811967606279400,8.544279541015625,30.37318992614746,21.514245986938477,7.281483173370361
1772811967615980000,8.55397998046875,26.985017776489258,19.46116828918457,5.399598121643066
1772811967625680400,8.563680419921875,22.973831176757812,17.531932830810547,2.9386115074157715
1772811967635381000,8.573381103515626,18.687650680541992,15.54277229309082,-0.17900462448596954
1772811967645081600,8.58308154296875,14.029565811157227,12.867691040039062,-3.126145124435425
1772811967654782200,8.5927822265625,8.994239807128906,9.526647567749023,-4.937749862670898
1772811967664482800,8.60248291015625,3.367114543914795,5.734170913696289,-5.49595308303833
1772811967674183400,8.612183349609374,-1.52687406539917,1.316549301147461,-4.443012237548828
1772811967683884000,8.621884033203125,-6.5308966636657715,-3.145662784576416,-2.5187573432922363
1772811967693584400,8.63158447265625,-9.027948379516602,-7.798578262329102,-1.0581265687942505
1772811967703285000,8.641284912109375,-9.413885116577148,-10.020057678222656,-1.253360629081726
1772811967712985600,8.650985595703125,-9.183088302612305,-9.675241470336914,-2.4856271743774414
1772811967722686200,8.660686279296876,-8.468430519104004,-10.880754470825195,-3.4149553775787354
1772811967732386800,8.67038671875,-8.115987777709961,-12.036935806274414,-3.93319034576416
1772811967742087400,8.68008740234375,-8.649983406066895,-12.723047256469727,-3.6823666095733643
1772811967751788000,8.6897880859375,-9.770700454711914,-12.854310035705566,-2.9723103046417236
1772811967761488600,8.699488525390626,-10.499748229980469,-12.493968963623047,-1.8639074563980103
1772811967771189200,8.709189208984375,-9.947799682617188,-12.120254516601562,-0.726042628288269
1772811967780889600,8.7188896484375,-7.902834892272949,-11.038087844848633,-0.007003426551818848
1772811967790590200,8.728590087890625,-5.244452476501465,-9.939249038696289,1.0097261667251587
1772811967800290800,8.738290771484374,-4.627045154571533,-9.304733276367188,2.8751211166381836
1772811967809991400,8.747991455078125,-4.6203813552856445,-8.866104125976562,4.278302192687988
1772811967819692000,8.757692138671874,-5.116034030914307,-7.546749114990234,4.54438591003418
1772811967829392600,8.767392578125,-6.478209018707275,-5.670032024383545,4.22709321975708
1772811967839093200,8.77709326171875,-7.957365989685059,-4.486939430236816,3.792661666870117
1772811967848793600,8.786793701171876,-8.79146671295166,-3.68320894241333,3.784796714782715
1772811967858494200,8.796494140625,-9.813894271850586,-3.6358301639556885,3.478220224380493
1772811967868194800,8.80619482421875,-10.489961624145508,-3.715737819671631,2.9023234844207764
1772811967877895400,8.8158955078125,-10.89775562286377,-3.362771511077881,2.0319838523864746
1772811967887596000,8.825595947265626,-10.395303726196289,-3.0004892349243164,1.2868196964263916
1772811967897296600,8.835296630859375,-9.274484634399414,-3.2487995624542236,0.8301376700401306
1772811967906997200,8.844997314453124,-8.153011322021484,-3.4836554527282715,0.5900297164916992
1772811967916697900,8.85469775390625,-6.860888957977295,-3.5905332565307617,0.29141443967819214
1772811967926398500,8.8643984375,-5.778393745422363,-3.4519739151000977,0.3914144039154053
1772811967936098800,8.874098876953125,-5.310307502746582,-4.060935020446777,0.40256035327911377
1772811967945799400,8.88379931640625,-4.504218578338623,-3.761601448059082,0.905534565448761
1772811967955500000,8.8935,-4.610950469970703,-2.502397060394287,1.8894879817962646
1772811967965200600,8.90320068359375,-4.272146224975586,-1.3606648445129395,3.285163402557373
1772811967974901200,8.9129013671875,-3.8614258766174316,-0.07230472564697266,4.178532600402832
1772811967984601900,8.922601806640625,-3.8960046768188477,-2.0251989364624023,3.542405605316162
1772811967994302500,8.932302490234376,-4.108587741851807,-4.5107574462890625,2.9252524375915527
1772811968004002800,8.9420029296875,-4.915945529937744,-4.604331970214844,1.565885305404663
1772811968013703400,8.951703369140626,-4.100157737731934,-4.7684526443481445,0.3009021282196045
1772811968023404000,8.961404052734375,-3.5587642192840576,-5.711772918701172,-0.1002575159072876
1772811968033104600,8.971104736328124,-3.3397154808044434,-6.012441635131836,-0.3144192099571228
1772811968042805200,8.98080517578125,-4.988054275512695,-5.334801197052002,-0.2656848132610321
1772811968052505900,8.990505859375,-2.5536813735961914,-4.708235740661621,-0.8903703689575195
1772811968062206500,9.00020654296875,-2.758190155029297,-3.203413963317871,-1.0023795366287231
1772811968071907000,9.009906982421874,-2.148381233215332,-1.604722499847412,-0.7534803748130798
1772811968081607700,9.019607666015625,0.6547060012817383,1.3966660499572754,-0.4429490566253662
1772811968091308000,9.02930810546875,4.368738651275635,5.213636875152588,-0.20441102981567383
1772811968101008600,9.039008544921876,7.448458671569824,8.32359504699707,1.3330882787704468
1772811968110709200,9.048709228515625,8.774486541748047,9.913972854614258,4.83159065246582
1772811968120409900,9.058409912109376,9.41578483581543,11.968376159667969,6.129281997680664
1772811968130110500,9.0681103515625,11.262020111083984,14.7039155960083,3.4571237564086914
1772811968139811000,9.07781103515625,13.56497573852539,14.157487869262695,2.2560877799987793
1772811968149511700,9.08751171875,13.866893768310547,14.247325897216797,3.2114195823669434
1772811968159212000,9.0972119140625,13.387716293334961,13.736917495727539,5.0948262214660645
1772811968168912600,9.10691259765625,13.853391647338867,12.565702438354492,5.732916831970215
1772811968178613200,9.11661328125,14.386144638061523,12.514205932617188,4.521639823913574
1772811968188313900,9.12631396484375,14.130084991455078,11.317523956298828,4.402734756469727
1772811968198014500,9.136014404296875,12.931172370910645,9.433920860290527,4.513115882873535
1772811968207715000,9.145715087890625,10.777496337890625,7.793129920959473,3.9252524375915527
1772811968217415700,9.155415771484375,7.827690124511719,6.385537147521973,2.1899924278259277
1772811968227116300,9.1651162109375,5.539748191833496,7.468991279602051,-0.7325636148452759
1772811968236816600,9.174816650390625,3.55059814453125,6.3117451667785645,-0.7988353967666626
1772811968246517200,9.184517333984376,0.510955810546875,2.6490302085876465,1.1600291728973389
1772811968256217900,9.1942177734375,-1.0001869201660156,-0.03583717346191406,0.716661810874939
1772811968265918500,9.20391845703125,-2.3683462142944336,-1.5440082550048828,-1.2815018892288208
1772811968275619000,9.213619140625,-3.683161735534668,-2.8163928985595703,-3.33573055267334
1772811968285319700,9.223319580078124,-4.912750244140625,-3.7529349327087402,-4.683972358703613
1772811968295020300,9.233020263671875,-4.897983074188232,-4.338399887084961,-5.6085710525512695
1772811968304720600,9.242720703125,-3.939161777496338,-5.1734232902526855,-6.024980545043945
1772811968314421200,9.252421142578125,-3.230922222137451,-5.956686496734619,-5.691555500030518
1772811968324121900,9.262121826171875,-3.1235222816467285,-6.516297340393066,-5.044887542724609
1772811968333822500,9.271822509765625,-3.578300952911377,-6.729382514953613,-4.416748046875
1772811968343523000,9.281523193359375,-4.7469482421875,-6.707582473754883,-3.7936553955078125
1772811968353223700,9.2912236328125,-6.29653787612915,-6.271100044250488,-3.436155319213867
1772811968362924300,9.30092431640625,-8.036233901977539,-5.701573848724365,-3.0830326080322266
1772811968372625000,9.310625,-9.358102798461914,-5.299968242645264,-2.4308457374572754
1772811968382325500,9.320325439453125,-10.559004783630371,-5.128815650939941,-1.667405366897583
1772811968392025900,9.33002587890625,-11.486143112182617,-5.2364301681518555,-1.06092369556427
1772811968401726500,9.3397265625,-11.939943313598633,-5.3136982917785645,-0.8828517198562622
1772811968411427000,9.349427001953124,-11.764888763427734,-5.26775598526001,-0.9994745850563049
1772811968421127700,9.359127685546875,-11.195486068725586,-5.250000476837158,-1.2061681747436523
1772811968430828300,9.368828369140624,-10.1851224899292,-5.311274528503418,-1.5548286437988281
1772811968440529000,9.37852880859375,-9.023711204528809,-5.265063762664795,-2.0037589073181152
1772811968450229500,9.3882294921875,-7.834644794464111,-5.128284931182861,-2.2249011993408203
1772811968459929900,9.397929931640626,-6.722962379455566,-5.192488193511963,-2.1968424320220947
1772811968469630500,9.40763037109375,-5.837408065795898,-5.239917278289795,-2.1312003135681152
1772811968479331000,9.4173310546875,-5.171107769012451,-5.401993751525879,-2.1333296298980713
1772811968489031700,9.42703173828125,-4.84186315536499,-5.397969722747803,-2.054072141647339
1772811968498732300,9.436732177734376,-4.838639259338379,-5.499782562255859,-1.6284581422805786
1772811968508433000,9.446432861328125,-5.140355587005615,-5.633284568786621,-1.1061346530914307
1772811968518133500,9.456133544921874,-5.261548042297363,-5.419155120849609,-1.052869200706482
1772811968527833900,9.465833740234375,-4.953664779663086,-4.93346643447876,-1.3072435855865479
1772811968537534500,9.475534423828124,-3.96341872215271,-4.191661834716797,-1.315873146057129
1772811968547235000,9.485235107421875,-2.97017240524292,-2.901554584503174,-1.3855674266815186
1772811968556935700,9.494935791015624,-1.5450897216796875,-0.8876805305480957,-1.6553118228912354
1772811968566636300,9.50463623046875,0.6769051551818848,1.8485116958618164,-2.0282185077667236
1772811968576337000,9.5143369140625,3.961350917816162,4.316845417022705,-1.7359349727630615
1772811968586037500,9.52403759765625,7.392472743988037,6.030364036560059,-0.15793377161026
1772811968595738000,9.533738037109375,10.420379638671875,7.920016288757324,2.3371472358703613
1772811968605438500,9.5434384765625,13.241514205932617,9.577807426452637,3.8204383850097656
1772811968615139000,9.55313916015625,15.635639190673828,10.594202041625977,5.0565290451049805
1772811968624839700,9.562839599609376,16.32383918762207,9.366461753845215,6.901331901550293
1772811968634540300,9.572540283203125,16.502208709716797,10.144599914550781,7.218090057373047
1772811968644241000,9.582240966796874,16.148338317871094,12.354467391967773,6.548103332519531
1772811968653941500,9.59194140625,16.063091278076172,12.061307907104492,6.442732810974121
1772811968663642000,9.60164208984375,17.080745697021484,12.12802505493164,5.940502166748047
1772811968673342500,9.611342529296875,18.252490997314453,12.31376838684082,5.6722612380981445
1772811968683043000,9.62104296875,19.04145050048828,12.021020889282227,5.78875732421875
1772811968692743700,9.63074365234375,19.739809036254883,10.841598510742188,5.152958393096924
1772811968702444300,9.6404443359375,19.078609466552734,9.868768692016602,3.896550178527832
1772811968712145000,9.650144775390626,16.880125045776367,8.968038558959961,2.0272369384765625
1772811968721845500,9.659845458984375,14.812286376953125,7.012960433959961,1.0225592851638794
1772811968731546000,9.669546142578126,12.390264511108398,5.665277481079102,0.8987698554992676
1772811968741246500,9.67924658203125,9.395776748657227,4.371777057647705,0.970832347869873
1772811968750947000,9.688947021484376,5.420686721801758,2.851933479309082,1.0852670669555664
1772811968760647700,9.698647705078125,1.7259225845336914,1.3465075492858887,0.9724907875061035
1772811968770348300,9.708348388671874,-1.7310523986816406,-0.17412996292114258,0.22981393337249756
1772811968780049000,9.718048828125,-4.425417900085449,-1.8905997276306152,-1.942091941833496
1772811968789749500,9.72774951171875,-5.521124839782715,-3.016566753387451,-1.0816739797592163
1772811968799450000,9.7374501953125,-7.229132652282715,-5.130551338195801,-1.5472947359085083
1772811968809150500,9.747150390625,-7.854729175567627,-5.079078674316406,-1.8885362148284912
1772811968818851000,9.75685107421875,-8.467750549316406,-5.9789958000183105,-2.0898027420043945
1772811968828551700,9.7665517578125,-9.60660457611084,-6.58812952041626,-1.8455615043640137
1772811968838252300,9.776252197265626,-10.37393856048584,-6.354786396026611,-1.6745994091033936
1772811968847953000,9.785952880859375,-11.035758972167969,-5.822613716125488,-1.5028198957443237
1772811968857653500,9.795653564453126,-11.762670516967773,-5.255587100982666,-1.6426258087158203
1772811968867354000,9.80535400390625,-12.461179733276367,-4.849364280700684,-1.6177725791931152
1772811968877054700,9.8150546875,-13.243297576904297,-4.215209007263184,-1.7160041332244873
1772811968886755000,9.824755126953125,-13.54825210571289,-4.322625160217285,-1.850269079208374
1772811968896455700,9.83445556640625,-13.205223083496094,-4.5450825691223145,-2.058037757873535
1772811968906156300,9.84415625,-11.768536567687988,-4.7416534423828125,-2.5467453002929688
1772811968915857000,9.85385693359375,-10.257760047912598,-5.075035572052002,-2.656230926513672
1772811968925557500,9.8635576171875,-8.612730026245117,-5.432859420776367,-2.7331132888793945
1772811968935258000,9.873258056640625,-7.006098747253418,-5.5620436668396,-2.7042856216430664
1772811968944958700,9.882958740234375,-5.446611404418945,-5.832311153411865,-2.569647789001465
1772811968954659000,9.8926591796875,-4.487700462341309,-6.024883270263672,-2.084834098815918
1772811968964359700,9.902359619140626,-4.031887531280518,-6.0168561935424805,-1.8435919284820557
1772811968974060300,9.912060302734375,-3.995492935180664,-6.023951053619385,-1.7464371919631958
1772811968983761000,9.921760986328126,-4.432925701141357,-5.841791152954102,-1.7160484790802002
1772811968993461500,9.93146142578125,-5.074162006378174,-5.465574264526367,-1.6811742782592773
1772811969003162000,9.941162109375,-5.603668689727783,-5.239409446716309,-1.4997196197509766
1772811969012862700,9.95086279296875,-6.095668315887451,-5.088515281677246,-1.492562174797058
1772811969022563000,9.96056298828125,-6.480958938598633,-4.795279502868652,-1.6867365837097168
1772811969032263700,9.970263671875,-6.860692501068115,-4.527418613433838,-1.7441011667251587
1772811969041964300,9.97996435546875,-7.197676181793213,-4.36577033996582,-1.738253116607666
1772811969051665000,9.989664794921875,-7.262030124664307,-3.9909231662750244,-1.672668695449829
1772811969061365500,9.999365478515625,-6.814987659454346,-3.5757298469543457,-1.4197195768356323
1772811969071066000,10.009066162109375,-5.927303791046143,-2.738999128341675,-1.149182677268982
1772811969080766500,10.018766357421875,-4.664938449859619,-1.555835247039795,-1.140505313873291
1772811969090467000,10.028467041015626,-3.51680064201355,-0.1335773468017578,-0.7578318119049072
1772811969100167700,10.038167724609375,-2.43892240524292,1.9548048973083496,0.2299642562866211
1772811969109868300,10.047868408203126,-1.1428990364074707,4.125519275665283,2.298912525177002
1772811969119569000,10.05756884765625,0.6138720512390137,5.502903461456299,5.1580491065979
1772811969129269500,10.06726953125,2.5025906562805176,7.198831081390381,5.863738059997559
1772811969138970000,10.07697021484375,5.104060649871826,9.617548942565918,4.059671401977539
1772811969148670500,10.08667041015625,6.427469253540039,9.139265060424805,1.4600125551223755
1772811969158371000,10.09637109375,6.123754978179932,10.0595121383667,-2.0897045135498047
1772811969168071700,10.10607177734375,5.652170181274414,7.781616687774658,-2.8700804710388184
1772811969177772300,10.115772216796875,5.3907928466796875,5.061462879180908,-1.0843814611434937
1772811969187473000,10.125472900390625,7.303401947021484,2.5296125411987305,1.348873496055603
1772811969197173500,10.135173583984376,10.760797500610352,0.662968635559082,4.146676063537598
1772811969206874000,10.1448740234375,13.962906837463379,-0.3226900100708008,5.479098320007324
1772811969216574700,10.15457470703125,15.854018211364746,-0.523174524307251,5.7903900146484375
1772811969226275000,10.164275146484375,15.370667457580566,-0.1069021224975586,4.983206748962402
1772811969235975700,10.1739755859375,12.608878135681152,0.9492931365966797,4.221435546875
1772811969245676300,10.18367626953125,8.373454093933105,2.164306163787842,3.5593314170837402
1772811969255377000,10.193376953125,4.1077117919921875,3.2167625427246094,2.3004603385925293
1772811969265077500,10.203077392578125,0.42366600036621094,4.298485279083252,0.7957435846328735
1772811969274778000,10.212778076171874,-1.5112433433532715,4.881317615509033,-0.3360116481781006
1772811969284478700,10.222478759765625,-2.5443897247314453,5.182792663574219,-0.8766168355941772
1772811969294179000,10.232178955078124,-2.541027069091797,4.843477725982666,-0.5097166299819946
1772811969303879700,10.241879638671875,-2.4139151573181152,4.640284061431885,0.1074972152709961
1772811969313580300,10.251580322265625,-2.1816530227661133,4.1080145835876465,0.6389551162719727
1772811969323281000,10.261281005859376,-2.205181121826172,3.2785067558288574,1.4917962551116943
1772811969332981500,10.2709814453125,-2.3940882682800293,2.3678183555603027,2.066159725189209
1772811969342682000,10.28068212890625,-2.8221731185913086,1.5726723670959473,2.256507396697998
1772811969352382500,10.290382568359375,-3.531907081604004,0.8393750190734863,2.0193614959716797
1772811969362083000,10.3000830078125,-3.9157910346984863,0.27579736709594727,1.3486746549606323
1772811969371783700,10.30978369140625,-4.074714660644531,-0.17742156982421875,0.4452275037765503
1772811969381484300,10.319484375,-3.952569007873535,-0.6770119667053223,-0.5447462797164917
1772811969391185000,10.329184814453125,-3.6489176750183105,-0.9396677017211914,-1.2187974452972412
1772811969400885500,10.338885498046874,-3.343425750732422,-1.2890806198120117,-1.5708870887756348
1772811969410586000,10.348586181640625,-3.189117431640625,-1.5160727500915527,-1.7475214004516602
1772811969420286500,10.358286376953124,-2.9131436347961426,-1.6093158721923828,-1.920790195465088
1772811969429987000,10.367987060546875,-2.7989468574523926,-1.5086188316345215,-1.983051061630249
1772811969439687700,10.377687744140625,-2.7927684783935547,-1.3212835788726807,-1.9549450874328613
1772811969449388300,10.38738818359375,-2.83868408203125,-0.9635148048400879,-1.9396382570266724
1772811969459089000,10.3970888671875,-2.85089111328125,-0.4039039611816406,-1.8928650617599487
1772811969468789500,10.40678955078125,-2.815272331237793,0.26825666427612305,-1.8083163499832153
1772811969478490000,10.416489990234375,-3.830122470855713,1.118159294128418,-1.0440138578414917
1772811969488190500,10.4261904296875,-3.830508232116699,2.1119890213012695,-0.49849534034729004
1772811969497891000,10.43589111328125,-3.5791473388671875,2.717069149017334,-0.04900085926055908
1772811969507591700,10.445591796875,-2.747593402862549,2.957824230194092,0.06846553087234497
1772811969517292300,10.455292236328125,-1.489851951599121,2.965057373046875,-0.043360352516174316
1772811969526993000,10.464992919921874,-0.1684885025024414,2.4071521759033203,0.16781949996948242
1772811969536693500,10.474693603515625,1.1580696105957031,1.780137538909912,0.724391520023346
1772811969546393900,10.484393798828124,2.467134475708008,0.9769368171691895,1.0583686828613281
