time,seconds_elapsed,z,y,x
1772810316089415400,0.09641552734375,0,0,0
1772810316099115500,0.106115478515625,-0.32094478607177734,0.08263444900512695,0.07819861173629761
1772810316108815400,0.1158154296875,-0.0921473503112793,0.5184941291809082,-0.027286827564239502
1772810316118515200,0.12551513671875,0.33734130859375,0.3836703300476074,-0.32219570875167847
1772810316128215000,0.135215087890625,-0.16780805587768555,-0.23144817352294922,-0.1806318759918213
1772810316137915000,0.144914794921875,-0.7634177207946777,-0.535369873046875,-0.03538393974304199
1772810316147615000,0.154614990234375,-0.942784309387207,-0.41133832931518555,-0.06914961338043213
1772810316157314800,0.164314697265625,-0.9115462303161621,-0.32037973403930664,-0.15028560161590576
1772810316167014700,0.1740146484375,-1.1610498428344727,-0.13555288314819336,-0.24401164054870605
1772810316176714500,0.183714599609375,-1.6937589645385742,0.17522144317626953,-0.42164838314056396
1772810316186414600,0.19341455078125,-1.7460198402404785,0.4213070869445801,-0.6070778369903564
1772810316196114400,0.203114501953125,-1.3559255599975586,-0.23572301864624023,-0.5031898021697998
1772810316205814300,0.212814208984375,-1.5322866439819336,-0.3781147003173828,-0.4189489483833313
1772810316215514000,0.22251416015625,-2.026327610015869,0.07663249969482422,0.120549276471138
1772810316225214000,0.2322138671875,-1.7284526824951172,0.28281068801879883,0.6915093660354614
1772810316234914000,0.2419140625,-1.9137403964996338,-0.32222700119018555,1.7309693098068237
1772810316244614000,0.25161376953125,-1.351457118988037,-1.4677734375,2.265244960784912
1772810316254313700,0.261313720703125,-0.4940218925476074,-1.8434491157531738,2.390620231628418
1772810316293113300,0.30011328125,1.6371936798095703,-2.8540139198303223,3.0534729957580566
1772810316302813200,0.309813232421875,1.5224833488464355,-2.612916946411133,3.3457894325256348
1772810316312513000,0.319512939453125,1.2075800895690918,-2.2709226608276367,2.690774917602539
1772810316322213000,0.329213134765625,0.7013845443725586,-2.229556083679199,1.6359308958053589
1772810316331913000,0.338912841796875,0.08876609802246094,-2.401247978210449,0.16906321048736572
1772810316341612800,0.34861279296875,0.014004707336425781,-1.872789740562439,-1.54423987865448
1772810316351313000,0.35831298828125,-0.23722267150878906,1.1633782386779785,-3.486677646636963
1772810316361012700,0.3680126953125,2.7833447456359863,3.6513609886169434,-3.8323731422424316
1772810316370712600,0.377712646484375,4.210677623748779,5.997763633728027,-4.279774188995361
1772810316380412400,0.387412353515625,5.158143520355225,7.017377853393555,-3.8947737216949463
1772810316390112500,0.397112548828125,5.994304180145264,6.916182041168213,-2.241302013397217
1772810316399812400,0.406812255859375,7.088561058044434,6.276632308959961,0.6476843357086182
1772810316409512200,0.41651220703125,8.268848419189453,6.0353474617004395,3.362574577331543
1772810316419212000,0.4262119140625,8.853565216064453,5.426647186279297,5.929633617401123
1772810316428911900,0.435911865234375,10.342777252197266,5.358108043670654,7.606177806854248
1772810316438612000,0.445612060546875,13.446525573730469,5.453097343444824,7.473029136657715
1772810316448311800,0.455311767578125,15.994808197021484,5.278372287750244,6.032889366149902
1772810316458011600,0.46501171875,18.17774200439453,4.931655406951904,4.392482757568359
1772810316467711500,0.47471142578125,19.379833221435547,4.209242820739746,3.668123960494995
1772810316477411600,0.48441162109375,19.760517120361328,3.4989922046661377,2.7929623126983643
1772810316487111400,0.494111328125,19.936931610107422,3.6070990562438965,1.7119405269622803
1772810316496811300,0.503811279296875,18.94805908203125,2.8155455589294434,0.17306113243103027
1772810316506511000,0.513510986328125,14.646001815795898,4.068179130554199,-0.5312936305999756
1772810316516211000,0.5232109375,11.970026969909668,4.44395637512207,-0.884617805480957
1772810316525911000,0.5329111328125,8.223763465881348,3.167750597000122,0.46502208709716797
1772810316535611000,0.54261083984375,4.299345016479492,2.575770139694214,1.8268046379089355
1772810316545310700,0.552310791015625,0.8738594055175781,3.145000696182251,1.8395428657531738
1772810316555010600,0.562010498046875,-1.863473892211914,4.104318618774414,0.6673130989074707
1772810316564710400,0.57171044921875,-3.6015405654907227,4.1503190994262695,-0.377718448638916
1772810316574410500,0.581410400390625,-5.0197954177856445,3.0195958614349365,-1.22100830078125
1772810316584110300,0.5911103515625,-6.246323585510254,1.443871259689331,-1.8316168785095215
1772810316593810200,0.60081005859375,-7.409732818603516,0.13549566268920898,-2.46349835395813
1772810316603510000,0.610510009765625,-8.284042358398438,-0.9495420455932617,-2.8647663593292236
1772810316613210000,0.620210205078125,-8.277776718139648,-2.0241189002990723,-3.0806732177734375
1772810316622910000,0.629909912109375,-8.141220092773438,-2.764495372772217,-3.430556297302246
1772810316632609800,0.63960986328125,-8.714699745178223,-3.034188747406006,-3.987867832183838
1772810316642310000,0.649309814453125,-9.334616661071777,-3.1647446155548096,-4.432396411895752
1772810316652009700,0.659009765625,-10.041292190551758,-3.318903684616089,-4.7908477783203125
1772810316661709600,0.66870947265625,-10.812944412231445,-3.413198709487915,-5.115359783172607
1772810316671409400,0.678409423828125,-11.23389720916748,-2.9735469818115234,-5.6142897605896
1772810316681109200,0.688109130859375,-11.72317886352539,-2.41536283493042,-5.926693439483643
1772810316690809300,0.697809326171875,-12.146422386169434,-2.451998710632324,-5.925273895263672
1772810316700509200,0.70750927734375,-12.18203353881836,-2.7014284133911133,-5.791903018951416
1772810316710209000,0.717208984375,-12.05870246887207,-2.9330732822418213,-5.580389022827148
1772810316719908900,0.726908935546875,-11.764322280883789,-3.1852128505706787,-5.3455634117126465
1772810316729609000,0.73660888671875,-11.403008460998535,-3.324204206466675,-5.0384521484375
1772810316739308800,0.746308837890625,-11.04184627532959,-3.374241828918457,-4.651027679443359
1772810316749008600,0.756008544921875,-10.655776977539062,-3.4700076580047607,-4.17495059967041
1772810316758708500,0.76570849609375,-10.30167293548584,-3.4806504249572754,-3.8080899715423584
1772810316768408300,0.775408203125,-9.905406951904297,-3.4226818084716797,-3.598782777786255
1772810316778108400,0.7851083984375,-9.531888008117676,-3.3911492824554443,-3.4011852741241455
1772810316787808300,0.794808349609375,-9.218104362487793,-3.454267978668213,-3.218639612197876
1772810316797508000,0.804508056640625,-9.035091400146484,-3.569697380065918,-3.0046818256378174
1772810316807208000,0.8142080078125,-8.797178268432617,-3.644561290740967,-2.7713699340820312
1772810316816908000,0.823907958984375,-8.353265762329102,-3.7083935737609863,-2.556878089904785
1772810316826607900,0.83360791015625,-7.873559951782227,-3.7776594161987305,-2.4181337356567383
1772810316836307700,0.8433076171875,-6.948558330535889,-3.9622092247009277,-2.1530494689941406
1772810316846007600,0.853007568359375,-5.914727687835693,-3.9765994548797607,-1.769467830657959
1772810316855707400,0.862707275390625,-5.445600509643555,-4.366903781890869,-1.2267616987228394
1772810316865407500,0.872407470703125,-4.8585286140441895,-4.988113880157471,-0.730320930480957
1772810316875107300,0.882107421875,-4.16614294052124,-5.481535911560059,-0.2757880687713623
1772810316884807200,0.89180712890625,-3.626957893371582,-5.614584445953369,-0.005083560943603516
1772810316894507000,0.901507080078125,-3.4056434631347656,-5.665651321411133,0.3007678985595703
1772810316904207000,0.91120703125,-3.362928867340088,-5.827173233032227,0.6750895977020264
1772810316913907000,0.920906982421875,-3.246065139770508,-6.037951469421387,1.0233612060546875
1772810316923606800,0.930606689453125,-3.4671778678894043,-5.859583854675293,1.3704833984375
1772810316933306600,0.940306640625,-3.7703633308410645,-5.332095146179199,1.6809499263763428
1772810316943006700,0.9500068359375,-3.3603830337524414,-3.8004167079925537,1.5000895261764526
1772810316952706600,0.95970654296875,-2.2773518562316895,-1.086413860321045,1.2584134340286255
1772810316962406400,0.969406494140625,-0.2608170509338379,2.7147135734558105,0.9279420971870422
1772810316972106200,0.979106201171875,3.9139857292175293,7.1934332847595215,-0.1906810998916626
1772810316981806300,0.988806396484375,9.436307907104492,10.774727821350098,-0.8828452825546265
1772810316991506200,0.998506103515625,13.28664779663086,13.034968376159668,0.20654785633087158
1772810317001206000,1.0082060546875,16.955371856689453,7.891414642333984,5.735526084899902
1772810317010905900,1.01790576171875,19.899261474609375,2.314546585083008,10.837187767028809
1772810317020606000,1.02760595703125,21.943002700805664,0.58270263671875,13.700804710388184
1772810317030305800,1.037305908203125,23.058631896972656,-0.05827617645263672,14.609973907470703
1772810317040005600,1.047005615234375,22.405250549316406,0.7127435207366943,11.99614143371582
1772810317049705500,1.05670556640625,20.89280891418457,2.9287948608398438,7.018192768096924
1772810317059405300,1.0664052734375,18.976184844970703,5.332000732421875,1.5938653945922852
1772810317069105400,1.07610546875,16.69912338256836,7.289366722106934,-2.6808815002441406
1772810317078805200,1.08580517578125,13.890329360961914,8.46695613861084,-5.409518241882324
1772810317088505000,1.095505126953125,11.160758972167969,9.292736053466797,-6.547102928161621
1772810317098205000,1.105204833984375,8.096197128295898,9.631648063659668,-6.432782173156738
1772810317107904800,1.11490478515625,5.614255905151367,9.073661804199219,-4.826180458068848
1772810317117604900,1.12460498046875,3.9593982696533203,7.649244785308838,-2.278003454208374
1772810317127304700,1.1343046875,2.7410478591918945,5.9131646156311035,0.4027178883552551
1772810317137004500,1.144004638671875,1.9290533065795898,4.260988235473633,2.428175926208496
1772810317146704400,1.153704345703125,0.8944215774536133,2.953331470489502,3.7648298740386963
1772810317156404500,1.163404541015625,-0.5177173614501953,2.0748651027679443,4.117559909820557
1772810317166104300,1.173104248046875,-2.2095108032226562,1.6672894954681396,3.4653406143188477
1772810317175804200,1.18280419921875,-3.8410186767578125,1.5564119815826416,2.291051149368286
1772810317185504000,1.19250390625,-5.174376487731934,1.3354415893554688,1.173966884613037
1772810317195203800,1.202203857421875,-6.213317394256592,0.9794747829437256,0.09807772934436798
1772810317204904000,1.211904052734375,-6.801811218261719,0.3599522113800049,-0.7970282435417175
1772810317214603800,1.221603759765625,-7.130472183227539,-0.3106043338775635,-1.471892237663269
1772810317224303600,1.2313037109375,-7.482638359069824,-0.9918246269226074,-1.7724934816360474
1772810317234003500,1.24100341796875,-7.8697943687438965,-1.7262835502624512,-1.7827738523483276
1772810317243703600,1.25070361328125,-8.214909553527832,-2.4730076789855957,-1.5746092796325684
1772810317253403400,1.2604033203125,-8.358088493347168,-3.150756359100342,-1.2815650701522827
1772810317263103200,1.270103271484375,-8.718113899230957,-3.616227149963379,-1.1029434204101562
1772810317272803300,1.27980322265625,-9.01730728149414,-3.951359748840332,-0.9138990640640259
1772810317282503200,1.289503173828125,-9.129419326782227,-4.244154453277588,-0.7998213768005371
1772810317292203000,1.299203125,-9.295392990112305,-4.517192363739014,-0.8131710290908813
1772810317301902800,1.30890283203125,-9.45792293548584,-4.715175151824951,-0.9201408624649048
1772810317311602700,1.318602783203125,-9.450372695922852,-4.932769775390625,-1.0702050924301147
1772810317321302800,1.328302734375,-9.325507164001465,-4.9963698387146,-1.4099005460739136
1772810317331002600,1.338002685546875,-9.059796333312988,-5.090428829193115,-1.7902942895889282
1772810317340702500,1.347702392578125,-8.7642183303833,-5.338802814483643,-2.1317732334136963
1772810317350402300,1.35740234375,-8.286213874816895,-5.664057731628418,-2.006287097930908
1772810317360102400,1.367102294921875,-8.3121337890625,-5.9934468269348145,-1.656583309173584
1772810317369802200,1.37680224609375,-8.506032943725586,-6.519831657409668,-1.382244348526001
1772810317379502000,1.386502197265625,-8.64492130279541,-6.8867950439453125,-1.063122034072876
1772810317389202000,1.396201904296875,-8.913015365600586,-7.208723068237305,-0.9415937066078186
1772810317398901800,1.40590185546875,-9.417652130126953,-7.4167351722717285,-1.0226470232009888
1772810317408601900,1.415601806640625,-9.83244514465332,-7.37215518951416,-1.2286632061004639
1772810317418301700,1.4253017578125,-10.309100151062012,-7.173264503479004,-1.359924554824829
1772810317428001500,1.43500146484375,-10.911079406738281,-7.163755893707275,-1.6083401441574097
1772810317437701400,1.444701416015625,-11.3291015625,-7.567975997924805,-1.6071184873580933
1772810317447401500,1.4544013671875,-11.682104110717773,-7.7222442626953125,-1.533323884010315
1772810317457101300,1.464101318359375,-11.968852996826172,-7.214735507965088,-1.7574595212936401
1772810317466801200,1.47380126953125,-12.109886169433594,-6.588820457458496,-1.8008534908294678
1772810317476501000,1.4835009765625,-12.017839431762695,-7.115602493286133,-1.6402554512023926
1772810317486200800,1.493200927734375,-11.783842086791992,-8.55905532836914,-0.6617836356163025
1772810317495901000,1.50290087890625,-10.54738998413086,-10.13540267944336,0.5252045392990112
1772810317505600800,1.512600830078125,-7.409051895141602,-10.527078628540039,0.8986990451812744
1772810317515300600,1.522300537109375,-1.7606453895568848,-10.860536575317383,2.7596468925476074
1772810317525000400,1.53200048828125,9.462081909179688,-9.610511779785156,5.648073196411133
1772810317534700500,1.541700439453125,28.698448181152344,-3.477060317993164,10.411920547485352
1772810317544400400,1.551400390625,52.358001708984375,1.8486149311065674,19.43134307861328
1772810317554100200,1.561100341796875,68.86492156982422,2.083925485610962,31.689224243164062
1772810317563800000,1.570800048828125,69.46498107910156,-3.2758893966674805,44.545066833496094
1772810317573500000,1.5805,68.86029052734375,-4.9049601554870605,45.78506851196289
1772810317583200000,1.590199951171875,68.2660903930664,1.475062608718872,31.544963836669922
1772810317592899800,1.59989990234375,67.7588119506836,7.308222770690918,15.953914642333984
1772810317602599700,1.609599609375,55.380943298339844,11.080801010131836,8.321329116821289
1772810317612299500,1.619299560546875,34.697120666503906,11.411548614501953,6.503738880157471
1772810317621999400,1.628999267578125,18.097930908203125,10.598838806152344,6.081276893615723
1772810317631699500,1.638699462890625,3.271291732788086,8.492749214172363,6.113692283630371
1772810317641399300,1.6483994140625,-7.808383941650391,6.772309303283691,4.709749221801758
1772810317651099100,1.65809912109375,-13.470264434814453,5.5944905281066895,2.5705223083496094
1772810317660799000,1.667799072265625,-14.838769912719727,3.607937812805176,1.030036211013794
1772810317670499000,1.6774990234375,-14.640839576721191,1.0394015312194824,0.40413856506347656
1772810317680199000,1.687198974609375,-13.406740188598633,-2.372546672821045,1.1860358715057373
1772810317689898800,1.696898681640625,-11.575727462768555,-5.723371982574463,2.4360835552215576
1772810317699598800,1.706598876953125,-10.409648895263672,-9.506036758422852,2.9609875679016113
1772810317709298700,1.716298583984375,-8.080405235290527,-12.651165962219238,2.4923717975616455
1772810317718998500,1.72599853515625,-5.725438594818115,-15.045495986938477,1.4739251136779785
1772810317728698400,1.735698486328125,-5.08089017868042,-17.841508865356445,0.820340633392334
1772810317738398200,1.745398193359375,-5.4083662033081055,-20.50243377685547,0.4763169288635254
1772810317748098300,1.755098388671875,-6.814641952514648,-21.9528751373291,-0.5442266464233398
1772810317757798100,1.764798095703125,-8.100584030151367,-22.1583251953125,-1.9337542057037354
1772810317767498000,1.774498046875,-9.983291625976562,-22.291553497314453,-2.994295358657837
1772810317777197800,1.78419775390625,-11.764459609985352,-21.572559356689453,-4.075422286987305
1772810317786898000,1.79389794921875,-13.27082633972168,-20.569923400878906,-4.857954978942871
1772810317796597800,1.80359765625,-14.278714179992676,-19.294689178466797,-5.603756427764893
1772810317806297600,1.813297607421875,-14.672991752624512,-17.778310775756836,-6.1415557861328125
1772810317815997400,1.82299755859375,-14.605134963989258,-16.68358039855957,-5.999966621398926
1772810317825697300,1.832697265625,-14.402939796447754,-16.238447189331055,-5.245295524597168
1772810317835397400,1.8423974609375,-13.775431632995605,-15.481283187866211,-4.668900966644287
1772810317845097200,1.85209716796875,-12.90624713897705,-14.920859336853027,-4.1423187255859375
1772810317854797000,1.861797119140625,-12.273171424865723,-14.627799987792969,-3.637404680252075
1772810317864497000,1.871496826171875,-11.37639331817627,-14.158808708190918,-3.4721434116363525
1772810317874197000,1.881197021484375,-10.292143821716309,-14.015332221984863,-3.2268590927124023
1772810317883896800,1.890896728515625,-9.335251808166504,-14.184814453125,-2.884124755859375
1772810317893596700,1.9005966796875,-8.448287010192871,-13.965564727783203,-2.9490370750427246
1772810317903296500,1.910296630859375,-7.748557090759277,-13.704355239868164,-3.0401663780212402
1772810317912996400,1.919996337890625,-7.3200483322143555,-13.818623542785645,-2.8430893421173096
1772810317922696400,1.929696533203125,-6.769491195678711,-13.730154037475586,-2.5575807094573975
1772810317932396300,1.939396240234375,-6.338807106018066,-13.639861106872559,-2.180286169052124
1772810317942096100,1.94909619140625,-6.1274614334106445,-13.755102157592773,-1.7487986087799072
1772810317951796000,1.9587958984375,-5.922052383422852,-13.642616271972656,-1.453596830368042
1772810317961496000,1.96849609375,-5.833964824676514,-13.370962142944336,-1.1775261163711548
1772810317971196000,1.97819580078125,-5.879666328430176,-13.239187240600586,-0.512855589389801
1772810317980895700,1.987895751953125,-6.133572578430176,-13.197256088256836,0.014646798372268677
1772810317990595600,1.997595703125,-6.223694801330566,-12.867411613464355,0.20214146375656128
1772810318000295400,2.00729541015625,-6.50559663772583,-12.5308837890625,0.07682144641876221
1772810318009995500,2.01699560546875,-6.9023027420043945,-12.06110954284668,-0.14679326117038727
1772810318019695400,2.0266953125,-7.1728410720825195,-11.675897598266602,-0.25291261076927185
1772810318029395200,2.036395263671875,-7.515796661376953,-11.431729316711426,-0.12046298384666443
1772810318039095000,2.046094970703125,-7.608585357666016,-11.236294746398926,0.22709885239601135
1772810318048795000,2.055794921875,-7.204514980316162,-10.94101333618164,0.5115799903869629
1772810318058495000,2.065494873046875,-6.7827348709106445,-10.591458320617676,0.7116419076919556
1772810318068194800,2.07519482421875,-6.279993534088135,-10.405342102050781,1.3115596771240234
1772810318077894700,2.084894775390625,-5.58151388168335,-10.283937454223633,1.5966826677322388
1772810318087594500,2.094594482421875,-4.749213218688965,-9.344837188720703,1.3021414279937744
1772810318097294600,2.104294677734375,-3.339114189147949,-7.066233158111572,-0.06512272357940674
1772810318106994400,2.113994384765625,-0.9765491485595703,-4.518087387084961,-1.082901120185852
1772810318116694300,2.1236943359375,1.5404644012451172,-1.2271099090576172,-1.3160630464553833
1772810318126394000,2.13339404296875,5.9372968673706055,3.5477986335754395,-0.8514795899391174
1772810318136094000,2.143093994140625,10.640114784240723,9.161003112792969,1.2479119300842285
1772810318145794000,2.1527939453125,15.164592742919922,9.653058052062988,8.195850372314453
1772810318155494000,2.162493896484375,20.367490768432617,8.191314697265625,17.746597290039062
1772810318165193700,2.17219384765625,27.24608612060547,7.653796195983887,26.652725219726562
1772810318174893600,2.1818935546875,35.00736618041992,6.792038917541504,32.34391784667969
1772810318184593700,2.19159375,41.478729248046875,7.071685791015625,32.76023483276367
1772810318194293500,2.20129345703125,46.16915512084961,8.204075813293457,28.611207962036133
1772810318203993300,2.210993408203125,48.660484313964844,9.481675148010254,21.8713436126709
1772810318213693200,2.220693115234375,48.16841506958008,10.59185791015625,14.998472213745117
1772810318223393000,2.23039306640625,45.411651611328125,11.926129341125488,9.367269515991211
1772810318233093000,2.240093017578125,40.11962127685547,12.309449195861816,5.695638656616211
1772810318242793000,2.24979296875,32.81390380859375,12.093372344970703,3.8541903495788574
1772810318252492800,2.259492919921875,25.201326370239258,11.479138374328613,3.465919256210327
1772810318262193000,2.26919287109375,17.067729949951172,10.585341453552246,4.6180500984191895
1772810318271892700,2.278892822265625,9.446900367736816,9.429471015930176,5.755550384521484
1772810318281592600,2.288592529296875,3.203629493713379,8.310162544250488,5.44368839263916
1772810318291292400,2.29829248046875,-1.2853507995605469,7.013330936431885,3.8674869537353516
1772810318300992500,2.307992431640625,-4.266293525695801,5.251264572143555,1.9297585487365723
1772810318310692400,2.3176923828125,-6.253070831298828,3.188479423522949,0.36985254287719727
1772810318320392200,2.32739208984375,-7.615877151489258,1.1794395446777344,-0.7705302238464355
1772810318330092000,2.337092041015625,-8.414355278015137,-0.42167139053344727,-2.0507853031158447
1772810318339792000,2.3467919921875,-8.726425170898438,-1.8696250915527344,-3.318476676940918
1772810318349492000,2.356491943359375,-8.757955551147461,-3.443974018096924,-4.39995813369751
1772810318359191800,2.36619189453125,-8.688130378723145,-5.028873920440674,-5.179132461547852
1772810318368891600,2.3758916015625,-8.789019584655762,-6.221710681915283,-5.6054229736328125
1772810318388291600,2.39529150390625,-10.105897903442383,-8.152240753173828,-5.447723388671875
1772810318397991400,2.404991455078125,-10.631613731384277,-8.957098960876465,-5.494220733642578
1772810318407691300,2.414691162109375,-11.001444816589355,-9.342828750610352,-5.896050453186035
1772810318417391000,2.42439111328125,-11.32991886138916,-9.484991073608398,-6.382574081420898
1772810318427091000,2.434091064453125,-11.580760955810547,-9.39065170288086,-6.790607452392578
1772810318436791000,2.443791015625,-11.771406173706055,-9.325077056884766,-6.956417083740234
1772810318446491000,2.453490966796875,-11.705682754516602,-9.293802261352539,-7.123517036437988
1772810318456190700,2.463190673828125,-11.502605438232422,-9.189602851867676,-7.020355701446533
1772810318465890600,2.472890625,-10.996377944946289,-9.26854133605957,-6.722141742706299
1772810318475590400,2.48259033203125,-10.653268814086914,-9.144834518432617,-6.376935958862305
1772810318485290500,2.49229052734375,-10.258224487304688,-9.075737953186035,-5.979998588562012
1772810318494990300,2.501990234375,-9.892324447631836,-9.131287574768066,-5.648984909057617
1772810318504690200,2.511690185546875,-9.526029586791992,-9.24916934967041,-5.212301254272461
1772810318514390000,2.52139013671875,-9.235689163208008,-9.191770553588867,-4.96295166015625
1772810318524090000,2.531090087890625,-9.067510604858398,-8.99799633026123,-4.771690368652344
1772810318533790000,2.5407900390625,-8.692022323608398,-8.853696823120117,-4.824960708618164
1772810318543489800,2.55048974609375,-8.417987823486328,-8.304251670837402,-4.760045051574707
1772810318553189600,2.560189697265625,-8.472888946533203,-8.479814529418945,-4.284283638000488
1772810318562889500,2.569889404296875,-8.27366828918457,-8.767501831054688,-3.8714187145233154
1772810318572589600,2.579589599609375,-8.678703308105469,-8.363746643066406,-3.581087827682495
1772810318582289400,2.589289306640625,-8.897239685058594,-7.97221565246582,-3.26438570022583
1772810318591989200,2.5989892578125,-9.087196350097656,-7.750026702880859,-2.957982063293457
1772810318601689000,2.608689208984375,-9.204238891601562,-7.396794319152832,-2.9594879150390625
1772810318611389200,2.61838916015625,-9.133983612060547,-6.973239421844482,-3.052212953567505
1772810318621089000,2.628089111328125,-8.705726623535156,-6.492654800415039,-2.9364800453186035
1772810318630788900,2.637788818359375,-8.105571746826172,-5.8105340003967285,-2.818854808807373
1772810318640488700,2.64748876953125,-6.669595241546631,-4.667868614196777,-2.715433359146118
1772810318650188500,2.6571884765625,-4.209486961364746,-2.5992627143859863,-1.9807816743850708
1772810318659888600,2.666888671875,-0.6293244361877441,0.10617899894714355,-0.40770912170410156
1772810318669588500,2.67658837890625,4.415334224700928,2.4075214862823486,3.0115222930908203
1772810318679288300,2.686288330078125,9.986297607421875,3.359332323074341,8.779881477355957
1772810318688988200,2.69598828125,18.331912994384766,3.315951347351074,16.184001922607422
1772810318698688000,2.70568798828125,29.3785400390625,3.2196059226989746,24.112228393554688
1772810318708388000,2.71538818359375,39.15884017944336,2.7548842430114746,31.6824951171875
1772810318718088000,2.725087890625,48.69562530517578,2.4191157817840576,36.1230583190918
1772810318727787800,2.734787841796875,58.28327941894531,3.7425599098205566,36.147705078125
1772810318737487600,2.744487548828125,64.64874267578125,4.683748245239258,31.75157356262207
1772810318747187700,2.754187744140625,66.38427734375,5.7980122566223145,24.44246482849121
1772810318756887600,2.763887451171875,61.33279800415039,6.165135860443115,18.307767868041992
1772810318766587400,2.77358740234375,51.40754699707031,6.026548385620117,13.779735565185547
1772810318776287200,2.783287353515625,38.86899185180664,6.44196081161499,10.820755004882812
1772810318785987000,2.792987060546875,25.436256408691406,6.359976291656494,9.747384071350098
1772810318795687200,2.802687255859375,12.371209144592285,6.1789374351501465,8.664560317993164
1772810318805387000,2.812386962890625,0.38245344161987305,6.305528163909912,5.988594055175781
1772810318815086800,2.8220869140625,-7.563549518585205,7.462028980255127,1.177412986755371
1772810318824786700,2.83178662109375,-13.200216293334961,4.745689392089844,-1.9340989589691162
1772810318834486800,2.84148681640625,-15.941183090209961,3.9711132049560547,-5.5414838790893555
1772810318844186600,2.8511865234375,-17.495798110961914,3.783961772918701,-8.700111389160156
1772810318853886500,2.860886474609375,-17.30526351928711,0.48044252395629883,-9.54231071472168
1772810318863586300,2.87058642578125,-14.79725456237793,-2.6981074810028076,-8.67276382446289
1772810318873286100,2.8802861328125,-10.664189338684082,-6.057224273681641,-6.3164777755737305
1772810318882986200,2.889986328125,-7.489516735076904,-8.769537925720215,-3.9442124366760254
1772810318892686000,2.89968603515625,-5.408995628356934,-11.131620407104492,-1.9714241027832031
1772810318902386000,2.909385986328125,-3.65889310836792,-12.851778030395508,-0.9802005290985107
1772810318912085800,2.919085693359375,-3.932486057281494,-14.04115104675293,-0.9088501930236816
1772810318921785900,2.928785888671875,-5.975700855255127,-14.60810661315918,-1.8544962406158447
1772810318931485700,2.938485595703125,-8.432838439941406,-14.199321746826172,-3.8270294666290283
1772810318941185500,2.948185546875,-10.601310729980469,-13.073387145996094,-6.1077189445495605
1772810318950885400,2.957885498046875,-12.209612846374512,-11.476332664489746,-8.375986099243164
1772810318960585200,2.967585205078125,-13.538331031799316,-9.996487617492676,-10.042922019958496
1772810318970285300,2.977285400390625,-14.218672752380371,-9.097845077514648,-10.301294326782227
1772810318979985200,2.986985107421875,-13.931825637817383,-8.702611923217773,-9.325057029724121
1772810318989685000,2.99668505859375,-13.026763916015625,-8.569690704345703,-7.822384834289551
1772810318999384800,3.006384765625,-12.002147674560547,-8.63047981262207,-6.250812530517578
1772810319009084700,3.016084716796875,-11.012845993041992,-8.86241340637207,-4.698093414306641
1772810319018784800,3.02578466796875,-10.249946594238281,-8.972322463989258,-3.5521748065948486
1772810319028484600,3.035484619140625,-9.476364135742188,-8.760180473327637,-3.026247262954712
1772810319038184400,3.045184326171875,-8.935554504394531,-8.535957336425781,-3.0614962577819824
1772810319047884300,3.05488427734375,-8.515216827392578,-8.436241149902344,-3.4128642082214355
1772810319057584400,3.06458447265625,-8.15329647064209,-8.261673927307129,-3.7821953296661377
1772810319067284200,3.0742841796875,-7.721277236938477,-8.180294036865234,-3.9238498210906982
1772810319076984000,3.083984130859375,-7.303001403808594,-8.179750442504883,-3.864870548248291
1772810319086684000,3.093683837890625,-6.902128219604492,-8.22109603881836,-3.603304386138916
1772810319096383700,3.1033837890625,-6.516554832458496,-8.258214950561523,-3.284716844558716
1772810319106083800,3.113083740234375,-6.048161506652832,-8.12249755859375,-3.1909291744232178
1772810319115783700,3.12278369140625,-5.720426559448242,-7.972164630889893,-3.260951519012451
1772810319125483500,3.1324833984375,-5.51814603805542,-7.862084865570068,-3.3217601776123047
1772810319135183400,3.142183349609375,-5.462710857391357,-7.665485858917236,-3.4541540145874023
1772810319144883500,3.151883544921875,-5.538391590118408,-7.377172470092773,-3.5934183597564697
1772810319154583300,3.161583251953125,-5.737246513366699,-7.144659042358398,-3.6128411293029785
1772810319164283100,3.171283203125,-6.013907432556152,-7.018717288970947,-3.3911375999450684
1772810319173983000,3.18098291015625,-6.218412399291992,-6.952187538146973,-3.1150662899017334
1772810319183682800,3.190682861328125,-6.422415256500244,-6.750478267669678,-2.9956910610198975
1772810319193383000,3.2003828125,-6.619823932647705,-6.8012285232543945,-2.8710079193115234
1772810319203082800,3.210082763671875,-6.907137870788574,-6.922259330749512,-2.8110525608062744
1772810319212782600,3.219782470703125,-7.278213977813721,-6.804719924926758,-3.20310640335083
1772810319222482400,3.229482421875,-7.800327301025391,-6.860849380493164,-3.7454652786254883
1772810319232182300,3.239182373046875,-8.32060432434082,-6.880762100219727,-4.187666893005371
1772810319241882400,3.24888232421875,-9.060556411743164,-7.267906188964844,-4.564796447753906
1772810319251582200,3.258582275390625,-9.265874862670898,-7.176858425140381,-5.403453826904297
1772810319261282000,3.268281982421875,-9.499876022338867,-6.361269950866699,-6.414031982421875
1772810319270982000,3.27798193359375,-9.564815521240234,-6.347923755645752,-6.398747444152832
1772810319280682000,3.287681884765625,-8.307394981384277,-6.875232696533203,-5.663658142089844
1772810319290381800,3.2973818359375,-7.178202152252197,-6.553199768066406,-4.079474449157715
1772810319300081700,3.30708154296875,-5.806545734405518,-4.951282024383545,-1.2344512939453125
1772810319309781500,3.316781494140625,-4.044517517089844,-2.373887538909912,2.598903179168701
1772810319319481300,3.3264814453125,-1.5546393394470215,1.3062748908996582,7.317283630371094
1772810319329181400,3.336181396484375,2.8498239517211914,4.34630823135376,14.70616340637207
1772810319338881300,3.34588134765625,10.421159744262695,3.2946274280548096,26.69931411743164
1772810319348581000,3.3555810546875,23.282428741455078,1.1715164184570312,38.60590744018555
1772810319358281000,3.365281005859375,40.33778381347656,-3.6843905448913574,47.84782791137695
1772810319367981000,3.37498095703125,52.39910888671875,-8.252723693847656,50.50062561035156
1772810319377681000,3.384680908203125,60.71527862548828,-4.206811428070068,42.63200378417969
1772810319387380700,3.394380615234375,61.211204528808594,1.5379854440689087,29.878999710083008
1772810319397080600,3.40408056640625,52.66935729980469,4.94513463973999,19.202220916748047
1772810319406780400,3.413780517578125,40.86225891113281,7.668112754821777,12.074039459228516
1772810319416480500,3.42348046875,29.015243530273438,9.549544334411621,8.334972381591797
1772810319426180400,3.433180419921875,18.859617233276367,10.668669700622559,6.333286285400391
1772810319435880200,3.442880126953125,10.492050170898438,10.89408016204834,5.382326126098633
1772810319445580000,3.452580078125,3.8335862159729004,9.765340805053711,4.972757816314697
1772810319455279900,3.46227978515625,-1.1064872741699219,8.182394027709961,4.057511806488037
1772810319464980000,3.47197998046875,-4.076592445373535,6.892305374145508,2.1242456436157227
1772810319474679800,3.4816796875,-6.030751705169678,5.5320353507995605,-0.13551044464111328
1772810319484379600,3.491379638671875,-7.464470386505127,3.8085787296295166,-2.2470579147338867
1772810319494079500,3.50107958984375,-8.281954765319824,2.3663129806518555,-4.211460113525391
1772810319503779600,3.510779541015625,-9.020882606506348,1.0698134899139404,-5.742529392242432
1772810319513479400,3.5204794921875,-9.730650901794434,-0.29970359802246094,-6.668001174926758
1772810319523179300,3.53017919921875,-10.166624069213867,-1.5188560485839844,-7.422961235046387
1772810319532879000,3.539879150390625,-10.093828201293945,-2.6308088302612305,-8.094593048095703
1772810319542579000,3.549578857421875,-9.982017517089844,-3.729708671569824,-8.584257125854492
1772810319552279000,3.559279052734375,-9.772957801818848,-4.716291904449463,-9.010663986206055
1772810319561979000,3.568978759765625,-9.575382232666016,-5.370407581329346,-9.486053466796875
1772810319571678700,3.5786787109375,-9.925371170043945,-6.244272232055664,-9.589054107666016
1772810319581378600,3.588378662109375,-10.333639144897461,-5.992185592651367,-9.958642959594727
1772810319591078700,3.59807861328125,-10.602216720581055,-5.311737060546875,-10.343120574951172
1772810319600778500,3.607778564453125,-10.806028366088867,-5.778460502624512,-10.137735366821289
1772810319610478300,3.617478271484375,-10.796826362609863,-6.144924640655518,-9.972461700439453
1772810319620178200,3.62717822265625,-10.79330825805664,-5.942346572875977,-9.842500686645508
1772810319629878000,3.6368779296875,-10.861404418945312,-5.630845069885254,-9.488391876220703
1772810319639578000,3.646578125,-11.18038558959961,-5.4394426345825195,-8.992497444152832
1772810319649278000,3.65627783203125,-11.50192642211914,-5.2516255378723145,-8.486204147338867
1772810319658977800,3.665977783203125,-11.571786880493164,-5.087701797485352,-7.894014358520508
1772810319668677600,3.675677734375,-11.555767059326172,-4.997600078582764,-7.275880336761475
1772810319678377700,3.685377685546875,-11.434575080871582,-5.0191802978515625,-6.6369948387146
1772810319688077600,3.69507763671875,-11.251087188720703,-4.915911674499512,-6.184566020965576
1772810319697777400,3.70477734375,-11.010266304016113,-4.6324028968811035,-5.9431352615356445
1772810319707477200,3.714477294921875,-10.484429359436035,-4.389810085296631,-5.729618549346924
1772810319717177000,3.724177001953125,-9.77920913696289,-4.214986324310303,-5.680003643035889
1772810319726877200,3.733877197265625,-9.130736351013184,-4.0121073722839355,-5.611566543579102
1772810319736577000,3.743576904296875,-8.523364067077637,-3.9788224697113037,-5.4828782081604
1772810319746276900,3.75327685546875,-7.5364179611206055,-4.018625259399414,-5.322176933288574
1772810319755976700,3.762976806640625,-6.441216945648193,-3.6232781410217285,-5.2810821533203125
1772810319765676500,3.772676513671875,-5.71917724609375,-3.7560572624206543,-4.748948097229004
1772810319775376600,3.782376708984375,-4.377623558044434,-3.917097568511963,-3.8490843772888184
1772810319785076500,3.792076416015625,-2.506286144256592,-3.1201183795928955,-3.15157151222229
1772810319794776300,3.8017763671875,-1.195237636566162,-1.8238462209701538,-2.909721851348877
1772810319804476200,3.81147607421875,0.3336067199707031,-0.3255126476287842,-2.5599517822265625
1772810319814176300,3.82117626953125,2.7336044311523438,2.352137804031372,-1.878786563873291
1772810319823876000,3.8308759765625,7.886829853057861,6.30910587310791,1.0122365951538086
1772810319833576000,3.840575927734375,14.999826431274414,7.516069412231445,8.291263580322266
1772810319843275800,3.85027587890625,23.93183135986328,5.152762413024902,18.823823928833008
1772810319852975600,3.8599755859375,34.317405700683594,2.097541570663452,30.67840576171875
1772810319862675700,3.86967578125,40.8223762512207,2.282578468322754,39.49161911010742
1772810319872375600,3.87937548828125,43.846031188964844,4.4693098068237305,43.509098052978516
1772810319882075400,3.889075439453125,43.575477600097656,6.04866361618042,42.806400299072266
1772810319891775200,3.898775146484375,41.764041900634766,7.12485408782959,37.487091064453125
1772810319901475300,3.908475341796875,40.18815994262695,7.815769195556641,30.06560516357422
1772810319911175200,3.918175048828125,38.36582946777344,7.216601371765137,23.465301513671875
1772810319920875000,3.927875,34.36980438232422,5.794286727905273,18.590770721435547
1772810319930574800,3.937574951171875,28.639972686767578,4.327654838562012,15.354898452758789
1772810319940274700,3.947274658203125,21.730209350585938,3.39932918548584,12.507431030273438
1772810319949974800,3.956974853515625,13.613734245300293,2.8568859100341797,10.016046524047852
1772810319959674600,3.966674560546875,5.137208461761475,2.711470127105713,7.277618408203125
1772810319969374500,3.97637451171875,-1.6206369400024414,2.8146705627441406,4.178720474243164
1772810319979074300,3.98607421875,-6.777549743652344,2.6006855964660645,0.9981570243835449
1772810319988774100,3.995774169921875,-9.977433204650879,1.8130769729614258,-2.221524238586426
1772810319998474200,4.00547412109375,-11.567930221557617,0.5985226631164551,-4.915975093841553
1772810320008174000,4.015174072265625,-12.01593017578125,-1.1321067810058594,-6.38341760635376
1772810320017874000,4.0248740234375,-11.099931716918945,-3.3498196601867676,-6.8008880615234375
1772810320027573800,4.03457373046875,-8.917292594909668,-5.244022369384766,-6.218510627746582
1772810320037273900,4.04427392578125,-7.0470662117004395,-7.183807373046875,-4.5676751136779785
1772810320046973700,4.0539736328125,-5.871828079223633,-9.249028205871582,-2.636842727661133
1772810320056673500,4.063673583984375,-5.332541465759277,-11.043588638305664,-1.0356097221374512
1772810320066373400,4.073373291015625,-5.918373107910156,-12.282161712646484,-0.12021827697753906
1772810320076073200,4.0830732421875,-7.141110420227051,-12.722198486328125,-0.0552668571472168
1772810320085773300,4.092773193359375,-8.372666358947754,-12.621248245239258,-0.7526347637176514
1772810320095473200,4.10247314453125,-9.515219688415527,-12.23521614074707,-1.8964850902557373
1772810320105173000,4.112173095703125,-10.2308349609375,-11.666055679321289,-3.1667909622192383
1772810320114872800,4.121872802734375,-10.50039291381836,-11.164456367492676,-4.25666618347168
1772810320124573000,4.131572998046875,-10.46676254272461,-10.870163917541504,-5.023633003234863
1772810320134272800,4.141272705078125,-10.406974792480469,-10.737176895141602,-5.29905891418457
1772810320143972600,4.15097265625,-10.213613510131836,-10.601099967956543,-5.022632598876953
1772810320153672400,4.16067236328125,-10.059370994567871,-10.781668663024902,-4.774352073669434
1772810320163372300,4.170372314453125,-9.463251113891602,-10.706335067749023,-4.198540210723877
1772810320173072400,4.180072265625,-9.00864315032959,-10.53003215789795,-3.7835469245910645
1772810320182772200,4.189772216796875,-8.541324615478516,-10.585084915161133,-3.340203285217285
1772810320192472000,4.19947216796875,-8.002866744995117,-10.729394912719727,-3.117489814758301
1772810320202172000,4.209171875,-7.687551498413086,-10.978578567504883,-3.0915002822875977
1772810320211872000,4.2188720703125,-7.606517791748047,-11.294876098632812,-3.2502245903015137
1772810320221571800,4.22857177734375,-7.541582107543945,-11.634857177734375,-3.5206193923950195
1772810320231271700,4.238271728515625,-7.554312705993652,-12.07841682434082,-3.8616909980773926
1772810320240971500,4.247971435546875,-7.460483074188232,-12.487886428833008,-4.320960998535156
1772810320250671400,4.25767138671875,-7.22895622253418,-12.737653732299805,-4.733431816101074
1772810320260371200,4.26737109375,-7.093047142028809,-13.261552810668945,-5.17307710647583
1772810320270071300,4.2770712890625,-7.066283702850342,-13.93726634979248,-5.1686272621154785
1772810320279771100,4.286771240234375,-7.134671688079834,-14.317651748657227,-5.230987548828125
1772810320289471000,4.296470947265625,-7.105961799621582,-14.374274253845215,-5.340375900268555
1772810320299170800,4.3061708984375,-7.240677833557129,-14.418394088745117,-5.318048000335693
1772810320308870700,4.31587060546875,-7.34230899810791,-14.324285507202148,-5.320446014404297
1772810320318570500,4.325570556640625,-7.372358322143555,-13.749672889709473,-5.137096881866455
1772810320328270600,4.3352705078125,-7.57219123840332,-13.418493270874023,-4.848630905151367
1772810320337970400,4.344970458984375,-7.655972003936768,-13.365998268127441,-4.243526458740234
1772810320347670300,4.354670166015625,-7.693018436431885,-13.098262786865234,-3.625816583633423
1772810320357370000,4.3643701171875,-7.9384050369262695,-12.624153137207031,-3.0563206672668457
1772810320367070200,4.3740703125,-8.353056907653809,-12.36525821685791,-2.5929512977600098
1772810320376770000,4.38377001953125,-8.747184753417969,-12.028464317321777,-2.173964500427246
1772810320386470000,4.393469970703125,-9.144071578979492,-11.502767562866211,-1.8996798992156982
1772810320396169700,4.403169677734375,-9.0738525390625,-11.337836265563965,-1.9133708477020264
1772810320405869600,4.41286962890625,-8.187410354614258,-11.16604995727539,-1.6425940990447998
1772810320415569700,4.422569580078125,-7.143691062927246,-9.799986839294434,-1.895477533340454
1772810320425269500,4.43226953125,-5.325928211212158,-8.061927795410156,-2.2659642696380615
1772810320434969300,4.44196923828125,-2.872649669647217,-6.720634460449219,-2.4386134147644043
1772810320444669200,4.451669189453125,-0.2325882911682129,-3.834305763244629,-2.0960443019866943
1772810320454369300,4.461369384765625,4.940141677856445,2.6519031524658203,-0.9944415092468262
1772810320464069000,4.471069091796875,12.835697174072266,10.274333953857422,4.096943378448486
1772810320473769000,4.48076904296875,20.023752212524414,14.955825805664062,14.418387413024902
1772810320483468800,4.49046875,25.539302825927734,14.244558334350586,29.043495178222656
1772810320493168600,4.500168701171875,28.685373306274414,12.745649337768555,40.82002258300781
1772810320502868700,4.50986865234375,31.290176391601562,13.373547554016113,47.26564407348633
1772810320512568600,4.519568603515625,32.93663024902344,12.157278060913086,48.13773727416992
1772810320522268400,4.529268310546875,33.465579986572266,10.514130592346191,42.37639236450195
1772810320531968300,4.53896826171875,33.369449615478516,9.809216499328613,31.82114028930664
1772810320541668400,4.54866845703125,31.42515754699707,9.3800630569458,20.6260986328125
1772810320551368200,4.5583681640625,27.289813995361328,9.874744415283203,10.982973098754883
1772810320561068000,4.568068115234375,21.585811614990234,9.553367614746094,4.1781229972839355
1772810320570768000,4.577767822265625,15.832380294799805,9.376843452453613,-0.0194549560546875
1772810320580467700,4.5874677734375,10.782403945922852,8.533554077148438,-1.4865632057189941
1772810320590167800,4.597167724609375,6.190541744232178,7.182169437408447,-1.1112375259399414
1772810320599867600,4.60686767578125,1.6547460556030273,5.67752742767334,-0.15271234512329102
1772810320609567500,4.6165673828125,-2.4962730407714844,4.496275901794434,0.32616615295410156
1772810320619267300,4.626267333984375,-5.474788665771484,3.7283740043640137,0.18868494033813477
1772810320628967200,4.63596728515625,-7.503774642944336,3.3023581504821777,-0.8198575973510742
1772810320638667300,4.645667236328125,-8.670755386352539,2.9551119804382324,-2.185120105743408
1772810320648367000,4.6553671875,-8.751030921936035,2.3186686038970947,-3.356062412261963
1772810320658067000,4.66506689453125,-8.413351058959961,1.3065054416656494,-4.252745151519775
1772810320667766800,4.674766845703125,-7.349030494689941,-0.21529221534729004,-4.373716831207275
1772810320677467000,4.684466796875,-5.679953098297119,-1.7817580699920654,-4.170364856719971
1772810320687166700,4.694166748046875,-4.045597076416016,-3.118472099304199,-3.9719443321228027
1772810320696866600,4.703866455078125,-3.417829990386963,-4.134348392486572,-3.9061245918273926
1772810320706566400,4.71356640625,-3.7389936447143555,-4.910268783569336,-3.928067445755005
1772810320716266200,4.723266357421875,-5.096777439117432,-5.197749137878418,-4.103931427001953
1772810320725966300,4.73296630859375,-6.987422943115234,-5.09023904800415,-4.376313209533691
1772810320735666200,4.742666259765625,-8.850736618041992,-4.973245620727539,-4.876289367675781
1772810320745366000,4.752365966796875,-10.265966415405273,-4.701531410217285,-5.428194522857666
1772810320755065900,4.76206591796875,-11.439155578613281,-4.280868053436279,-6.163052558898926
1772810320764765700,4.771765625,-11.93769359588623,-3.834761142730713,-6.66727876663208
1772810320774465500,4.781465576171875,-11.91635513305664,-3.857150077819824,-6.784371852874756
1772810320784165600,4.79116552734375,-11.939708709716797,-3.9623961448669434,-6.743004322052002
1772810320793865500,4.800865478515625,-11.478891372680664,-3.9879000186920166,-6.428664207458496
1772810320803565300,4.8105654296875,-10.736654281616211,-4.356893539428711,-6.097623825073242
1772810320813265200,4.82026513671875,-9.964340209960938,-4.7210283279418945,-5.799234390258789
1772810320822965000,4.829965087890625,-9.164679527282715,-4.897228240966797,-5.674116134643555
1772810320832665000,4.8396650390625,-8.428918838500977,-4.892973899841309,-5.791576862335205
1772810320842365000,4.849364990234375,-8.099443435668945,-4.894394397735596,-5.9221601486206055
1772810320852064800,4.859064697265625,-8.2944974899292,-4.734787464141846,-6.146969795227051
1772810320861764600,4.8687646484375,-8.898987770080566,-4.45395565032959,-6.241140365600586
1772810320871464700,4.878464599609375,-8.901776313781738,-4.2503509521484375,-6.152287006378174
1772810320881164500,4.88816455078125,-8.438230514526367,-3.9436233043670654,-6.298213958740234
1772810320890864400,4.897864501953125,-8.431825637817383,-3.2922983169555664,-6.880517959594727
1772810320900564200,4.907564208984375,-8.231618881225586,-2.8421804904937744,-7.426955223083496
1772810320910264000,4.91726416015625,-7.70428466796875,-1.9294402599334717,-7.698695182800293
1772810320919964200,4.926964111328125,-7.222169399261475,-0.8607354164123535,-7.76380729675293
1772810320929664000,4.9366640625,-6.121978282928467,-0.008181095123291016,-6.902517795562744
1772810320939363800,4.94636376953125,-4.060256004333496,0.8095643520355225,-4.680746555328369
1772810320949063700,4.956063720703125,-1.5520148277282715,1.5067298412322998,-1.4825711250305176
1772810320958763500,4.965763427734375,1.3752384185791016,2.54579496383667,2.322545051574707
1772810320968463600,4.975463623046875,5.610714912414551,3.7151689529418945,6.471986770629883
1772810320978163500,4.98516357421875,10.280712127685547,4.424630165100098,10.753569602966309
1772810320987863300,4.99486328125,15.739253997802734,5.425950050354004,15.543373107910156
1772810320997563100,5.004563232421875,21.5946102142334,8.205970764160156,18.669607162475586
1772810321007263200,5.01426318359375,25.561744689941406,10.75296401977539,20.000572204589844
1772810321016963000,5.023963134765625,29.48159408569336,12.028257369995117,22.319515228271484
1772810321026663000,5.033662841796875,35.033836364746094,12.509427070617676,25.766399383544922
1772810321036362800,5.04336279296875,40.78471374511719,10.799986839294434,29.652542114257812
1772810321046062600,5.0530625,44.73411560058594,7.190904140472412,31.67517852783203
1772810321055762700,5.0627626953125,45.564701080322266,3.239931344985962,29.71967887878418
1772810321065462500,5.072462646484375,42.640380859375,0.1301264762878418,24.833370208740234
1772810321075162400,5.082162353515625,36.37738037109375,-1.9150359630584717,19.20454216003418
1772810321084862200,5.0918623046875,26.62203598022461,-3.5882275104522705,14.988361358642578
1772810321094562300,5.101562255859375,16.628389358520508,-4.095224857330322,11.284598350524902
1772810321104262100,5.11126220703125,7.126279830932617,-2.7317564487457275,8.113476753234863
1772810321113962000,5.1209619140625,-0.5804257392883301,-1.8779923915863037,5.554837703704834
1772810321123661800,5.130661865234375,-5.982572555541992,-1.5737180709838867,2.4996862411499023
1772810321133361700,5.140361572265625,-8.289650917053223,-1.5707697868347168,-1.4356637001037598
1772810321143061800,5.150061767578125,-10.425285339355469,-2.0950112342834473,-6.063259601593018
1772810321152761600,5.15976171875,-12.6089448928833,-2.7171597480773926,-9.97443962097168
1772810321162461400,5.16946142578125,-11.678291320800781,-3.13724684715271,-12.318925857543945
1772810321172161300,5.179161376953125,-8.266772270202637,-3.270501136779785,-13.275720596313477
1772810321181861000,5.188861083984375,-5.296877861022949,-4.110043525695801,-11.919290542602539
1772810321191561000,5.19856103515625,-3.4547572135925293,-4.765067100524902,-8.626203536987305
1772810321201261000,5.208260986328125,-2.904005527496338,-5.783698081970215,-4.86307430267334
1772810321210961000,5.2179609375,-3.283857822418213,-6.455426216125488,-2.061924695968628
1772810321220660700,5.22766064453125,-5.089037895202637,-6.812526702880859,-1.0285272598266602
1772810321230360600,5.237360595703125,-7.862131595611572,-6.311641216278076,-1.73455810546875
1772810321240060400,5.247060302734375,-9.994592666625977,-6.258294582366943,-3.1147360801696777
1772810321249760500,5.256760498046875,-11.760032653808594,-5.987117767333984,-4.437892436981201
1772810321259460400,5.26646044921875,-12.660238265991211,-5.470027923583984,-5.254915237426758
1772810321269160200,5.27616015625,-12.601598739624023,-5.541800498962402,-5.361151695251465
1772810321278860000,5.285860107421875,-12.114870071411133,-5.9143571853637695,-5.086948394775391
1772810321288559900,5.295559814453125,-11.164308547973633,-6.079505443572998,-4.682876110076904
1772810321298260000,5.305260009765625,-9.623213768005371,-6.181630611419678,-4.1604413986206055
1772810321307959800,5.314959716796875,-8.234970092773438,-6.486328125,-3.558140754699707
1772810321317659600,5.32465966796875,-7.079407215118408,-7.052923202514648,-2.942796230316162
1772810321327359500,5.334359375,-6.110779285430908,-7.361759185791016,-2.644911766052246
1772810321337059600,5.3440595703125,-5.211734771728516,-7.533980846405029,-2.71860933303833
1772810321346759400,5.353759521484375,-4.463929653167725,-7.739095211029053,-2.887454032897949
1772810321356459300,5.363459228515625,-4.078867435455322,-7.985969066619873,-3.4149622917175293
1772810321366159000,5.3731591796875,-3.6375820636749268,-7.991693496704102,-3.865636110305786
1772810321375859000,5.38285888671875,-3.2686452865600586,-8.09034252166748,-3.923743724822998
1772810321385559000,5.39255908203125,-3.122708797454834,-8.236181259155273,-3.8880579471588135
1772810321395259000,5.4022587890625,-3.2561137676239014,-8.335609436035156,-3.8326804637908936
1772810321404958700,5.411958740234375,-3.6239333152770996,-8.545023918151855,-3.8103322982788086
1772810321414658600,5.421658447265625,-3.912975788116455,-8.6128568649292,-3.784651041030884
1772810321424358700,5.431358642578125,-4.148603439331055,-8.577133178710938,-3.5500166416168213
1772810321434058200,5.441058349609375,-4.31874418258667,-8.643521308898926,-3.3848979473114014
1772810321443758300,5.45075830078125,-4.445610523223877,-8.687250137329102,-3.2260820865631104
1772810321453458200,5.460458251953125,-4.658246040344238,-8.647924423217773,-3.142519474029541
1772810321463158000,5.470157958984375,-4.769042491912842,-8.44359302520752,-3.072352409362793
1772810321472857900,5.47985791015625,-4.727169990539551,-8.137216567993164,-2.717334270477295
1772810321482557700,5.4895576171875,-4.6497392654418945,-8.027567863464355,-2.4713220596313477
1772810321492257800,5.4992578125,-4.7019805908203125,-7.910959720611572,-2.434952735900879
1772810321501957600,5.50895751953125,-4.89139986038208,-7.777770519256592,-2.5267562866210938
1772810321511657500,5.518657470703125,-4.890486240386963,-7.429770469665527,-2.640568494796753
1772810321521357300,5.528357421875,-4.856569766998291,-6.836832046508789,-2.915956497192383
1772810321531057400,5.538057373046875,-4.611026287078857,-6.275442123413086,-2.763697385787964
1772810321540757200,5.54775732421875,-4.125574111938477,-4.529902935028076,-3.1866211891174316
1772810321550457000,5.55745703125,-2.7283670902252197,-1.5031228065490723,-3.835078239440918
1772810321560157000,5.567156982421875,-1.186729907989502,0.6238241195678711,-3.5018134117126465
1772810321569856800,5.576856689453125,0.2904534339904785,3.1788926124572754,-1.8308016061782837
1772810321579556900,5.586556884765625,2.1104817390441895,5.953097343444824,0.6232211589813232
1772810321589256700,5.596256591796875,2.671949863433838,11.532395362854004,0.760183572769165
1772810321598956500,5.60595654296875,4.934788703918457,12.349187850952148,1.7807846069335938
1772810321608656400,5.615656494140625,5.5389604568481445,9.583614349365234,2.059776782989502
1772810321618356500,5.6253564453125,9.298115730285645,10.913681983947754,1.7700824737548828
1772810321628056300,5.635056396484375,13.523355484008789,10.013896942138672,4.671459674835205
1772810321637756200,5.644756103515625,17.2783203125,5.8629279136657715,9.765851974487305
1772810321647456000,5.6544560546875,21.22904396057129,-0.004242897033691406,14.129188537597656
1772810321657155800,5.66415576171875,25.171409606933594,-3.0329697132110596,16.01861572265625
1772810321666856000,5.67385595703125,27.992050170898438,-2.477510929107666,14.537450790405273
1772810321676555800,5.6835556640625,27.20140266418457,-0.30355238914489746,10.686243057250977
1772810321686255600,5.693255615234375,22.903039932250977,1.8452143669128418,6.44775390625
1772810321695955500,5.70295556640625,16.315534591674805,3.6367387771606445,2.7584879398345947
1772810321705655300,5.7126552734375,9.235541343688965,4.728205680847168,0.17306089401245117
1772810321715355100,5.722355224609375,3.133131504058838,5.228604316711426,-1.0499341487884521
1772810321725055000,5.732054931640625,-2.303194522857666,5.303675651550293,-1.0385642051696777
1772810321734755000,5.741755126953125,-6.515175819396973,4.742170333862305,-0.43715524673461914
1772810321744455000,5.751454833984375,-8.823260307312012,3.981400489807129,-0.17264890670776367
1772810321754154800,5.76115478515625,-9.647485733032227,3.1567726135253906,-0.8193643093109131
1772810321763854600,5.7708544921875,-9.671356201171875,2.2433700561523438,-1.9981846809387207
1772810321773554700,5.7805546875,-9.613155364990234,1.2829771041870117,-3.3805019855499268
1772810321783254500,5.790254638671875,-9.402204513549805,0.35801005363464355,-4.770349025726318
1772810321792954400,5.799954345703125,-9.338445663452148,-0.39960241317749023,-6.057439804077148
1772810321802654200,5.809654296875,-9.58873462677002,-1.100665807723999,-7.261757850646973
1772810321812354000,5.81935400390625,-9.769295692443848,-1.4728848934173584,-8.372857093811035
1772810321831754000,5.83875390625,-9.94870662689209,-1.8041890859603882,-9.462541580200195
1772810321841453800,5.848453857421875,-10.036081314086914,-1.9525606632232666,-9.066703796386719
1772810321851153700,5.858153564453125,-10.238685607910156,-2.1599385738372803,-8.241496086120605
1772810321860853800,5.867853759765625,-10.061654090881348,-2.3362720012664795,-7.307828426361084
1772810321870553600,5.8775537109375,-9.760703086853027,-2.518115282058716,-6.361594200134277
1772810321880253400,5.88725341796875,-9.517942428588867,-2.7173194885253906,-5.666804313659668
1772810321889953300,5.896953369140625,-9.336823463439941,-2.897946357727051,-5.151215553283691
1772810321899653000,5.906653076171875,-9.182723999023438,-2.9951858520507812,-4.836205005645752
1772810321919052800,5.926052734375,-8.81155776977539,-3.14410138130188,-4.801013946533203
1772810321928753000,5.9357529296875,-8.687358856201172,-3.189335346221924,-4.854803562164307
1772810321938452700,5.94545263671875,-8.77121639251709,-3.2669334411621094,-4.900716781616211
1772810321948152600,5.955152587890625,-9.222000122070312,-3.2853035926818848,-4.887751579284668
1772810321957852400,5.964852294921875,-9.865724563598633,-3.2126431465148926,-4.651695728302002
1772810321967552500,5.974552490234375,-10.256775856018066,-3.2718076705932617,-4.472723007202148
1772810321977252400,5.98425244140625,-10.187904357910156,-3.2274811267852783,-4.376153945922852
1772810321986952200,5.9939521484375,-9.773001670837402,-3.0310051441192627,-4.419411659240723
1772810321996652000,6.003652099609375,-9.070151329040527,-2.9286537170410156,-4.377086639404297
1772810322006352000,6.013351806640625,-7.649767875671387,-2.9336938858032227,-4.074775695800781
1772810322016052000,6.023052001953125,-4.856627464294434,-2.481696605682373,-3.6309432983398438
1772810322025751800,6.032751708984375,-1.545732021331787,-0.8205640316009521,-3.05112624168396
1772810322035451600,6.04245166015625,0.511681079864502,1.5754013061523438,-0.9860000610351562
1772810322045151500,6.0521513671875,3.016739845275879,4.319820404052734,4.07912540435791
1772810322054851600,6.0618515625,9.238946914672852,6.504541873931885,13.813291549682617
1772810322064551400,6.071551513671875,17.355567932128906,6.083536148071289,26.634071350097656
1772810322074251300,6.081251220703125,29.182741165161133,3.7553367614746094,37.715980529785156
1772810322083951000,6.090951171875,43.34552001953125,-1.0052378177642822,44.65376281738281
1772810322093651000,6.10065087890625,53.03591537475586,-4.891663074493408,44.96772003173828
1772810322103351000,6.11035107421875,59.08363723754883,-6.139843940734863,38.74393081665039
1772810322113051000,6.12005078125,59.73514175415039,-5.399226665496826,28.94978904724121
1772810322122750700,6.129750732421875,53.21604919433594,-4.358460426330566,19.234861373901367
1772810322132450600,6.139450439453125,42.69953155517578,-2.922146797180176,11.653587341308594
1772810322142150400,6.149150390625,30.304115295410156,-1.0792276859283447,7.061079502105713
1772810322151850200,6.158850341796875,18.92190170288086,0.6911146640777588,5.515615463256836
1772810322161550300,6.16855029296875,9.085941314697266,1.6756010055541992,5.799185276031494
1772810322171250200,6.178250244140625,0.7928285598754883,2.3558363914489746,5.8671979904174805
1772810322180950000,6.187949951171875,-5.9126739501953125,3.2630820274353027,4.2414469718933105
1772810322190649900,6.19764990234375,-10.962480545043945,4.006771087646484,0.565457820892334
1772810322200349700,6.207349609375,-14.589651107788086,4.129682540893555,-3.8996152877807617
1772810322210049800,6.2170498046875,-15.68027114868164,2.517943859100342,-7.3390607833862305
1772810322219749600,6.22674951171875,-13.816162109375,-0.07588934898376465,-9.572266578674316
1772810322229449500,6.236449462890625,-10.18411922454834,-2.119792938232422,-10.660470008850098
1772810322239149300,6.2461494140625,-6.17299222946167,-3.807551383972168,-10.38060188293457
1772810322248849200,6.25584912109375,-2.6854281425476074,-4.900099277496338,-8.504645347595215
1772810322258549200,6.26554931640625,-1.0702037811279297,-6.1826300621032715,-5.8404541015625
1772810322268249000,6.2752490234375,-1.057389259338379,-7.034730911254883,-3.7386579513549805
1772810322277949000,6.284948974609375,-2.7057557106018066,-6.988046169281006,-3.007314920425415
1772810322287648800,6.294648681640625,-5.111254692077637,-6.396047592163086,-3.3724493980407715
1772810322297348900,6.304348876953125,-7.81056022644043,-5.730293273925781,-4.065057754516602
1772810322307048700,6.314048583984375,-9.98674488067627,-4.9971418380737305,-4.878602027893066
1772810322316748500,6.32374853515625,-11.475188255310059,-4.210256099700928,-5.437129974365234
1772810322326448400,6.333448486328125,-12.423628807067871,-3.558079957962036,-5.471501350402832
1772810322336148200,6.343148193359375,-12.918292999267578,-3.369795083999634,-4.7890143394470215
1772810322345848000,6.35284814453125,-12.871294021606445,-3.382936716079712,-3.7554640769958496
1772810322355548000,6.3625478515625,-12.316062927246094,-3.4828808307647705,-2.7959537506103516
1772810322365248000,6.372248046875,-11.414093971252441,-3.710801601409912,-2.0571017265319824
1772810322374947800,6.38194775390625,-10.543207168579102,-4.009644031524658,-1.6598024368286133
1772810322384647700,6.391647705078125,-9.832880020141602,-4.161016464233398,-1.610418677330017
1772810322394347500,6.401347412109375,-9.125017166137695,-4.436798095703125,-1.8885775804519653
1772810322404047600,6.411047607421875,-8.238597869873047,-4.621654033660889,-2.2194509506225586
1772810322413747500,6.42074755859375,-7.640649318695068,-4.847319602966309,-2.4611194133758545
1772810322423447300,6.430447265625,-7.189730167388916,-5.082741737365723,-2.5004799365997314
1772810322433147100,6.440147216796875,-6.800826549530029,-5.378103256225586,-2.277315378189087
1772810322442847000,6.449846923828125,-6.6400933265686035,-5.730504512786865,-1.979777216911316
1772810322452547000,6.459547119140625,-6.679328918457031,-6.041143894195557,-1.597651720046997
1772810322462247000,6.469246826171875,-6.775976181030273,-6.435285568237305,-1.153602123260498
1772810322471946800,6.47894677734375,-6.897587776184082,-6.841579437255859,-0.7780464291572571
1772810322481646600,6.488646484375,-6.835629463195801,-7.222236633300781,-0.37884390354156494
1772810322491346700,6.4983466796875,-6.739356994628906,-7.670961856842041,0.11342370510101318
1772810322501046500,6.508046630859375,-6.656872272491455,-8.112754821777344,0.44885706901550293
1772810322510746400,6.517746337890625,-6.807192325592041,-8.39087963104248,0.5029770135879517
1772810322520446200,6.5274462890625,-7.192429065704346,-8.538900375366211,0.31866157054901123
1772810322530146000,6.53714599609375,-7.540366172790527,-8.589277267456055,0.1088324785232544
1772810322539846000,6.546845947265625,-7.74410343170166,-8.47318172454834,0.028520822525024414
1772810322549545700,6.556545654296875,-7.882321357727051,-8.195865631103516,0.006082653999328613
1772810322559245800,6.566245849609375,-7.851656436920166,-7.966143608093262,0.10986614227294922
1772810322568945700,6.575945556640625,-7.869046211242676,-7.709650993347168,0.2934967875480652
1772810322578645500,6.5856455078125,-7.651177883148193,-7.538174629211426,0.5370439291000366
1772810322588345300,6.595345458984375,-7.213510513305664,-7.181865215301514,0.5426201820373535
1772810322598045200,6.605045166015625,-6.924009323120117,-6.252969264984131,0.4031701385974884
1772810322607745300,6.614745361328125,-6.458485126495361,-4.987539291381836,0.1325087994337082
1772810322617445000,6.624445068359375,-5.666874408721924,-3.553661823272705,-0.42307424545288086
1772810322627145000,6.63414501953125,-4.766197204589844,-1.073453426361084,-1.2769033908843994
1772810322636844800,6.6438447265625,-3.642714500427246,3.3578643798828125,-2.829448938369751
1772810322646545000,6.653544921875,-1.9835247993469238,9.27556037902832,-5.036378860473633
1772810322656244700,6.66324462890625,0.16667795181274414,13.626752853393555,-6.504675388336182
1772810322665944600,6.672944580078125,1.519606590270996,16.236427307128906,-7.43803596496582
1772810322675644400,6.68264453125,3.341031074523926,14.213729858398438,-4.048572063446045
1772810322685344300,6.69234423828125,7.922672271728516,13.994524002075195,0.34336209297180176
1772810322695044000,6.702044189453125,13.14510726928711,11.614922523498535,8.03575325012207
1772810322704744000,6.711743896484375,19.03158187866211,3.0731873512268066,16.630212783813477
1772810322714444000,6.721444091796875,24.15774154663086,-5.754240989685059,21.16141700744629
1772810322724143900,6.731143798828125,30.892013549804688,-5.64222526550293,18.147674560546875
1772810322733843700,6.74084375,35.40791320800781,-3.597472667694092,11.672407150268555
1772810322743543600,6.75054345703125,34.14427947998047,-1.240297555923462,5.4180216789245605
1772810322753243600,6.76024365234375,29.12835693359375,1.3464429378509521,0.9970506429672241
1772810322762943500,6.769943603515625,21.518918991088867,3.3305134773254395,-1.7567121982574463
1772810322772643300,6.779643310546875,13.43215274810791,5.5518035888671875,-3.1683425903320312
1772810322782343200,6.78934326171875,6.383605003356934,7.249408721923828,-2.9737696647644043
1772810322792043000,6.79904296875,0.5560636520385742,7.500014781951904,-1.1690263748168945
1772810322801743000,6.8087431640625,-3.354010581970215,6.692035675048828,1.5543583631515503
1772810322811443000,6.81844287109375,-5.3731231689453125,5.687155723571777,3.96419620513916
1772810322821142800,6.828142822265625,-6.503496170043945,4.590367794036865,5.113154411315918
1772810322830842600,6.837842529296875,-6.841982364654541,3.644599199295044,4.66432523727417
1772810322840542500,6.84754248046875,-6.525482177734375,2.8351995944976807,3.2070670127868652
1772810322850242300,6.8572421875,-6.082263469696045,1.926159381866455,1.6597684621810913
1772810322859942400,6.8669423828125,-5.520671367645264,0.9643008708953857,0.3504940867424011
1772810322869642200,6.876642333984375,-4.965984344482422,0.026841163635253906,-0.6858956813812256
1772810322879342000,6.886342041015625,-4.7958831787109375,-0.768913745880127,-1.4974324703216553
1772810322889042000,6.8960419921875,-4.97804069519043,-1.5723490715026855,-2.1047239303588867
1772810322898741800,6.90574169921875,-5.508624076843262,-2.1206753253936768,-2.4765403270721436
1772810322908441900,6.91544189453125,-6.678632736206055,-2.3839504718780518,-2.588005542755127
1772810322918141700,6.9251416015625,-8.111311912536621,-2.5519521236419678,-2.5398619174957275
1772810322927841500,6.934841552734375,-9.503524780273438,-2.7052054405212402,-2.19677472114563
1772810322937541400,6.944541259765625,-10.620534896850586,-3.0193395614624023,-1.626307487487793
1772810322947241500,6.954241455078125,-11.595977783203125,-3.2786495685577393,-1.0454297065734863
1772810322956941300,6.96394140625,-12.184110641479492,-3.6001737117767334,-0.5719733238220215
1772810322966641200,6.97364111328125,-12.18886947631836,-3.9520232677459717,-0.2553824782371521
1772810322976341000,6.983341064453125,-11.899948120117188,-4.16286563873291,-0.0053070783615112305
1772810322986040800,6.993040771484375,-11.389552116394043,-4.332200527191162,0.1648714542388916
1772810322995740700,7.00274072265625,-10.713059425354004,-4.626358509063721,0.09149569272994995
1772810323005440500,7.0124404296875,-9.769984245300293,-4.916591644287109,-0.11292481422424316
1772810323015140600,7.022140625,-8.95335865020752,-5.2424116134643555,-0.288508802652359
1772810323024840400,7.03184033203125,-8.305296897888184,-5.5583953857421875,-0.4397619962692261
1772810323034540300,7.041540283203125,-7.638978958129883,-5.898703098297119,-0.6866052150726318
1772810323044240100,7.051240234375,-6.995020866394043,-5.991559028625488,-0.8901863694190979
1772810323053940200,7.060940185546875,-6.512874126434326,-5.899613380432129,-1.0866389274597168
1772810323063640000,7.07064013671875,-5.92503547668457,-5.618677616119385,-1.2687710523605347
1772810323073340000,7.08033984375,-5.266701698303223,-4.912985324859619,-1.561600923538208
1772810323083039700,7.090039794921875,-5.061832427978516,-3.305568218231201,-2.1447863578796387
1772810323092739600,7.099739501953125,-5.08764123916626,-0.41959381103515625,-3.3466715812683105
1772810323102439700,7.109439697265625,-4.141607284545898,2.5744175910949707,-4.068777084350586
1772810323112139500,7.119139404296875,-1.386549949645996,4.788177490234375,-3.207071542739868
1772810323121839400,7.12883935546875,1.2624139785766602,7.743135929107666,-1.519490361213684
1772810323131539200,7.138539306640625,3.699126720428467,10.570556640625,0.935246467590332
1772810323141239000,7.148239013671875,8.292774200439453,10.967273712158203,3.2926008701324463
1772810323150939000,7.15793896484375,14.510604858398438,11.138574600219727,4.187465667724609
1772810323160639000,7.167638916015625,20.089370727539062,12.782682418823242,3.5944244861602783
1772810323170338800,7.1773388671875,24.463716506958008,14.143274307250977,2.5020477771759033
1772810323180038700,7.18703857421875,27.237220764160156,15.252382278442383,1.4226739406585693
1772810323189738500,7.196738525390625,29.357616424560547,16.106815338134766,0.7475361227989197
1772810323199438300,7.206438232421875,30.654754638671875,15.543676376342773,1.0771509408950806
1772810323209138400,7.216138427734375,30.852542877197266,13.849149703979492,2.1997177600860596
1772810323218838300,7.22583837890625,29.317428588867188,11.616609573364258,4.095193862915039
1772810323228538000,7.2355380859375,26.42902183532715,9.442438125610352,5.4519476890563965
1772810323238238000,7.245238037109375,22.40787696838379,7.812519550323486,4.958598613739014
1772810323247937800,7.254937744140625,18.186363220214844,6.847987174987793,2.7104430198669434
1772810323257638000,7.264637939453125,14.347329139709473,6.057235240936279,0.22265344858169556
1772810323267337700,7.274337646484375,11.452653884887695,4.610507488250732,-1.5484291315078735
1772810323277037600,7.28403759765625,9.295076370239258,3.130807876586914,-2.6139564514160156
1772810323286737400,7.2937373046875,6.979115009307861,1.4643940925598145,-2.4701638221740723
1772810323296437200,7.303437255859375,4.771296501159668,-0.2975020408630371,-1.4185197353363037
1772810323306137000,7.31313720703125,1.7445292472839355,-1.9614648818969727,-0.49371564388275146
1772810323315837200,7.322837158203125,-1.5517077445983887,-3.7868714332580566,0.3797893524169922
1772810323325537000,7.332537109375,-3.854858875274658,-5.769876003265381,0.689964771270752
1772810323335236900,7.34223681640625,-5.71791410446167,-7.210326671600342,0.06413710117340088
1772810323344936700,7.351936767578125,-7.02408504486084,-8.49937915802002,-0.6557947397232056
1772810323354636500,7.361636474609375,-7.850822448730469,-9.822734832763672,-1.2264716625213623
1772810323364336600,7.371336669921875,-8.241933822631836,-10.741004943847656,-1.6107892990112305
1772810323374036500,7.381036376953125,-8.835441589355469,-11.50556468963623,-1.7926195859909058
1772810323383736300,7.390736328125,-9.959742546081543,-11.579729080200195,-1.6074601411819458
1772810323393436200,7.400436279296875,-10.342090606689453,-11.198020935058594,-1.2133373022079468
1772810323403136300,7.41013623046875,-10.763192176818848,-10.644811630249023,-1.4362059831619263
1772810323412835800,7.4198359375,-11.047380447387695,-10.140378952026367,-1.5753931999206543
1772810323422536000,7.429535888671875,-10.892219543457031,-9.95323371887207,-1.765128493309021
1772810323432235800,7.43923583984375,-10.91980266571045,-9.613659858703613,-1.4862021207809448
1772810323441935600,7.448935546875,-10.861412048339844,-9.309592247009277,-0.9514997601509094
1772810323451635500,7.458635498046875,-10.52880859375,-9.155695915222168,-0.29066404700279236
1772810323461335300,7.468335205078125,-10.276357650756836,-8.768731117248535,0.04543547332286835
1772810323471035400,7.478035400390625,-9.488298416137695,-8.584930419921875,0.0642615258693695
1772810323480735200,7.4877353515625,-8.440849304199219,-8.40074634552002,0.1496666669845581
1772810323490435000,7.49743505859375,-7.336154937744141,-8.275562286376953,0.2353038787841797
1772810323500135000,7.507135009765625,-6.0465192794799805,-8.166231155395508,0.03961615264415741
1772810323509835000,7.5168349609375,-5.199156761169434,-8.423111915588379,0.06083060801029205
1772810323519534800,7.526534912109375,-3.8574059009552,-9.017670631408691,0.03738948702812195
1772810323529234700,7.536234619140625,-3.1425561904907227,-9.320178985595703,-0.10503771901130676
1772810323538934500,7.5459345703125,-3.0210258960723877,-9.307371139526367,-0.2821108102798462
1772810323548634400,7.55563427734375,-3.263803005218506,-9.242929458618164,-0.5809059143066406
1772810323558334200,7.565334228515625,-3.7690768241882324,-9.099482536315918,-0.804395854473114
1772810323568034000,7.575033935546875,-4.4049601554870605,-8.958531379699707,-1.0726478099822998
1772810323577734100,7.584734130859375,-4.895526885986328,-8.794042587280273,-1.2721593379974365
1772810323587434000,7.59443408203125,-5.489339351654053,-8.444742202758789,-1.3995755910873413
1772810323597133800,7.6041337890625,-6.071520805358887,-8.125982284545898,-1.4979429244995117
1772810323606833700,7.613833740234375,-6.3109002113342285,-7.9413628578186035,-1.4955925941467285
1772810323616533800,7.62353369140625,-5.7704267501831055,-8.105877876281738,-1.4264640808105469
1772810323626233600,7.633233642578125,-5.270571231842041,-8.145763397216797,-1.414790391921997
1772810323635933400,7.642933349609375,-4.902700901031494,-7.8128862380981445,-1.359102487564087
1772810323645633300,7.65263330078125,-4.343191623687744,-7.16180419921875,-1.6861783266067505
1772810323655333000,7.6623330078125,-3.4937100410461426,-6.265904426574707,-2.180312156677246
1772810323665033000,7.672032958984375,-2.190373420715332,-4.9156575202941895,-2.929727554321289
1772810323674732800,7.68173291015625,-1.2080678939819336,-2.8209328651428223,-3.8645505905151367
1772810323684433000,7.691432861328125,-0.09760904312133789,-0.7636404037475586,-4.0305328369140625
1772810323694132700,7.7011328125,2.1380677223205566,1.5084385871887207,-3.803849220275879
1772810323703832600,7.71083251953125,4.019632816314697,3.5846710205078125,-3.2991504669189453
1772810323713532400,7.720532470703125,4.82110595703125,5.460988998413086,-2.5255117416381836
1772810323723232500,7.730232421875,4.800410270690918,6.671727180480957,-0.9523723125457764
1772810323732932400,7.739932373046875,4.72967529296875,5.500823020935059,1.0524523258209229
1772810323742632200,7.749632080078125,4.395026683807373,7.6627583503723145,-0.49408066272735596
1772810323752332000,7.75933203125,3.7488327026367188,10.71728515625,-2.6316280364990234
1772810323762031900,7.769031982421875,3.600391387939453,10.565500259399414,-2.7067618370056152
1772810323771731700,7.778731689453125,3.5280117988586426,10.90592098236084,-2.7121024131774902
1772810323781431600,7.788431640625,4.10192346572876,10.744207382202148,-1.2745161056518555
1772810323791131600,7.798131591796875,5.7811598777771,8.939062118530273,1.0959049463272095
1772810323800831500,7.80783154296875,8.70163345336914,7.277164459228516,3.3965342044830322
1772810323810531300,7.81753125,11.53801155090332,5.979532241821289,5.02677059173584
1772810323820231200,7.827231201171875,13.28101921081543,4.876194000244141,5.634963512420654
1772810323829931300,7.83693115234375,13.236734390258789,4.783291339874268,5.246012210845947
1772810323839631000,7.846631103515625,9.436140060424805,5.466015815734863,6.076137065887451
1772810323849331000,7.8563310546875,6.2046217918396,5.1064982414245605,5.252060890197754
1772810323859030800,7.86603076171875,5.030585289001465,4.185922145843506,1.6095178127288818
1772810323868730600,7.875730712890625,3.9739370346069336,4.443383693695068,-1.901908278465271
1772810323878430700,7.8854306640625,1.054041862487793,3.001619338989258,-2.7910351753234863
1772810323888130600,7.895130615234375,-0.5755257606506348,2.519867420196533,-2.7129337787628174
1772810323897830400,7.904830322265625,-1.7160587310791016,1.628427505493164,-2.1214776039123535
1772810323907530200,7.9145302734375,-1.415708065032959,0.5880832672119141,-1.3553926944732666
1772810323917230000,7.92422998046875,-0.03265953063964844,-0.6036567687988281,-0.21865692734718323
1772810323926930000,7.933929931640625,1.4768266677856445,-1.5085334777832031,0.9841954708099365
1772810323936630000,7.943630126953125,2.0778074264526367,-1.7689261436462402,1.5153685808181763
1772810323946329900,7.953329833984375,1.827042579650879,-2.042424440383911,1.4110136032104492
1772810323956029700,7.96302978515625,1.1127681732177734,-1.7734642028808594,0.8101838231086731
1772810323965729500,7.9727294921875,-0.23905658721923828,-1.4078624248504639,0.10064640641212463
1772810323975429400,7.982429443359375,-1.911501407623291,-1.2745728492736816,-0.5116682648658752
1772810323985129500,7.99212939453125,-3.165135383605957,-1.2256784439086914,-0.7483841180801392
1772810323994829300,8.001829345703126,-3.7905235290527344,-0.666196346282959,-0.4841190576553345
1772810324004529200,8.011529052734375,-4.434704303741455,-0.4381132125854492,-0.12379318475723267
1772810324014229000,8.02122900390625,-4.782406330108643,-0.5494599342346191,0.33410459756851196
1772810324023928800,8.0309287109375,-4.394389629364014,-0.3387417793273926,0.5592137575149536
1772810324033628700,8.040628662109375,-3.448634147644043,-0.12327194213867188,0.9151769280433655
1772810324053028600,8.060028564453125,-1.8627448081970215,0.4114823341369629,1.2520058155059814
1772810324062728400,8.069728515625,-1.6025123596191406,0.6674728393554688,1.216386079788208
1772810324072428300,8.07942822265625,-1.6634635925292969,0.9415421485900879,1.1333945989608765
1772810324082128100,8.089128173828126,-1.669097900390625,1.0534353256225586,0.9331642985343933
1772810324091828200,8.098828125,-1.4732108116149902,1.1444625854492188,0.8683701157569885
1772810324101528000,8.108528076171876,-0.9735593795776367,0.9393200874328613,0.6582996249198914
1772810324111228000,8.118227783203125,0.02864551544189453,0.6613092422485352,0.26254838705062866
1772810324120927700,8.127927734375,1.1379804611206055,0.3597097396850586,-0.2881726622581482
1772810324130627600,8.137627685546875,2.0324878692626953,0.08719968795776367,-0.6888274550437927
1772810324140327400,8.147327392578125,2.727903366088867,-0.10821104049682617,-0.8444936275482178
1772810324150027500,8.157027587890624,3.054788589477539,0.038726806640625,-0.7867716550827026
1772810324159727400,8.166727294921875,3.0797204971313477,0.1970963478088379,-0.5783705115318298
1772810324169427200,8.17642724609375,2.755936622619629,0.46567726135253906,-0.25002217292785645
1772810324179127000,8.186126953125,2.183816909790039,0.703254222869873,0.05603742599487305
1772810324188827000,8.195826904296876,1.532379150390625,0.8621830940246582,0.2552545666694641
1772810324198527000,8.20552685546875,0.9019622802734375,0.9328274726867676,0.2758377194404602
1772810324208226800,8.215226806640626,0.5801515579223633,0.8413553237915039,0.11930227279663086
1772810324217926700,8.2249267578125,0.5939855575561523,0.507631778717041,-0.1572234332561493
1772810324227626500,8.23462646484375,0.8472080230712891,0.05782127380371094,-0.39263999462127686
1772810324237326300,8.244326416015625,1.0042543411254883,-0.4179072380065918,-0.6309855580329895
1772810324247026200,8.254026123046875,1.1564416885375977,-0.9049582481384277,-0.8553991317749023
1772810324256726300,8.263726318359375,1.3656978607177734,-1.249720811843872,-1.017708420753479
1772810324266426000,8.273426025390625,1.3827390670776367,-1.4794878959655762,-1.094944953918457
1772810324276126000,8.2831259765625,1.3170156478881836,-1.5501351356506348,-1.2100533246994019
1772810324285825800,8.29282568359375,1.1482648849487305,-1.4319870471954346,-1.3015429973602295
1772810324295525600,8.302525634765624,0.8332233428955078,-1.0589356422424316,-1.3585116863250732
1772810324305225700,8.312225830078125,0.3895225524902344,-0.7142481803894043,-1.2858123779296875
1772810324314925600,8.321925537109376,-0.22698307037353516,-0.2733182907104492,-1.0223404169082642
1772810324324625400,8.33162548828125,-0.8983287811279297,0.11971807479858398,-0.7573046684265137
1772810324334325200,8.3413251953125,-1.3634238243103027,0.4852733612060547,-0.6242296099662781
1772810324344025000,8.351025146484375,-1.482177734375,0.8080711364746094,-0.6026731729507446
1772810324353725000,8.360724853515626,-1.2527008056640625,0.9385452270507812,-0.6499954462051392
1772810324363424800,8.3704248046875,-0.7707653045654297,0.9660153388977051,-0.770175039768219
1772810324373124900,8.380124755859375,-0.3981351852416992,0.8804421424865723,-0.8020597696304321
1772810324382824700,8.38982470703125,-0.13344669342041016,0.7731552124023438,-0.9159489274024963
1772810324392524500,8.399524658203125,0.0810546875,0.6248936653137207,-1.0833065509796143
1772810324402224400,8.409224365234374,-0.014919281005859375,0.4811587333679199,-1.1431763172149658
1772810324411924500,8.418924560546875,-0.15126705169677734,0.28734874725341797,-0.9588863253593445
1772810324421624300,8.428624267578124,-0.3211402893066406,0.31475019454956055,-0.8170028924942017
1772810324431324200,8.43832421875,-0.3928194046020508,0.2100529670715332,-0.7392196655273438
1772810324441024000,8.44802392578125,-0.4586009979248047,0.1854081153869629,-0.8435574769973755
1772810324450723800,8.457723876953125,-0.3998689651489258,0.0677485466003418,-0.9868780374526978
1772810324460423700,8.467423583984376,-0.4079160690307617,-0.06922006607055664,-1.0953290462493896
1772810324470123500,8.47712353515625,-1.1697897911071777,0.16794919967651367,-1.1135153770446777
1772810324479823600,8.48682373046875,-1.3755569458007812,0.3520393371582031,-0.8068417310714722
1772810324489523500,8.4965234375,-1.5035605430603027,0.5363483428955078,-0.44648587703704834
1772810324499223300,8.506223388671875,-1.2272310256958008,0.45285558700561523,-0.24222959578037262
