time,seconds_elapsed,z,y,x
1772810468621959200,0.118959228515625,0.46395179629325867,-0.6677515506744385,0.4402044415473938
1772810468631659000,0.128658935546875,0.7559451460838318,-0.3693441152572632,0.03275762498378754
1772810468641359000,0.138359130859375,1.074511170387268,0.3040579557418823,-0.330706924200058
1772810468651059200,0.14805908203125,1.4324779510498047,0.966235339641571,-0.6443859934806824
1772810468660759000,0.157759033203125,1.7806708812713623,1.3755147457122803,-0.8838449716567993
1772810468670459100,0.167459228515625,2.059225082397461,1.4106395244598389,-1.0457241535186768
1772810468680159200,0.1771591796875,2.2281293869018555,1.0936006307601929,-1.1471277475357056
1772810468689859000,0.186859130859375,2.3704607486724854,0.5649735331535339,-1.233259677886963
1772810468699559000,0.196558837890625,2.4822490215301514,-0.06299543380737305,-1.3007601499557495
1772810468709259000,0.206259033203125,2.547916889190674,-0.5981130003929138,-1.3239730596542358
1772810468718959000,0.215958984375,2.531118154525757,-0.7144827246665955,-1.2216532230377197
1772810468728659000,0.225658935546875,2.386343240737915,-0.23678645491600037,-0.9501237869262695
1772810468738359000,0.235359130859375,2.120311737060547,0.47265663743019104,-0.5698604583740234
1772810468748059000,0.245058837890625,1.7599014043807983,0.9912807941436768,-0.18745912611484528
1772810468757759000,0.254759033203125,1.3930771350860596,1.1943933963775635,0.12163844704627991
1772810468767458800,0.264458740234375,1.1139118671417236,1.0499238967895508,0.31986406445503235
1772810468777159000,0.274158935546875,0.8912517428398132,0.5429824590682983,0.3644571900367737
1772810468786858800,0.283858642578125,0.7345649003982544,-0.22059854865074158,0.17172935605049133
1772810468796558800,0.293558837890625,0.6679806113243103,-0.9832631945610046,-0.16455170512199402
1772810468806258700,0.3032587890625,0.6820304989814758,-1.4521019458770752,-0.41928231716156006
1772810468815958800,0.312958740234375,0.7531962990760803,-1.588630199432373,-0.4904480576515198
1772810468825659000,0.322658935546875,0.8649845123291016,-1.5083014965057373,-0.474260151386261
1772810468835358700,0.332358642578125,0.9770781993865967,-1.1934770345687866,-0.4583776593208313
1772810468845058800,0.342058837890625,1.0778708457946777,-0.8198568820953369,-0.4211149215698242
1772810468854758700,0.351758544921875,1.1520910263061523,-0.5468003153800964,-0.4263072609901428
1772810468864458800,0.361458740234375,1.1808016300201416,-0.3424660563468933,-0.5246564745903015
1772810468874158600,0.37115869140625,1.145371437072754,-0.11614066362380981,-0.7280744314193726
1772810468883858700,0.380858642578125,1.0399973392486572,0.39568766951560974,-1.0460295677185059
1772810468893558500,0.39055859375,0.8799507021903992,1.2603667974472046,-1.4311797618865967
1772810468903258600,0.400258544921875,0.6866120100021362,2.2145376205444336,-1.7741804122924805
1772810468912958500,0.40995849609375,0.5076286196708679,2.866330146789551,-2.065868377685547
1772810468922658600,0.419658447265625,0.4361574649810791,2.53463077545166,-2.264704704284668
1772810468932358400,0.4293583984375,0.4612029194831848,1.7817398309707642,-2.250654935836792
1772810468942058500,0.43905859375,0.6023126840591431,1.2108867168426514,-2.108017921447754
1772810468951758600,0.448758544921875,1.2382229566574097,0.9347758293151855,-2.0115013122558594
1772810468961458400,0.45845849609375,2.271500587463379,0.6940951347351074,-1.9763766527175903
1772810468971158300,0.468158203125,2.9098544120788574,0.5453495383262634,-2.0680062770843506
1772810468980858400,0.4778583984375,2.952920436859131,0.6046034097671509,-2.2445461750030518
1772810468990558500,0.487558349609375,2.785238027572632,0.5129737257957458,-2.398178815841675
1772810469000258300,0.49725830078125,2.576627731323242,0.21548254787921906,-2.3606104850769043
1772810469009958400,0.50695849609375,2.36893367767334,0.2176205813884735,-1.999284029006958
1772810469019658200,0.516658203125,2.148716926574707,0.5856665968894958,-1.4308743476867676
1772810469029358300,0.5263583984375,1.905592679977417,0.8736893534660339,-0.7934370040893555
1772810469039058200,0.53605810546875,1.7153083086013794,0.9421061873435974,-0.2329685539007187
1772810469048758300,0.54575830078125,1.6245949268341064,0.8336777091026306,0.19616395235061646
1772810469058458000,0.5554580078125,1.592829942703247,0.5053378939628601,0.4081340432167053
1772810469068158200,0.565158203125,1.5393792390823364,0.13240493834018707,0.4038579761981964
1772810469077858000,0.574858154296875,1.470962405204773,-0.14485131204128265,0.2496146261692047
1772810469087558100,0.58455810546875,1.4004075527191162,-0.3372737169265747,0.015347977168858051
1772810469097258200,0.59425830078125,1.3023637533187866,-0.3882809281349182,-0.1758527010679245
1772810469106958000,0.6039580078125,1.3573415279388428,-0.1882227063179016,-0.2842811942100525
1772810469116658200,0.613658203125,1.50028395652771,0.16936226189136505,-0.2876409590244293
1772810469126358000,0.62335791015625,1.598022222518921,0.5719221234321594,-0.26687154173851013
1772810469136058000,0.63305810546875,1.619402527809143,0.8715513348579407,-0.28641921281814575
1772810469145758000,0.642758056640625,1.6255111694335938,1.0300707817077637,-0.28611379861831665
1772810469155458000,0.6524580078125,1.6508620977401733,0.9408844709396362,-0.212504580616951
1772810469165158000,0.662157958984375,1.6135993003845215,0.8303179740905762,-0.09827287495136261
1772810469174858000,0.67185791015625,1.526856541633606,0.9497420191764832,0.027259841561317444
1772810469184558000,0.68155810546875,1.388801097869873,1.014493703842163,0.20196716487407684
1772810469194258000,0.6912578125,1.2400555610656738,0.9051488637924194,0.44784024357795715
1772810469203957800,0.700957763671875,1.130099892616272,0.605519711971283,0.7263945937156677
1772810469213657900,0.710657958984375,1.053741693496704,0.20418155193328857,0.977154552936554
1772810469223358000,0.72035791015625,1.000596523284912,-0.14607304334640503,1.1430044174194336
1772810469233057800,0.730057861328125,0.962417483329773,-0.4307360351085663,1.1921789646148682
1772810469242757600,0.739757568359375,0.9101884961128235,-0.7199804782867432,1.098105788230896
1772810469252457700,0.749457763671875,0.833219587802887,-0.9435570240020752,0.9169843792915344
1772810469262157800,0.75915771484375,0.7464767694473267,-1.172020435333252,0.755105197429657
1772810469271857700,0.768857666015625,0.6407971382141113,-1.2074506282806396,0.6588940024375916
1772810469281557800,0.778557861328125,0.5158752799034119,-0.9215658903121948,0.5226711630821228
1772810469291257600,0.788257568359375,0.37293294072151184,-0.7126501202583313,0.25725042819976807
1772810469300957700,0.797957763671875,0.39797839522361755,-0.23892448842525482,-0.058566659688949585
1772810469310657500,0.807657470703125,0.5485565662384033,0.24113887548446655,-0.3154352903366089
1772810469320357600,0.817357666015625,0.6960803866386414,0.3981311321258545,-0.502359926700592
1772810469330057500,0.827057373046875,0.7822123765945435,0.42653632164001465,-0.6602684855461121
1772810469339757600,0.836757568359375,0.8472694754600525,0.4647153913974762,-0.8013782501220703
1772810469349457700,0.846457763671875,0.8796452879905701,0.46257734298706055,-0.926910936832428
1772810469359157500,0.856157470703125,0.8637627959251404,0.4534143805503845,-1.0035744905471802
1772810469368857300,0.865857421875,0.8310815095901489,0.45158177614212036,-1.0255656242370605
1772810469378557400,0.875557373046875,0.8084795475006104,0.4127918779850006,-1.0127373933792114
1772810469388257500,0.885257568359375,0.8090903759002686,0.32330018281936646,-1.0038799047470093
1772810469397957400,0.894957275390625,0.813060998916626,0.1724165827035904,-1.0090723037719727
1772810469407657500,0.904657470703125,0.7999274134635925,0.054214250296354294,-1.0133483409881592
1772810469417357300,0.914357421875,0.7999274134635925,-0.01847865991294384,-1.0075451135635376
1772810469427057400,0.924057373046875,0.8185588121414185,-0.0038179049734026194,-0.9660062789916992
1772810469436757200,0.93375732421875,0.8567378520965576,0.13423752784729004,-0.8844558596611023
1772810469446457300,0.943457275390625,0.9355394244194031,0.35017824172973633,-0.7592285871505737
1772810469456157200,0.9531572265625,1.0219768285751343,0.6174315810203552,-0.6193405389785767
1772810469465857300,0.962857177734375,1.072678565979004,0.8437569737434387,-0.48617202043533325
1772810469475557000,0.97255712890625,1.0906990766525269,0.9445496797561646,-0.3756054937839508
1772810469485257200,0.98225732421875,1.0754274129867554,0.9311106204986572,-0.30169084668159485
1772810469494957300,0.991957275390625,1.0143409967422485,0.836121141910553,-0.2677878439426422
1772810469504657200,1.0016572265625,0.8985821008682251,0.679739773273468,-0.26564982533454895
1772810469514357200,1.011357177734375,0.7562506198883057,0.49984011054039,-0.2943604588508606
1772810469524057000,1.02105712890625,0.6591231226921082,0.34865108132362366,-0.31787875294685364
1772810469533757200,1.030757080078125,0.6478220820426941,0.3428478538990021,-0.29558220505714417
1772810469543457000,1.04045703125,0.6875283122062683,0.5450441241264343,-0.22014039754867554
1772810469553157000,1.0501572265625,0.731510579586029,0.7802270650863647,-0.093691386282444
1772810469562857000,1.05985693359375,0.7889318466186523,0.7939714789390564,0.07796161621809006
1772810469572557000,1.06955712890625,0.8854485154151917,0.6314814686775208,0.2749654948711395
1772810469582257000,1.0792568359375,0.9318742156028748,0.48365217447280884,0.38156139850616455
1772810469591957000,1.08895703125,0.9022472500801086,0.043829549103975296,0.2294560819864273
1772810469601656800,1.09865673828125,0.7672461867332458,-0.7523563504219055,-0.09460768103599548
1772810469611357000,1.10835693359375,0.6102539300918579,-1.4530181884765625,-0.4214203357696533
1772810469621057000,1.11805712890625,0.4526508152484894,-1.8739041090011597,-0.760755717754364
1772810469630756900,1.1277568359375,0.2684750556945801,-2.0568580627441406,-0.982194185256958
1772810469640456700,1.137456787109375,0.17776164412498474,-2.091066598892212,-1.0506110191345215
1772810469650156800,1.14715673828125,0.27458372712135315,-2.002185583114624,-1.0240384340286255
1772810469659857000,1.15685693359375,0.4734202027320862,-1.2156972885131836,-0.9369902014732361
1772810469669556700,1.166556640625,0.6884446144104004,0.0691804364323616,-0.8053488731384277
1772810469679256800,1.1762568359375,0.9682206511497498,1.2750275135040283,-0.6150645017623901
1772810469688956700,1.185956787109375,1.250134825706482,1.873369574546814,-0.32795801758766174
1772810469698656800,1.19565673828125,1.4749330282211304,1.7744094133377075,0.03214675933122635
1772810469708356600,1.205356689453125,1.6407828330993652,1.0859649181365967,0.4551706314086914
1772810469718056700,1.215056640625,1.8319834470748901,0.17577634751796722,0.9206495881080627
1772810469727756500,1.224756591796875,2.028071165084839,-0.6674461364746094,1.3445897102355957
1772810469737456600,1.23445654296875,2.1172573566436768,-1.3326778411865234,1.6604068279266357
1772810469747156500,1.244156494140625,2.025322198867798,-1.7831906080245972,1.8057926893234253
1772810469756856600,1.253856689453125,1.7861685752868652,-2.018678903579712,1.7853286266326904
1772810469766556700,1.263556640625,1.4801253080368042,-2.012570381164551,1.6252820491790771
1772810469776256500,1.273256591796875,1.1911863088607788,-1.8051817417144775,1.3824633359909058
1772810469785956600,1.28295654296875,0.9789108037948608,-1.5596141815185547,1.1158208847045898
1772810469795656400,1.292656494140625,0.8436042666435242,-1.3091596364974976,0.8913280963897705
1772810469805356500,1.3023564453125,0.7406735420227051,-1.1396446228027344,0.7230347990989685
1772810469815056400,1.312056396484375,0.6166679859161377,-1.063286542892456,0.6029998660087585
1772810469824756500,1.321756591796875,0.46028661727905273,-1.012661099433899,0.5006800293922424
1772810469834456300,1.331456298828125,0.272751122713089,-0.9334777593612671,0.4084394574165344
1772810469844156400,1.341156494140625,0.07299833744764328,-0.77618008852005,0.3626246154308319
1772810469853856500,1.3508564453125,-0.09834922850131989,-0.48937904834747314,0.41302093863487244
1772810469863556400,1.360556396484375,-0.21899501979351044,-0.02390008419752121,0.5669588446617126
1772810469873256200,1.370256103515625,-0.3035998046398163,0.5545125007629395,0.792978823184967
1772810469882956300,1.379956298828125,-0.3744601011276245,1.124754786491394,1.0577887296676636
1772810469892656400,1.389656494140625,-0.4260781705379486,1.5813761949539185,1.3235149383544922
1772810469902356200,1.399356201171875,-0.4819723069667816,1.8852814435958862,1.5574761629104614
1772810469912056000,1.40905615234375,-0.5155698657035828,2.0777037143707275,1.7868558168411255
1772810469921756200,1.418756103515625,-0.4938841760158539,2.123518705368042,2.0657155513763428
1772810469931456300,1.428456298828125,-0.4633409380912781,2.017228126525879,2.362901210784912
1772810469941156000,1.438156005859375,-0.4657844007015228,1.7957897186279297,2.619464635848999
1772810469950856200,1.447856201171875,-0.5082395076751709,1.4601194858551025,2.7850089073181152
1772810469960556000,1.45755615234375,-0.5858193039894104,1.0709986686706543,2.8613669872283936
1772810469970256100,1.467256103515625,-0.6734784245491028,0.6772963404655457,2.8699190616607666
1772810469979956000,1.4769560546875,-0.767551600933075,0.33429574966430664,2.8363215923309326
1772810469989656000,1.486656005859375,-0.8897245526313782,0.0792597085237503,2.7575199604034424
1772810469999356000,1.49635595703125,-1.0296125411987305,-0.0501672700047493,2.624962329864502
1772810470009056000,1.506055908203125,-1.1722495555877686,-0.028787001967430115,2.4087162017822266
1772810470018756000,1.515756103515625,-1.2947279214859009,0.15012001991271973,2.1145846843719482
1772810470028456000,1.5254560546875,-1.388801097869873,0.43233954906463623,1.774027705192566
1772810470038156000,1.535156005859375,-1.4666863679885864,0.7295252680778503,1.4261401891708374
1772810470047855900,1.54485595703125,-1.5500693321228027,0.9882264733314514,1.096578598022461
1772810470057556000,1.554555908203125,-1.6508620977401733,1.2035562992095947,0.7948114275932312
1772810470067255800,1.564255859375,-1.7534873485565186,1.3574942350387573,0.5315287113189697
1772810470076956000,1.573955810546875,-1.859777808189392,1.439044713973999,0.34429866075515747
1772810470086655700,1.58365576171875,-1.9926408529281616,1.383150577545166,0.26305365562438965
1772810470096355800,1.59335595703125,-2.1389429569244385,1.2603667974472046,0.24289511144161224
1772810470106055700,1.6030556640625,-2.2427899837493896,1.1336122751235962,0.2667188346385956
1772810470115755800,1.612755859375,-2.2614214420318604,0.9747874736785889,0.297872930765152
1772810470125456000,1.622455810546875,-2.1700971126556396,0.8495602011680603,0.31894776225090027
1772810470135155700,1.63215576171875,-1.9914191961288452,0.7615956664085388,0.3216966688632965
1772810470144855600,1.64185546875,-1.7696752548217773,0.7142536640167236,0.3064250349998474
1772810470154555600,1.6515556640625,-1.535408616065979,0.706923246383667,0.26824599504470825
1772810470164255700,1.661255859375,-1.3026691675186157,0.7139481902122498,0.22243113815784454
1772810470173955600,1.67095556640625,-1.0699297189712524,0.743880569934845,0.18577924370765686
1772810470183655700,1.68065576171875,-0.8610138893127441,0.7783944606781006,0.1634826809167862
1772810470193355500,1.69035546875,-0.7095194458961487,0.7841976881027222,0.20715951919555664
1772810470203055600,1.7000556640625,-0.6123919486999512,0.6821832656860352,0.3436878025531769
1772810470212755500,1.70975537109375,-0.5317577719688416,0.4137081801891327,0.5177842378616333
1772810470222455600,1.71945556640625,-0.44898560643196106,-0.02458730712532997,0.6170498132705688
1772810470232155400,1.7291552734375,-0.30451610684394836,-0.523892879486084,0.5217548608779907
1772810470241855500,1.73885546875,-0.02932151034474373,-1.0849722623825073,0.13843722641468048
1772810470251555600,1.7485556640625,0.24556763470172882,-1.6103159189224243,-0.5872701406478882
1772810470261255400,1.75825537109375,0.3042106628417969,-2.2275948524475098,-1.557934284210205
1772810470270955300,1.767955322265625,0.24770566821098328,-3.2691192626953125,-2.6321399211883545
1772810470280655400,1.7776552734375,0.39217519760131836,-4.583700180053711,-3.747884511947632
1772810470290355500,1.78735546875,0.6084213256835938,-5.748619556427002,-4.596375465393066
1772810470300055300,1.79705517578125,0.8570432662963867,-6.115748882293701,-4.778718948364258
1772810470309755100,1.806755126953125,1.2626575231552124,-4.737637996673584,-4.079889297485352
1772810470319455200,1.816455322265625,1.7971642017364502,-2.2767693996429443,-2.78180193901062
1772810470329155300,1.8261552734375,2.3319764137268066,-0.18089233338832855,-1.5860340595245361
1772810470338855200,1.835855224609375,2.6691737174987793,1.04076087474823,-0.9421825408935547
1772810470348555300,1.84555517578125,2.8707590103149414,1.3755147457122803,-0.770529568195343
1772810470358255000,1.855255126953125,3.0085089206695557,0.8996511101722717,-0.7647263407707214
1772810470367955200,1.864955078125,3.062875986099243,-0.1066722646355629,-0.6599630117416382
1772810470377655000,1.874655029296875,3.037525177001953,-1.3855177164077759,-0.32337653636932373
1772810470387355100,1.884355224609375,2.9294021129608154,-2.6774966716766357,0.22731806337833405
1772810470397055000,1.894054931640625,2.7177374362945557,-3.672900915145874,0.8500946760177612
1772810470406755000,1.903755126953125,2.3814563751220703,-4.131354808807373,1.2819761037826538
1772810470416455200,1.913455078125,1.9492695331573486,-4.028729438781738,1.357723355293274
1772810470426155000,1.923155029296875,1.4657700061798096,-3.4984989166259766,1.0831396579742432
1772810470435855000,1.932855224609375,0.9685261249542236,-2.7242279052734375,0.5587121844291687
1772810470445555000,1.942554931640625,0.5024362802505493,-1.875125765800476,-0.10132719576358795
1772810470455255000,1.952255126953125,0.10629047453403473,-1.0776418447494507,-0.7714458703994751
1772810470464955000,1.961954833984375,-0.1847866028547287,-0.4444804787635803,-1.3297762870788574
1772810470474655000,1.971655029296875,-0.3607156574726105,0.012675444595515728,-1.7088178396224976
1772810470484354800,1.981354736328125,-0.4324922561645508,0.3358229100704193,-1.897269606590271
1772810470494055000,1.991054931640625,-0.4166097939014435,0.5349648594856262,-1.9207879304885864
1772810470503754800,2.000754638671875,-0.324063777923584,0.6385064125061035,-1.8273255825042725
1772810470513454800,2.010454833984375,-0.1695149689912796,0.7252492308616638,-1.6715551614761353
1772810470523155000,2.020155029296875,0.014966187067329884,0.8046616315841675,-1.482492446899414
1772810470532854800,2.029854736328125,0.21166464686393738,0.8538362383842468,-1.2738821506500244
1772810470542554600,2.0395546875,0.39828383922576904,0.874605655670166,-1.0509165525436401
1772810470552254700,2.049254638671875,0.5522217750549316,0.8663589954376221,-0.8273400068283081
1772810470561954800,2.058954833984375,0.657290518283844,0.808937668800354,-0.6110938787460327
1772810470571654700,2.068654541015625,0.7000510096549988,0.6693550944328308,-0.3979020416736603
1772810470581354800,2.078354736328125,0.6707295179367065,0.45097091794013977,-0.17218750715255737
1772810470591054600,2.0880546875,0.6023126840591431,0.1859319657087326,0.05474875494837761
1772810470600754700,2.097754638671875,0.5503891706466675,-0.08529199659824371,0.2596938908100128
1772810470610454500,2.10745458984375,0.5482511520385742,-0.3006218373775482,0.4200458824634552
1772810470620154600,2.117154541015625,0.5815432667732239,-0.43165233731269836,0.5171734094619751
1772810470629854500,2.1268544921875,0.6261364221572876,-0.48479756712913513,0.560850203037262
1772810470639554600,2.136554443359375,0.6713404059410095,-0.4701367914676666,0.5547415614128113
1772810470649254400,2.14625439453125,0.6966912746429443,-0.4289034307003021,0.5202277302742004
1772810470658954500,2.15595458984375,0.6914989352226257,-0.39133524894714355,0.4881573021411896
1772810470668654300,2.165654296875,0.6585122346878052,-0.31406086683273315,0.4930442273616791
1772810470678354400,2.1753544921875,0.6148353815078735,-0.20624321699142456,0.5046506524085999
1772810470688054500,2.185054443359375,0.5583304166793823,-0.1268308013677597,0.5006800293922424
1772810470697754400,2.19475439453125,0.47006043791770935,-0.10025817900896072,0.4930442273616791
1772810470707454200,2.2044541015625,0.36804601550102234,-0.09812015295028687,0.5031235218048096
1772810470717154300,2.214154296875,0.2718348205089569,-0.09017891436815262,0.5431351661682129
1772810470726854400,2.2238544921875,0.19333870708942413,-0.04558578506112099,0.5675697326660156
1772810470736554200,2.23355419921875,0.17745621502399445,-0.022067490965127945,0.5483275055885315
1772810470746254300,2.24325439453125,0.23335035145282745,-0.04039343446493149,0.4768563210964203
1772810470755954200,2.2529541015625,0.29565855860710144,-0.08987347781658173,0.19066616892814636
1772810470765654300,2.262654296875,0.2052505612373352,-0.41729700565338135,-0.5109120011329651
1772810470775354000,2.27235400390625,-0.11972949653863907,-1.2224167585372925,-1.4620285034179688
1772810470785054200,2.28205419921875,-0.4789179861545563,-2.2101850509643555,-2.2213335037231445
1772810470794754000,2.291754150390625,-0.7935133576393127,-3.194593667984009,-2.6318345069885254
1772810470804454100,2.3014541015625,-1.1557561159133911,-3.8082075119018555,-2.758589029312134
1772810470814154000,2.311154052734375,-1.4208714962005615,-3.4587926864624023,-2.7295730113983154
1772810470823854000,2.32085400390625,-1.4938697814941406,-2.0092105865478516,-2.8297548294067383
1772810470833554000,2.330553955078125,-1.5344923734664917,0.10155627131462097,-3.0172901153564453
1772810470843254000,2.34025390625,-1.5772528648376465,2.224005937576294,-2.868544578552246
1772810470852954000,2.3499541015625,-1.5372412204742432,3.615861415863037,-2.322736978530884
1772810470862654000,2.359654052734375,-1.5131120681762695,3.914879560470581,-1.6275728940963745
1772810470872354000,2.36935400390625,-1.6056580543518066,3.7062692642211914,-1.1648427248001099
1772810470882054000,2.379053955078125,-1.7760893106460571,3.565159559249878,-1.1462113857269287
1772810470891754000,2.38875390625,-1.963014006614685,3.4692537784576416,-1.3826160430908203
1772810470901453800,2.398453857421875,-2.118479013442993,3.758192777633667,-1.123304009437561
1772810470911154000,2.40815380859375,-2.053727388381958,5.004356861114502,0.17111849784851074
1772810470920854000,2.41785400390625,-1.9233077764511108,6.477151870727539,2.3491568565368652
1772810470930553900,2.427553955078125,-1.6606359481811523,7.245619773864746,4.948997497558594
1772810470940253700,2.437253662109375,-1.3909391164779663,6.920334339141846,7.514324188232422
1772810470949953800,2.446953857421875,-1.2748748064041138,5.771603107452393,9.67281436920166
1772810470959654000,2.45665380859375,-1.2232567071914673,4.418537616729736,11.17309856414795
1772810470969353700,2.466353759765625,-1.17499840259552,3.205054759979248,11.647130012512207
1772810470979053600,2.476053466796875,-1.2583814859390259,2.296698808670044,10.928141593933105
1772810470988753700,2.485753662109375,-1.3939933776855469,1.7676899433135986,9.379904747009277
1772810470998453800,2.495453857421875,-1.4804308414459229,1.5462514162063599,7.7550048828125
1772810471008153600,2.505153564453125,-1.5845832824707031,1.5331178903579712,6.411407470703125
1772810471017853700,2.514853759765625,-1.802356481552124,1.3764311075210571,5.305742263793945
1772810471027553500,2.524553466796875,-1.9049818515777588,1.0569487810134888,4.446560859680176
1772810471037253600,2.534253662109375,-1.905287265777588,0.7533490061759949,3.9874961376190186
1772810471046953500,2.543953369140625,-1.9120067358016968,0.3923279047012329,4.215654373168945
1772810471056653600,2.553653564453125,-1.906814455986023,-0.2092975378036499,5.231216907501221
1772810471066353400,2.563353515625,-1.8454225063323975,-0.6744710803031921,6.623682975769043
1772810471076053500,2.573053466796875,-2.045786142349243,-0.7862593531608582,7.860378742218018
1772810471085753600,2.582753662109375,-2.285245180130005,-0.5135082006454468,8.479185104370117
1772810471095453400,2.592453369140625,-2.3564109802246094,-0.2092975378036499,8.27607250213623
1772810471105153300,2.6021533203125,-2.411083221435547,0.027336198836565018,7.342060089111328
1772810471114853400,2.611853271484375,-2.307541608810425,0.04505127668380737,5.825283050537109
1772810471124553500,2.621553466796875,-1.9394956827163696,-0.08559742569923401,4.008571147918701
1772810471134253300,2.63125341796875,-1.4776818752288818,-0.17111849784851074,2.236146926879883
1772810471143953400,2.640953369140625,-1.0928370952606201,-0.16989676654338837,0.7969494462013245
1772810471153653200,2.6506533203125,-0.8014546036720276,-0.03917170315980911,-0.2424369603395462
1772810471163353300,2.660353271484375,-0.5232056975364685,0.21395538747310638,-0.9125556349754333
1772810471173053200,2.67005322265625,-0.20280711352825165,0.42653632164001465,-1.287015676498413
1772810471182753300,2.679753173828125,0.14263692498207092,0.5181660652160645,-1.4889065027236938
1772810471192453000,2.689453125,0.5033525824546814,0.4353938698768616,-1.6321543455123901
1772810471202153200,2.6991533203125,0.8093958497047424,0.20082180202007294,-1.7622685432434082
1772810471211853000,2.70885302734375,0.9978476166725159,-0.10758855938911438,-1.908265233039856
1772810471221553200,2.71855322265625,1.0848958492279053,-0.4765508770942688,-2.0673954486846924
1772810471231253000,2.7282529296875,1.1621702909469604,-0.8647554516792297,-2.239353895187378
1772810471240953000,2.737953125,1.2745693922042847,-1.1701878309249878,-2.429943799972534
1772810471250653200,2.747653076171875,1.4159845113754272,-1.3461169004440308,-2.648022413253784
1772810471260353000,2.75735302734375,1.552207350730896,-1.451796531677246,-2.9253549575805664
1772810471270053000,2.76705322265625,1.6704097986221313,-1.5586978197097778,-3.2726316452026367
1772810471279753000,2.7767529296875,1.7999130487442017,-1.6365830898284912,-3.6626689434051514
1772810471289453000,2.786453125,1.9062035083770752,-1.6371939182281494,-4.041710376739502
1772810471299153000,2.79615283203125,1.978590965270996,-1.5776346921920776,-4.351418972015381
1772810471308853000,2.80585302734375,2.043037176132202,-1.5079960823059082,-4.5740790367126465
1772810471318552800,2.815552734375,2.1200063228607178,-1.448742151260376,-4.708469390869141
1772810471328253000,2.8252529296875,2.2455389499664307,-1.374522089958191,-4.780245780944824
1772810471337952800,2.834952880859375,2.3762640953063965,-1.3085486888885498,-4.823617458343506
1772810471347652900,2.84465283203125,2.3909246921539307,-1.2831978797912598,-4.832474708557129
1772810471357353000,2.85435302734375,2.263559341430664,-1.3229039907455444,-4.7747483253479
1772810471367052800,2.864052734375,2.0638067722320557,-1.4478259086608887,-4.636998176574707
1772810471376752600,2.873752685546875,1.8139629364013672,-1.6371939182281494,-4.447935581207275
1772810471386452700,2.88345263671875,1.5512911081314087,-1.8473314046859741,-4.2472662925720215
1772810471396152800,2.89315283203125,1.3222168684005737,-2.060523271560669,-4.046597480773926
1772810471405852700,2.902852783203125,1.1991275548934937,-2.2908191680908203,-3.804694890975952
1772810471415552800,2.912552734375,1.303585410118103,-2.5431063175201416,-3.6101346015930176
1772810471425252600,2.922252685546875,1.7314962148666382,-2.863199472427368,-3.5676794052124023
1772810471434952700,2.93195263671875,2.2956297397613525,-3.12770414352417,-3.6550331115722656
1772810471444652500,2.941652587890625,2.7290384769439697,-3.049818754196167,-3.726504325866699
1772810471454352600,2.9513525390625,3.0057601928710938,-2.6319873332977295,-3.8566184043884277
1772810471464052500,2.961052490234375,3.0359978675842285,-2.203160285949707,-4.200840950012207
1772810471473752600,2.970752685546875,2.7314817905426025,-1.6949206590652466,-4.573163032531738
1772810471483452400,2.980452392578125,2.383594274520874,-0.9921207427978516,-4.939681529998779
1772810471493152500,2.990152587890625,2.073580503463745,-0.9704350829124451,-5.698070526123047
1772810471502852400,2.999852294921875,1.6242893934249878,-1.8060981035232544,-6.696528911590576
1772810471512552400,3.009552490234375,1.1331541538238525,-2.711705207824707,-7.266160011291504
1772810471522252500,3.01925244140625,0.730594277381897,-3.035768985748291,-6.981802463531494
1772810471531952400,3.028952392578125,0.5677987933158875,-2.7966153621673584,-6.107044219970703
1772810471541652200,3.03865234375,0.7718276381492615,-1.9453752040863037,-5.141878128051758
1772810471551352300,3.048352294921875,1.1621702909469604,-0.627434492111206,-4.319348335266113
1772810471561052400,3.058052490234375,1.4960078001022339,0.5887209177017212,-3.627849578857422
1772810471570752300,3.067752197265625,1.7082833051681519,1.2295180559158325,-2.8896195888519287
1772810471580452400,3.077452392578125,1.9117013216018677,1.0328196287155151,-2.0041708946228027
1772810471590152200,3.087152099609375,1.7880011796951294,0.7252492308616638,-1.1645373106002808
1772810471599852300,3.096852294921875,1.2562434673309326,0.6534726023674011,-0.4214203357696533
1772810471609552100,3.10655224609375,0.7284562587738037,0.26740604639053345,0.22273656725883484
1772810471619252200,3.116252197265625,0.3900371491909027,0.01908952370285988,0.7242565751075745
1772810471628952000,3.1259521484375,0.164322629570961,0.10399972647428513,1.0544289350509644
1772810471638652200,3.135652099609375,0.012522728182375431,0.2383899837732315,1.1814888715744019
1772810471648352000,3.14535205078125,-0.19394956529140472,0.34956738352775574,1.1228457689285278
1772810471658052000,3.155052001953125,-0.5293143391609192,0.47296205163002014,0.9322559833526611
1772810471667752000,3.164751953125,-0.8943060636520386,0.5984947681427002,0.6854666471481323
1772810471677452000,3.1744521484375,-1.166446328163147,0.7053961157798767,0.474718302488327
1772810471687152000,3.184152099609375,-1.3552035093307495,0.7151699662208557,0.3519344627857208
1772810471696852000,3.19385205078125,-1.488066554069519,0.6122392416000366,0.36109745502471924
1772810471706551800,3.2035517578125,-1.5653409957885742,0.40088000893592834,0.5009855031967163
1772810471716252000,3.213251953125,-1.5769474506378174,0.10338886082172394,0.7181479334831238
1772810471725952000,3.222951904296875,-1.5210533142089844,-0.20654866099357605,0.9713513851165771
1772810471735651800,3.23265185546875,-1.4214823246002197,-0.45883581042289734,1.2135592699050903
1772810471745352000,3.24235205078125,-1.3106104135513306,-0.609108567237854,1.3818525075912476
1772810471755051800,3.2520517578125,-1.2055416107177734,-0.6469821333885193,1.4267510175704956
1772810471764752000,3.261751953125,-1.094058871269226,-0.598723828792572,1.3522255420684814
1772810471774451700,3.27145166015625,-0.9682206511497498,-0.5110647678375244,1.1924843788146973
1772810471784151800,3.28115185546875,-0.8292489647865295,-0.3895026445388794,0.9866229891777039
1772810471793851600,3.2908515625,-0.6994401812553406,-0.25358524918556213,0.7798452377319336
1772810471803551700,3.3005517578125,-0.5864301919937134,-0.10270164161920547,0.609108567237854
1772810471813251600,3.31025146484375,-0.48075059056282043,0.03497200831770897,0.464944452047348
1772810471822951700,3.31995166015625,-0.3759872615337372,0.1455385386943817,0.33910632133483887
1772810471832651500,3.329651611328125,-0.2663370370864868,0.191964253783226,0.22365286946296692
1772810471842351600,3.3393515625,-0.15515965223312378,0.16019928455352783,0.10483966767787933
1772810471852051700,3.3490517578125,-0.047952886670827866,0.03802633285522461,-0.025274530053138733
1772810471861751600,3.35875146484375,0.041844237595796585,-0.15676318109035492,-0.16760602593421936
1772810471871451600,3.36845166015625,0.09437860548496246,-0.37575820088386536,-0.29741477966308594
1772810471881151500,3.3781513671875,0.11911863088607788,-0.5858956575393677,-0.40553784370422363
1772810471890851600,3.3878515625,0.13591741025447845,-0.784426748752594,-0.48220139741897583
1772810471900551400,3.397551513671875,0.15088360011577606,-0.9646318554878235,-0.5307651162147522
1772810471910251500,3.40725146484375,0.16737695038318634,-1.0374010801315308,-0.5600866675376892
1772810471919951400,3.416951416015625,0.20189081132411957,-0.9166789650917053,-0.5915461778640747
1772810471929651500,3.4266513671875,0.2770271897315979,-0.6735547780990601,-0.6914225816726685
1772810471939351300,3.436351318359375,0.3637699782848358,-0.5565741658210754,-0.835586667060852
1772810471949051400,3.446051513671875,0.4199695289134979,-0.588949978351593,-0.9605085253715515
1772810471958751200,3.455751220703125,0.4474584460258484,-0.6610320210456848,-1.0579414367675781
1772810471968451300,3.465451416015625,0.462424635887146,-0.8067232966423035,-1.1324669122695923
1772810471978151200,3.475151123046875,0.5128209590911865,-0.9982293844223022,-1.1648427248001099
1772810471987851300,3.484851318359375,0.6331613659858704,-1.1350631713867188,-1.1889718770980835
1772810471997551400,3.49455126953125,0.7754928469657898,-1.1866811513900757,-1.1880556344985962
1772810472007251200,3.504251220703125,0.8439096808433533,-1.2175298929214478,-1.1456005573272705
1772810472016951300,3.513951416015625,0.7388409376144409,-1.1485021114349365,-0.9861648082733154
1772810472036351200,3.533351318359375,0.03940077871084213,-0.8861356973648071,-0.3264308571815491
1772810472046051000,3.543051025390625,-0.2211330533027649,-0.9918153285980225,-0.016416991129517555
1772810472055751200,3.552751220703125,-0.09010255336761475,-1.2854121923446655,-0.14256057143211365
1772810472065451000,3.562450927734375,0.3231474757194519,-2.077627420425415,-1.1733949184417725
1772810472075151000,3.572151123046875,0.8503237962722778,-3.2828636169433594,-2.8862597942352295
1772810472084851000,3.581850830078125,1.3829978704452515,-3.5424811840057373,-4.038656234741211
1772810472094551000,3.591551025390625,1.2736530303955078,-2.88763427734375,-4.093328475952148
1772810472104251000,3.6012509765625,0.2721402645111084,-1.9875248670578003,-3.1596217155456543
1772810472113951000,3.610950927734375,-0.7519745230674744,-0.5944477915763855,-1.6715551614761353
1772810472123651000,3.620651123046875,-1.0286962985992432,1.5905392169952393,-0.16699515283107758
1772810472133351000,3.630350830078125,-0.9556979537010193,4.0135345458984375,0.81099933385849
1772810472143050800,3.64005078125,-0.8533781170845032,5.824748516082764,1.5418990850448608
1772810472152750800,3.649750732421875,-0.8170316219329834,6.4835662841796875,2.1289401054382324
1772810472162451000,3.659450927734375,-0.7354812026023865,6.0422163009643555,2.7611851692199707
1772810472172150800,3.66915087890625,-0.6191114783287048,4.729162216186523,3.7129125595092773
1772810472181851000,3.678850830078125,-0.5012145638465881,3.2670576572418213,5.007946014404297
1772810472191550700,3.68855078125,-0.4196641147136688,2.2065963745117188,6.578173637390137
1772810472201250800,3.698250732421875,-0.600785493850708,1.6158900260925293,8.059520721435547
1772810472210950700,3.70795068359375,-1.14017915725708,1.8498512506484985,9.139835357666016
1772810472220650800,3.717650634765625,-1.6038254499435425,2.578307628631592,9.597373008728027
1772810472230350600,3.7273505859375,-1.6496403217315674,3.3070693016052246,9.469091415405273
1772810472240050700,3.73705078125,-1.2147046327590942,3.9041895866394043,9.0628662109375
1772810472249750800,3.746750732421875,-0.5968148708343506,4.08256196975708,8.585169792175293
1772810472259450600,3.75645068359375,-0.17134757339954376,3.556607484817505,8.076624870300293
1772810472269150500,3.766150390625,-0.1701258420944214,2.5046982765197754,7.520432472229004
1772810472278850600,3.7758505859375,-0.4373791813850403,1.3611594438552856,6.868639945983887
1772810472288550700,3.785550537109375,-0.7024945020675659,0.5245801210403442,6.0720720291137695
1772810472298250500,3.79525048828125,-0.8399390578269958,0.15042544901371002,5.239768981933594
1772810472307950300,3.804950439453125,-0.8820887207984924,0.10858121514320374,4.454807758331299
1772810472317650400,3.814650390625,-0.8946114778518677,0.3422369956970215,3.879983901977539
1772810472337050400,3.83405029296875,-0.9190460443496704,1.9814926385879517,3.5550038814544678
1772810472346750500,3.84375048828125,-0.9474512934684753,2.6174027919769287,3.789881467819214
1772810472356450300,3.8534501953125,-1.0219768285751343,2.6201517581939697,4.24589204788208
1772810472366150400,3.863150390625,-1.1475094556808472,1.946062445640564,4.763294696807861
1772810472375850200,3.872850341796875,-1.284037709236145,0.855057954788208,5.158829212188721
1772810472385550300,3.88255029296875,-1.4382811784744263,-0.29825472831726074,5.261760234832764
1772810472395250200,3.892250244140625,-1.5476258993148804,-1.2224167585372925,4.982900142669678
1772810472404950300,3.9019501953125,-1.5589269399642944,-1.6924772262573242,4.359512805938721
1772810472414650400,3.911650390625,-1.4984513521194458,-1.6875903606414795,3.430387496948242
1772810472424350200,3.92135009765625,-1.3771946430206299,-1.3198497295379639,2.253861904144287
1772810472434050000,3.931050048828125,-1.1753038167953491,-0.7770963311195374,1.0022000074386597
1772810472443750100,3.940750244140625,-0.8616247773170471,-0.14546217024326324,-0.1816559135913849
1772810472453450200,3.9504501953125,-0.4633409380912781,0.5160280466079712,-1.2207368612289429
1772810472463150000,3.960150146484375,-0.11667517572641373,0.9900590777397156,-2.002338409423828
1772810472472850000,3.969849853515625,0.11881320178508759,1.1852303743362427,-2.460486888885498
1772810472482550000,3.979550048828125,0.2617555558681488,1.096655011177063,-2.5985424518585205
1772810472492250000,3.98925,0.3998109996318817,0.8312342762947083,-2.4669010639190674
1772810472501950000,3.998949951171875,0.5522217750549316,0.45616328716278076,-2.158414363861084
1772810472511650000,4.008650146484375,0.6514872908592224,-0.0012980876490473747,-1.7732640504837036
1772810472521350000,4.018349853515625,0.7284562587738037,-0.40263625979423523,-1.4253766536712646
1772810472531050000,4.028050048828125,0.8197805285453796,-0.7221185564994812,-1.1904990673065186
1772810472540749800,4.037749755859375,0.9104939699172974,-0.9725731015205383,-1.0976476669311523
1772810472550450000,4.047449951171875,0.9908226728439331,-1.1546107530593872,-1.1275800466537476
1772810472560149800,4.057149658203125,1.0684025287628174,-1.2722022533416748,-1.2451715469360352
1772810472569849900,4.066849853515625,1.1438442468643188,-1.2981640100479126,-1.4116321802139282
1772810472579550000,4.076550048828125,1.2354739904403687,-1.2407426834106445,-1.6156610250473022
1772810472589249800,4.086249755859375,1.3179407119750977,-1.1185697317123413,-1.8450406789779663
1772810472598949600,4.09594970703125,1.3646719455718994,-0.9640209674835205,-2.0893867015838623
1772810472608649700,4.105649658203125,1.4095704555511475,-0.8042798638343811,-2.318155527114868
1772810472618349800,4.115349853515625,1.4840959310531616,-0.6310997009277344,-2.496833324432373
1772810472628049700,4.125049560546875,1.564424753189087,-0.45822495222091675,-2.641913890838623
1772810472637749500,4.13474951171875,1.6236785650253296,-0.28932082653045654,-2.7576727867126465
1772810472647449600,4.14444970703125,1.6624685525894165,-0.1372154951095581,-2.8334200382232666
1772810472657149700,4.154149658203125,1.6022982597351074,-0.011377356946468353,-2.854800224304199
1772810472666849500,4.163849609375,1.423925757408142,0.0792597085237503,-2.8334200382232666
1772810472676549600,4.173549560546875,1.2284491062164307,0.15691588819026947,-2.798295259475708
1772810472686249500,4.18324951171875,1.1444551944732666,0.3174969553947449,-2.7527856826782227
1772810472695949600,4.192949462890625,1.1435388326644897,0.6351466774940491,-2.65871262550354
1772810472705649400,4.2026494140625,1.1691951751708984,1.0905463695526123,-2.46598482131958
1772810472715349500,4.212349609375,1.2171480655670166,1.7371467351913452,-2.147724151611328
1772810472725049300,4.22204931640625,1.2568542957305908,2.4457497596740723,-1.6996549367904663
1772810472734749400,4.23174951171875,1.3490948677062988,2.861443281173706,-1.2610539197921753
1772810472744449500,4.241449462890625,1.5577051639556885,2.891986608505249,-1.0860412120819092
1772810472754149400,4.2511494140625,1.655443549156189,2.0935862064361572,-1.472413182258606
1772810472763849200,4.26084912109375,1.4358376264572144,0.009392046369612217,-2.826700448989868
1772810472773549300,4.27054931640625,1.1169662475585938,-2.0452516078948975,-4.229856967926025
1772810472783249400,4.28024951171875,1.0512982606887817,-3.549811601638794,-5.218235969543457
1772810472792949200,4.28994921875,0.9282090067863464,-4.919064998626709,-6.69561243057251
1772810472802649000,4.299649169921875,0.8035926222801208,-5.744343280792236,-8.119233131408691
1772810472812349200,4.30934912109375,0.9370665550231934,-5.500913619995117,-8.579519271850586
1772810472822049300,4.31904931640625,1.0509928464889526,-3.382740020751953,-7.818687438964844
1772810472831749000,4.3287490234375,0.7751874327659607,-0.15890119969844818,-6.185845851898193
1772810472841449200,4.33844921875,0.4984656572341919,2.1842997074127197,-4.703887939453125
1772810472851149000,4.348149169921875,0.3704894781112671,3.000415086746216,-3.9598546028137207
1772810472860849200,4.35784912109375,0.4221075773239136,2.702007532119751,-3.686492681503296
1772810472870549000,4.367549072265625,0.8106175661087036,1.5609122514724731,-3.580812931060791
1772810472880249000,4.3772490234375,1.3417644500732422,-0.009621120058000088,-3.2753806114196777
1772810472889949000,4.386948974609375,1.561981201171875,-1.358028769493103,-2.6742897033691406
1772810472899649000,4.39664892578125,1.2712095975875854,-2.0562472343444824,-1.86916983127594
1772810472909349000,4.40634912109375,0.7318159937858582,-2.261803150177002,-1.1480439901351929
1772810472919049000,4.416049072265625,0.2098320573568344,-2.1741440296173096,-0.7247146964073181
1772810472928748800,4.425748779296875,-0.17837251722812653,-1.8146501779556274,-0.6410261988639832
1772810472938449000,4.435448974609375,-0.49510589241981506,-1.2178353071212769,-0.7207440733909607
1772810472948149000,4.44514892578125,-0.796262264251709,-0.6179660558700562,-0.8737657070159912
1772810472957848800,4.454848876953125,-1.0882556438446045,-0.14607304334640503,-1.037782907485962
1772810472967548700,4.464548583984375,-1.3634501695632935,0.23014330863952637,-1.2121847867965698
1772810472977248800,4.474248779296875,-1.601076602935791,0.49770209193229675,-1.3398555517196655
1772810472986948900,4.483948974609375,-1.7583742141723633,0.6919570565223694,-1.353905439376831
1772810472996648700,4.493648681640625,-1.8420627117156982,0.7930551767349243,-1.2833505868911743
1772810473006348800,4.503348876953125,-1.8747440576553345,0.7359393239021301,-1.151403784751892
1772810473016048600,4.513048583984375,-1.869551658630371,0.5422952175140381,-0.9669225811958313
1772810473025748700,4.522748779296875,-1.8240422010421753,0.26740604639053345,-0.7427352070808411
1772810473035448600,4.532448486328125,-1.7327179908752441,-0.06268999725580215,-0.5179370045661926
1772810473045148700,4.542148681640625,-1.6135993003845215,-0.41790786385536194,-0.31757333874702454
1772810473054848500,4.5518486328125,-1.4865394830703735,-0.7651845216751099,-0.09308052062988281
1772810473064548600,4.561548583984375,-1.331379771232605,-1.0569487810134888,0.18577924370765686
1772810473074248700,4.571248779296875,-1.1527018547058105,-1.2865575551986694,0.5031235218048096
1772810473083948500,4.580948486328125,-0.9792162179946899,-1.5015820264816284,0.8247438073158264
1772810473093648400,4.5906484375,-0.8368847370147705,-1.7010293006896973,1.1423934698104858
1772810473103348500,4.600348388671875,-0.7654135823249817,-1.8723769187927246,1.404149055480957
1772810473113048600,4.610048583984375,-0.8402445316314697,-2.0012693405151367,1.4689006805419922
1772810473122748400,4.61974853515625,-1.046105980873108,-2.175365924835205,1.226692795753479
1772810473132448300,4.6294482421875,-1.3078614473342896,-2.3442699909210205,0.7172316312789917
1772810473142148400,4.6391484375,-1.5457932949066162,-2.3836708068847656,0.06421715766191483
1772810473151848400,4.648848388671875,-1.6960660219192505,-2.0589962005615234,-0.6101775765419006
1772810473161548300,4.65854833984375,-1.7330234050750732,-1.4548507928848267,-1.2121847867965698
1772810473171248400,4.668248291015625,-1.6759074926376343,-0.7175370454788208,-1.6733876466751099
1772810473180948200,4.6779482421875,-1.5231913328170776,0.06062832847237587,-1.9366704225540161
1772810473190648300,4.6876484375,-1.2733476161956787,0.7936660647392273,-2.002338409423828
1772810473200348200,4.69734814453125,-0.952643632888794,1.4249948263168335,-1.9238423109054565
1772810473210048300,4.70704833984375,-0.6835576891899109,1.9039127826690674,-1.805334448814392
1772810473219748000,4.716748046875,-0.5488619804382324,2.1476478576660156,-1.7283655405044556
1772810473229448200,4.7264482421875,-0.5293143391609192,2.086866855621338,-1.7231731414794922
1772810473239148000,4.73614794921875,-0.5571087002754211,1.7576106786727905,-1.760130524635315
1772810473248848100,4.74584814453125,-0.5815432667732239,1.2829687595367432,-1.7986149787902832
1772810473258548000,4.7555478515625,-0.5778780579566956,0.7826704978942871,-1.8184680938720703
1772810473268248000,4.765248046875,-0.5348120927810669,0.3251327872276306,-1.8484004735946655
1772810473277948000,4.774947998046875,-0.45448338985443115,-0.020922118797898293,-1.889022946357727
1772810473287648000,4.78464794921875,-0.324063777923584,-0.19982914626598358,-1.8896338939666748
1772810473297347800,4.794347900390625,-0.09529490768909454,-0.2496146261692047,-1.817857265472412
1772810473307048000,4.8040478515625,0.2715294063091278,-0.261526495218277,-1.621769666671753
1772810473316747800,4.813747802734375,0.8060360550880432,-0.22334744036197662,-1.222264051437378
1772810473326447900,4.82344775390625,1.4459168910980225,-0.10911571979522705,-0.6456077098846436
1772810473336148000,4.83314794921875,2.0054690837860107,-0.044669486582279205,-0.004810560029000044
1772810473345847800,4.842847900390625,2.3716824054718018,-0.18700097501277924,0.5923097729682922
1772810473355548000,4.8525478515625,2.523482322692871,-0.6133846044540405,0.996091365814209
1772810473365247700,4.862247802734375,2.556774616241455,-1.261283040046692,1.0761146545410156
1772810473374947800,4.87194775390625,2.5350887775421143,-2.007683515548706,0.73830646276474
1772810473384647700,4.881647705078125,2.386343240737915,-2.6271002292633057,-0.02496909722685814
1772810473394347800,4.89134765625,2.1438300609588623,-2.7633233070373535,-0.7928261160850525
1772810473404047600,4.901047607421875,2.028681993484497,-2.2795183658599854,-0.9666171669960022
1772810473413747700,4.910747802734375,2.081827163696289,-1.3485603332519531,-0.40981391072273254
1772810473423447600,4.920447509765625,2.083965301513672,-0.4059959948062897,0.6943241953849792
1772810473433147600,4.930147705078125,1.961181402206421,0.8064942359924316,2.18972110748291
1772810473442847500,4.939847412109375,1.5961896181106567,2.096029758453369,3.572719097137451
1772810473452547600,4.949547607421875,1.2428044080734253,3.2398741245269775,4.367759704589844
1772810473462247400,4.959247314453125,1.1255183219909668,3.9267914295196533,4.4624433517456055
1772810473471947500,4.968947509765625,1.0848958492279053,4.260323524475098,4.055912971496582
1772810473481647400,4.9786474609375,0.9932661056518555,4.173581123352051,3.606316566467285
1772810473491347500,4.988347412109375,0.8307760953903198,3.7114617824554443,3.468261241912842
1772810473501047600,4.998047607421875,0.6869174242019653,3.313483238220215,3.7578110694885254
1772810473510747400,5.007747314453125,0.7284562587738037,3.2591164112091064,4.455418586730957
1772810473520447200,5.017447265625,0.9172134399414062,3.4213008880615234,5.434329509735107
1772810473530147300,5.027147216796875,1.046411395072937,3.517817497253418,6.522584915161133
1772810473539847400,5.036847412109375,1.0653481483459473,3.386786937713623,7.473701477050781
1772810473549547300,5.04654736328125,0.9993748068809509,3.0856306552886963,8.073570251464844
1772810473559247000,5.0562470703125,0.9117156863212585,2.696509838104248,8.29226016998291
1772810473568947200,5.065947265625,0.8445205688476562,2.2398884296417236,8.205211639404297
1772810473578647300,5.075647216796875,0.8005383014678955,1.7469205856323242,7.9242143630981445
1772810473588347100,5.08534716796875,0.7745765447616577,1.3043490648269653,7.551892280578613
1772810473598047200,5.095047119140625,0.7464767694473267,0.7854194045066833,7.221414566040039
1772810473607747000,5.1047470703125,0.6524035930633545,0.021838415414094925,7.025326728820801
1772810473617447200,5.114447265625,0.4841103255748749,-0.7902299761772156,6.988980293273926
1772810473627147000,5.12414697265625,0.31062474846839905,-1.5018874406814575,7.010971546173096
1772810473636847000,5.13384716796875,0.0977383628487587,-1.7529528141021729,6.925755977630615
1772810473646547000,5.143546875,-0.12736530601978302,-1.401476502418518,6.639871120452881
1772810473656247000,5.1532470703125,-0.38850998878479004,-0.8070287108421326,6.1722540855407715
1772810473665947100,5.162947021484375,-0.7064651250839233,-0.16470441222190857,5.577271938323975
1772810473675647000,5.17264697265625,-0.9599739909172058,0.2790125012397766,4.939223766326904
1772810473685346800,5.182346923828125,-1.0836740732192993,0.46196648478507996,4.364094257354736
1772810473695047000,5.192046875,-1.0952805280685425,0.4647153913974762,3.907778263092041
1772810473704747000,5.2017470703125,-1.0262528657913208,0.12324196845293045,3.596848249435425
1772810473714446800,5.21144677734375,-0.8998038172721863,-0.49915286898612976,3.486281633377075
1772810473724146700,5.221146728515625,-0.7877101302146912,-1.2010365724563599,3.5339291095733643
1772810473733846800,5.2308466796875,-0.7562506198883057,-1.9047527313232422,3.628613233566284
1772810473743547000,5.240546875,-0.7822123765945435,-2.5339434146881104,3.6762607097625732
1772810473753246700,5.250246826171875,-0.84177166223526,-2.985983371734619,3.6377761363983154
1772810473762946800,5.25994677734375,-0.9007201194763184,-3.2303292751312256,3.4807839393615723
1772810473772646700,5.269646728515625,-0.924849271774292,-3.2190282344818115,3.186347007751465
1772810473782346800,5.2793466796875,-0.9245438575744629,-2.8806092739105225,2.7434701919555664
1772810473792046600,5.289046630859375,-0.9172134399414062,-2.3641231060028076,2.183612585067749
1772810473801746700,5.29874658203125,-0.9196569323539734,-1.838779330253601,1.525405764579773
1772810473811446500,5.308446533203125,-0.8943060636520386,-1.2523491382598877,0.7450259327888489
1772810473821146600,5.318146728515625,-0.8026763200759888,-0.7126501202583313,-0.12606722116470337
1772810473830846700,5.3278466796875,-0.6872228980064392,-0.3592648506164551,-0.9864702820777893
1772810473840546600,5.337546630859375,-0.5571087002754211,-0.19249875843524933,-1.7036255598068237
1772810473850246400,5.347246337890625,-0.3958403766155243,-0.23861905932426453,-2.2042291164398193
1772810473859946500,5.356946533203125,-0.21991132199764252,-0.42279478907585144,-2.496527910232544
1772810473869646600,5.366646484375,-0.012217295356094837,-0.6442332863807678,-2.6290855407714844
1772810473879346400,5.376346435546875,0.25534147024154663,-0.8284090161323547,-2.6632940769195557
1772810473889046300,5.38604638671875,0.5409207344055176,-0.9350048899650574,-2.661461591720581
1772810473898746400,5.395746337890625,0.8005383014678955,-0.9536362886428833,-2.661155939102173
1772810473908446500,5.405446533203125,1.0247256755828857,-0.8131373524665833,-2.711246967315674
1772810473918146300,5.415146240234375,1.2345577478408813,-0.49487683176994324,-2.846248149871826
1772810473927846400,5.424846435546875,1.4126248359680176,-0.13416117429733276,-3.0508878231048584
1772810473937546200,5.434546142578125,1.5628975629806519,0.2658788859844208,-3.2607197761535645
1772810473947246300,5.444246337890625,1.7238603830337524,0.7118101716041565,-3.415879487991333
1772810473956946200,5.4539462890625,1.8796309232711792,1.2050834894180298,-3.4555857181549072
1772810473966646300,5.463646240234375,2.0112721920013428,1.678198218345642,-3.351738691329956
1772810473976346000,5.47334619140625,2.0977096557617188,1.9518656730651855,-3.1376304626464844
1772810473986046200,5.483046142578125,2.123671293258667,1.919795274734497,-2.8028767108917236
1772810473995746000,5.49274609375,2.1859796047210693,1.503185510635376,-2.308992624282837
1772810474005446100,5.502446044921875,2.478583812713623,0.651639997959137,-1.9888993501663208
1772810474015146000,5.51214599609375,3.0280566215515137,-0.8528435826301575,-2.3609158992767334
1772810474024846000,5.52184619140625,3.8463101387023926,-3.4416885375976562,-3.69809889793396
1772810474034546000,5.5315458984375,4.730842113494873,-5.895226955413818,-5.34376859664917
1772810474044246000,5.54124609375,5.167304992675781,-6.891852855682373,-6.345281600952148
1772810474053945900,5.55094580078125,5.068955898284912,-6.348488807678223,-6.414920330047607
1772810474063646000,5.56064599609375,4.38753604888916,-4.762072563171387,-5.688601970672607
1772810474073345800,5.570345703125,3.135568857192993,-2.1313836574554443,-4.3618035316467285
1772810474083046000,5.5800458984375,1.8784091472625732,0.5389354228973389,-3.3370778560638428
1772810474092746000,5.58974609375,1.1643083095550537,2.3458733558654785,-2.988884925842285
1772810474102445800,5.59944580078125,0.729983389377594,2.970482587814331,-3.0737953186035156
1772810474112145700,5.609145751953125,0.4272999167442322,2.7615668773651123,-3.162065267562866
1772810474121845800,5.618845703125,0.30634868144989014,2.1522293090820312,-2.997437000274658
1772810474131545900,5.6285458984375,0.3026835024356842,1.4057525396347046,-2.6104543209075928
1772810474141245700,5.63824560546875,0.32131487131118774,0.6800451874732971,-2.1480295658111572
1772810474150945800,5.64794580078125,0.24465134739875793,0.013286309316754341,-1.7760130167007446
1772810474160645600,5.657645751953125,0.03145953640341759,-0.5516872406005859,-1.5331941843032837
1772810474170345700,5.667345703125,-0.23029601573944092,-0.9316451549530029,-1.2864048480987549
1772810474180045600,5.677045654296875,-0.4935787320137024,-1.1087958812713623,-1.0148755311965942
1772810474189745700,5.68674560546875,-0.7816014885902405,-1.1194860935211182,-0.7949641346931458
1772810474199445500,5.696445556640625,-1.0650427341461182,-0.9942587614059448,-0.6706531643867493
1772810474209145600,5.7061455078125,-1.3203842639923096,-0.7923679947853088,-0.6605738997459412
1772810474218845400,5.715845458984375,-1.5442661046981812,-0.5678751468658447,-0.7286853194236755
1772810474228545500,5.725545654296875,-1.7088942527770996,-0.3833940029144287,-0.8129846453666687
1772810474238245400,5.735245361328125,-1.8075488805770874,-0.27252206206321716,-0.8679624795913696
1772810474247945500,5.744945556640625,-1.8551963567733765,-0.2508363425731659,-0.8838449716567993
1772810474257645600,5.7546455078125,-1.8600832223892212,-0.3015381395816803,-0.845360517501831
1772810474267345400,5.764345458984375,-1.8130466938018799,-0.3794233798980713,-0.7283799052238464
1772810474277045200,5.774045166015625,-1.711643099784851,-0.44325876235961914,-0.5212967395782471
1772810474286745300,5.783745361328125,-1.5940515995025635,-0.46463900804519653,-0.2638172209262848
1772810474296445400,5.793445556640625,-1.404072642326355,-0.6133846044540405,0.08773545175790787
1772810474306145300,5.803145263671875,-1.1881320476531982,-0.7749583125114441,0.5086212754249573
1772810474315845400,5.812845458984375,-1.0482439994812012,-0.9518036842346191,0.894993245601654
1772810474325545200,5.822545166015625,-1.0393863916397095,-1.1982876062393188,1.1601085662841797
1772810474335245300,5.832245361328125,-1.1365139484405518,-1.4829505681991577,1.3097704648971558
1772810474344945200,5.841945068359375,-1.2596031427383423,-1.6478841304779053,1.3488657474517822
1772810474354645200,5.851645263671875,-1.3527600765228271,-1.6433025598526,1.2257765531539917
1772810474364345000,5.861344970703125,-1.3533709049224854,-1.4970004558563232,0.9554688930511475
1772810474374045200,5.871045166015625,-1.2189806699752808,-1.1372774839401245,0.6845503449440002
1772810474383745000,5.8807451171875,-1.0216712951660156,-0.5128973126411438,0.46891507506370544
1772810474393445000,5.890445068359375,-0.8912517428398132,0.18463388085365295,0.23373213410377502
1772810474403145000,5.90014501953125,-0.9511164426803589,0.7038689255714417,-0.032910339534282684
1772810474412845000,5.909844970703125,-1.3463460206985474,0.8202387094497681,-0.3108538091182709
1772810474422545000,5.919544921875,-1.932470679283142,0.4589121639728546,-0.5961276888847351
1772810474432245000,5.929244873046875,-2.3542728424072266,-0.0709366723895073,-0.8697950839996338
1772810474441944800,5.93894482421875,-2.5857906341552734,-0.19005531072616577,-1.1449897289276123
1772810474451645000,5.94864501953125,-2.6163339614868164,-0.01779143698513508,-1.4714969396591187
1772810474461344800,5.9583447265625,-2.54577898979187,0.249690979719162,-1.844124436378479
1772810474471044900,5.968044921875,-2.414748430252075,0.5343539714813232,-2.1828489303588867
1772810474480745000,5.977744873046875,-2.243400812149048,0.7002037763595581,-2.406730890274048
1772810474490444800,5.98744482421875,-2.067166328430176,0.6458367705345154,-2.4556000232696533
1772810474500144600,5.99714453125,-1.9080361127853394,0.40515607595443726,-2.3083815574645996
1772810474509844700,6.0068447265625,-1.7620394229888916,0.06734783947467804,-1.9898157119750977
1772810474519544800,6.016544921875,-1.6233731508255005,-0.3430769443511963,-1.5753439664840698
1772810474529244700,6.02624462890625,-1.4572179317474365,-0.7700713872909546,-1.1187224388122559
1772810474538944500,6.035944580078125,-1.1893537044525146,-1.1045198440551758,-0.6672934293746948
1772810474548644600,6.04564453125,-0.7250964641571045,-1.1301761865615845,-0.274812787771225
1772810474558344700,6.0553447265625,-0.07574722915887833,-0.8467349410057068,-0.0057268571108579636
1772810474568044500,6.06504443359375,0.6218603253364563,-0.4499782621860504,0.10422880202531815
1772810474577744600,6.07474462890625,1.2189806699752808,-0.06849320977926254,0.11064288020133972
1772810474587444500,6.084444580078125,1.6187916994094849,0.2380845546722412,0.10209077596664429
1772810474597144600,6.09414453125,1.7366886138916016,0.3917170464992523,0.1677587330341339
1772810474606844400,6.103844482421875,1.6074906587600708,0.5490147471427917,0.34124433994293213
1772810474616544500,6.11354443359375,1.4107922315597534,0.8468112945556641,0.5235874652862549
1772810474626244400,6.123244384765625,1.2718204259872437,1.282663345336914,0.5153408050537109
1772810474635944400,6.1329443359375,1.186299443244934,1.7566944360733032,0.2502254843711853
1772810474645644500,6.14264453125,1.1212422847747803,2.0447170734405518,-0.006948587018996477
1772810474655344400,6.152344482421875,1.092226266860962,2.0938918590545654,0.01259908638894558
1772810474665044200,6.162044189453125,1.0500766038894653,2.078925609588623,0.3540725111961365
1772810474674744300,6.171744384765625,0.8521563410758972,2.190103054046631,0.8030580878257751
1772810474684444400,6.1814443359375,0.6209440231323242,2.4213151931762695,1.1020764112472534
1772810474694144300,6.191144287109375,0.5665770769119263,2.706894636154175,1.1793508529663086
1772810474703844000,6.200843994140625,0.5277871489524841,3.0966262817382812,1.1268163919448853
1772810474713544200,6.210544189453125,0.33719736337661743,3.366934061050415,1.0388518571853638
1772810474723244300,6.220244384765625,-0.003665188793092966,3.356243848800659,1.0364084243774414
1772810474732944100,6.229944091796875,-0.2611446976661682,3.011410713195801,1.0864993333816528
1772810474742644200,6.239644287109375,-0.30543237924575806,2.5266895294189453,1.155527114868164
1772810474752344000,6.249343994140625,-0.1081230640411377,2.219119071960449,1.3540581464767456
1772810474762044200,6.259044189453125,0.24251331388950348,2.1079416275024414,1.7211878299713135
1772810474771744000,6.268743896484375,0.554665207862854,1.9970697164535522,2.1796419620513916
1772810474781444000,6.278444091796875,0.7211259007453918,1.8596251010894775,2.59411358833313
1772810474791144000,6.28814404296875,0.7672461867332458,1.7234022617340088,2.8393757343292236
1772810474800844000,6.297843994140625,0.7727439403533936,1.6766711473464966,2.8497605323791504
1772810474810543900,6.3075439453125,0.8472694754600525,1.7246240377426147,2.6438992023468018
1772810474820244000,6.317243896484375,1.0054833889007568,1.8293873071670532,2.3192245960235596
1772810474829943800,6.32694384765625,1.2003493309020996,1.8825324773788452,2.0180680751800537
1772810474839644000,6.336643798828125,1.3726131916046143,1.8657337427139282,1.753258228302002
1772810474849343700,6.34634375,1.4278963804244995,1.8529056310653687,1.3787981271743774
1772810474859043800,6.3560439453125,1.2849540710449219,1.7957897186279297,0.8406262993812561
1772810474868743700,6.36574365234375,1.0152572393417358,1.698662281036377,0.2755763828754425
1772810474878443800,6.37544384765625,0.7406735420227051,1.630245327949524,-0.13736821711063385
1772810474888143600,6.3851435546875,0.5354229807853699,1.5777109861373901,-0.3343721032142639
1772810474897843700,6.39484375,0.45051276683807373,1.43873929977417,-0.3096320927143097
1772810474907543800,6.404543701171875,0.5042688846588135,1.2499819993972778,-0.08391755074262619
1772810474917243600,6.41424365234375,0.6365211009979248,1.1000148057937622,0.2303723841905594
1772810474926943500,6.423943603515625,0.7910698652267456,0.8999565243721008,0.5223657488822937
1772810474936643600,6.4336435546875,0.9364557266235352,0.6122392416000366,0.69096440076828
1772810474946343700,6.44334375,1.0158681869506836,0.30253079533576965,0.6708058714866638
1772810474956043500,6.45304345703125,1.0045671463012695,0.04535670951008797,0.4453967809677124
1772810474965743400,6.462743408203125,0.96180659532547,-0.1476002037525177,0.07612902671098709
1772810474975443500,6.472443359375,0.9364557266235352,-0.249920055270195,-0.3349829614162445
1772810474985143600,6.4821435546875,0.934623122215271,-0.3027598559856415,-0.7314342260360718
1772810474994843400,6.491843505859375,0.8347467184066772,-0.343993216753006,-1.0811543464660645
1772810475004543500,6.50154345703125,0.618806004524231,-0.2511417865753174,-1.3459641933441162
1772810475014243300,6.511243408203125,0.4172206521034241,-0.1274416595697403,-1.5411354303359985
1772810475023943400,6.520943359375,0.2761108875274658,-0.03306305781006813,-1.6859104633331299
1772810475033643300,6.530643310546875,0.16035200655460358,0.07559451460838318,-1.814802885055542
1772810475043343400,6.54034326171875,0.004886918235570192,0.15225805342197418,-1.9104032516479492
1772810475053043200,6.550043212890625,-0.1795942485332489,0.16081015765666962,-1.953163743019104
1772810475062743000,6.559742919921875,-0.34116798639297485,0.13240493834018707,-1.981263518333435
1772810475072443100,6.569443115234375,-0.49541133642196655,0.07559451460838318,-2.0405173301696777
1772810475082143200,6.579143310546875,-0.6243038177490234,0.005650499369949102,-2.1318416595458984
1772810475091843000,6.588843017578125,-0.6982184648513794,-0.05566505342721939,-2.230801820755005
1772810475101543200,6.598543212890625,-0.7046325206756592,-0.05230529606342316,-2.3086869716644287
1772810475111243000,6.608242919921875,-0.6258309483528137,-0.010461059398949146,-2.328540086746216
1772810475120943000,6.617943115234375,-0.5030471682548523,0.016646064817905426,-2.2772276401519775
1772810475130643000,6.627642822265625,-0.39736753702163696,0.030695954337716103,-2.155359983444214
1772810475140343000,6.637343017578125,-0.2965748608112335,0.027030766010284424,-1.9736276865005493
1772810475150043000,6.64704296875,-0.16035200655460358,0.025503603741526604,-1.7369176149368286
1772810475159743000,6.656742919921875,0.02626718580722809,0.053603384643793106,-1.465693712234497
1772810475169443000,6.666443115234375,0.2571740746498108,0.1360701322555542,-1.1706459522247314
1772810475179143000,6.676142822265625,0.5054906010627747,0.25732678174972534,-0.8533017635345459
1772810475188842800,6.6858427734375,0.7513636946678162,0.3889681398868561,-0.537790060043335
1772810475198542800,6.69554296875,0.9584468603134155,0.53221595287323,-0.25954118371009827
1772810475208243000,6.705242919921875,1.074205756187439,0.6360629796981812,-0.04024071618914604
1772810475217942800,6.71494287109375,1.0595449209213257,0.6421716213226318,0.13355031609535217
1772810475227642600,6.724642578125,0.934623122215271,0.5731438994407654,0.26855143904685974
1772810475237342700,6.7343427734375,0.7987056970596313,0.44669488072395325,0.3571268320083618
1772810475247042800,6.744042724609375,0.7052434086799622,0.29306238889694214,0.4038579761981964
1772810475256742700,6.75374267578125,0.6466003656387329,0.0010690133785828948,0.4249328076839447
1772810475266442800,6.76344287109375,0.5965094566345215,-0.46830421686172485,0.3366628587245941
1772810475276142600,6.773142578125,0.4425715208053589,-1.245935082435608,-0.023136503994464874
1772810475285842400,6.782842529296875,0.09468404203653336,-2.2688281536102295,-0.593684196472168
1772810475295542500,6.79254248046875,-0.24770566821098328,-3.0351579189300537,-1.054581642150879
1772810475305242600,6.80224267578125,-0.5949822664260864,-3.8366127014160156,-1.5402191877365112
1772810475314942500,6.8119423828125,-0.989295482635498,-4.87783145904541,-2.4143667221069336
1772810475324642600,6.821642578125,-1.239139199256897,-5.207393169403076,-3.3700647354125977
1772810475334342400,6.83134228515625,-1.2232567071914673,-4.1689229011535645,-3.6522841453552246
1772810475344042500,6.84104248046875,-0.9587522745132446,-1.7789145708084106,-3.13885235786438
1772810475353742300,6.850742431640625,-0.6056724190711975,0.6821832656860352,-2.2179737091064453
1772810475363442400,6.8604423828125,-0.2938259541988373,2.1858267784118652,-1.3930007219314575
1772810475373142300,6.870142333984375,-0.09437860548496246,2.830900192260742,-0.8868992924690247
1772810475382842400,6.87984228515625,-0.016798781231045723,2.8504478931427,-0.5515345335006714
1772810475392542200,6.889542236328125,0.07299833744764328,2.3504550457000732,-0.2485456019639969
1772810475402242300,6.8992421875,0.24526220560073853,1.6091705560684204,0.07918334752321243
1772810475411942100,6.908942138671875,0.42852163314819336,0.9732602834701538,0.4545597434043884
1772810475421642200,6.918642333984375,0.5442805290222168,0.4696022868156433,0.8442915081977844
1772810475431342300,6.92834228515625,0.5803215503692627,0.01695149764418602,1.219667911529541
1772810475441042200,6.938042236328125,0.5494728684425354,-0.3388008773326874,1.571526050567627
1772810475450742000,6.947741943359375,0.4667007029056549,-0.5257254838943481,1.8323652744293213
1772810475460442000,6.957442138671875,0.3582721948623657,-0.5333613157272339,1.919413447380066
1772810475470142200,6.96714208984375,0.2516762912273407,-0.3833940029144287,1.8225914239883423
1772810475479842000,6.976842041015625,0.1695149689912796,-0.07948877662420273,1.5721368789672852
1772810475489542100,6.986542236328125,0.10629047453403473,0.32268932461738586,1.2132538557052612
1772810475499242000,6.996241943359375,0.06291907280683517,0.7185297012329102,0.8192460536956787
1772810475508941800,7.00594189453125,0.0412333719432354,1.0022764205932617,0.4563923478126526
1772810475518642000,7.015641845703125,0.034208428114652634,1.142775297164917,0.16195552051067352
1772810475528342000,7.025342041015625,0.010995565913617611,1.154076337814331,-0.07139482349157333
1772810475538041900,7.035041748046875,-0.053145237267017365,1.1073451042175293,-0.24640758335590363
1772810475547741700,7.04474169921875,-0.10903936624526978,1.032514214515686,-0.3462839722633362
1772810475557441800,7.05444189453125,-0.0668896958231926,0.8712459206581116,-0.3154352903366089
1772810475567142000,7.064141845703125,0.08460476994514465,0.6757691502571106,-0.16699515283107758
1772810475576841700,7.073841796875,0.2782489061355591,0.5254964232444763,0.02023489587008953
1772810475586541800,7.083541748046875,0.4462367296218872,0.397825688123703,0.19555309414863586
1772810475596241700,7.09324169921875,0.5571087002754211,0.268627792596817,0.34063348174095154
1772810475605941800,7.102941650390625,0.6056724190711975,0.15775582194328308,0.44784024357795715
1772810475615641600,7.1126416015625,0.5852084755897522,0.04932733252644539,0.5190060138702393
1772810475625341700,7.122341796875,0.49480047821998596,-0.06635518372058868,0.581314206123352
1772810475635041500,7.13204150390625,0.37659814953804016,-0.1634826809167862,0.6595048904418945
1772810475644741600,7.14174169921875,0.2660316228866577,-0.21265730261802673,0.7315869331359863
1772810475654441500,7.15144140625,0.16646064817905426,-0.18058690428733826,0.7563269734382629
1772810475664141600,7.1611416015625,0.07635809481143951,-0.10453423857688904,0.6958513259887695
1772810475673841400,7.17084130859375,-0.006108647678047419,-0.03275762498378754,0.534277617931366
1772810475683541500,7.18054150390625,-0.08277218043804169,0.044440411031246185,0.2810741662979126
1772810475693241300,7.190241455078125,-0.14110976457595825,0.1259908676147461,-0.03932442143559456
1772810475702941400,7.19994140625,-0.16798780858516693,0.19593487679958344,-0.3801869750022888
1772810475712641300,7.209641357421875,-0.19425499439239502,0.25641047954559326,-0.7036398649215698
1772810475722341400,7.21934130859375,-0.2507599890232086,0.2643517255783081,-0.9687551856040955
1772810475732041200,7.229041259765625,-0.3194822669029236,0.22067490220069885,-1.138575553894043
1772810475741741300,7.2387412109375,-0.364991694688797,0.16966769099235535,-1.2189042568206787
1772810475751441400,7.24844140625,-0.35155269503593445,0.10613775253295898,-1.2353976964950562
1772810475761141200,7.258141357421875,-0.28527384996414185,0.036193739622831345,-1.2091305255889893
1772810475770841000,7.267841064453125,-0.1594357043504715,-0.11339177191257477,-1.120249629020691
1772810475780541200,7.277541259765625,0.025045456364750862,-0.3125337064266205,-0.9605085253715515
1772810475790241300,7.2872412109375,0.17837251722812653,-0.5422188639640808,-0.7919098138809204
1772810475799941000,7.296941162109375,0.3139844834804535,-0.941724419593811,-0.6996692419052124
1772810475809641000,7.306640869140625,0.31581708788871765,-1.507690668106079,-0.7622829079627991
1772810475819341000,7.316341064453125,0.22510367631912231,-2.2553892135620117,-1.1159735918045044
1772810475829041200,7.326041259765625,0.15241076052188873,-3.3751041889190674,-1.7857868671417236
1772810475838741000,7.335740966796875,0.2003636509180069,-4.377227783203125,-2.5179083347320557
1772810475848441000,7.345441162109375,0.2831358313560486,-4.860116481781006,-3.033172607421875
1772810475858141000,7.355140869140625,0.16615521907806396,-4.507342338562012,-3.1431283950805664
1772810475867841000,7.364841064453125,-0.2510654330253601,-3.396790027618408,-3.024620532989502
1772810475877540900,7.374540771484375,-0.6554579138755798,-1.5266274213790894,-2.6883394718170166
1772810475887241000,7.384240966796875,-0.7009673118591309,0.8196278214454651,-1.8349614143371582
1772810475896940800,7.39394091796875,-0.49480047821998596,2.302196741104126,-0.5778017044067383
1772810475906641000,7.403640869140625,-0.3814850449562073,2.5413501262664795,0.9627992510795593
1772810475916340700,7.4133408203125,-0.546113133430481,1.8944443464279175,2.564181327819824
1772810475926040800,7.423040771484375,-0.815199077129364,0.957072377204895,3.902280569076538
1772810475935740700,7.43274072265625,-1.0045671463012695,0.08536835014820099,4.824075698852539
1772810475945440800,7.442440673828125,-1.1740821599960327,-0.47502371668815613,5.18387508392334
1772810475955140600,7.452140625,-1.4126248359680176,-0.6240747570991516,5.004891395568848
1772810475964840700,7.4618408203125,-1.6985095739364624,-0.377285361289978,4.4859619140625
1772810475974540500,7.47154052734375,-2.017380952835083,0.19929464161396027,3.7306275367736816
1772810475984240600,7.48124072265625,-2.1645994186401367,1.0535889863967896,2.8662538528442383
1772810475993940500,7.4909404296875,-2.0069961547851562,1.789986491203308,2.0599124431610107
1772810476003640600,7.500640625,-1.6099340915679932,2.0544910430908203,1.4905864000320435
1772810476013340700,7.510340576171875,-0.9767727851867676,1.7004948854446411,1.3024400472640991
1772810476023040500,7.52004052734375,-0.42394015192985535,0.8917098641395569,1.377576470375061
1772810476032740400,7.529740234375,-0.31551164388656616,0.10766492038965225,1.62742018699646
1772810476042440400,7.5394404296875,-0.42271843552589417,-0.3119228184223175,1.958508849143982
1772810476052140300,7.549140380859375,-0.5879573225975037,-0.4673879146575928,2.2572216987609863
1772810476061840400,7.55884033203125,-0.6591231226921082,-0.3534616231918335,2.460334300994873
1772810476071540500,7.56854052734375,-0.5974257588386536,-0.04283689334988594,2.5599052906036377
1772810476081240300,7.578240234375,-0.4935787320137024,0.2683223485946655,2.558683395385742
1772810476090940200,7.587940185546875,-0.3552178740501404,0.5184714794158936,2.445978879928589
1772810476100640300,7.59764013671875,-0.14630211889743805,0.6867647171020508,2.200716733932495
1772810476110340400,7.60734033203125,0.028405211865901947,0.7044798135757446,1.839695692062378
1772810476120040200,7.617040283203125,0.033597562462091446,0.4860956370830536,1.4090359210968018
1772810476129740000,7.626739990234375,-0.10384701192378998,0.16325360536575317,1.0138064622879028
1772810476139440000,7.636440185546875,-0.3084867000579834,-0.10819942504167557,0.7297543287277222
1772810476149140200,7.64614013671875,-0.5152644515037537,-0.2551887631416321,0.5513818264007568
1772810476158840000,7.655840087890625,-0.6374374032020569,-0.22640176117420197,0.45364347100257874
1772810476168540200,7.6655400390625,-0.6087267398834229,-0.031612250953912735,0.3983601927757263
1772810476178240000,7.675239990234375,-0.49021899700164795,0.2637408673763275,0.34032803773880005
1772810476187940000,7.684940185546875,-0.3610210716724396,0.5967385172843933,0.2929860055446625
1772810476197640000,7.694639892578125,-0.2672533392906189,0.8825469017028809,0.260915607213974
1772810476207340000,7.704340087890625,-0.23487751185894012,1.068555235862732,0.2144898921251297
1772810476217040000,7.714039794921875,-0.2519817352294922,1.1348340511322021,0.13446660339832306
1772810476226740000,7.723739990234375,-0.2868010103702545,1.1287254095077515,0.015347977168858051
1772810476236439800,7.733439697265625,-0.29901832342147827,1.0725258588790894,-0.1300378441810608
1772810476246140000,7.743139892578125,-0.2883281707763672,1.0178533792495728,-0.26503896713256836
1772810476255839700,7.75283984375,-0.28038692474365234,0.9821178317070007,-0.3713294267654419
1772810476265539800,7.762539794921875,-0.27916520833969116,0.9256128668785095,-0.4388299882411957
1772810476275239700,7.77223974609375,-0.28405213356018066,0.8553634285926819,-0.46692976355552673
1772810476284939800,7.781939697265625,-0.2666424810886383,0.7487674951553345,-0.4589885175228119
1772810476294639600,7.7916396484375,-0.21166464686393738,0.6275108456611633,-0.4311941862106323
1772810476304339700,7.801339599609375,-0.1383608728647232,0.5069414377212524,-0.3566686809062958
1772810476314039600,7.81103955078125,-0.06780599057674408,0.36514443159103394,-0.2121991515159607
1772810476323739600,7.82073974609375,-0.02718348242342472,0.24572035670280457,-0.018555017188191414
1772810476333439700,7.830439697265625,-0.019242240116000175,0.17340923845767975,0.18058690428733826
1772810476343139600,7.8401396484375,-0.030543239787220955,0.1415679156780243,0.3519344627857208
1772810476352839400,7.84983935546875,-0.05253437161445618,0.15958842635154724,0.48296496272087097
1772810476362539500,7.85953955078125,-0.09101885557174683,0.17913609743118286,0.5529089570045471
1772810476372239400,7.8692392578125,-0.1340848207473755,0.1418733447790146,0.5898662805557251
1772810476381939500,7.878939453125,-0.18112140893936157,0.07528908550739288,0.5950586795806885
1772810476391639300,7.888639404296875,-0.21227550506591797,0.046883873641490936,0.5697077512741089
1772810476401339400,7.89833935546875,-0.1588248461484909,0.08078686892986298,0.526030957698822
1772810476411039200,7.908039306640625,-0.06414080411195755,0.008704823441803455,0.31528258323669434
1772810476420739300,7.9177392578125,0.06261363625526428,-0.16470441222190857,-0.23144139349460602
1772810476430439400,7.927439453125,0.15668681263923645,-0.3522399067878723,-1.1208604574203491
1772810476440139300,7.93713916015625,0.12980876863002777,-0.2514472007751465,-2.0307435989379883
1772810476449839000,7.946839111328125,-0.09407317638397217,0.4247037470340729,-2.4843106269836426
1772810476459539200,7.956539306640625,-0.5164861679077148,0.8138245940208435,-2.6434409618377686
1772810476469239300,7.9662392578125,-0.6899717450141907,0.7506000995635986,-2.5197408199310303
1772810476478939100,7.975939208984375,-0.4120282828807831,0.08628465235233307,-2.4898085594177246
1772810476488639200,7.98563916015625,0.02107483521103859,-0.6842449307441711,-2.298302412033081
1772810476498339000,7.995339111328125,0.24006985127925873,-1.3555853366851807,-1.6147446632385254
1772810476508039200,8.0050390625,0.12553271651268005,-1.8656574487686157,-0.6880627870559692
1772810476517739000,8.014739013671875,-0.16554436087608337,-2.216904640197754,0.15157082676887512
1772810476527439000,8.024439208984376,-0.4068359434604645,-2.3222787380218506,0.6567559838294983
1772810476537139000,8.034138916015625,-0.5195404887199402,-2.0620503425598145,0.7856484651565552
1772810476546838800,8.0438388671875,-0.5464185476303101,-1.3751329183578491,0.6289616227149963
1772810476556539000,8.053538818359375,-0.5204567909240723,-0.4182133078575134,0.28870996832847595
1772810476566239000,8.063239013671875,-0.4871646761894226,0.5453495383262634,-0.11476621776819229
1772810476575938800,8.072938720703124,-0.4917461574077606,1.279914379119873,-0.4828122556209564
1772810476585639000,8.082638916015625,-0.5106829404830933,1.5874848365783691,-0.7363211512565613
1772810476595338800,8.0923388671875,-0.47097674012184143,1.4417935609817505,-0.8584941029548645
1772810476605038800,8.102038818359375,-0.34055712819099426,0.9439387917518616,-0.8557451963424683
1772810476614738700,8.11173876953125,-0.1389717310667038,0.21487168967723846,-0.7570905089378357
1772810476624438800,8.121438720703125,0.053756099194288254,-0.37117671966552734,-0.6138427257537842
1772810476634138600,8.131138671875,0.17165300250053406,-0.6515636444091797,-0.48189595341682434
1772810476643838700,8.140838623046875,0.17653992772102356,-0.6821069121360779,-0.35361436009407043
1772810476653538600,8.15053857421875,0.10720676928758621,-0.5211440324783325,-0.19876012206077576
1772810476663238700,8.16023876953125,0.024434590712189674,-0.23892448842525482,-0.06986765563488007
1772810476672938500,8.1699384765625,-0.05558869615197182,0.046883873641490936,-0.010919207707047462
1772810476682638600,8.179638671875,-0.10659590363502502,0.30375251173973083,-0.017944153398275375
1772810476692338400,8.18933837890625,-0.12492185086011887,0.5542070865631104,-0.06131555140018463
1772810476702038500,8.19903857421875,-0.10537417232990265,0.7496837973594666,-0.10651954263448715
1772810476711738400,8.20873828125,-0.053145237267017365,0.8083268404006958,-0.13797907531261444
1772810476721438500,8.2184384765625,0.0030543238390237093,0.7289143800735474,-0.15447242558002472
1772810476731138300,8.22813818359375,0.02412915788590908,0.55672687292099,-0.12881611287593842
1772810476740838400,8.23783837890625,0.008857538923621178,0.3617846667766571,-0.0527634471654892
1772810476750538500,8.24753857421875,-0.006108647678047419,0.18890993297100067,0.05474875494837761
1772810476760238300,8.25723828125,0.014049889519810677,0.060322895646095276,0.1527925580739975
1772810476769938200,8.266938232421875,0.05039634555578232,-0.005268708802759647,0.20593778789043427
1772810476779638300,8.27663818359375,0.07819069176912308,-0.00679587060585618,0.19708025455474854
1772810476789338400,8.28633837890625,0.08979712426662445,0.0386371985077858,0.116751529276371
1772810476799038200,8.2960380859375,0.09040798991918564,0.11407899856567383,-0.046654798090457916
1772810476808738000,8.305738037109375,0.0772743970155716,0.1302669197320938,-0.29100072383880615
1772810476818438100,8.315438232421876,0.046425722539424896,0.06551524996757507,-0.5778017044067383
1772810476828138000,8.325137939453125,0.006414080038666725,-0.04528035223484039,-0.8499419689178467
1772810476837838000,8.334838134765626,-0.03756818547844887,-0.20685409009456635,-1.0762673616409302
1772810476847538200,8.3445380859375,-0.07391463965177536,-0.3476584255695343,-1.2549452781677246
1772810476857238000,8.354238037109376,-0.1130099818110466,-0.3635408878326416,-1.4467568397521973
1772810476866937900,8.363937744140625,-0.17837251722812653,-0.2395353466272354,-1.6758311986923218
1772810476876638000,8.373637939453126,-0.2617555558681488,-0.030314164236187935,-1.8771110773086548
1772810476886338000,8.383338134765625,-0.2981020212173462,0.21181736886501312,-2.0069198608398438
1772810476896038000,8.393037841796875,-0.2724456787109375,0.3575085997581482,-2.0600650310516357
1772810476905737700,8.40273779296875,-0.21227550506591797,0.27840161323547363,-2.1040472984313965
1772810476915437800,8.412437744140625,-0.1178968995809555,-0.02390008419752121,-2.2081997394561768
1772810476925138000,8.422137939453124,-0.007024944759905338,-0.49273881316185,-2.409479856491089
1772810476934837800,8.431837646484375,0.012522728182375431,-1.088026523590088,-2.7045273780822754
1772810476944537900,8.441537841796874,-0.07513637095689774,-1.6243658065795898,-3.071657180786133
1772810476954237700,8.45123779296875,-0.13194678723812103,-1.9148319959640503,-3.4503934383392334
1772810476963937500,8.4609375,-0.07757982611656189,-1.9023092985153198,-3.6959609985351562
1772810476973637600,8.4706376953125,0.10537417232990265,-1.6109267473220825,-3.659003734588623
1772810476983337700,8.480337646484376,0.4068359434604645,-1.1433098316192627,-3.281794786453247
1772810476993037600,8.49003759765625,0.7544180154800415,-0.7621301412582397,-2.630918264389038
1772810477002737700,8.499737548828126,1.0412189960479736,-0.6698895692825317,-1.851454734802246
1772810477012437500,8.5094375,1.0983349084854126,-0.9218713045120239,-1.1541526317596436
1772810477022137600,8.5191376953125,0.9407317638397217,-1.5003602504730225,-0.6926442980766296
1772810477031837400,8.52883740234375,0.7632755637168884,-2.167119264602661,-0.42080947756767273
1772810477041537500,8.53853759765625,0.6533198952674866,-2.6325981616973877,-0.20517420768737793
1772810477051237400,8.5482373046875,0.5070177912712097,-2.83418345451355,-0.0888044685125351
1772810477060937500,8.5579375,0.3451386094093323,-2.5901429653167725,-0.09124792367219925
1772810477070637300,8.56763720703125,0.3133736252784729,-1.7834960222244263,-0.16210824251174927
1772810477080337400,8.57733740234375,0.3863719701766968,-0.690048098564148,-0.3093266487121582
1772810477090037200,8.587037353515624,0.4563159942626953,0.25579962134361267,-0.49228066205978394
1772810477099737300,8.5967373046875,0.42302384972572327,0.7246383428573608,-0.6104829907417297
1772810477109437200,8.606437255859374,0.23304490745067596,0.6709585785865784,-0.6694314479827881
1772810477119137300,8.61613720703125,-0.0409279391169548,0.34895649552345276,-0.6978366374969482
1772810477128837000,8.625837158203124,-0.19211697578430176,0.09789107739925385,-0.6288089156150818
1772810477138537200,8.635537109375,-0.0821613147854805,0.08933897316455841,-0.31268641352653503
1772810477148237000,8.645237060546876,0.2568686306476593,0.3510945439338684,0.35559967160224915
1772810477157937200,8.654937255859375,0.5852084755897522,0.6174315810203552,1.2731186151504517
1772810477167637000,8.664636962890626,0.8707877397537231,0.7206677198410034,2.303036689758301
1772810477177337000,8.674337158203125,1.1056652069091797,0.616209864616394,3.1576364040374756
1772810477187037000,8.684036865234376,1.1823288202285767,0.3874409794807434,3.851884126663208
1772810477196737000,8.693737060546875,1.0989457368850708,0.050549060106277466,4.275213718414307
1772810477206436900,8.703436767578125,0.9963204264640808,-0.25816673040390015,4.2223734855651855
1772810477216137000,8.713136962890625,0.8921679854393005,-0.23342670500278473,3.6331946849823
1772810477225836800,8.7228369140625,0.85918128490448,0.19410228729248047,2.672304391860962
1772810477235537000,8.732536865234374,0.8542944192886353,0.7780889868736267,1.653992772102356
1772810477245236700,8.74223681640625,0.8176425099372864,1.218522548675537,0.8763619065284729
1772810477254936800,8.751936767578124,0.750141978263855,1.3727658987045288,0.48907360434532166
1772810477264637000,8.761636962890625,0.7663298845291138,1.2719731330871582,0.46341729164123535
1772810477274336800,8.771336669921874,0.8958331942558289,1.0019710063934326,0.7135664224624634
1772810477284036600,8.78103662109375,1.0760383605957031,0.7191405892372131,1.0776418447494507
1772810477293736700,8.79073681640625,1.1878265142440796,0.5086976289749146,1.366580843925476
1772810477303436800,8.800436767578125,1.2092068195343018,0.43233954906463623,1.504941701889038
1772810477313136600,8.81013671875,1.146898627281189,0.5172497630119324,1.5116612911224365
1772810477322836500,8.81983642578125,1.0134246349334717,0.7322741746902466,1.4527127742767334
1772810477332536600,8.82953662109375,0.8610138893127441,1.0089958906173706,1.3995676040649414
1772810477342236400,8.839236328125,0.7308996915817261,1.2310452461242676,1.4023164510726929
1772810477351936500,8.8489365234375,0.620333194732666,1.3577996492385864,1.503109097480774
1772810477361636600,8.85863671875,0.545502245426178,1.4143047332763672,1.744706153869629
1772810477371336400,8.86833642578125,0.4761691093444824,1.348331332206726,2.0925936698913574
1772810477381036300,8.878036376953125,0.35582873225212097,1.0624465942382812,2.4649157524108887
1772810477390736400,8.887736328125,0.1695149689912796,0.5444332361221313,2.751105785369873
1772810477400436500,8.8974365234375,-0.04734202101826668,-0.05199986323714256,2.868086576461792
1772810477410136300,8.90713623046875,-0.23823726177215576,-0.5125918984413147,2.809138059616089
1772810477419836400,8.91683642578125,-0.360410213470459,-0.7911462187767029,2.64451003074646
1772810477429536300,8.926536376953125,-0.44929105043411255,-0.9023236632347107,2.4288747310638428
1772810477439236400,8.936236328125,-0.5369501113891602,-0.8455132246017456,2.201022148132324
1772810477448936200,8.945936279296875,-0.6096430420875549,-0.6992111206054688,1.996687889099121
1772810477458636300,8.95563623046875,-0.6612611413002014,-0.5752055644989014,1.8537455797195435
1772810477468336000,8.965336181640625,-0.6933315396308899,-0.5138136148452759,1.7648646831512451
1772810477478036000,8.975035888671876,-0.7171552777290344,-0.5431351661682129,1.707137942314148
1772810477487736000,8.984736083984375,-0.7171552777290344,-0.6185769438743591,1.6301690340042114
1772810477497436200,8.994436279296876,-0.609948456287384,-0.3433823585510254,1.3253475427627563
1772810477507136000,9.004135986328125,-0.5516108870506287,-0.061162836849689484,0.8904117941856384
1772810477516836000,9.013836181640626,-0.5580250024795532,0.351705402135849,0.37697991728782654
1772810477526536000,9.023535888671875,-0.5821541547775269,0.8037453293800354,-0.15202897787094116
1772810477536236000,9.033236083984375,-0.5952877402305603,1.1757619380950928,-0.6055960655212402
1772810477545936000,9.042935791015625,-0.5904008150100708,1.4228568077087402,-0.9104176163673401
1772810477555636000,9.052635986328125,-0.5797106623649597,1.4396555423736572,-0.9941060543060303
1772810477565335800,9.062335693359374,-0.6068941354751587,1.1574360132217407,-0.8523854613304138
1772810477575036000,9.072035888671875,-0.7342594861984253,0.7484620809555054,-0.5558105707168579
1772810477584735700,9.08173583984375,-0.8845322132110596,0.37552911043167114,-0.2381609082221985
1772810477594435800,9.091435791015625,-0.8958331942558289,0.18066325783729553,-0.03840812295675278
1772810477604135700,9.1011357421875,-0.7443387508392334,0.17455461621284485,0.010155626572668552
1772810477613835800,9.110835693359375,-0.5082395076751709,0.23441936075687408,-0.047265663743019104
1772810477623535600,9.12053564453125,-0.23548837006092072,0.3364337682723999,-0.2372446060180664
1772810477633235700,9.130235595703125,-0.008552107028663158,0.4091266989707947,-0.47700902819633484
1772810477642935600,9.139935546875,0.13072505593299866,0.38072147965431213,-0.807486891746521
1772810477652635600,9.1496357421875,0.1594357043504715,0.27107125520706177,-1.2387573719024658
1772810477662335500,9.15933544921875,0.17623448371887207,0.27259841561317444,-1.687743067741394
1772810477672035600,9.16903564453125,0.35063639283180237,0.677067220211029,-1.9125412702560425
1772810477681735400,9.1787353515625,0.5754346251487732,1.1870629787445068,-1.7818162441253662
1772810477691435500,9.188435546875,0.6380482912063599,1.0923789739608765,-1.6342923641204834
1772810477701135400,9.19813525390625,0.5247328281402588,0.3422369956970215,-1.417740821838379
1772810477710835500,9.20783544921875,-0.014660755172371864,-0.7267000079154968,-1.3334414958953857
1772810477720535300,9.217535400390625,-0.7141009569168091,-2.113363027572632,-1.6993494033813477
1772810477730235400,9.2272353515625,-0.9908226728439331,-3.094411849975586,-2.331899881362915
1772810477739935200,9.236935302734375,-0.8713986277580261,-3.06142520904541,-3.0481388568878174
1772810477749635300,9.24663525390625,-0.6371319890022278,-2.1768929958343506,-3.801029682159424
1772810477759335200,9.256335205078125,-0.3555232882499695,-0.8149699568748474,-4.167548656463623
1772810477769035300,9.26603515625,-0.0009162971982732415,0.3379609286785126,-3.9403069019317627
1772810477778735000,9.275735107421875,0.08582650125026703,0.9912807941436768,-3.365788459777832
1772810477788435200,9.285435302734374,-0.10873392969369888,1.1699587106704712,-2.641913890838623
1772810477798135000,9.295135009765625,-0.36804601550102234,0.9845613241195679,-1.9320889711380005
1772810477807835100,9.304835205078126,-0.4166097939014435,0.39477136731147766,-1.3322197198867798
1772810477817535000,9.314534912109375,-0.23182319104671478,-0.28351762890815735,-0.843833327293396
1772810477827235000,9.324235107421876,0.05894844979047775,-0.8131373524665833,-0.3872119188308716
1772810477836935200,9.33393505859375,0.2822195291519165,-1.0751984119415283,0.06940951198339462
1772810477846635000,9.343635009765626,0.39736753702163696,-1.2453242540359497,0.48327040672302246
1772810477856334800,9.3533349609375,0.40958482027053833,-1.3610830307006836,0.811610221862793
1772810477866035000,9.363034912109375,0.3808741867542267,-1.377271056175232,0.9970076680183411
1772810477875735000,9.372735107421875,0.3017672002315521,-1.2346340417861938,1.0107520818710327
1772810477885435000,9.382434814453125,0.16279546916484833,-0.9420298337936401,0.8445969223976135
1772810477895134700,9.392134765625,0.0021380267571657896,-0.6051379442214966,0.5819250345230103
1772810477904834800,9.401834716796875,-0.12522727251052856,-0.35132360458374023,0.3363574147224426
1772810477914534700,9.41153466796875,-0.19914191961288452,-0.19097159802913666,0.20135630667209625
1772810477924234800,9.42123486328125,-0.2306014597415924,-0.05169443041086197,0.16165009140968323
1772810477933934800,9.430934814453124,-0.2516762912273407,0.05024362727999687,0.19982914626598358
1772810477943634700,9.440634765625,-0.2706131041049957,0.07681624591350555,0.2917642891407013
1772810477953334500,9.45033447265625,-0.32070401310920715,0.024892739951610565,0.414242684841156
1772810477963034600,9.46003466796875,-0.3961458206176758,-0.08040507882833481,0.5565741658210754
1772810477972734700,9.469734619140626,-0.4685332775115967,-0.2047160565853119,0.6830231547355652
1772810477982434600,9.4794345703125,-0.5204567909240723,-0.29848378896713257,0.7835104465484619
1772810477992134400,9.489134521484376,-0.5662716627120972,-0.3467421233654022,0.8348230719566345
1772810478001834500,9.49883447265625,-0.6087267398834229,-0.3730092942714691,0.8421534299850464
1772810478011534300,9.508534423828126,-0.6386591196060181,-0.40294167399406433,0.8119156360626221
1772810478021234400,9.518234375,-0.6801979541778564,-0.4310414493083954,0.7496074438095093
1772810478030934500,9.5279345703125,-0.7516691088676453,-0.45303258299827576,0.662864625453949
1772810478040634400,9.53763427734375,-0.8323032855987549,-0.4340957701206207,0.542829692363739
1772810478050334200,9.547334228515625,-0.8842267394065857,-0.367511510848999,0.36079201102256775
1772810478060034300,9.557034423828124,-0.9129374027252197,-0.29909467697143555,0.11888955533504486
1772810478069734400,9.566734375,-0.9230166673660278,-0.20135630667209625,-0.14408773183822632
1772810478079434200,9.576434326171874,-0.9144645929336548,-0.10697769373655319,-0.385990172624588
1772810478089134300,9.58613427734375,-0.8775072693824768,-0.03917170315980911,-0.5597811937332153
1772810478098834200,9.595834228515624,-0.7907644510269165,-0.0062613640911877155,-0.6401099562644958
1772810478108534300,9.6055341796875,-0.6487383842468262,-0.006490438245236874,-0.6532435417175293
1772810478118234000,9.615234130859376,-0.47372564673423767,0.027336198836565018,-0.6617956161499023
1772810478127934200,9.624934326171875,-0.2861901521682739,0.12415826320648193,-0.7002801299095154
1772810478137634000,9.634634033203126,-0.12156209349632263,0.18066325783729553,-0.7625883221626282
1772810478147334000,9.644333984375,-0.001221729558892548,0.13820815086364746,-0.7830522656440735
1772810478157034000,9.654033935546876,0.06475166976451874,0.007483093533664942,-0.7387645840644836
1772810478166734000,9.663734130859375,0.0668896958231926,-0.1995237022638321,-0.6156753301620483
1772810478176434000,9.673433837890625,0.015577051788568497,-0.42218393087387085,-0.35880669951438904
1772810478186134000,9.683134033203125,-0.023212861269712448,-0.5642099976539612,-0.1700494885444641
1772810478195833900,9.692833740234375,-0.007635809946805239,-0.5590176582336426,-0.030161447823047638
1772810478205533700,9.70253369140625,-0.014966187067329884,-0.487546443939209,-0.019471315667033195
1772810478215233800,9.71223388671875,-0.0616973415017128,-0.33826637268066406,-0.10285435616970062
1772810478224934000,9.721933837890624,-0.11087195575237274,-0.13996438682079315,-0.21586434543132782
1772810478234633700,9.7316337890625,-0.19761475920677185,0.02977965772151947,-0.3551415205001831
1772810478244333600,9.74133349609375,-0.2910770773887634,0.17394374310970306,-0.5054142475128174
1772810478254033700,9.75103369140625,-0.35766133666038513,0.291229784488678,-0.6660717129707336
1772810478263733800,9.760733642578124,-0.4370737373828888,0.36544984579086304,-0.8053488731384277
1772810478273433600,9.77043359375,-0.5158752799034119,0.3627009689807892,-0.8462768197059631
1772810478283133700,9.7801337890625,-0.5329795479774475,0.34834563732147217,-0.7986293435096741
