time,seconds_elapsed,z,y,x
1772810488952094200,0.11409423828125,-0.22204934060573578,0.3068068325519562,0.10056361556053162
1772810488961794000,0.1237939453125,-0.18753549456596375,0.47265663743019104,-0.12759438157081604
1772810488971494100,0.133494140625,-0.14599667489528656,0.5129737257957458,-0.3264308571815491
1772810488981194000,0.143194091796875,-0.15210533142089844,0.4500546157360077,-0.5011382102966309
1772810488990894000,0.15289404296875,-0.20280711352825165,0.3611738085746765,-0.6269763112068176
1772810489000594000,0.162593994140625,-0.17531819641590118,0.3058905303478241,-0.7060832977294922
1772810489010294000,0.1722939453125,0.0308486707508564,0.32330018281936646,-0.8135955333709717
1772810489019993900,0.181993896484375,0.20250166952610016,0.36025750637054443,-1.0078505277633667
1772810489029693700,0.191693603515625,0.32650721073150635,0.35537058115005493,-1.233565092086792
1772810489039393800,0.201393798828125,0.425467312335968,0.34987279772758484,-1.4495058059692383
1772810489049093600,0.21109375,0.5235111117362976,0.37919431924819946,-1.6352086067199707
1772810489058793700,0.220793701171875,0.6783653497695923,0.3309359848499298,-1.7549381256103516
1772810489068493600,0.23049365234375,0.8906408548355103,0.18493930995464325,-1.7873139381408691
1772810489078193700,0.240193603515625,1.0958913564682007,0.03283398225903511,-1.7231731414794922
1772810489087893500,0.2498935546875,1.266933560371399,-0.053832460194826126,-1.564653754234314
1772810489097593600,0.259593505859375,1.416290044784546,0.019394956529140472,-1.3056471347808838
1772810489107293400,0.26929345703125,1.5793908834457397,0.2441931962966919,-0.9867756962776184
1772810489116993500,0.27899365234375,1.7321070432662964,0.5212203860282898,-0.6550761461257935
1772810489126693400,0.288693359375,1.8451170921325684,0.7429642677307129,-0.31696245074272156
1772810489136393500,0.2983935546875,1.8945971727371216,0.8339831233024597,0.008628465235233307
1772810489146093300,0.30809326171875,1.8515311479568481,0.7359393239021301,0.3027598559856415
1772810489155793200,0.317793212890625,1.6728532314300537,0.27290382981300354,0.5006800293922424
1772810489165493200,0.3274931640625,1.2745693922042847,-0.47807803750038147,0.5171734094619751
1772810489175193000,0.337193115234375,0.7089085578918457,-1.1824051141738892,0.37545275688171387
1772810489184893200,0.34689306640625,0.17562362551689148,-1.625892996788025,0.2099084109067917
1772810489194593000,0.356593017578125,-0.25503605604171753,-1.7859395742416382,0.06391172856092453
1772810489204293000,0.366293212890625,-0.5815432667732239,-1.7245476245880127,-0.10713040828704834
1772810489213993000,0.375992919921875,-0.7745765447616577,-1.6677372455596924,-0.3456731140613556
1772810489223693000,0.385693115234375,-0.8139773011207581,-1.6109267473220825,-0.5955168008804321
1772810489233393000,0.395392822265625,-0.7302888631820679,-1.542509913444519,-0.7876337766647339
1772810489243092700,0.4050927734375,-0.5693259835243225,-1.4985276460647583,-0.9027817845344543
1772810489252792800,0.414792724609375,-0.3802633285522461,-1.487532138824463,-0.9351575970649719
1772810489262493000,0.424492919921875,-0.18906265497207642,-1.5748857259750366,-0.9064469933509827
1772810489272192800,0.43419287109375,-0.021991131827235222,-1.6677372455596924,-0.8493311405181885
1772810489281892900,0.443892822265625,0.050090912729501724,-1.383074164390564,-0.8517745733261108
1772810489291592700,0.4535927734375,0.04276053607463837,-0.7639627456665039,-0.8707113862037659
1772810489301292500,0.46329248046875,0.06108647957444191,-0.34613126516342163,-0.7696132659912109
1772810489310992600,0.47299267578125,0.10384701192378998,-0.15034909546375275,-0.6648499369621277
1772810489320692500,0.4826923828125,0.18234314024448395,-0.14943279325962067,-0.6101775765419006
1772810489330392600,0.492392578125,0.28985533118247986,-0.2398407906293869,-0.5933787822723389
1772810489340092400,0.502092529296875,0.39278605580329895,-0.30222535133361816,-0.6095666885375977
1772810489349792500,0.51179248046875,0.4657844007015228,-0.0553596206009388,-0.6834813356399536
1772810489359492400,0.521492431640625,0.5152644515037537,0.33857181668281555,-0.8132901191711426
1772810489369192400,0.5311923828125,0.5067123174667358,0.3972148299217224,-0.9650899767875671
1772810489378892300,0.540892333984375,0.44837474822998047,0.4286743700504303,-1.1126137971878052
1772810489388592000,0.550592041015625,0.4120282828807831,0.42592546343803406,-1.2286781072616577
1772810489398292200,0.560292236328125,0.4453204274177551,0.4747946560382843,-1.2989275455474854
1772810489407992000,0.569991943359375,0.572685718536377,0.5670352578163147,-1.3313034772872925
1772810489417692200,0.579692138671875,0.7987056970596313,0.5984947681427002,-1.3325251340866089
1772810489427392000,0.58939208984375,1.0607666969299316,0.6388118267059326,-1.3322197198867798
1772810489437092000,0.599092041015625,1.2507456541061401,0.4482220411300659,-1.429347276687622
1772810489446792000,0.6087919921875,1.3103049993515015,0.046883873641490936,-1.6397901773452759
1772810489456492000,0.618491943359375,1.296255111694336,-0.3372737169265747,-1.9100978374481201
1772810489466192000,0.62819189453125,1.2388337850570679,-0.6121628880500793,-2.214919328689575
1772810489475892000,0.63789208984375,1.1099413633346558,-0.9438624382019043,-2.509967088699341
1772810489485591800,0.647591796875,0.8952223062515259,-1.3149627447128296,-2.765002965927124
1772810489495292000,0.6572919921875,0.6805033683776855,-1.6729295253753662,-2.943986415863037
1772810489504991700,0.66699169921875,0.4862483739852905,-2.0425026416778564,-3.0405030250549316
1772810489514691600,0.676691650390625,0.23945899307727814,-2.3983314037323,-3.125107765197754
1772810489524391700,0.6863916015625,-0.05894844979047775,-2.5504367351531982,-3.1379361152648926
1772810489534091500,0.696091552734375,-0.3124573230743408,-2.6090798377990723,-2.9650611877441406
1772810489543791600,0.70579150390625,-0.45020735263824463,-2.4814090728759766,-2.747593402862549
1772810489553491500,0.715491455078125,-0.48563748598098755,-2.2049927711486816,-2.541121006011963
1772810489563191600,0.725191650390625,-0.42302384972572327,-1.9441535472869873,-2.418948173522949
1772810489572891400,0.734891357421875,-0.2406807243824005,-1.6326124668121338,-2.365497589111328
1772810489582591500,0.744591552734375,0.037262752652168274,-1.2865575551986694,-2.3697736263275146
1772810489592291300,0.754291259765625,0.32650721073150635,-1.0104466676712036,-2.4308600425720215
1772810489601991200,0.7639912109375,0.5079340934753418,-0.9145409464836121,-2.5258495807647705
1772810489611691300,0.773691162109375,0.5232056975364685,-0.9313397407531738,-2.6092326641082764
1772810489621391400,0.783391357421875,0.4196641147136688,-0.932561457157135,-2.664515733718872
1772810489631091200,0.79309130859375,0.27947062253952026,-0.8681151866912842,-2.6715407371520996
1772810489640791300,0.802791259765625,0.1438586562871933,-0.7364738583564758,-2.585714340209961
1772810489650491100,0.8124912109375,0.02260199747979641,-0.553214430809021,-2.3700790405273438
1772810489660191000,0.82219091796875,-0.048563748598098755,-0.28260132670402527,-2.044182538986206
1772810489669891000,0.83189111328125,-0.06475166976451874,0.03894263133406639,-1.712788462638855
1772810489679591000,0.8415908203125,-0.05100720748305321,0.2863428592681885,-1.4968477487564087
1772810489689291000,0.851291015625,-0.05283980444073677,0.3825540542602539,-1.398803949356079
1772810489698990800,0.860990966796875,-0.09682206809520721,0.29306238889694214,-1.3755911588668823
1772810489708691000,0.87069091796875,-0.14110976457595825,0.1464548259973526,-1.3584868907928467
1772810489718390800,0.880390869140625,-0.15821397304534912,0.01908952370285988,-1.297705888748169
1772810489728091000,0.8900908203125,-0.15118902921676636,-0.06452259421348572,-1.1941642761230469
1772810489737790700,0.899790771484375,-0.10659590363502502,-0.05971203371882439,-1.0222058296203613
1772810489747490600,0.909490478515625,-0.0054977829568088055,0.026419902220368385,-0.7809142470359802
1772810489757190700,0.919190673828125,0.1130099818110466,0.15592323243618011,-0.5243510603904724
1772810489766890500,0.928890380859375,0.22510367631912231,0.31413722038269043,-0.27542364597320557
1772810489776590600,0.938590576171875,0.33047783374786377,0.44761115312576294,-0.027107125148177147
1772810489786290700,0.948290771484375,0.4101957082748413,0.4644099473953247,0.20838125050067902
1772810489795990500,0.957990478515625,0.45906487107276917,0.37522369623184204,0.40782859921455383
1772810489805690400,0.9676904296875,0.5103775262832642,0.2991710305213928,0.5642099976539612
1772810489815390500,0.977390380859375,0.6130027770996094,0.268627792596817,0.6671407222747803
1772810489825090300,0.98709033203125,0.7275399565696716,0.2698495090007782,0.7215076684951782
1772810489834790400,0.996790283203125,0.8060360550880432,0.3162752389907837,0.775263786315918
1772810489844490200,1.006490234375,0.8768963813781738,0.3507890999317169,0.8525381684303284
1772810489854190300,1.0161904296875,0.9935715794563293,0.39141160249710083,0.9472221732139587
1772810489863890200,1.02589013671875,1.173776626586914,0.4995346665382385,1.0321323871612549
1772810489873590300,1.03559033203125,1.2705987691879272,0.5902481079101562,1.1255947351455688
1772810489883290000,1.0452900390625,1.1572833061218262,0.5795579552650452,1.2865575551986694
1772810489892990000,1.054989990234375,0.8830050230026245,0.45158177614212036,1.4624866247177124
1772810489902690000,1.06468994140625,0.5699368119239807,0.14737112820148468,1.525405764579773
1772810489912390000,1.074389892578125,0.3139844834804535,-0.22334744036197662,1.4630974531173706
1772810489922090000,1.084090087890625,0.07757982611656189,-0.5211440324783325,1.3778818845748901
1772810489931789800,1.093789794921875,-0.07880155742168427,-0.8702532649040222,1.4392738342285156
1772810489941490000,1.103489990234375,-0.08888082206249237,-1.2233331203460693,1.8259512186050415
1772810489951189800,1.113189697265625,0.005803215317428112,-1.559308648109436,2.5785365104675293
1772810489960889900,1.122889892578125,0.1331685185432434,-2.1042001247406006,3.5009424686431885
1772810489970589700,1.132589599609375,0.24862197041511536,-2.943528413772583,4.328969478607178
1772810489980289800,1.142289794921875,0.3799578845500946,-3.90472412109375,4.888521671295166
1772810489989989600,1.15198974609375,0.5112938284873962,-4.671359539031982,5.164937973022461
1772810489999689700,1.161689697265625,0.5207622051239014,-4.924257278442383,5.16218900680542
1772810490009389600,1.1713896484375,0.3069595396518707,-4.654865741729736,4.85522985458374
1772810490019089400,1.18108935546875,-0.08918625861406326,-4.025675296783447,4.247724533081055
1772810490028789500,1.19078955078125,-0.5864301919937134,-3.1380887031555176,3.35189151763916
1772810490038489300,1.2004892578125,-1.0430516004562378,-2.062966823577881,2.270660638809204
1772810490048189400,1.210189453125,-1.3750566244125366,-0.8061124086380005,1.1937061548233032
1772810490057889300,1.21988916015625,-1.5066980123519897,0.48853909969329834,0.30367615818977356
1772810490067589400,1.22958935546875,-1.4388920068740845,1.5108213424682617,-0.29100072383880615
1772810490077289200,1.239289306640625,-1.2794562578201294,2.1555891036987305,-0.5161044001579285
1772810490086989300,1.2489892578125,-1.212566614151001,2.529132843017578,-0.4113410711288452
1772810490096689200,1.258689208984375,-1.2712095975875854,2.7145304679870605,-0.07017309218645096
1772810490106389000,1.268388916015625,-1.3619229793548584,2.7084217071533203,0.4139372408390045
1772810490116089000,1.278089111328125,-1.434921383857727,2.5966334342956543,0.9282854199409485
1772810490125789000,1.287788818359375,-1.500589370727539,2.372446060180664,1.2847249507904053
1772810490135489000,1.297489013671875,-1.5390738248825073,2.2120940685272217,1.5761075019836426
1772810490145189000,1.307189208984375,-1.4840959310531616,2.0276129245758057,1.8143447637557983
1772810490154889000,1.316888916015625,-1.4080432653427124,1.893222689628601,1.9071961641311646
1772810490164588800,1.3265888671875,-1.341153621673584,1.7017165422439575,1.8445825576782227
1772810490174289000,1.336288818359375,-1.2541054487228394,1.512959361076355,1.7068325281143188
1772810490183988700,1.34598876953125,-1.1410953998565674,1.3907864093780518,1.559308648109436
1772810490193688800,1.355688720703125,-1.0198386907577515,1.263115644454956,1.4215587377548218
1772810490203388700,1.365388671875,-0.9178243279457092,1.085659384727478,1.311908483505249
1772810490213088800,1.3750888671875,-0.8555161356925964,0.8956804871559143,1.2505165338516235
1772810490222788600,1.38478857421875,-0.8381064534187317,0.7002037763595581,1.2398264408111572
1772810490232488700,1.39448876953125,-0.8604030609130859,0.4943423271179199,1.2584577798843384
1772810490242188500,1.4041884765625,-0.9077450633049011,0.3016144931316376,1.282586932182312
1772810490251888400,1.413888427734375,-0.9657772183418274,0.14798198640346527,1.2932771444320679
1772810490261588500,1.42358837890625,-1.0222822427749634,0.06887500733137131,1.275562047958374
1772810490271288800,1.433288818359375,-1.0525200366973877,0.08078686892986298,1.2346340417861938
1772810490280988700,1.44298876953125,-1.0552688837051392,0.15691588819026947,1.1717150211334229
1772810490290688800,1.452688720703125,-1.0396918058395386,0.24236060678958893,1.0907753705978394
1772810490300388600,1.462388671875,-1.0143409967422485,0.31413722038269043,0.9951750636100769
1772810490310088700,1.472088623046875,-0.9782999157905579,0.3770562708377838,0.884913980960846
1772810490319788500,1.48178857421875,-0.9227112531661987,0.4195113778114319,0.7514400482177734
1772810490329488600,1.491488525390625,-0.8451313972473145,0.4091266989707947,0.6014727354049683
1772810490339188500,1.5011884765625,-0.7614429593086243,0.36422812938690186,0.4493674039840698
1772810490348888600,1.510888671875,-0.6728675365447998,0.33765551447868347,0.29329144954681396
1772810490358588400,1.52058837890625,-0.5839866995811462,0.33460119366645813,0.13110685348510742
1772810490368288300,1.530288330078125,-0.4981602132320404,0.388051837682724,-0.01824958436191082
1772810490377988400,1.53998828125,-0.4053087830543518,0.5090031027793884,-0.1346193253993988
1772810490387688200,1.549688232421875,-0.30604326725006104,0.697760283946991,-0.19478951394557953
1772810490397388300,1.55938818359375,-0.21930044889450073,0.9311106204986572,-0.19753839075565338
1772810490407088000,1.569088134765625,-0.14049890637397766,1.1827869415283203,-0.16760602593421936
1772810490416788200,1.578788330078125,-0.05589412897825241,1.4237730503082275,-0.10590868443250656
1772810490426488000,1.588488037109375,0.03481929376721382,1.6180280447006226,-0.023747367784380913
1772810490436188200,1.598188232421875,0.1233946830034256,1.761581301689148,0.05627591907978058
1772810490445888000,1.607887939453125,0.23854269087314606,1.8223623037338257,0.17478369176387787
1772810490455588000,1.617588134765625,0.3274235129356384,1.7108795642852783,0.3125337064266205
1772810490465288000,1.627287841796875,0.3491092324256897,1.484859585762024,0.4615846872329712
1772810490474988000,1.636988037109375,0.34238970279693604,1.1397209167480469,0.5669588446617126
1772810490484688000,1.64668798828125,0.3906480371952057,0.6965385675430298,0.5483275055885315
1772810490494387700,1.6563876953125,0.5720748901367188,0.18280129134655,0.34460410475730896
1772810490504087800,1.666087890625,0.8622356653213501,-0.28260132670402527,-0.10193806141614914
1772810490513787600,1.67578759765625,1.1624757051467896,-0.4713585376739502,-0.8062651753425598
1772810490523487700,1.68548779296875,1.4401136636734009,-0.3314704895019531,-1.675220251083374
1772810490533187600,1.6951875,1.6230677366256714,-0.5776489973068237,-2.7833290100097656
1772810490542887700,1.7048876953125,1.5219695568084717,-2.111225128173828,-4.292470455169678
1772810490552587500,1.71458740234375,1.0580178499221802,-4.4624433517456055,-5.977235317230225
1772810490562287600,1.72428759765625,0.6288852691650391,-6.468829154968262,-7.126883029937744
1772810490571987500,1.733987548828125,0.610559344291687,-7.025632381439209,-7.270130634307861
1772810490581687300,1.743687255859375,1.0302234888076782,-5.1218719482421875,-6.298855781555176
1772810490591387400,1.753387451171875,1.693317174911499,-1.2444078922271729,-4.575300693511963
1772810490601087200,1.763087158203125,2.3283112049102783,2.1134393215179443,-2.8890085220336914
1772810490610787300,1.772787353515625,2.6621487140655518,3.680307626724243,-1.7961715459823608
1772810490620487400,1.7824873046875,2.7058255672454834,3.7618579864501953,-1.2213478088378906
1772810490630187300,1.792187255859375,2.5839579105377197,2.8651084899902344,-0.8337540626525879
1772810490639887000,1.80188720703125,2.405280113220215,1.6110031604766846,-0.46021026372909546
1772810490649587200,1.811587158203125,2.2537856101989746,0.31780239939689636,-0.1340084671974182
1772810490659287000,1.821287109375,2.162766695022583,-0.7560214996337891,0.13446660339832306
1772810490668987100,1.830987060546875,2.1050400733947754,-1.4395792484283447,0.377285361289978
1772810490678687000,1.84068701171875,2.0131049156188965,-1.785634160041809,0.5733729600906372
1772810490688387000,1.850386962890625,1.8704679012298584,-1.8436663150787354,0.682412326335907
1772810490698087000,1.8600869140625,1.6893465518951416,-1.7517311573028564,0.6949350237846375
1772810490707787000,1.869787109375,1.450192928314209,-1.6683480739593506,0.6246855854988098
1772810490717486800,1.87948681640625,1.1621702909469604,-1.6255875825881958,0.5086212754249573
1772810490727186700,1.889186767578125,0.8701768517494202,-1.606956124305725,0.36201372742652893
1772810490736886800,1.89888671875,0.6139190793037415,-1.5837433338165283,0.18180863559246063
1772810490746586600,1.908586669921875,0.4153880476951599,-1.5208241939544678,-0.05429060757160187
1772810490756286700,1.91828662109375,0.2770271897315979,-1.3992621898651123,-0.35789039731025696
1772810490765986600,1.927986572265625,0.19394956529140472,-1.255708932876587,-0.7134137153625488
1772810490775686700,1.937686767578125,0.15760311484336853,-1.0987166166305542,-1.0567196607589722
1772810490785386500,1.947386474609375,0.1597411334514618,-0.940197229385376,-1.3200024366378784
1772810490795086600,1.957086669921875,0.20219624042510986,-0.8036689758300781,-1.4672207832336426
1772810490804786400,1.966786376953125,0.2675587832927704,-0.6970730423927307,-1.4962369203567505
1772810490814486300,1.976486328125,0.3381136655807495,-0.625907301902771,-1.424765706062317
1772810490824186400,1.986186279296875,0.3992001414299011,-0.5978075265884399,-1.269911527633667
1772810490833886200,1.99588623046875,0.4621191918849945,-0.606970489025116,-1.0622174739837646
1772810490843586300,2.00558642578125,0.5170970559120178,-0.6472876071929932,-0.8230639100074768
1772810490853286100,2.0152861328125,0.5403099060058594,-0.7807615399360657,-0.6431642770767212
1772810490862986200,2.024986328125,0.5412262082099915,-0.8418480157852173,-0.46662431955337524
1772810490872686000,2.03468603515625,0.535728394985199,-0.9472221732139587,-0.2625955045223236
1772810490882386200,2.04438623046875,0.5146535634994507,-1.0333541631698608,-0.05459604039788246
1772810490892086000,2.0540859375,0.45937031507492065,-1.0440442562103271,0.13660463690757751
1772810490901786000,2.0637861328125,0.3854556679725647,-1.0642027854919434,0.2703840136528015
1772810490911486000,2.07348583984375,0.29626941680908203,-1.1338413953781128,0.31986406445503235
1772810490921186000,2.08318603515625,0.18387030065059662,-1.211115837097168,0.2905425727367401
1772810490930886000,2.092885986328125,0.046425722539424896,-1.2624284029006958,0.18089233338832855
1772810490940585700,2.102585693359375,-0.10415244847536087,-1.2667044401168823,-0.009697478264570236
1772810490950285800,2.112285888671875,-0.2461785078048706,-1.2147809267044067,-0.2787834107875824
1772810490959985700,2.121985595703125,-0.3597993552684784,-1.1286489963531494,-0.5982657074928284
1772810490969685800,2.131685791015625,-0.4211912751197815,-1.026940107345581,-0.9253838062286377
1772810490979385600,2.141385498046875,-0.4266890585422516,-0.8937715291976929,-1.20577073097229
1772810490989085700,2.151085693359375,-0.38728827238082886,-0.6763036847114563,-1.3630683422088623
1772810490998785500,2.16078564453125,-0.27580544352531433,-0.41790786385536194,-1.3514620065689087
1772810491008485600,2.170485595703125,-0.08582650125026703,-0.1375209391117096,-1.1987457275390625
1772810491018185500,2.180185546875,0.09346231073141098,0.06734783947467804,-1.00998854637146
1772810491027885300,2.18988525390625,0.11239911615848541,0.005955931730568409,-0.9027817845344543
1772810491037585400,2.19958544921875,-0.04673115536570549,-0.3079521954059601,-0.9864702820777893
1772810491047285200,2.20928515625,-0.1805105358362198,-0.5098429918289185,-1.2634974718093872
1772810491056985300,2.2189853515625,-0.1542433500289917,-0.3287216126918793,-1.6437608003616333
1772810491066685400,2.228685546875,-0.03145953640341759,0.04932733252644539,-2.060981512069702
1772810491076385300,2.23838525390625,0.08032871782779694,0.23655737936496735,-2.370384454727173
1772810491086085000,2.248085205078125,0.07544180005788803,0.1467602699995041,-2.3187663555145264
1772810491095785200,2.25778515625,0.032681263983249664,-0.09720385819673538,-1.7949497699737549
1772810491105485000,2.267485107421875,0.06994401663541794,-0.23678645491600037,-0.9782235622406006
1772810491115185000,2.277184814453125,0.18295399844646454,0.0383317656815052,-0.19448406994342804
1772810491124885000,2.286885009765625,0.2864955961704254,0.7881683111190796,0.29909467697143555
1772810491134585000,2.296585205078125,0.287106454372406,1.6397137641906738,0.543440580368042
1772810491144285000,2.306284912109375,0.2883281707763672,2.0276129245758057,0.8797216415405273
1772810491153985000,2.315985107421875,0.40927940607070923,2.011425018310547,1.3125193119049072
1772810491163684900,2.325684814453125,0.5873464941978455,1.622304081916809,1.8012111186981201
1772810491173384700,2.335384765625,0.6927206516265869,1.0001384019851685,2.3577089309692383
1772810491183084800,2.345084716796875,0.6905826330184937,0.3019199073314667,2.907181739807129
1772810491192784600,2.35478466796875,0.6520981788635254,-0.36476263403892517,3.3442556858062744
1772810491202484700,2.364484619140625,0.6261364221572876,-0.8702532649040222,3.6066219806671143
1772810491212184600,2.3741845703125,0.610559344291687,-1.2199733257293701,3.6939756870269775
1772810491221884700,2.383884765625,0.5583304166793823,-1.4230858087539673,3.6634323596954346
1772810491231584500,2.39358447265625,0.4224129915237427,-1.489364743232727,3.5846309661865234
1772810491241284600,2.40328466796875,0.1905898153781891,-1.4728713035583496,3.5180466175079346
1772810491250984400,2.412984375,-0.09987638890743256,-1.449047565460205,3.471315383911133
1772810491260684300,2.422684326171875,-0.43921178579330444,-1.4481313228607178,3.3497533798217773
1772810491270384400,2.43238427734375,-0.8213077187538147,-1.3962078094482422,3.0540947914123535
1772810491280084200,2.442084228515625,-1.2137882709503174,-1.2523491382598877,2.5431063175201416
1772810491289784300,2.451784423828125,-1.5604541301727295,-1.0443496704101562,1.884899616241455
1772810491299484400,2.461484375,-1.7858631610870361,-0.7792344093322754,1.2242493629455566
1772810491309184300,2.471184326171875,-1.821904182434082,-0.4951822757720947,0.6897426843643188
1772810491318884000,2.480884033203125,-1.7150028944015503,-0.28290674090385437,0.331165075302124
1772810491328584200,2.490584228515625,-1.5427390336990356,-0.12377647310495377,0.1430187225341797
1772810491338284000,2.500283935546875,-1.387579321861267,0.0795651376247406,0.09445496648550034
1772810491347984000,2.50998388671875,-1.2861758470535278,0.40118545293807983,0.12591449916362762
1772810491357684000,2.51968408203125,-1.229670763015747,0.7652608752250671,0.18455752730369568
1772810491367384000,2.529384033203125,-1.1786636114120483,1.0648900270462036,0.23892448842525482
1772810491377084000,2.539083984375,-1.0934479236602783,1.2227985858917236,0.2716057598590851
1772810491386784000,2.548783935546875,-0.9773836731910706,1.263115644454956,0.28809911012649536
1772810491396483800,2.55848388671875,-0.8564324378967285,1.1998910903930664,0.3009272515773773
1772810491406183700,2.56818359375,-0.7480039000511169,1.039233684539795,0.3229183852672577
1772810491415883800,2.5778837890625,-0.6713404059410095,0.7744238376617432,0.37178757786750793
1772810491425583600,2.58758349609375,-0.6304124593734741,0.5010618567466736,0.4664716124534607
1772810491435283700,2.59728369140625,-0.6059778332710266,0.3061959743499756,0.5947532057762146
1772810491444983600,2.606983642578125,-0.5790998339653015,0.17363831400871277,0.7386118769645691
1772810491454683600,2.61668359375,-0.5464185476303101,0.06826414167881012,0.8815542459487915
1772810491464383500,2.626383544921875,-0.5131264328956604,0.007177661173045635,1.0018945932388306
1772810491474083600,2.63608349609375,-0.4862483739852905,-0.03550651669502258,1.0837504863739014
1772810491483783400,2.645783447265625,-0.46425724029541016,-0.10056361556053162,1.109101414680481
1772810491493483300,2.655483154296875,-0.43401941657066345,-0.2138790339231491,1.0819178819656372
1772810491503183400,2.665183349609375,-0.3842339515686035,-0.3528507649898529,1.0165553092956543
1772810491512883200,2.67488330078125,-0.32009315490722656,-0.46952593326568604,0.9313397407531738
1772810491522583300,2.684583251953125,-0.2461785078048706,-0.51564621925354,0.8238275051116943
1772810491532283100,2.694283203125,-0.16707152128219604,-0.48846274614334106,0.6860775351524353
1772810491541983200,2.703983154296875,-0.08338304609060287,-0.44386962056159973,0.5165625214576721
1772810491551683000,2.71368310546875,0.007330377586185932,-0.3940841555595398,0.3274998664855957
1772810491561383200,2.723383056640625,0.10506874322891235,-0.3116174042224884,0.14118611812591553
1772810491571083000,2.7330830078125,0.19853104650974274,-0.2193768173456192,-0.0371863916516304
1772810491580782800,2.742782958984375,0.26480987668037415,-0.11217004805803299,-0.20761767029762268
1772810491590483000,2.75248291015625,0.29474225640296936,0.0025961752980947495,-0.35330891609191895
1772810491600182800,2.762182861328125,0.2938259541988373,0.1052214577794075,-0.4779253304004669
1772810491609883000,2.7718828125,0.2577849328517914,0.18921536207199097,-0.5646681189537048
1772810491619582700,2.781582763671875,0.17684535682201385,0.29367324709892273,-0.6086503863334656
1772810491629282800,2.79128271484375,0.07941242307424545,0.4405862092971802,-0.6049851775169373
1772810491638982700,2.800982666015625,-0.014660755172371864,0.6482802629470825,-0.5555051565170288
1772810491648682800,2.810682861328125,-0.12156209349632263,0.8825469017028809,-0.47548186779022217
1772810491658382600,2.820382568359375,-0.24831652641296387,1.0822997093200684,-0.3908770978450775
1772810491668082400,2.83008251953125,-0.3863719701766968,1.2655590772628784,-0.36858054995536804
1772810491677782500,2.839782470703125,-0.4822777509689331,1.4512619972229004,-0.47181668877601624
1772810491687482600,2.849482666015625,-0.4367683231830597,1.724013090133667,-0.7711403965950012
1772810491697182500,2.859182373046875,-0.18203771114349365,2.1803290843963623,-1.3138937950134277
1772810491706882300,2.86888232421875,0.2861901521682739,2.5151593685150146,-2.1373395919799805
1772810491716582400,2.87858251953125,0.6902772188186646,1.9344559907913208,-3.145571708679199
1772810491726282200,2.8882822265625,0.7153226733207703,0.495258629322052,-3.803778648376465
1772810491745682200,2.90768212890625,0.11178825795650482,-2.5959463119506836,-3.3300530910491943
1772810491755382300,2.91738232421875,-0.09865466505289078,-2.723006010055542,-2.649549722671509
1772810491765082000,2.92708203125,-0.2761108875274658,-1.3952915668487549,-1.8264093399047852
1772810491774782200,2.9367822265625,-0.448069304227829,0.781143307685852,-1.1752275228500366
1772810491784482000,2.94648193359375,-0.44959646463394165,2.7395758628845215,-0.9482911825180054
1772810491794182000,2.956181884765625,-0.2965748608112335,3.866621255874634,-1.1254420280456543
1772810491803882000,2.965882080078125,-0.1282816082239151,4.247189998626709,-1.5154792070388794
1772810491813581800,2.975581787109375,-0.01282816007733345,4.045910358428955,-1.8780274391174316
1772810491823282000,2.985281982421875,0.08307760953903198,3.4048075675964355,-2.057316303253174
1772810491832981800,2.994981689453125,0.1957821547985077,2.484539747238159,-2.0237185955047607
1772810491842681900,3.004681884765625,0.33536475896835327,1.4677553176879883,-1.8239659070968628
1772810491852381700,3.014381591796875,0.5125155448913574,0.5184714794158936,-1.5163954496383667
1772810491862081800,3.024081787109375,0.646905779838562,-0.26763513684272766,-1.187750220298767
1772810491871781600,3.03378173828125,0.6627882719039917,-0.794200599193573,-0.8841503858566284
1772810491881481500,3.0434814453125,0.5763509273529053,-1.0666462182998657,-0.6214785575866699
1772810491891181600,3.053181640625,0.49082985520362854,-1.1643846035003662,-0.40523242950439453
1772810491900881400,3.06288134765625,0.4786125421524048,-1.116431713104248,-0.2378554791212082
1772810491910581500,3.07258154296875,0.5378664135932922,-0.9105703234672546,-0.11354449391365051
1772810491920281300,3.08228125,0.620333194732666,-0.6210203766822815,-0.02893971838057041
1772810491929981400,3.0919814453125,0.6811142563819885,-0.3333030939102173,0.008933897130191326
1772810491939681300,3.101681396484375,0.6939423680305481,-0.09201150387525558,0.00923932995647192
1772810491949381400,3.11138134765625,0.6808087825775146,0.06643154472112656,-0.0243582334369421
1772810491959081200,3.121081298828125,0.6765327453613281,0.15073087811470032,-0.07353284955024719
1772810491968781000,3.130781005859375,0.6908880472183228,0.15378521382808685,-0.13278673589229584
1772810491978481200,3.140481201171875,0.7122683525085449,0.06154462695121765,-0.1865428388118744
1772810491988181000,3.150180908203125,0.7107411623001099,-0.1482110619544983,-0.22411102056503296
1772810491997881000,3.159881103515625,0.6600393652915955,-0.43806639313697815,-0.23510658740997314
1772810492007581200,3.169581298828125,0.5681042671203613,-0.7077631950378418,-0.20853395760059357
1772810492017281000,3.179281005859375,0.47464191913604736,-0.8977421522140503,-0.14408773183822632
1772810492026980900,3.18898095703125,0.41874781250953674,-1.0331250429153442,-0.05367974191904068
1772810492036681000,3.198680908203125,0.4016436040401459,-1.1072688102722168,0.016569707542657852
1772810492046380800,3.208380859375,0.4111120104789734,-1.1197915077209473,0.06330086290836334
1772810492056080600,3.21808056640625,0.4098902642726898,-1.0887137651443481,0.091400645673275
1772810492065780700,3.22778076171875,0.44501498341560364,-1.0580941438674927,0.07887791097164154
1772810492075480600,3.23748046875,0.5009090900421143,-1.0122792720794678,0.026648975908756256
1772810492085180700,3.2471806640625,0.5375609993934631,-0.9716567993164062,-0.042073313146829605
1772810492094880800,3.256880859375,0.5329795479774475,-0.959134042263031,-0.10254892706871033
1772810492104580600,3.26658056640625,0.4871646761894226,-0.9875392913818359,-0.14928008615970612
1772810492114280400,3.276280517578125,0.4260781705379486,-1.0214422941207886,-0.1865428388118744
1772810492123980500,3.28598046875,0.3686569035053253,-1.0364084243774414,-0.247629314661026
1772810492133680400,3.295680419921875,0.3090975880622864,-1.0284671783447266,-0.3557523787021637
1772810492143380200,3.305380126953125,0.2733619809150696,-1.0028108358383179,-0.4950295388698578
1772810492153080300,3.315080322265625,0.30512696504592896,-0.9243147969245911,-0.6266708970069885
1772810492162780400,3.324780517578125,0.3857611119747162,-0.7517454624176025,-0.7302125096321106
1772810492172480300,3.334480224609375,0.45387253165245056,-0.5135082006454468,-0.7882446646690369
1772810492182180400,3.344180419921875,0.471587598323822,-0.29909467697143555,-0.8038216829299927
1772810492191880200,3.353880126953125,0.44501498341560364,-0.18180863559246063,-0.7766382098197937
1772810492201580000,3.363580078125,0.39217519760131836,-0.18211406469345093,-0.7109702229499817
1772810492211280100,3.373280029296875,0.3402516841888428,-0.27435463666915894,-0.6049851775169373
1772810492220980000,3.38297998046875,0.31673339009284973,-0.4457022249698639,-0.4733438491821289
1772810492230680000,3.39268017578125,0.360410213470459,-0.7657953500747681,-0.37804892659187317
1772810492240380000,3.4023798828125,0.4517345130443573,-1.5247948169708252,-0.3349829614162445
1772810492250080000,3.412080078125,0.5937605500221252,-2.9093198776245117,-0.28519749641418457
1772810492259779800,3.42177978515625,0.7803797721862793,-4.370203018188477,-0.06650790572166443
1772810492269480000,3.43147998046875,0.9175189137458801,-4.917919635772705,0.4200458824634552
1772810492279179800,3.4411796875,0.814588189125061,-4.133569240570068,0.9343940615653992
1772810492288879600,3.450879638671875,0.2910770773887634,-2.357403516769409,1.0956623554229736
1772810492298579700,3.460579833984375,-0.40775224566459656,-0.04810560122132301,0.8644500374794006
1772810492308279600,3.470279541015625,-0.9550870656967163,2.1158828735351562,0.3525453209877014
1772810492317979600,3.479979736328125,-1.2455532550811768,3.464366912841797,-0.3392590284347534
1772810492327679500,3.489679443359375,-1.3078614473342896,3.898080825805664,-0.9345467686653137
1772810492337379600,3.499379638671875,-1.2177588939666748,3.5700464248657227,-1.1061997413635254
1772810492347079400,3.509079345703125,-0.9172134399414062,2.5697553157806396,-0.7708349823951721
1772810492356779500,3.518779541015625,-0.4523453712463379,1.0209077596664429,-0.03107774630188942
1772810492366479400,3.528479248046875,-0.07513637095689774,-0.606970489025116,1.0342704057693481
1772810492376179200,3.53817919921875,-0.0409279391169548,-1.588630199432373,2.3775620460510254
1772810492385879300,3.54787939453125,-0.3964512348175049,-1.6668208837509155,3.8366127014160156
1772810492395579100,3.5575791015625,-0.9712749719619751,-0.8827759623527527,5.100492000579834
1772810492405279200,3.567279296875,-1.5390738248825073,0.32757624983787537,5.865905284881592
1772810492414979000,3.57697900390625,-1.977980136871338,1.5196788311004639,6.134075164794922
1772810492424679200,3.58667919921875,-2.307847023010254,2.5447099208831787,6.06199312210083
1772810492434379000,3.59637890625,-2.6285512447357178,3.380373001098633,5.746481418609619
1772810492444079000,3.6060791015625,-2.987434148788452,3.967414140701294,5.307575225830078
1772810492453779000,3.615779052734375,-3.341125011444092,4.31621789932251,4.839958190917969
1772810492463478800,3.625478759765625,-3.6340346336364746,4.374860763549805,4.361345291137695
1772810492473179000,3.635178955078125,-3.7562074661254883,4.099360942840576,3.9010589122772217
1772810492482878700,3.644878662109375,-3.590968608856201,3.601505994796753,3.524460792541504
1772810492492578800,3.654578857421875,-3.1786348819732666,3.1137304306030273,3.3192100524902344
1772810492502278700,3.664278564453125,-2.7198753356933594,2.7786712646484375,3.3225698471069336
1772810492511978800,3.673978759765625,-2.4022257328033447,2.4933972358703613,3.549506187438965
1772810492521678600,3.6836787109375,-2.229351043701172,2.1812453269958496,3.9279367923736572
1772810492531378700,3.693378662109375,-2.1664319038391113,1.8828380107879639,4.351571559906006
1772810492541078500,3.70307861328125,-2.115424633026123,1.4931062459945679,4.797197341918945
1772810492550778400,3.7127783203125,-2.0182971954345703,0.9628756046295166,5.291081428527832
1772810492560478500,3.722478515625,-1.9016220569610596,0.43020153045654297,5.716548919677734
1772810492570178300,3.73217822265625,-1.8096868991851807,0.09117157012224197,5.925770282745361
1772810492579878400,3.74187841796875,-1.722638726234436,0.011759147047996521,5.863767147064209
1772810492589578200,3.751578125,-1.6743803024291992,0.07192932814359665,5.567192554473877
1772810492599278300,3.7612783203125,-1.6997312307357788,0.16661337018013,5.121261119842529
1772810492608978200,3.770978271484375,-1.7861685752868652,0.17883066833019257,4.573620796203613
1772810492618678300,3.78067822265625,-1.886044979095459,0.10980294644832611,3.9679484367370605
1772810492628378000,3.790378173828125,-1.9828671216964722,-0.002901607658714056,3.3424229621887207
1772810492638078000,3.800077880859375,-2.0851869583129883,-0.13385574519634247,2.71720290184021
1772810492647778000,3.809778076171875,-2.174373149871826,-0.2193768173456192,2.1173336505889893
1772810492657478100,3.81947802734375,-2.2696681022644043,-0.18119776248931885,1.5541163682937622
1772810492667178000,3.829177978515625,-2.304792881011963,0.02367101050913334,1.015639066696167
1772810492676877800,3.8388779296875,-2.1981968879699707,0.39141160249710083,0.5043452382087708
1772810492686578000,3.848577880859375,-1.951407551765442,0.826958179473877,0.037033677101135254
1772810492696277800,3.85827783203125,-1.5870267152786255,1.215162754058838,-0.34720027446746826
1772810492705977900,3.867977783203125,-1.1591159105300903,1.4552326202392578,-0.6175079345703125
1772810492715677700,3.877677734375,-0.7449495792388916,1.4705042839050293,-0.7503710389137268
1772810492725377500,3.88737744140625,-0.3814850449562073,1.2298234701156616,-0.7436515092849731
1772810492735077600,3.89707763671875,-0.09560033679008484,0.7759509682655334,-0.6474403142929077
1772810492744777500,3.906777587890625,0.12583814561367035,0.23625195026397705,-0.5518399477005005
1772810492754477600,3.9164775390625,0.30512696504592896,-0.29390230774879456,-0.5399280786514282
1772810492764177400,3.926177490234375,0.44898560643196106,-0.7221185564994812,-0.6446914076805115
1772810492773877500,3.93587744140625,0.5965094566345215,-0.9808197617530823,-0.8468876481056213
1772810492793277400,3.95527734375,0.9740238785743713,-0.978070855140686,-1.3768128156661987
1772810492802977300,3.964977294921875,1.1533126831054688,-0.8131373524665833,-1.6327651739120483
1772810492812677000,3.974677001953125,1.2999202013015747,-0.6341540217399597,-1.8383212089538574
1772810492822377200,3.984377197265625,1.423620343208313,-0.4667770564556122,-1.9604941606521606
1772810492832077300,3.994077392578125,1.5024219751358032,-0.368122398853302,-2.0237185955047607
1772810492841777200,4.003777099609375,1.5396846532821655,-0.399887353181839,-2.041128396987915
1772810492851477000,4.01347705078125,1.5851941108703613,-0.5293906927108765,-1.9834015369415283
1772810492861177000,4.023177001953125,1.7388266324996948,-0.6842449307441711,-1.8474841117858887
1772810492870877000,4.032876953125,2.0473132133483887,-0.9472221732139587,-1.7543272972106934
1772810492880577000,4.042576904296875,2.481332778930664,-1.3461169004440308,-1.776929259300232
1772810492890276900,4.05227685546875,2.8869469165802,-1.829005479812622,-1.8203006982803345
1772810492899976700,4.061976806640625,3.1984879970550537,-2.318308115005493,-1.768682599067688
1772810492909676800,4.0716767578125,3.4330601692199707,-2.706818103790283,-1.6904919147491455
1772810492919377000,4.081376953125,3.5338528156280518,-3.2996623516082764,-1.7460806369781494
1772810492929076700,4.09107666015625,3.8435611724853516,-3.7810239791870117,-2.0197479724884033
1772810492938776600,4.100776611328125,4.474889755249023,-4.171977519989014,-3.110752582550049
1772810492948476700,4.1104765625,5.0613203048706055,-5.093161582946777,-5.376450061798096
1772810492958176500,4.120176513671875,5.207316875457764,-5.3701887130737305,-7.749659538269043
1772810492967876600,4.129876708984375,4.545444965362549,-4.175031661987305,-9.009873390197754
1772810492977576400,4.139576416015625,3.414734125137329,-2.153069257736206,-9.027283668518066
1772810492987276500,4.149276611328125,2.375653028488159,-0.13965895771980286,-8.007444381713867
1772810492996976400,4.158976318359375,1.8545855283737183,0.7771727442741394,-6.411560535430908
1772810493006676500,4.168676513671875,1.8298454284667969,0.3013090491294861,-4.871875762939453
1772810493016376300,4.178376220703125,1.9575161933898926,-0.48998990654945374,-3.5203373432159424
1772810493026076200,4.188076171875,2.022573232650757,-1.3546689748764038,-2.404898166656494
1772810493035776300,4.1977763671875,1.9596542119979858,-2.3057854175567627,-1.5640429258346558
1772810493045476000,4.20747607421875,1.7797545194625854,-2.823798894882202,-0.918053388595581
1772810493055176000,4.217176025390625,1.45294189453125,-2.887939691543579,-0.5454258918762207
1772810493064876000,4.2268759765625,1.1050543785095215,-2.7654612064361572,-0.45654505491256714
1772810493074576100,4.236576171875,0.8567378520965576,-2.4698026180267334,-0.5738310813903809
1772810493084276000,4.24627587890625,0.6878337264060974,-2.0376157760620117,-0.863381028175354
1772810493093976000,4.25597607421875,0.5256491303443909,-1.524183988571167,-1.2500584125518799
1772810493103676000,4.265676025390625,0.2831358313560486,-0.9643264412879944,-1.6071088314056396
1772810493113375700,4.275375732421875,-0.03817904740571976,-0.5394699573516846,-1.8774164915084839
1772810493123075800,4.285075927734375,-0.35155269503593445,-0.41729700565338135,-2.0264675617218018
1772810493132775700,4.294775634765625,-0.5421425104141235,-0.571234941482544,-2.016693592071533
1772810493142475500,4.3044755859375,-0.5616901516914368,-0.8308524489402771,-1.8352668285369873
1772810493152175600,4.314175537109375,-0.4734202027320862,-0.9997565746307373,-1.5078433752059937
1772810493161875700,4.323875732421875,-0.3692677617073059,-0.9460004568099976,-1.0286198854446411
1772810493171575600,4.333575439453125,-0.2669478952884674,-0.7224239706993103,-0.4537961781024933
1772810493181275600,4.343275634765625,-0.16798780858516693,-0.48479756712913513,0.11888955533504486
1772810493190975500,4.3529755859375,-0.11392628401517868,-0.30489787459373474,0.6249909996986389
1772810493200675300,4.36267529296875,-0.10873392969369888,-0.17234022915363312,0.9963968396186829
1772810493210375400,4.37237548828125,-0.13041962683200836,-0.14485131204128265,1.1784344911575317
1772810493220075300,4.3820751953125,-0.13530655205249786,-0.1784488707780838,1.2077560424804688
1772810493229775000,4.391775146484375,-0.07757982611656189,-0.2297615110874176,1.1463640928268433
1772810493239475200,4.40147509765625,0.04153880476951599,-0.28901541233062744,1.0113630294799805
1772810493249175300,4.41117529296875,0.17837251722812653,-0.30031639337539673,0.8131373524665833
1772810493258875100,4.420875244140625,0.2977965772151947,-0.2294560819864273,0.5611556768417358
1772810493268575200,4.4305751953125,0.35735589265823364,-0.15981750190258026,0.2722166180610657
1772810493278275000,4.440275146484375,0.3796524703502655,-0.10239620506763458,0.0034361144062131643
1772810493287975000,4.449974853515625,0.4062250852584839,-0.05322159454226494,-0.21525347232818604
1772810493297675000,4.459675048828125,0.44959646463394165,0.031612250953912735,-0.37377288937568665
1772810493307374800,4.469374755859375,0.5351175665855408,0.15386156737804413,-0.47548186779022217
1772810493317074700,4.47907470703125,0.665842592716217,0.27137666940689087,-0.5564214587211609
1772810493326774800,4.48877490234375,0.8246674537658691,0.3462076187133789,-0.651105523109436
1772810493336474600,4.498474609375,0.9663881063461304,0.3358229100704193,-0.7583122849464417
1772810493346174700,4.5081748046875,1.053436279296875,0.2240346521139145,-0.8765146136283875
1772810493355874800,4.517874755859375,1.0800089836120605,0.024892739951610565,-1.0090723037719727
1772810493365574700,4.52757470703125,1.0558797121047974,-0.19036073982715607,-1.151098370552063
1772810493375274500,4.5372744140625,0.990517258644104,-0.34429866075515747,-1.2864048480987549
1772810493384974600,4.546974609375,0.8943060636520386,-0.3736201822757721,-1.383226990699768
1772810493394674400,4.55667431640625,0.7742711305618286,-0.26885685324668884,-1.4314852952957153
1772810493404374300,4.566374267578125,0.627968966960907,-0.0807105079293251,-1.4495058059692383
1772810493414074400,4.576074462890625,0.5558869242668152,0.19593487679958344,-1.48065984249115
1772810493423774200,4.585774169921875,0.7327322959899902,0.6349175572395325,-1.5796200037002563
1772810493433474300,4.595474365234375,1.1380411386489868,1.0096067190170288,-1.7277547121047974
1772810493443174400,4.60517431640625,1.676518440246582,0.8825469017028809,-1.8548145294189453
1772810493452874200,4.614874267578125,2.235459566116333,0.3046688139438629,-1.943389892578125
1772810493462574000,4.624573974609375,2.408334493637085,-0.22609633207321167,-2.1929283142089844
1772810493472274200,4.634274169921875,1.7568471431732178,-0.7120392322540283,-2.6101489067077637
1772810493481974000,4.64397412109375,0.6050615906715393,-1.0361030101776123,-2.909778118133545
1772810493491673900,4.653673828125,-0.5525271892547607,-0.765489935874939,-3.0713517665863037
1772810493501374000,4.6633740234375,-1.5189152956008911,0.2893971800804138,-3.175504207611084
1772810493511073800,4.67307373046875,-1.9770638942718506,2.1836888790130615,-3.1101417541503906
1772810493520774000,4.68277392578125,-1.7580687999725342,4.505585670471191,-2.616868257522583
1772810493530474000,4.692473876953125,-1.0806198120117188,6.147895812988281,-1.3844486474990845
1772810493540173800,4.702173828125,-0.3863719701766968,6.159196853637695,0.6097193956375122
1772810493549873700,4.711873779296875,-0.023212861269712448,4.050491809844971,2.920620918273926
1772810493559573800,4.72157373046875,-0.1444695144891739,0.3223838806152344,5.136227607727051
1772810493569273600,4.731273681640625,-0.4981602132320404,-3.474675178527832,7.089162349700928
1772810493578973400,4.740973388671875,-0.7779362797737122,-5.8817877769470215,8.491707801818848
1772810493588673500,4.750673583984375,-0.9932661056518555,-6.04977560043335,8.728723526000977
1772810493598373600,4.76037353515625,-1.3661991357803345,-4.318279266357422,7.55922269821167
1772810493608073500,4.770073486328125,-1.9297218322753906,-1.5134938955307007,5.595903396606445
1772810493617773600,4.779773681640625,-2.6145012378692627,1.4891356229782104,3.8986153602600098
1772810493627473400,4.789473388671875,-3.3069164752960205,3.8406596183776855,3.1487789154052734
1772810493637173200,4.79917333984375,-3.878380537033081,5.322617530822754,3.507967472076416
1772810493646873300,4.808873291015625,-4.133721828460693,5.9417290687561035,4.612411022186279
1772810493656573200,4.8185732421875,-4.1312785148620605,5.820167064666748,5.901640892028809
1772810493666273000,4.82827294921875,-4.117839336395264,5.167152404785156,6.879330158233643
1772810493675973000,4.83797314453125,-4.201833248138428,4.290561676025391,7.374130725860596
1772810493685673200,4.847673095703125,-4.405862331390381,3.468032121658325,7.5027174949646
1772810493695373000,4.857373046875,-4.729009628295898,2.724915027618408,7.339921951293945
1772810493705073200,4.8670732421875,-5.086670875549316,2.231412649154663,7.047623157501221
1772810493714773000,4.87677294921875,-5.41378927230835,2.139706611633301,6.750132083892822
1772810493724472800,4.886472900390625,-5.669435977935791,2.545015335083008,6.65911340713501
1772810493734173000,4.8961728515625,-5.819403171539307,2.978729486465454,7.003946304321289
1772810493743872800,4.905872802734375,-5.775421142578125,3.0608906745910645,7.836860656738281
1772810493753572600,4.915572509765625,-5.536267280578613,2.5300490856170654,8.988340377807617
1772810493763272700,4.925272705078125,-5.3548407554626465,1.2392919063568115,9.9312105178833
1772810493772972800,4.934972900390625,-5.4333367347717285,-0.46311184763908386,10.26657485961914
1772810493782672600,4.944672607421875,-5.790387153625488,-2.2471425533294678,9.940373420715332
1772810493792372700,4.954372802734375,-6.178897380828857,-3.7358198165893555,8.998419761657715
1772810493802072600,4.964072509765625,-6.242121696472168,-4.415407180786133,7.675592422485352
1772810493811772400,4.9737724609375,-5.981282711029053,-4.26788330078125,6.269381523132324
1772810493821472500,4.983472412109375,-5.575362682342529,-3.460014581680298,5.024744510650635
1772810493831172400,4.99317236328125,-5.278482437133789,-2.292346477508545,4.102338790893555
1772810493840872200,5.0028720703125,-4.992292404174805,-1.2480731010437012,3.438328742980957
1772810493850572300,5.012572265625,-4.533227443695068,-0.5605447888374329,2.9923975467681885
1772810493860272400,5.0222724609375,-3.881434917449951,-0.13019055128097534,2.530583620071411
1772810493869972200,5.03197216796875,-3.057072877883911,-0.11858412623405457,1.8836779594421387
1772810493879672300,5.04167236328125,-2.1667373180389404,-0.48968449234962463,1.116431713104248
1772810493889372200,5.0513720703125,-1.4343105554580688,-0.932561457157135,0.39622217416763306
1772810493899072000,5.061072021484375,-0.9104939699172974,-1.2025636434555054,-0.08452841639518738
1772810493908772000,5.070772216796875,-0.4773908257484436,-1.3128247261047363,-0.3300960659980774
1772810493918472000,5.080471923828125,-0.029016077518463135,-1.3207659721374512,-0.4116465151309967
1772810493928171800,5.090171875,0.43432486057281494,-1.2160027027130127,-0.42478010058403015
1772810493937872000,5.099871826171875,0.9230166673660278,-1.0116684436798096,-0.48739373683929443
1772810493947571700,5.10957177734375,1.4147628545761108,-0.7850375771522522,-0.7073050737380981
1772810493957271800,5.119271728515625,1.877798318862915,-0.6072759628295898,-1.1211659908294678
1772810493966972000,5.128971923828125,2.2598941326141357,-0.5043452382087708,-1.658421516418457
1772810493976671700,5.138671630859375,2.5699081420898438,-0.46952593326568604,-2.234467029571533
1772810493986371600,5.14837158203125,2.856098175048828,-0.44203701615333557,-2.7387359142303467
1772810493996071700,5.15807177734375,3.1496188640594482,-0.3788125216960907,-3.0967025756835938
1772810494005771500,5.167771484375,3.4132070541381836,-0.25121814012527466,-3.329747438430786
1772810494015471400,5.177471435546875,3.616319417953491,-0.11125374585390091,-3.469330072402954
1772810494025171500,5.18717138671875,3.765981435775757,0.005039634648710489,-3.550269842147827
1772810494034871300,5.196871337890625,3.8710501194000244,0.06582067906856537,-3.6180758476257324
1772810494044571400,5.2065712890625,3.9437429904937744,0.09789107739925385,-3.6916849613189697
1772810494054271200,5.216271240234375,3.9654288291931152,0.09453132748603821,-3.801945924758911
1772810494063971300,5.225971435546875,3.989863395690918,0.1101083755493164,-3.9228973388671875
1772810494073671200,5.235671142578125,4.067443370819092,0.2548833191394806,-3.9644360542297363
1772810494083371300,5.245371337890625,4.231154918670654,0.25732678174972534,-4.019413948059082
1772810494093071000,5.255071044921875,4.468475818634033,-0.11064288020133972,-4.246350288391113
1772810494102771000,5.26477099609375,4.823998928070068,-0.6329322457313538,-4.505356788635254
1772810494112471000,5.274470947265625,5.208844184875488,-1.1518619060516357,-4.590878009796143
1772810494122171000,5.2841708984375,5.392408847808838,-1.615202784538269,-4.540175914764404
1772810494131871000,5.29387109375,5.314828872680664,-2.135659694671631,-4.483060359954834
1772810494141570800,5.30357080078125,5.225948333740234,-2.5788419246673584,-4.5432305335998535
1772810494151271000,5.31327099609375,5.225948333740234,-2.7550764083862305,-4.974501132965088
1772810494160970800,5.322970703125,5.06345796585083,-2.737361431121826,-5.927450180053711
1772810494170670800,5.3326708984375,4.64348840713501,-2.308839797973633,-6.892311096191406
1772810494180370700,5.34237060546875,4.133416652679443,-1.3616939783096313,-7.308004379272461
1772810494190070500,5.352070556640625,3.5854709148406982,-0.13996438682079315,-6.994630813598633
1772810494199770600,5.3617705078125,2.9917101860046387,0.8199332356452942,-5.998615741729736
1772810494209470500,5.371470458984375,2.324951410293579,1.1226167678833008,-4.438772678375244
1772810494219170600,5.381170654296875,1.7348560094833374,0.8165735006332397,-2.630918264389038
1772810494228870400,5.390870361328125,1.3930771350860596,0.061850059777498245,-0.9311869740486145
1772810494238570500,5.400570556640625,1.2373065948486328,-0.9854012727737427,0.2590830326080322
1772810494248270300,5.410270263671875,1.2443315982818604,-1.7163009643554688,0.8265764117240906
1772810494257970400,5.419970458984375,1.3093886375427246,-1.8250348567962646,0.8500946760177612
1772810494267670300,5.429670166015625,1.2922844886779785,-1.3137410879135132,0.5300015807151794
1772810494277370000,5.4393701171875,1.2055416107177734,-0.4496728479862213,0.2202931046485901
1772810494287070200,5.4490703125,1.0836740732192993,0.3617846667766571,0.09476039558649063
1772810494296770000,5.45877001953125,0.9782999157905579,0.8593340516090393,0.16409355401992798
1772810494306470100,5.46847021484375,0.9224058389663696,0.9995275139808655,0.3699549734592438
1772810494316170000,5.478169921875,0.8909462690353394,0.7777835726737976,0.6381246447563171
1772810494325870000,5.4878701171875,0.8170316219329834,0.26251915097236633,0.8980475664138794
1772810494335570000,5.49756982421875,0.6740893125534058,-0.4157698452472687,1.1222349405288696
1772810494345270000,5.50727001953125,0.5088503360748291,-1.1872920989990234,1.2990802526474
1772810494354969900,5.516969970703125,0.3442223072052002,-2.0428082942962646,1.413922905921936
1772810494364669700,5.526669677734375,0.17134757339954376,-2.8641159534454346,1.423391342163086
1772810494374369800,5.536369873046875,-0.00946840364485979,-3.4364962577819824,1.275256633758545
1772810494384069600,5.546069580078125,-0.16249002516269684,-3.4865870475769043,0.9160680770874023
1772810494393769700,5.555769775390625,-0.27916520833969116,-3.069366455078125,0.35529422760009766
1772810494403469600,5.565469482421875,-0.3274235129356384,-2.4007749557495117,-0.30627232789993286
1772810494413169700,5.575169677734375,-0.30451610684394836,-1.5654174089431763,-0.9782235622406006
1772810494422869500,5.584869384765625,-0.24220788478851318,-0.6940187215805054,-1.5900046825408936
1772810494432569600,5.594569580078125,-0.13775001466274261,0.0013744457392022014,-2.0628139972686768
1772810494442269400,5.60426953125,-0.03145953640341759,0.503505289554596,-2.3028838634490967
1772810494451969300,5.61396923828125,0.09193515032529831,0.7383828163146973,-2.287001371383667
1772810494461669400,5.62366943359375,0.27519458532333374,0.6403390169143677,-2.0231077671051025
1772810494471369200,5.633369140625,0.47036588191986084,0.34834563732147217,-1.5347213745117188
1772810494481069300,5.6430693359375,0.6133082509040833,-0.07460185885429382,-0.9489020705223083
1772810494490769200,5.65276904296875,0.6716458201408386,-0.5535198450088501,-0.3591121435165405
1772810494500469000,5.662468994140625,0.6551524996757507,-0.9991456866264343,0.18547381460666656
1772810494510169000,5.672169189453125,0.593149721622467,-1.3705514669418335,0.6601157784461975
1772810494519869000,5.681868896484375,0.5054906010627747,-1.6515493392944336,1.0498474836349487
1772810494529569000,5.691569091796875,0.3970620930194855,-1.8415281772613525,1.3552799224853516
1772810494539268900,5.701268798828125,0.37140578031539917,-2.0229551792144775,1.571526050567627
1772810494548969000,5.710968994140625,0.40805765986442566,-2.155512809753418,1.6970586776733398
1772810494558668800,5.720668701171875,0.48105600476264954,-2.1854450702667236,1.6652936935424805
1772810494568369000,5.730368896484375,0.5308414697647095,-2.0626611709594727,1.459737777709961
1772810494578068700,5.74006884765625,0.6026180982589722,-1.8256458044052124,1.1280381679534912
1772810494587768600,5.7497685546875,0.7122683525085449,-1.4582105875015259,0.7581595778465271
1772810494597468700,5.75946875,0.7541125416755676,-1.0513746738433838,0.40233081579208374
1772810494607168500,5.76916845703125,0.6038398146629333,-0.699821949005127,0.1118646115064621
1772810494616868600,5.77886865234375,0.328645259141922,-0.3775908052921295,-0.028634287416934967
1772810494626568400,5.788568359375,0.12614357471466064,-0.08254310488700867,-0.044211339205503464
1772810494636268500,5.7982685546875,0.21471896767616272,0.15775582194328308,-0.10957387089729309
1772810494645968400,5.807968505859375,0.7703005075454712,0.32360562682151794,-0.36399903893470764
1772810494655668500,5.81766845703125,1.757763385772705,0.46288278698921204,-0.8282563090324402
1772810494665368300,5.827368408203125,2.9666647911071777,0.43111783266067505,-1.4672207832336426
1772810494675068200,5.837068115234375,3.8270678520202637,0.2542724609375,-2.0783910751342773
1772810494684768300,5.846768310546875,3.772395372390747,0.4634936451911926,-2.449491500854492
1772810494694468000,5.856468017578125,3.0967791080474854,1.4118611812591553,-2.4030656814575195
1772810494704168200,5.866168212890625,2.406196355819702,2.830900192260742,-2.259207010269165
1772810494713868000,5.875867919921875,1.6294817924499512,3.6219699382781982,-2.1785728931427
1772810494723568000,5.885568115234375,0.8805615901947021,3.5385868549346924,-1.8911609649658203
1772810494733268000,5.89526806640625,0.37843072414398193,3.321729898452759,-1.3841432332992554
1772810494742968000,5.904968017578125,-0.010384701192378998,3.2924084663391113,-0.5640572905540466
1772810494752668000,5.91466796875,-0.3503309488296509,3.603949546813965,0.6882155537605286
1772810494762367700,5.92436767578125,-0.5665770769119263,4.05415678024292,2.0736567974090576
1772810494772067800,5.93406787109375,-0.6496546864509583,4.2233662605285645,3.2110869884490967
1772810494781767700,5.943767578125,-0.7012727856636047,3.8971645832061768,3.9144978523254395
1772810494791467800,5.9534677734375,-0.8008437156677246,3.358076333999634,4.162814617156982
1772810494801167600,5.963167724609375,-1.0613775253295898,2.997971534729004,4.120359420776367
1772810494810867700,5.97286767578125,-1.2986985445022583,2.8914520740509033,4.049193382263184
1772810494820567600,5.982567626953125,-1.3564252853393555,2.523635149002075,4.146015644073486
1772810494830267600,5.992267578125,-1.1533126831054688,1.779601812362671,4.526889801025391
1772810494839967500,6.001967529296875,-0.8359684348106384,0.8938478827476501,4.979846000671387
1772810494849667300,6.011667236328125,-0.6786707639694214,0.2851211428642273,5.203422546386719
1772810494859367400,6.021367431640625,-0.6661480665206909,0.14950916171073914,5.044292449951172
1772810494869067300,6.0310673828125,-0.7739656567573547,0.2023489624261856,4.627071857452393
1772810494878767000,6.04076708984375,-0.9117156863212585,0.3584249019622803,4.058356285095215
1772810494888467200,6.05046728515625,-1.145676851272583,0.6604975461959839,3.533318281173706
1772810494898167300,6.060167236328125,-1.398574948310852,0.9839504361152649,3.1597745418548584
1772810494907867100,6.0698671875,-1.6316198110580444,1.2505929470062256,2.9087090492248535
1772810494917567200,6.079567138671875,-1.8377866744995117,1.4338523149490356,2.761795997619629
1772810494927267000,6.08926708984375,-1.9507967233657837,1.3318378925323486,2.7547709941864014
1772810494936967000,6.098966796875,-1.944688081741333,1.029765248298645,2.90993070602417
1772810494956366800,6.118366943359375,-1.8726060390472412,0.3929387629032135,3.4807839393615723
1772810494966066700,6.128066650390625,-1.7901391983032227,0.009010255336761475,3.840277910232544
1772810494975766800,6.137766845703125,-1.6432262659072876,-0.3699549734592438,4.188776016235352
1772810494985466600,6.147466552734375,-1.5030328035354614,-0.7181479334831238,4.4737443923950195
1772810494995166700,6.157166748046875,-1.4233149290084839,-1.0263291597366333,4.6218791007995605
1772810495004866600,6.166866455078125,-1.342680811882019,-1.256014347076416,4.590419769287109
1772810495014566700,6.176566650390625,-1.219591498374939,-1.367497205734253,4.393721103668213
1772810495024266500,6.1862666015625,-1.12765634059906,-1.412395715713501,4.062326908111572
1772810495033966600,6.195966552734375,-1.1615593433380127,-1.4664572477340698,3.636859893798828
1772810495043666400,6.20566650390625,-1.2760965824127197,-1.4933353662490845,3.099604368209839
1772810495053366300,6.2153662109375,-1.379027247428894,-1.4676790237426758,2.4368159770965576
1772810495063066400,6.22506640625,-1.4566071033477783,-1.357723355293274,1.6802599430084229
1772810495072766200,6.23476611328125,-1.5250239372253418,-1.155221700668335,0.8952987194061279
1772810495082466300,6.24446630859375,-1.5457932949066162,-0.8595631122589111,0.16714787483215332
1772810495092166100,6.254166259765625,-1.5140283107757568,-0.48998990654945374,-0.47059494256973267
1772810495101866200,6.2638662109375,-1.4440842866897583,-0.09720385819673538,-0.9944115281105042
1772810495111566000,6.273566162109375,-1.3649773597717285,0.23105959594249725,-1.3615412712097168
1772810495121266200,6.28326611328125,-1.2620465755462646,0.3993528485298157,-1.529529094696045
1772810495130966000,6.292966064453125,-1.0900882482528687,0.3828594982624054,-1.5127302408218384
1772810495140665900,6.302665771484375,-0.8665117025375366,0.2179260104894638,-1.344131588935852
1772810495150366000,6.312365966796875,-0.6337721943855286,-0.06818778067827225,-1.0884846448898315
1772810495160065800,6.322065673828125,-0.4059196412563324,-0.4347066581249237,-0.835281252861023
1772810495169765600,6.331765625,-0.17531819641590118,-0.7661007642745972,-0.6950877904891968
1772810495179465700,6.3414658203125,0.047952886670827866,-0.9484439492225647,-0.7384591698646545
1772810495189165600,6.35116552734375,0.25473061203956604,-0.9988402724266052,-0.9574542045593262
1772810495198865700,6.36086572265625,0.4563159942626953,-0.9179006814956665,-1.28793203830719
1772810495208565500,6.3705654296875,0.6148353815078735,-0.6738601922988892,-1.677663803100586
1772810495218265600,6.380265625,0.6866120100021362,-0.3430769443511963,-2.103131055831909
1772810495227965400,6.38996533203125,0.6884446144104004,-0.05780307948589325,-2.476980209350586
1772810495237665500,6.39966552734375,0.7620537877082825,0.31841325759887695,-2.689255714416504
1772810495247365400,6.409365478515625,0.970969557762146,0.8697187304496765,-2.744844436645508
1772810495257065200,6.419065185546875,1.1966841220855713,1.3403900861740112,-2.767141103744507
1772810495266765300,6.428765380859375,1.3365721702575684,1.4830269813537598,-2.7827181816101074
1772810495276465200,6.438465087890625,1.4575233459472656,1.3477203845977783,-2.8074581623077393
1772810495286165200,6.448165283203125,1.7873903512954712,1.0584759712219238,-2.929325580596924
1772810495295865000,6.457864990234375,2.4468188285827637,0.48212501406669617,-3.267133951187134
1772810495305565200,6.467565185546875,3.2116215229034424,-0.2713003158569336,-4.046902656555176
1772810495315265000,6.47726513671875,3.8188211917877197,-1.0022000074386597,-5.232285976409912
1772810495324965000,6.486965087890625,4.263530731201172,-1.0000619888305664,-6.307102680206299
1772810495334665000,6.4966650390625,4.433351039886475,-0.505872368812561,-7.188885688781738
1772810495344364800,6.50636474609375,4.189005374908447,-0.3388008773326874,-7.753019332885742
1772810495354065000,6.51606494140625,3.599215269088745,-0.30428701639175415,-7.725835800170898
1772810495363764700,6.5257646484375,2.7724099159240723,0.03405570983886719,-6.931406497955322
1772810495373464800,6.53546484375,1.9398010969161987,0.8086322546005249,-5.688296318054199
1772810495383164700,6.54516455078125,1.4459168910980225,1.5951206684112549,-4.497721195220947
1772810495392864800,6.55486474609375,1.3029745817184448,2.3119704723358154,-3.3447136878967285
1772810495402564600,6.564564697265625,1.3661991357803345,2.6109888553619385,-2.247600555419922
1772810495412264700,6.5742646484375,1.4581341743469238,2.3092215061187744,-1.2286781072616577
1772810495421964500,6.583964599609375,1.4679080247879028,1.7136284112930298,-0.2934441566467285
1772810495431664400,6.593664306640625,1.395825982093811,1.1714859008789062,0.4466184973716736
1772810495441364500,6.603364501953125,1.1856884956359863,0.8492547869682312,0.8100830316543579
1772810495451064300,6.613064208984375,0.8723149299621582,0.7432697415351868,0.7984766364097595
1772810495460764400,6.622764404296875,0.5149590373039246,0.8208495378494263,0.49487683176994324
1772810495470464300,6.63246435546875,0.1893680840730667,0.9671516418457031,0.02695440873503685
1772810495480164000,6.6421640625,-0.07757982611656189,1.198974847793579,-0.5075522661209106
1772810495489864200,6.6518642578125,-0.3237583339214325,1.5187625885009766,-1.046334981918335
1772810495499564000,6.66156396484375,-0.5516108870506287,1.8165591955184937,-1.5148682594299316
1772810495509264100,6.67126416015625,-0.7327322959899902,2.0132575035095215,-1.862144947052002
1772810495518964000,6.6809638671875,-0.8255837559700012,2.1048872470855713,-2.0005056858062744
1772810495528664000,6.6906640625,-0.7965676784515381,2.1198534965515137,-1.8529819250106812
1772810495538364000,6.700364013671875,-0.7092140316963196,1.9711079597473145,-1.4284309148788452
1772810495548064000,6.71006396484375,-0.6374374032020569,1.557552456855774,-0.7760273218154907
1772810495557763800,6.719763916015625,-0.5815432667732239,0.8822414875030518,-0.013362666592001915
1772810495567463700,6.729463623046875,-0.5149590373039246,0.17058399319648743,0.6683624386787415
1772810495577163800,6.739163818359375,-0.41905322670936584,-0.3433823585510254,1.1072688102722168
1772810495586863600,6.748863525390625,-0.29443681240081787,-0.6986002326011658,1.2987748384475708
1772810495596563700,6.758563720703125,-0.17531819641590118,-0.9197332859039307,1.3238203525543213
1772810495606263600,6.768263671875,-0.08093958348035812,-0.9185115694999695,1.2172244787216187
1772810495615963600,6.777963623046875,-0.03634645417332649,-0.6912698745727539,0.968297004699707
1772810495625663500,6.78766357421875,-0.03145953640341759,-0.39591673016548157,0.6185769438743591
1772810495635363600,6.797363525390625,-0.03298669680953026,-0.15890119969844818,0.2716057598590851
1772810495645063400,6.8070634765625,-0.040317077189683914,0.02367101050913334,-0.011224640533328056
1772810495654763300,6.81676318359375,-0.05742128938436508,0.16752967238426208,-0.23083053529262543
1772810495664463400,6.82646337890625,-0.10140355676412582,0.19654574990272522,-0.38415759801864624
1772810495674163200,6.8361630859375,-0.14233149588108063,0.14217877388000488,-0.4263072609901428
1772810495683863000,6.845863037109375,-0.13439024984836578,0.07162389904260635,-0.3862956166267395
1772810495693563100,6.855563232421875,-0.08399390429258347,-0.03733910992741585,-0.3288743197917938
1772810495703263000,6.865262939453125,-0.01282816007733345,-0.23678645491600037,-0.26564982533454895
1772810495712963000,6.874963134765625,0.05436696484684944,-0.4502837061882019,-0.18012875318527222
1772810495722663000,6.884662841796875,0.08063415437936783,-0.6576722860336304,-0.08483384549617767
1772810495732363000,6.894363037109375,0.06414080411195755,-0.8284090161323547,-0.009086613543331623
1772810495742062800,6.904062744140625,0.015577051788568497,-0.8708640933036804,0.05474875494837761
1772810495751763000,6.913762939453125,-0.04550942778587341,-0.8009200692176819,0.09934188425540924
1772810495761462800,6.923462890625,-0.15118902921676636,-0.6625592112541199,0.13538290560245514
1772810495771162600,6.93316259765625,-0.2510654330253601,-0.4563923478126526,0.19555309414863586
1772810495780862700,6.94286279296875,-0.19425499439239502,-0.2343430072069168,0.24717116355895996
1772810495790562600,6.9525625,-0.01435532234609127,-0.1323285847902298,0.22120940685272217
1772810495800262700,6.9622626953125,0.14782927930355072,-0.24778202176094055,0.070631243288517
1772810495809962500,6.97196240234375,0.23487751185894012,-0.7755692005157471,-0.2427423894405365
1772810495819662600,6.98166259765625,0.210442915558815,-1.6271146535873413,-0.7577013969421387
1772810495829362400,6.991362548828125,-0.06047561392188072,-2.239506721496582,-1.3545162677764893
1772810495839062500,7.0010625,-0.46395179629325867,-2.06663179397583,-1.6495640277862549
1772810495848762400,7.010762451171875,-0.7024945020675659,-0.9557743072509766,-1.4382047653198242
1772810495858462200,7.020462158203125,-0.6331613659858704,0.539851725101471,-0.9565379023551941
1772810495868162300,7.030162353515625,-0.34636032581329346,1.208748698234558,-0.45990481972694397
1772810495877862100,7.039862060546875,-0.205861434340477,1.3055707216262817,0.06085740402340889
1772810495887562000,7.04956201171875,-0.4263836145401001,1.613446593284607,0.644844114780426
1772810495897262000,7.059261962890625,-0.6337721943855286,2.2734858989715576,1.4032328128814697
1772810495906962000,7.0689619140625,-0.5283980369567871,3.0526440143585205,2.2657737731933594
1772810495916662000,7.078662109375,-0.38667741417884827,3.274998903274536,2.9890377521514893
1772810495926361900,7.08836181640625,-0.2657261788845062,3.070664644241333,3.7156612873077393
1772810495936062000,7.09806201171875,-0.15577052533626556,2.6048800945281982,4.4514479637146
1772810495945761800,7.10776171875,-0.2049451321363449,2.0581562519073486,5.007640361785889
1772810495955462000,7.1174619140625,-0.4364628791809082,1.468366265296936,5.2700066566467285
1772810495965161700,7.12716162109375,-0.767551600933075,1.0022764205932617,5.063839912414551
1772810495974861600,7.136861572265625,-1.0177006721496582,0.7802270650863647,4.3198065757751465
1772810495984561700,7.146561767578125,-1.1307107210159302,0.8324559926986694,3.3299002647399902
1772810495994261500,7.156261474609375,-1.0598503351211548,1.1830923557281494,2.5571563243865967
1772810496003961600,7.165961669921875,-0.795040488243103,1.6030619144439697,2.1878886222839355
1772810496013661400,7.175661376953125,-0.5323686599731445,1.6549854278564453,2.1570398807525635
1772810496023361500,7.185361572265625,-0.42394015192985535,1.0972658395767212,2.35404372215271
1772810496033061400,7.195061279296875,-0.3943132162094116,0.3092502951622009,2.683300018310547
1772810496042761500,7.204761474609375,-0.2574795186519623,-0.20838125050067902,2.9371142387390137
1772810496052461300,7.21446142578125,-0.004581485874950886,-0.2972620725631714,2.963075876235962
1772810496062161200,7.2241611328125,0.20463970303535461,-0.1680641770362854,2.801196813583374
1772810496071861200,7.233861328125,0.2919933497905731,0.0007635809597559273,2.535470724105835
1772810496081561000,7.24356103515625,0.3026835024356842,0.14278964698314667,2.2966225147247314
1772810496091261200,7.25326123046875,0.3243691921234131,0.26251915097236633,2.1347432136535645
1772810496100961000,7.2629609375,0.32131487131118774,0.34406960010528564,2.0171518325805664
1772810496110660900,7.272660888671875,0.2828303873538971,0.3681987524032593,1.9435425996780396
1772810496120361000,7.28236083984375,0.22846342623233795,0.3413206934928894,1.8473314046859741
1772810496130060800,7.292060791015625,0.14569124579429626,0.2283107042312622,1.6875903606414795
1772810496139761000,7.301760986328125,-0.011911863461136818,0.07131846249103546,1.4884483814239502
1772810496149460700,7.311460693359375,-0.1893680840730667,-0.04955640435218811,1.265482783317566
1772810496159160800,7.321160888671875,-0.34177884459495544,-0.08407026529312134,1.032743215560913
1772810496168860700,7.330860595703125,-0.42424559593200684,-0.001679878099821508,0.8091667294502258
1772810496178560800,7.340560791015625,-0.41874781250953674,0.12385283410549164,0.6338485479354858
1772810496188260600,7.350260498046875,-0.34727662801742554,0.2857320010662079,0.5095375776290894
1772810496197960400,7.35996044921875,-0.27947062253952026,0.44791659712791443,0.4053851366043091
1772810496207660500,7.36966064453125,-0.2767217457294464,0.5535961985588074,0.31894776225090027
1772810496217360400,7.3793603515625,-0.33078327775001526,0.661413848400116,0.2606101930141449
1772810496227060200,7.389060302734375,-0.38270679116249084,0.7432697415351868,0.21021384000778198
1772810496236760300,7.39876025390625,-0.39217519760131836,0.7408262491226196,0.17020219564437866
1772810496246460200,7.408460205078125,-0.35063639283180237,0.6630173325538635,0.13996438682079315
1772810496256160300,7.41816015625,-0.29474225640296936,0.5456549525260925,0.09964732080698013
1772810496265860400,7.4278603515625,-0.2657261788845062,0.4338667094707489,0.022678354755043983
1772810496275560200,7.437560302734375,-0.2767217457294464,0.3459021747112274,-0.11110103130340576
1772810496285260000,7.447260009765625,-0.2974911332130432,0.24663665890693665,-0.28703010082244873
1772810496294960000,7.456960205078125,-0.27030766010284424,0.14286600053310394,-0.47151124477386475
1772810496304660000,7.466659912109375,-0.19944734871387482,0.08017600327730179,-0.6340012550354004
1772810496314359800,7.47635986328125,-0.11545344442129135,0.064598947763443,-0.7595340013504028
1772810496324060000,7.486059814453125,-0.05283980444073677,0.07834340631961823,-0.8310051560401917
1772810496333759700,7.495759765625,-0.038789913058280945,0.09056070446968079,-0.8597158193588257
1772810496343459800,7.5054599609375,-0.07910698652267456,0.09605848789215088,-0.8881210088729858
1772810496353159700,7.51515966796875,-0.16646064817905426,0.16478078067302704,-0.9308815598487854
1772810496362859800,7.52485986328125,-0.231212317943573,0.33765551447868347,-0.9119447469711304
1772810496372559600,7.5345595703125,-0.23182319104671478,0.651639997959137,-0.8123738169670105
1772810496382259700,7.544259765625,-0.16646064817905426,0.9815070033073425,-0.6227002739906311
1772810496391959600,7.55395947265625,-0.1282816082239151,1.1675152778625488,-0.36369362473487854
1772810496401659400,7.563659423828125,-0.15668681263923645,0.9283617734909058,-0.39851289987564087
1772810496411359500,7.573359375,-0.15302163362503052,-0.01359174121171236,-1.0054070949554443
1772810496421059300,7.583059326171875,0.053756099194288254,-0.8488729596138,-2.1235949993133545
1772810496430759200,7.59275927734375,0.6679806113243103,-0.8965204358100891,-3.6638906002044678
1772810496440459300,7.602459228515625,1.3374884128570557,-0.01908952370285988,-5.334911346435547
1772810496450159000,7.6121591796875,1.7150028944015503,1.9689699411392212,-6.37643575668335
1772810496459859200,7.621859130859375,1.951712965965271,2.9628469944000244,-6.951259613037109
1772810496469559000,7.63155908203125,2.0882413387298584,1.3400845527648926,-7.767069339752197
1772810496479259100,7.641259033203125,2.13527774810791,-0.6903535723686218,-8.241100311279297
1772810496488959000,7.650958984375,2.3121232986450195,-1.812206745147705,-7.878551959991455
1772810496498659000,7.6606591796875,2.73545241355896,-2.1881940364837646,-6.961949348449707
1772810496508359000,7.67035888671875,3.2589635848999023,-2.2431719303131104,-5.6724138259887695
1772810496518058800,7.680058837890625,3.537212610244751,-1.9695043563842773,-3.921064615249634
1772810496527758800,7.6897587890625,3.162752389907837,-1.4759256839752197,-1.926285743713379
1772810496537458700,7.699458740234375,2.5751004219055176,-1.18209969997406,-0.11049016565084457
1772810496547158800,7.70915869140625,2.1914772987365723,-1.3442842960357666,1.255708932876587
1772810496556858600,7.718858642578125,1.997527837753296,-1.4820343255996704,2.1066434383392334
1772810496566558700,7.728558837890625,1.6905683279037476,-1.4136937856674194,2.4588069915771484
1772810496576258600,7.738258544921875,1.1972949504852295,-1.1961495876312256,2.5595998764038086
1772810496585958700,7.747958740234375,0.6310232877731323,-0.9621883630752563,2.502789258956909
1772810496595658500,7.757658447265625,0.1386663019657135,-0.7984766364097595,2.2990660667419434
1772810496605358300,7.7673583984375,-0.2458730787038803,-0.6912698745727539,2.0593016147613525
1772810496615058400,7.777058349609375,-0.5006036758422852,-0.6430115103721619,1.8433607816696167
1772810496624758300,7.78675830078125,-0.620333194732666,-0.6283507943153381,1.6607122421264648
1772810496634458400,7.796458251953125,-0.6352993845939636,-0.6943241953849792,1.5024982690811157
1772810496644158200,7.806158203125,-0.5497782826423645,-0.8613957166671753,1.430416226387024
1772810496653858000,7.815858154296875,-0.4101957082748413,-1.134452223777771,1.4704278707504272
1772810496663558100,7.82555810546875,-0.26480987668037415,-1.4658464193344116,1.6130647659301758
1772810496673258000,7.835258056640625,-0.16218459606170654,-1.6622394323349,1.753258228302002
1772810496682958000,7.8449580078125,-0.12095122784376144,-1.6213114261627197,1.7981568574905396
1772810496692658000,7.854657958984375,-0.09010255336761475,-1.3879611492156982,1.7611994743347168
1772810496702358000,7.86435791015625,-0.011300998739898205,-0.923398494720459,1.615202784538269
1772810496712057900,7.874057861328125,0.11759147047996521,-0.37545275688171387,1.3308452367782593
1772810496721758000,7.883758056640625,0.27855435013771057,0.07498364895582199,0.9866229891777039
1772810496731457800,7.893457763671875,0.4465421438217163,0.3764454126358032,0.6491202116012573
1772810496741157600,7.90315771484375,0.5855138897895813,0.4894554018974304,0.37575820088386536
1772810496750857700,7.912857666015625,0.684473991394043,0.3153589367866516,0.19799654185771942
1772810496760557600,7.9225576171875,0.7137954831123352,-0.15523600578308105,0.14912736415863037
1772810496770257400,7.93225732421875,0.6918043494224548,-0.904461681842804,0.2807687222957611
1772810496779957500,7.94195751953125,0.6979129910469055,-1.8115959167480469,0.6222421526908875
1772810496789657300,7.9516572265625,0.7244856357574463,-2.7547709941864014,1.0950515270233154
1772810496799357400,7.961357421875,0.8081740736961365,-3.4264168739318848,1.5779401063919067
1772810496809057300,7.971057373046875,1.0308343172073364,-3.4783403873443604,1.8787909746170044
1772810496818757400,7.98075732421875,1.3093886375427246,-2.887939691543579,1.6842305660247803
1772810496828457200,7.990457275390625,1.5137228965759277,-2.1258857250213623,0.9182060956954956
1772810496838157300,8.0001572265625,1.5772528648376465,-1.5767183303833008,-0.11598794907331467
1772810496847857200,8.009857177734375,1.4850122928619385,-1.4579051733016968,-0.9534835815429688
1772810496857557000,8.019556884765626,1.3307689428329468,-1.9713369607925415,-1.3603194952011108
1772810496867257000,8.029257080078125,1.1585050821304321,-2.8745005130767822,-1.3978877067565918
1772810496876957000,8.03895703125,1.0690133571624756,-3.7165777683258057,-1.2317324876785278
1772810496886657000,8.048656982421875,1.2516618967056274,-4.084012985229492,-1.1342995166778564
1772810496896356900,8.05835693359375,1.5070034265518188,-3.938932418823242,-1.2821288108825684
1772810496906057000,8.068056884765625,1.6285655498504639,-3.6408305168151855,-1.5655701160430908
1772810496915756800,8.0777568359375,1.5971059799194336,-3.315544843673706,-1.8227441310882568
1772810496925457000,8.087456787109375,1.4666863679885864,-3.0873868465423584,-2.0878593921661377
1772810496935156700,8.09715673828125,1.257465124130249,-3.1011314392089844,-2.315406560897827
1772810496944856600,8.106856689453124,1.0848958492279053,-3.2526259422302246,-2.5127158164978027
1772810496954556700,8.116556640625,1.0653481483459473,-3.2443792819976807,-2.703611135482788
1772810496964256500,8.126256591796874,1.379027247428894,-2.8027238845825195,-2.7689735889434814
1772810496973956600,8.13595654296875,2.072969675064087,-2.1652865409851074,-2.7665302753448486
1772810496983656400,8.145656494140624,2.8539602756500244,-1.6765947341918945,-2.8496079444885254
1772810496993356300,8.155356201171875,3.0784530639648438,-1.34000825881958,-2.8981716632843018
1772810497003056400,8.165056396484376,2.025627613067627,-0.986928403377533,-2.7326271533966064
1772810497012756200,8.174756103515625,0.20677772164344788,-0.22059854865074158,-2.4510185718536377
1772810497022456300,8.184456298828126,-1.1447606086730957,0.9665408134460449,-2.093968152999878
1772810497032156200,8.19415625,-1.574504017829895,1.919489860534668,-1.5808416604995728
1772810497041856300,8.203856201171876,-1.7082833051681519,2.3321290016174316,-0.7124974131584167
1772810497051556000,8.21355615234375,-1.859777808189392,2.3538146018981934,0.5587121844291687
1772810497061256000,8.223255859375,-2.0570871829986572,2.0835070610046387,2.0568580627441406
1772810497070956000,8.2329560546875,-2.547916889190674,1.8376339673995972,3.530263900756836
1772810497080656000,8.24265576171875,-3.2369725704193115,1.842520833015442,4.56506872177124
1772810497090356000,8.25235595703125,-3.8679957389831543,2.154062032699585,4.856145858764648
1772810497100055800,8.262055908203125,-4.463894367218018,2.8257076740264893,4.565374374389648
1772810497109755600,8.271755615234374,-4.936703681945801,3.5911214351654053,4.020177364349365
1772810497119455700,8.281455810546875,-5.132485866546631,4.065152168273926,3.482921838760376
1772810497129155600,8.291155517578124,-5.10102653503418,4.084700107574463,3.212003469467163
1772810497138855700,8.300855712890625,-4.850571632385254,3.7685775756835938,3.2208609580993652
1772810497148555500,8.310555419921876,-4.403724193572998,3.2236862182617188,3.388237953186035
1772810497158255600,8.320255615234375,-3.9385507106781006,2.6439754962921143,3.653353214263916
1772810497167955500,8.32995556640625,-3.5521786212921143,2.1418447494506836,3.932518482208252
1772810497177655600,8.339655517578125,-3.1587817668914795,1.633299708366394,4.18938684463501
1772810497187355400,8.34935546875,-2.7818782329559326,1.0890191793441772,4.376006126403809
1772810497197055200,8.35905517578125,-2.4914119243621826,0.7139481902122498,4.335078239440918
1772810497206755300,8.36875537109375,-2.330754518508911,0.6125446557998657,3.9502334594726562
1772810497216455200,8.378455078125,-2.260505199432373,0.8856012225151062,3.314934015274048
1772810497226155300,8.3881552734375,-2.2592833042144775,1.4888302087783813,2.617021083831787
1772810497235855000,8.397855224609375,-2.2003350257873535,2.160170555114746,2.0003530979156494
1772810497245555200,8.40755517578125,-2.0186026096343994,2.705061912536621,1.6035964488983154
1772810497255255000,8.417255126953124,-1.7171409130096436,2.9405503273010254,1.4771473407745361
1772810497264955100,8.426955078125,-1.3124430179595947,2.763399600982666,1.5626684427261353
1772810497274655000,8.436655029296874,-0.9043853282928467,2.257603406906128,1.7358486652374268
1772810497284354800,8.446354736328125,-0.6194168925285339,1.547778606414795,1.8381685018539429
1772810497294055000,8.456054931640624,-0.49082985520362854,0.8651372194290161,1.7874666452407837
1772810497303754800,8.465754638671875,-0.4917461574077606,0.4436405599117279,1.5305980443954468
1772810497313454600,8.47545458984375,-0.5418370366096497,0.3452913165092468,1.0733658075332642
1772810497323154700,8.48515478515625,-0.5647444725036621,0.49892380833625793,0.49365508556365967
1772810497332854500,8.4948544921875,-0.5418370366096497,0.7188351154327393,-0.08788817375898361
1772810497342554600,8.5045546875,-0.4889972507953644,0.8947641849517822,-0.5551997423171997
1772810497352254500,8.51425439453125,-0.42882707715034485,1.0105230808258057,-0.8707113862037659
1772810497361954600,8.52395458984375,-0.38850998878479004,1.0694714784622192,-1.046640396118164
1772810497371654400,8.533654296875,-0.3591884970664978,1.0560325384140015,-1.146822214126587
1772810497381354500,8.5433544921875,-0.30024003982543945,0.9689842462539673,-1.2048543691635132
1772810497391054300,8.553054443359375,-0.20677772164344788,0.884379506111145,-1.2482258081436157
1772810497400754200,8.562754150390624,-0.11575887352228165,0.8416189551353455,-1.299233078956604
1772810497410454300,8.572454345703125,-0.053756099194288254,0.8287907838821411,-1.3755911588668823
1772810497420154000,8.582154052734374,-0.06414080411195755,0.8260418772697449,-1.4519492387771606
1772810497429854200,8.591854248046875,-0.15088360011577606,0.8443678617477417,-1.5252529382705688
1772810497439554000,8.601553955078124,-0.2156352698802948,0.8663589954376221,-1.6104686260223389
1772810497449254000,8.61125390625,-0.1744018942117691,0.8758273720741272,-1.6724714040756226
1772810497458954000,8.6209541015625,-0.029626941308379173,0.9176716208457947,-1.6715551614761353
1772810497468653800,8.63065380859375,0.11514800786972046,0.919198751449585,-1.602221965789795
1772810497478354000,8.64035400390625,0.20616686344146729,0.799774706363678,-1.4882956743240356
1772810497488053800,8.6500537109375,0.2419024556875229,0.6268999576568604,-1.36367928981781
1772810497497753900,8.65975390625,0.24251331388950348,0.42562004923820496,-1.271133303642273
1772810497507453700,8.66945361328125,0.23457208275794983,0.17486004531383514,-1.2060761451721191
1772810497517153800,8.67915380859375,0.24984370172023773,-0.050778135657310486,-1.1547634601593018
1772810497526853600,8.688853515625,0.28405213356018066,-0.18119776248931885,-1.1721731424331665
1772810497536553500,8.698553466796875,0.30115634202957153,-0.26885685324668884,-1.2744929790496826
1772810497546253600,8.708253662109374,0.3029889166355133,-0.33483025431632996,-1.4088832139968872
1772810497555953400,8.717953369140625,0.3637699782848358,-0.32016950845718384,-1.5276964902877808
1772810497565653200,8.7276533203125,0.5152644515037537,-0.19494222104549408,-1.63856840133667
1772810497575353300,8.737353271484375,0.7360920310020447,-0.041004300117492676,-1.7222568988800049
1772810497585053200,8.74705322265625,1.0403027534484863,0.06673697382211685,-1.761963129043579
1772810497594753300,8.756753173828125,1.4340050220489502,-0.037033677101135254,-1.878943681716919
1772810497604453000,8.766453125,1.7821979522705078,-0.41851872205734253,-2.1620795726776123
1772810497614153200,8.7761533203125,1.868024468421936,-0.9096540212631226,-2.597320795059204
1772810497623853000,8.78585302734375,1.6505566835403442,-1.2303580045700073,-3.1299948692321777
1772810497633553200,8.79555322265625,1.359174132347107,-1.188819169998169,-3.7408595085144043
1772810497643253000,8.8052529296875,1.3026691675186157,-0.9795980453491211,-4.324846267700195
1772810497652952800,8.814952880859375,1.8460333347320557,-1.25479257106781,-5.06918478012085
1772810497662653000,8.82465283203125,2.162766695022583,-2.106032609939575,-6.10490608215332
1772810497672352800,8.834352783203125,1.851225733757019,-2.734612464904785,-6.975694179534912
1772810497682052600,8.844052490234375,1.239444613456726,-2.1603996753692627,-7.260356903076172
1772810497691752700,8.853752685546874,0.5531380772590637,-0.894687831401825,-6.715771198272705
1772810497701452500,8.86345263671875,0.08368847519159317,0.23991714417934418,-5.260080337524414
1772810497711152600,8.873152587890624,-0.12217295914888382,0.7399099469184875,-3.233841896057129
1772810497720852500,8.8828525390625,-0.2522871494293213,0.5416843295097351,-1.05733060836792
1772810497730552600,8.892552490234374,-0.28985533118247986,0.07315105944871902,0.8030580878257751
1772810497740252400,8.90225244140625,-0.235793799161911,-0.4441750645637512,2.0250930786132812
1772810497749952500,8.911952392578126,-0.17684535682201385,-0.7825941443443298,2.5901429653167725
1772810497759652400,8.92165234375,-0.18203771114349365,-0.8742238283157349,2.6460371017456055
1772810497769352200,8.931352294921876,-0.21868959069252014,-0.7108175158500671,2.3809218406677246
1772810497779052300,8.94105224609375,-0.2761108875274658,-0.32383468747138977,1.8696280717849731
1772810497788752100,8.950752197265626,-0.2864955961704254,0.12721258401870728,1.1793508529663086
1772810497798452200,8.9604521484375,-0.24373504519462585,0.5193877816200256,0.46219557523727417
1772810497808152000,8.970152099609376,-0.11575887352228165,0.8996511101722717,-0.14347685873508453
1772810497817852000,8.979851806640625,0.035735588520765305,1.1027636528015137,-0.5939896106719971
1772810497827552000,8.989552001953125,0.1185077652335167,1.085659384727478,-0.8868992924690247
1772810497837251800,8.999251953125,0.013133592903614044,0.9344704151153564,-1.1116975545883179
1772810497846952000,9.008951904296875,-0.2831358313560486,0.6208676695823669,-1.327332854270935
1772810497856651800,9.01865185546875,-0.6398808360099792,0.35017824172973633,-1.527085542678833
1772810497866351900,9.028351806640625,-0.8955277800559998,0.295811265707016,-1.6758311986923218
1772810497876051700,9.0380517578125,-0.9700532555580139,0.4656316637992859,-1.6984331607818604
1772810497885751800,9.047751708984375,-0.8756746649742126,0.6727148294448853,-1.5573234558105469
1772810497895451600,9.05745166015625,-0.6597339510917664,0.8006910085678101,-1.2744929790496826
1772810497905151500,9.0671513671875,-0.3958403766155243,0.7820596098899841,-0.9510400891304016
1772810497914851600,9.0768515625,-0.1389717310667038,0.5997164845466614,-0.6871465444564819
1772810497924551400,9.086551513671875,0.07544180005788803,0.346513032913208,-0.5292379856109619
1772810497934251300,9.096251220703126,0.20250166952610016,0.033139415085315704,-0.4495201110839844
1772810497943951400,9.105951416015625,0.1893680840730667,-0.4298197329044342,-0.39423686265945435
1772810497953651200,9.115651123046876,0.07849612087011337,-0.9182060956954956,-0.4009563624858856
1772810497963351300,9.125351318359375,-0.011606430634856224,-1.3210713863372803,-0.4382191300392151
1772810497973051100,9.135051025390625,0.023212861269712448,-1.5822161436080933,-0.44524407386779785
1772810497982751200,9.144751220703125,0.16340632736682892,-1.6860631704330444,-0.39973464608192444
1772810497992451000,9.154451171875,0.337808221578598,-1.6341396570205688,-0.29191699624061584
1772810498002151200,9.164151123046874,0.4831940531730652,-1.4346922636032104,-0.15966477990150452
1772810498011851000,9.17385107421875,0.4944950342178345,-1.1824051141738892,-0.08239039033651352
1772810498021550800,9.18355078125,0.3646862804889679,-0.9594395160675049,-0.12362375855445862
1772810498031251000,9.1932509765625,0.17898337543010712,-0.7431933879852295,-0.26473352313041687
1772810498040950800,9.20295068359375,-0.010384701192378998,-0.5632936954498291,-0.4495201110839844
1772810498050650600,9.212650634765625,-0.15638138353824615,-0.43348491191864014,-0.6068177819252014
1772810498060350700,9.222350830078126,-0.23793183267116547,-0.36567893624305725,-0.6923388838768005
1772810498070050600,9.232050537109375,-0.2816086709499359,-0.3791179656982422,-0.696309506893158
1772810498079750700,9.241750732421876,-0.29046618938446045,-0.37178757786750793,-0.6242274641990662
1772810498089450500,9.251450439453125,-0.282524973154068,-0.3012326955795288,-0.5099957585334778
1772810498099150600,9.261150634765626,-0.287106454372406,-0.19127702713012695,-0.367053359746933
1772810498108850400,9.270850341796875,-0.30115634202957153,-0.15615230798721313,-0.1700494885444641
1772810498118550500,9.280550537109375,-0.22785256803035736,-0.5639045238494873,0.10758855938911438
1772810498128250400,9.29025048828125,0.08429934084415436,-1.5822161436080933,0.4554760456085205
1772810498137950200,9.2999501953125,0.5137372612953186,-3.052567720413208,0.7526617646217346
1772810498147650300,9.309650390625,0.6948586702346802,-4.743441581726074,0.699821949005127
1772810498157350100,9.31935009765625,0.4001164436340332,-5.735180377960205,0.13599377870559692
1772810498167050200,9.32905029296875,0.032070402055978775,-4.7278642654418945,-0.7598394155502319
1772810498176750000,9.33875,0.15057817101478577,-2.2263729572296143,-2.0655629634857178
1772810498186450000,9.348449951171874,0.5858193039894104,0.3272708058357239,-3.7582693099975586
1772810498196150000,9.35814990234375,0.4612029194831848,2.461937665939331,-4.8223958015441895
1772810498205849900,9.367849853515626,-0.4453204274177551,3.453676700592041,-4.382573127746582
1772810498215550000,9.377550048828125,-1.0858120918273926,2.919475555419922,-2.2964696884155273
1772810498225249800,9.387249755859376,-1.0653481483459473,1.6381865739822388,0.6561451554298401
1772810498234950000,9.396949951171875,-0.8075632452964783,0.2854265570640564,3.2880561351776123
1772810498244649700,9.406649658203126,-0.4120282828807831,-0.8650608658790588,5.157302379608154
1772810498254349800,9.416349853515625,0.04734202101826668,-1.2682316303253174,6.072377681732178
1772810498264049700,9.426049560546875,0.37293294072151184,-0.8168025612831116,5.992354393005371
1772810498273749500,9.43574951171875,0.3582721948623657,0.05696314200758934,5.445019721984863
1772810498283449600,9.44544970703125,0.041844237595796585,1.011439323425293,4.916316032409668
1772810498293149400,9.4551494140625,-0.22204934060573578,1.7954843044281006,4.668304920196533
1772810498302849300,9.464849365234375,-0.3634645342826843,2.1088578701019287,4.697320938110352
1772810498312549400,9.47454931640625,-0.591622531414032,2.1354305744171143,4.639288902282715
1772810498322249200,9.484249267578125,-0.9208786487579346,2.240499258041382,4.197633743286133
1772810498331949300,9.49394921875,-1.232419729232788,2.363283157348633,3.379074811935425
1772810498341649200,9.503649169921875,-1.4587451219558716,2.464381217956543,2.4007749557495117
1772810498351349200,9.513349365234374,-1.6041308641433716,2.537684917449951,1.5580869913101196
1772810498361049000,9.523049072265625,-1.6804890632629395,2.6387832164764404,0.9698241949081421
1772810498370749200,9.532749267578126,-1.6316198110580444,2.8202099800109863,0.7673225402832031
1772810498380449000,9.542448974609375,-1.4074324369430542,2.8351762294769287,0.9936479330062866
1772810498390148900,9.55214892578125,-1.0848958492279053,2.6470298767089844,1.514715552330017
1772810498399849000,9.561848876953125,-0.7535017132759094,2.3342671394348145,2.111225128173828
1772810498409548800,9.571548828125,-0.46425724029541016,1.9915719032287598,2.5205044746398926
1772810498419249000,9.581248779296875,-0.27488914132118225,1.5596904754638672,2.6041929721832275
1772810498428948700,9.59094873046875,-0.18814635276794434,1.1739293336868286,2.418184518814087
1772810498438648600,9.600648681640624,-0.11423171311616898,0.9729548692703247,2.071518898010254
1772810498448348700,9.6103486328125,-0.03756818547844887,0.9448550939559937,1.6481895446777344
1772810498458048500,9.620048583984374,0.010690134018659592,1.014188289642334,1.198593020439148
1772810498467748600,9.62974853515625,0.014049889519810677,1.1174243688583374,0.7639627456665039
1772810498477448400,9.639448486328124,-0.028099779039621353,1.1846195459365845,0.37636905908584595
1772810498487148500,9.6491484375,-0.11972949653863907,1.1800380945205688,0.07979421317577362
1772810498496848400,9.658848388671874,-0.23976442217826843,1.1601849794387817,-0.11843141168355942
1772810498506548500,9.668548583984375,-0.34086254239082336,1.1418589353561401,-0.24335326254367828
1772810498516248300,9.678248291015626,-0.4105011224746704,1.085659384727478,-0.3245982825756073
1772810498525948200,9.6879482421875,-0.4043924808502197,1.0187697410583496,-0.36338818073272705
1772810498535648300,9.697648193359376,-0.33017241954803467,0.948520302772522,-0.3908770978450775
1772810498545348000,9.70734814453125,-0.25045454502105713,0.9027054309844971,-0.4541015923023224
1772810498555048000,9.7170478515625,-0.19394956529140472,0.9222530722618103,-0.5606974959373474
1772810498564748000,9.726748046875,-0.1490510106086731,0.9915862679481506,-0.6737074851989746
1772810498574447900,9.73644775390625,-0.09437860548496246,1.03129243850708,-0.7668643593788147
1772810498584148000,9.74614794921875,-0.028099779039621353,1.0105230808258057,-0.8426116108894348
1772810498593847800,9.755847900390625,0.01588248461484909,0.9644027948379517,-0.9162207841873169
1772810498603548000,9.7655478515625,0.05039634555578232,0.8755219578742981,-1.001436471939087
1772810498613247700,9.775247802734375,0.10965022444725037,0.7261655330657959,-1.0472513437271118
1772810498622947800,9.78494775390625,0.22449280321598053,0.5312996506690979,-1.003269076347351
1772810498632647700,9.794647705078125,0.3738492429256439,0.3254382014274597,-0.8755983114242554
1772810498642347500,9.804347412109376,0.49571678042411804,0.16264274716377258,-0.678288996219635
1772810498652047600,9.814047607421875,0.5497782826423645,0.1253799945116043,-0.4574613571166992
1772810498661747500,9.82374755859375,0.5623010396957397,0.14309507608413696,-0.26015204191207886
1772810498671447300,9.833447265625,0.5739074349403381,0.16569706797599792,-0.12148573249578476
1772810498681147400,9.8431474609375,0.5897899270057678,0.29672756791114807,-0.2225838601589203
1772810498690847200,9.85284716796875,0.5940660238265991,0.3407098352909088,-0.3756054937839508
1772810498700547300,9.86254736328125,0.5968148708343506,0.3969093859195709,-0.49655669927597046
1772810498710247200,9.8722470703125,0.6062833070755005,0.15745039284229279,-0.5402335524559021
1772810498719947300,9.881947265625,0.7101303339004517,-0.47899433970451355,-0.6129264235496521
1772810498729647000,9.891647216796875,0.8564324378967285,-0.9679915904998779,-0.8099303245544434
1772810498739347200,9.90134716796875,0.9159917235374451,-0.9621883630752563,-1.092760682106018
1772810498749047000,9.911047119140624,0.8784235715866089,-0.4463130831718445,-1.195691466331482
1772810498758747000,9.920746826171875,0.8518509268760681,-0.024510949850082397,-1.0774891376495361
1772810498768447000,9.930447021484374,0.9767727851867676,-0.19769111275672913,-0.863381028175354
1772810498778146800,9.940146728515625,1.2147046327590942,-0.9777654409408569,-0.7784708142280579
1772810498787847000,9.949846923828124,1.3628393411636353,-2.033339738845825,-1.2454769611358643
1772810498797546800,9.959546630859375,1.268460750579834,-2.49606990814209,-2.1516947746276855
1772810498807246600,9.96924658203125,1.0769546031951904,-1.9930226802825928,-3.0951755046844482
1772810498816946700,9.97894677734375,0.9871574640274048,-0.9692133069038391,-3.7026805877685547
1772810498826646500,9.988646484375,1.0021237134933472,-0.17478369176387787,-3.7252824306488037
1772810498836346400,9.998346435546875,1.0125083923339844,0.03252854943275452,-3.2616360187530518
1772810498846046500,10.00804638671875,0.9370665550231934,-0.12133301794528961,-2.6211442947387695
1772810498855746300,10.017746337890625,0.7980948090553284,-0.377285361289978,-2.0118067264556885
1772810498865446400,10.0274462890625,0.6175842881202698,-0.6424006819725037,-1.5933644771575928
1772810498875146200,10.037146240234375,0.45051276683807373,-0.8781944513320923,-1.3951387405395508
1772810498884846300,10.046846435546875,0.3652971386909485,-0.9939533472061157,-1.323056697845459
1772810498894546200,10.056546142578124,0.29596397280693054,-1.004643440246582,-1.289764642715454
1772810498904246300,10.066246337890625,0.21258094906806946,-0.9273691177368164,-1.2378411293029785
1772810498913946000,10.075946044921874,0.15088360011577606,-0.8439860343933105,-1.1110867261886597
1772810498923646000,10.08564599609375,0.09834922850131989,-0.8079450130462646,-0.8184824585914612
1772810498933346000,10.095345947265624,0.04428769648075104,-0.8229112029075623,-0.4006509482860565
1772810498943046000,10.1050458984375,-0.011606430634856224,-0.8626174330711365,0.019013166427612305
1772810498952745700,10.114745849609376,-0.07147117704153061,-0.8882737755775452,0.3427715003490448
1772810498962445800,10.12444580078125,-0.12003492563962936,-0.8497892618179321,0.4667770564556122
1772810498972145700,10.134145751953126,-0.1432477980852127,-0.6695841550827026,0.3641517758369446
1772810498981845800,10.143845703125,-0.1340848207473755,-0.41668614745140076,0.13385574519634247
1772810498991545600,10.153545654296876,-0.11331541836261749,-0.21723878383636475,-0.08452841639518738
1772810499001245700,10.16324560546875,-0.09132428467273712,-0.051389001309871674,-0.2008981555700302
1772810499010945500,10.172945556640625,-0.07513637095689774,0.10888664424419403,-0.17768529057502747
1772810499020645600,10.182645751953125,-0.06902772188186646,0.1980729103088379,-0.05429060757160187
1772810499030345500,10.192345458984375,-0.07330377399921417,0.1879936307668686,0.12133301794528961
1772810499040045300,10.20204541015625,-0.10965022444725037,0.0902552679181099,0.3107011020183563
1772810499049745400,10.211745361328125,-0.20769402384757996,-0.02237292192876339,0.4365392327308655
1772810499059445200,10.2214453125,-0.324063777923584,-0.11369720846414566,0.45761406421661377
1772810499069145300,10.231145263671875,-0.4043924808502197,-0.25938844680786133,0.40233081579208374
1772810499078845200,10.24084521484375,-0.42882707715034485,-0.41851872205734253,0.33024877309799194
1772810499088545000,10.250544921875,-0.4147771894931793,-0.5208385586738586,0.2560287117958069
1772810499098245000,10.2602451171875,-0.36621344089508057,-0.526030957698822,0.16531528532505035
1772810499107945000,10.269945068359375,-0.3023780584335327,-0.4508945643901825,0.059024810791015625
1772810499117645000,10.27964501953125,-0.26939135789871216,-0.3366628587245941,-0.04329504072666168
1772810499127345000,10.289344970703125,-0.28985533118247986,-0.25121814012527466,-0.12026400119066238
1772810499137045000,10.299044921875,-0.35735589265823364,-0.24289511144161224,-0.18257221579551697
1772810499146744800,10.308744873046875,-0.4474584460258484,-0.28351762890815735,-0.2574031352996826
1772810499156445000,10.31844482421875,-0.5189296007156372,-0.3543779253959656,-0.3615556061267853
1772810499166144800,10.328144775390625,-0.5497782826423645,-0.47502371668815613,-0.5237401723861694
1772810499175844600,10.3378447265625,-0.5293143391609192,-0.609108567237854,-0.7137191295623779
1772810499185544700,10.347544677734374,-0.46425724029541016,-0.6986002326011658,-0.9009491801261902
1772810499195244500,10.35724462890625,-0.383928507566452,-0.6604211926460266,-1.0909281969070435
1772810499204944400,10.3669443359375,-0.314289927482605,-0.49365508556365967,-1.2974004745483398
1772810499214644500,10.37664453125,-0.2675587832927704,-0.28321218490600586,-1.4589741230010986
1772810499224344300,10.38634423828125,-0.24892739951610565,-0.131717711687088,-1.511508584022522
1772810499234044400,10.39604443359375,-0.2513708472251892,-0.10545053333044052,-1.417740821838379
1772810499243744300,10.405744140625,-0.26389357447624207,-0.17050762474536896,-1.2082141637802124
1772810499253444000,10.415444091796875,-0.2730565667152405,-0.26618432998657227,-0.9473749399185181
1772810499263144200,10.425144287109376,-0.2666424810886383,-0.3571268320083618,-0.6682097315788269
1772810499272844000,10.434843994140625,-0.24006985127925873,-0.4600575268268585,-0.4382191300392151
1772810499282544000,10.444544189453126,-0.21655155718326569,-0.5574904680252075,-0.29619306325912476
1772810499292244000,10.454243896484375,-0.22296564280986786,-0.654617965221405,-0.26534438133239746
1772810499301944000,10.463944091796876,-0.2620609998703003,-0.672638475894928,-0.34322965145111084
1772810499311644000,10.473643798828125,-0.32070401310920715,-0.5935314893722534,-0.4730384051799774
1772810499321344000,10.483343994140625,-0.3857611119747162,-0.48968449234962463,-0.6272817850112915
1772810499331043800,10.4930439453125,-0.42271843552589417,-0.37667450308799744,-0.7738893032073975
1772810499340743700,10.50274365234375,-0.45448338985443115,-0.2599993348121643,-0.8878155946731567
1772810499350443800,10.51244384765625,-0.5048797130584717,-0.2096029818058014,-0.9314924478530884
1772810499360143600,10.5221435546875,-0.5674933791160583,-0.24197880923748016,-0.8798743486404419
1772810499369843500,10.531843505859374,-0.6545416116714478,-0.32078036665916443,-0.760755717754364
1772810499379543600,10.54154345703125,-0.7660244107246399,-0.43806639313697815,-0.6138427257537842
1772810499389243400,10.551243408203124,-0.8698714375495911,-0.5358047485351562,-0.4623482823371887
1772810499398943500,10.560943603515625,-0.9367611408233643,-0.5807033181190491,-0.3759109079837799
1772810499408643300,10.570643310546876,-0.9477567076683044,-0.5920043587684631,-0.3753000497817993
1772810499418343400,10.580343505859375,-0.9114102721214294,-0.5620719790458679,-0.45532333850860596
1772810499428043300,10.590043212890626,-0.8527672290802002,-0.5015963315963745,-0.5897135734558105
1772810499437743400,10.599743408203125,-0.8005383014678955,-0.4566977918148041,-0.6596575975418091
1772810499447443200,10.609443115234376,-0.7837395071983337,-0.534277617931366,-0.6230056881904602
1772810499457143000,10.61914306640625,-0.767857015132904,-0.41118836402893066,-0.7790816426277161
1772810499466843100,10.628843017578125,-0.7363975048065186,-0.19097159802913666,-0.9983821511268616
1772810499476543000,10.63854296875,-0.6979129910469055,-0.02611446939408779,-1.2207368612289429
1772810499486242800,10.648242919921875,-0.6548470258712769,0.11133010685443878,-1.4088832139968872
1772810499495943000,10.65794287109375,-0.6261364221572876,0.2231183648109436,-1.5539636611938477
1772810499505642800,10.667642822265625,-0.6087267398834229,0.28176137804985046,-1.5521310567855835
1772810499515342800,10.6773427734375,-0.5845975875854492,0.18646647036075592,-1.3960551023483276
