time,seconds_elapsed,z,y,x
1772810231123323000,0.105322998046875,0,0,0
1772810231152423200,0.134423095703125,-1.229416847229004,-0.012350082397460938,0.1759798526763916
1772810231162123300,0.144123291015625,-1.4408044815063477,-0.4675455093383789,0.20875489711761475
1772810231171823400,0.1538232421875,-1.217811107635498,-1.3843607902526855,-0.09319877624511719
1772810231181523500,0.1635234375,-0.8265707492828369,-1.8194360733032227,-0.2655632495880127
1772810231191223600,0.1732236328125,-0.42310380935668945,-1.5698232650756836,-0.2611997127532959
1772810231200923600,0.182923583984375,-0.2580080032348633,-1.1563291549682617,-0.21592211723327637
1772810231210623700,0.192623779296875,-0.2646825313568115,-0.9458975791931152,-0.08385241031646729
1772810231220323800,0.20232373046875,-0.2667829990386963,-1.0480055809020996,-0.11986613273620605
1772810231230024000,0.21202392578125,-0.14760494232177734,-1.1748275756835938,-0.1673215627670288
1772810231239724000,0.22172412109375,0.2419261932373047,-1.1694574356079102,-0.2508167028427124
1772810231249424100,0.231424072265625,0.5921268463134766,-0.49485254287719727,-0.0643080472946167
1772810231259124200,0.241124267578125,1.0052900314331055,-0.4841194152832031,-0.1316283941268921
1772810231268824000,0.250823974609375,1.3256134986877441,-0.8675317764282227,0.45392709970474243
1772810231278524400,0.2605244140625,1.211014747619629,-1.2306737899780273,0.7399907112121582
1772810231288224500,0.270224609375,0.6352987289428711,-1.4569172859191895,1.1599761247634888
1772810231297924600,0.279924560546875,-0.14690399169921875,-1.5157122611999512,1.26846182346344
1772810231307624700,0.289624755859375,-0.6983017921447754,-1.357067584991455,1.1807692050933838
1772810231317324800,0.29932470703125,-0.9375567436218262,-0.8533456325531006,0.9134691953659058
1772810231327025000,0.30902490234375,-0.7375082969665527,-0.3348705768585205,0.2914173901081085
1772810231336725000,0.31872509765625,-0.46515989303588867,0.12950372695922852,-0.388225793838501
1772810231346425000,0.328425048828125,-0.13000011444091797,0.7838032245635986,-0.5897069573402405
1772810231356125200,0.338125244140625,-0.3759894371032715,1.5446085929870605,-0.2099682092666626
1772810231365825000,0.347824951171875,-0.512061595916748,0.6509501934051514,0.6123979687690735
1772810231375525000,0.357525146484375,0.4889955520629883,-1.8900606632232666,1.5593088865280151
1772810231385225200,0.36722509765625,2.815300941467285,-3.4770636558532715,3.0372071266174316
1772810231394925600,0.376925537109375,3.6593332290649414,-3.6139652729034424,3.9883058071136475
1772810231404625700,0.386625732421875,3.170447826385498,-3.064589500427246,4.117153644561768
1772810231414325800,0.39632568359375,2.045621395111084,-3.0622506141662598,3.28629994392395
1772810231424025900,0.40602587890625,1.0779356956481934,-2.6178956031799316,2.0811781883239746
1772810231433726000,0.415725830078125,0.3269658088684082,-2.7850279808044434,1.961614966392517
1772810231443426000,0.425426025390625,0.9323234558105469,-1.677736520767212,1.4631338119506836
1772810231453126000,0.4351259765625,0.5547800064086914,1.7623916864395142,1.8831570148468018
1772810231462826000,0.444825927734375,1.475663661956787,2.278110980987549,0.7419831156730652
1772810231472526000,0.454526123046875,0.3498687744140625,0.9107147455215454,0.10746216773986816
1772810231482226200,0.46422607421875,-0.03870677947998047,1.0570861101150513,0.48417502641677856
1772810231491926300,0.47392626953125,1.5008306503295898,2.1704511642456055,1.4327476024627686
1772810231501626400,0.48362646484375,2.9753928184509277,3.3984384536743164,2.6238179206848145
1772810231511326500,0.493326416015625,4.33733606338501,4.592287540435791,3.6721274852752686
1772810231521026800,0.50302685546875,6.524435043334961,5.944086074829102,3.2473509311676025
1772810231530727000,0.512726806640625,9.496723175048828,7.1475911140441895,2.0235209465026855
1772810231540426800,0.5224267578125,12.464862823486328,6.92323637008667,1.036503553390503
1772810231550126800,0.532126953125,14.37702751159668,5.791666030883789,1.814306378364563
1772810231559827000,0.541826904296875,18.047536849975586,4.619815826416016,2.883211612701416
1772810231569527000,0.551527099609375,21.628482818603516,3.586350917816162,3.952946186065674
1772810231579227100,0.56122705078125,23.716876983642578,2.9388482570648193,5.6259870529174805
1772810231588927200,0.57092724609375,25.15912437438965,2.411987781524658,7.201786994934082
1772810231598627300,0.58062744140625,25.18508529663086,1.5682973861694336,7.918634414672852
1772810231608327400,0.590327392578125,24.980552673339844,1.538346529006958,7.62003231048584
1772810231618027500,0.600027587890625,23.230281829833984,2.1614882946014404,6.342493057250977
1772810231627727600,0.6097275390625,21.69478416442871,2.764472723007202,4.353865623474121
1772810231637427700,0.619427734375,19.150344848632812,3.2340736389160156,2.6855382919311523
1772810231647127800,0.6291279296875,16.566940307617188,3.1125354766845703,1.00270414352417
1772810231656828000,0.638827880859375,14.094776153564453,3.178256034851074,-0.1487112045288086
1772810231666528000,0.648528076171875,11.554610252380371,2.5856103897094727,-0.3802762031555176
1772810231676228000,0.65822802734375,8.362170219421387,2.351771354675293,-0.09697771072387695
1772810231685928200,0.66792822265625,4.821196556091309,2.1289286613464355,0.49172401428222656
1772810231695628300,0.677628173828125,1.5859565734863281,1.733107089996338,1.053551197052002
1772810231705328400,0.687328369140625,-2.1663780212402344,-0.6213526725769043,2.2437872886657715
1772810231715028500,0.697028564453125,-4.513426780700684,0.7397327423095703,1.1950602531433105
1772810231724728600,0.706728515625,-6.653087139129639,1.6055502891540527,0.2282099723815918
1772810231734428700,0.7164287109375,-7.132602691650391,0.5956406593322754,-0.45848560333251953
1772810231744128800,0.726128662109375,-7.9656171798706055,-0.46308183670043945,-1.133425235748291
1772810231753828900,0.735828857421875,-8.319681167602539,-1.357539176940918,-1.818638801574707
1772810231763529000,0.745529052734375,-7.883050441741943,-2.582988739013672,-2.2621850967407227
1772810231773229000,0.75522900390625,-8.638071060180664,-4.12476921081543,-3.1206023693084717
1772810231782929200,0.76492919921875,-9.069327354431152,-5.409472942352295,-3.8458337783813477
1772810231792629200,0.774629150390625,-9.370616912841797,-6.360654830932617,-4.147408962249756
1772810231802329300,0.784329345703125,-9.582100868225098,-6.83110237121582,-4.237887859344482
1772810231812029400,0.794029541015625,-10.143738746643066,-7.099672794342041,-4.532596111297607
1772810231821729500,0.8037294921875,-10.528810501098633,-7.278227806091309,-4.773841857910156
1772810231831429600,0.8134296875,-10.680347442626953,-7.412250518798828,-5.14777946472168
1772810231841129700,0.823129638671875,-10.760807037353516,-7.203938007354736,-5.633584022521973
1772810231850829800,0.832829833984375,-10.838838577270508,-6.873242378234863,-5.80068826675415
1772810231860530000,0.842530029296875,-10.677984237670898,-6.970897197723389,-6.144514083862305
1772810231870230000,0.85222998046875,-10.401834487915039,-7.278940677642822,-6.31080961227417
1772810231879930000,0.86193017578125,-10.172544479370117,-7.276127815246582,-6.400285720825195
1772810231889630200,0.871630126953125,-10.085312843322754,-7.040278911590576,-6.632952690124512
1772810231899330300,0.881330322265625,-9.959493637084961,-6.956905364990234,-6.678651332855225
1772810231909030400,0.891030517578125,-9.696442604064941,-7.023086071014404,-6.3929243087768555
1772810231918730500,0.90073046875,-9.246332168579102,-7.056529521942139,-6.113251209259033
1772810231928430600,0.9104306640625,-8.771001815795898,-7.055533409118652,-5.667366981506348
1772810231938130700,0.920130615234375,-8.232784271240234,-6.962327003479004,-5.174546718597412
1772810231947830800,0.929830810546875,-7.703463554382324,-6.889857769012451,-4.7930521965026855
1772810231957531000,0.93953076171875,-7.271248817443848,-7.023871421813965,-4.36978816986084
1772810231967231000,0.94923095703125,-6.7983856201171875,-7.190956115722656,-4.058125972747803
1772810231976931000,0.95893115234375,-6.390859127044678,-7.117714881896973,-3.8524880409240723
1772810231986631200,0.968631103515625,-6.096214294433594,-6.975255012512207,-3.741666316986084
1772810231996331300,0.978331298828125,-5.909280300140381,-6.9153218269348145,-3.7048885822296143
1772810232006031400,0.98803125,-5.78245735168457,-6.915048122406006,-3.6174514293670654
1772810232015731500,0.9977314453125,-5.553417682647705,-6.922389030456543,-3.507549524307251
1772810232025431600,1.007431640625,-5.258888244628906,-6.892481327056885,-3.4406464099884033
1772810232035131600,1.017131591796875,-4.999870777130127,-6.810328960418701,-3.2936620712280273
1772810232044831700,1.026831787109375,-4.720285892486572,-6.7362284660339355,-3.125192403793335
1772810232054531600,1.036531494140625,-4.358736991882324,-6.66667366027832,-2.875610589981079
1772810232064231700,1.046231689453125,-3.9561960697174072,-6.493776798248291,-2.5228848457336426
1772810232073931800,1.055931884765625,-3.4734854698181152,-6.1815009117126465,-2.0233969688415527
1772810232083632000,1.065632080078125,-2.6234068870544434,-5.796182155609131,-1.4519565105438232
1772810232093332200,1.075332275390625,-1.5631060600280762,-5.120895862579346,-1.0774598121643066
1772810232103032300,1.0850322265625,-0.5881681442260742,-4.133937358856201,-0.784788966178894
1772810232112732400,1.094732421875,0.12323951721191406,-3.076368570327759,-0.44536352157592773
1772810232122432500,1.1044326171875,0.5907430648803711,-1.769117832183838,-0.034404754638671875
1772810232132132400,1.11413232421875,1.6906895637512207,0.056830406188964844,0.4176030158996582
1772810232141832400,1.12383251953125,3.3291521072387695,2.200800895690918,0.6403253078460693
1772810232151532500,1.133532470703125,5.085308074951172,4.943812370300293,0.581049919128418
1772810232161232600,1.143232666015625,8.330693244934082,7.590120315551758,0.3986635208129883
1772810232170932700,1.1529326171875,12.036659240722656,9.564088821411133,0.7010440826416016
1772810232180632800,1.1626328125,16.210254669189453,8.865484237670898,2.587912082672119
1772810232190333000,1.1723330078125,20.165416717529297,8.006084442138672,3.930777072906494
1772810232200033000,1.182032958984375,22.753345489501953,9.83711051940918,4.132972717285156
1772810232209733400,1.1917333984375,24.632028579711914,8.783842086791992,6.6343231201171875
1772810232219433200,1.20143310546875,24.845325469970703,6.147845268249512,9.826390266418457
1772810232229133300,1.21113330078125,22.951072692871094,4.371762752532959,11.590921401977539
1772810232238833400,1.22083349609375,20.093040466308594,4.133893013000488,11.38391399383545
1772810232248533500,1.230533447265625,17.00848960876465,5.513749122619629,9.424729347229004
1772810232258233600,1.240233642578125,13.650335311889648,6.448439121246338,7.025412082672119
1772810232267933700,1.24993359375,10.869319915771484,6.982152938842773,4.8603105545043945
1772810232277633800,1.2596337890625,8.865078926086426,7.452730178833008,2.967115640640259
1772810232287334000,1.269333984375,7.236481666564941,7.467719078063965,1.5270867347717285
1772810232297034000,1.279033935546875,5.542863845825195,6.8688459396362305,0.8293139934539795
1772810232306734000,1.288734130859375,3.6637535095214844,5.875217437744141,0.6355323791503906
1772810232316434200,1.29843408203125,1.6961631774902344,4.995387554168701,0.7052171230316162
1772810232326134300,1.30813427734375,-0.06800270080566406,4.336472988128662,0.7683863639831543
1772810232335834400,1.31783447265625,-1.7242431640625,3.677334785461426,0.7639124393463135
1772810232345534500,1.327534423828125,-3.2485404014587402,3.1488847732543945,0.7611103057861328
1772810232355234600,1.337234619140625,-4.552980422973633,2.673253059387207,0.5936493873596191
1772810232364934700,1.3469345703125,-5.690201759338379,2.131807327270508,0.3189072608947754
1772810232374634800,1.356634765625,-6.562309741973877,1.581141471862793,-0.005468606948852539
1772810232384334800,1.3663349609375,-7.2998809814453125,0.9699668884277344,-0.30893397331237793
1772810232394035000,1.376034912109375,-7.877634048461914,0.24079084396362305,-0.570967435836792
1772810232403735000,1.385735107421875,-8.174887657165527,-0.5480961799621582,-0.816239595413208
1772810232413435100,1.39543505859375,-8.274330139160156,-1.2537345886230469,-1.0905117988586426
1772810232423135200,1.40513525390625,-8.306558609008789,-1.9195680618286133,-1.2775728702545166
1772810232432835300,1.41483544921875,-8.32707405090332,-2.5946757793426514,-1.2859959602355957
1772810232442535400,1.424535400390625,-8.354033470153809,-3.1219418048858643,-1.1657664775848389
1772810232452235500,1.434235595703125,-8.286585807800293,-3.5337424278259277,-1.2294917106628418
1772810232461935600,1.443935546875,-8.231185913085938,-3.8822386264801025,-1.3359193801879883
1772810232471635700,1.4536357421875,-8.35726547241211,-4.23927116394043,-1.4486876726150513
1772810232481335800,1.463335693359375,-8.553284645080566,-4.444457054138184,-1.637143611907959
1772810232491036000,1.473035888671875,-8.649011611938477,-4.534639358520508,-1.8625386953353882
1772810232500736000,1.482736083984375,-8.799413681030273,-4.655546188354492,-2.0000860691070557
1772810232510436000,1.49243603515625,-8.921318054199219,-4.789034366607666,-2.0913245677948
1772810232520136200,1.50213623046875,-9.040509223937988,-4.864643573760986,-2.163881301879883
1772810232529836300,1.511836181640625,-9.201382637023926,-4.901556015014648,-2.1780848503112793
1772810232539536400,1.521536376953125,-9.288105010986328,-4.955584526062012,-2.100533962249756
1772810232549236500,1.531236572265625,-9.369711875915527,-4.951835632324219,-1.9418187141418457
1772810232558936600,1.5409365234375,-9.409360885620117,-4.888559341430664,-1.8485101461410522
1772810232568636700,1.55063671875,-9.3320951461792,-4.860716819763184,-1.7757891416549683
1772810232578336800,1.560336669921875,-8.927058219909668,-4.775819778442383,-1.617245078086853
1772810232588036900,1.570036865234375,-8.266586303710938,-4.50715970993042,-1.4804223775863647
1772810232597736700,1.57973681640625,-7.337629795074463,-4.172174453735352,-1.3268606662750244
1772810232607436800,1.589436767578125,-5.903072357177734,-3.968190908432007,-1.0254160165786743
1772810232617137000,1.599136962890625,-4.0167436599731445,-2.966493606567383,-0.7005189657211304
1772810232626837000,1.6088369140625,-2.322643280029297,-0.7328047752380371,-0.8726452589035034
1772810232636537000,1.618537109375,-0.26256799697875977,1.2739958763122559,-0.761709988117218
1772810232646237400,1.628237548828125,3.4395666122436523,3.005171775817871,-0.43044817447662354
1772810232655937500,1.6379375,9.321989059448242,5.258814811706543,-0.24406611919403076
1772810232665637600,1.6476376953125,14.83132553100586,5.437629699707031,1.5213091373443604
1772810232675337500,1.65733740234375,17.42650032043457,3.116611957550049,5.431206703186035
1772810232685037600,1.66703759765625,18.465700149536133,2.946244716644287,8.21426010131836
1772810232694737700,1.676737548828125,19.645530700683594,3.2260541915893555,10.18501091003418
1772810232704437800,1.686437744140625,19.37258529663086,2.1518945693969727,11.874600410461426
1772810232714137900,1.696137939453125,17.671751022338867,1.6297450065612793,11.580498695373535
1772810232723838000,1.705837890625,15.61739730834961,2.3800644874572754,9.433030128479004
1772810232733538000,1.7155380859375,13.236873626708984,3.340353012084961,6.693301200866699
1772810232743238100,1.725238037109375,10.501734733581543,4.076633930206299,4.014227390289307
1772810232752938200,1.734938232421875,7.339748382568359,4.358349800109863,1.6511926651000977
1772810232762638300,1.744638427734375,4.596369743347168,4.290422439575195,-0.20937490463256836
1772810232772338400,1.75433837890625,2.3305883407592773,3.9378647804260254,-1.4902515411376953
1772810232782038500,1.76403857421875,0.4970989227294922,3.3097214698791504,-2.293705463409424
1772810232791738600,1.773738525390625,-1.053330421447754,2.7219903469085693,-2.6606814861297607
1772810232801438700,1.783438720703125,-2.3701109886169434,2.195918560028076,-2.724884033203125
1772810232811138800,1.793138916015625,-3.616171360015869,1.6970100402832031,-2.553057909011841
1772810232820839000,1.8028388671875,-4.8094868659973145,1.0860674381256104,-2.2585909366607666
1772810232830539000,1.8125390625,-5.911092758178711,0.5908281803131104,-1.9806911945343018
1772810232840239000,1.822239013671875,-6.874792575836182,0.2452561855316162,-1.8698766231536865
1772810232849939200,1.831939208984375,-7.685513019561768,0.032320499420166016,-2.0128397941589355
1772810232859639300,1.841639404296875,-8.369624137878418,-0.20486187934875488,-2.1465580463409424
1772810232869339400,1.85133935546875,-8.991809844970703,-0.4941418170928955,-2.2655253410339355
1772810232879039500,1.86103955078125,-9.576062202453613,-0.7112722396850586,-2.425238609313965
1772810232888739600,1.870739501953125,-10.099617958068848,-0.8945057392120361,-2.4791202545166016
1772810232898439700,1.880439697265625,-10.441064834594727,-1.101200819015503,-2.615238904953003
1772810232908139800,1.890139892578125,-10.616726875305176,-1.2164123058319092,-2.907520055770874
1772810232917840000,1.89983984375,-10.657245635986328,-1.2289156913757324,-3.194305419921875
1772810232927540000,1.9095400390625,-10.664596557617188,-1.259143352508545,-3.4167652130126953
1772810232937240000,1.919239990234375,-10.59859848022461,-1.3044283390045166,-3.6234447956085205
1772810232946940200,1.928940185546875,-10.308903694152832,-1.2680919170379639,-3.7244744300842285
1772810232956640300,1.93864013671875,-9.95903491973877,-1.3062641620635986,-3.712977409362793
1772810232966340400,1.94834033203125,-9.35578441619873,-1.464975118637085,-3.419156074523926
1772810232976040400,1.95804052734375,-8.586084365844727,-1.6384761333465576,-2.838468074798584
1772810232985740500,1.967740478515625,-7.627355575561523,-1.7999556064605713,-2.204042911529541
1772810232995440600,1.977440673828125,-6.5091657638549805,-1.9146170616149902,-1.7565109729766846
1772810233005140700,1.987140625,-5.355297088623047,-1.9980353116989136,-1.42616868019104
1772810233014840800,1.9968408203125,-4.138551235198975,-1.7552342414855957,-1.1103112697601318
1772810233024541000,2.006541015625,-3.093844413757324,-1.389404535293579,-0.8173010349273682
1772810233034240800,2.01624072265625,-1.7979583740234375,-0.713813066482544,-0.1022481918334961
1772810233043940900,2.02594091796875,0.6939706802368164,1.0018386840820312,0.6886701583862305
1772810233053641000,2.035640869140625,4.704514503479004,3.284583568572998,1.8806462287902832
1772810233063341000,2.045341064453125,9.870953559875488,5.351109504699707,3.9337453842163086
1772810233073041200,2.055041259765625,15.802428245544434,5.875881195068359,7.398941993713379
1772810233082741500,2.064741455078125,22.45199203491211,4.030553817749023,12.117914199829102
1772810233092441600,2.074441650390625,29.394371032714844,2.1465446949005127,16.11353302001953
1772810233102141700,2.0841416015625,35.5715217590332,0.9880919456481934,18.25791358947754
1772810233111841500,2.093841552734375,39.5946044921875,-0.1875460147857666,19.09661293029785
1772810233121541600,2.103541748046875,39.95473098754883,-0.47915029525756836,17.837520599365234
1772810233131241700,2.11324169921875,36.86919021606445,0.4033803939819336,15.349555969238281
1772810233140941800,2.12294189453125,31.911426544189453,1.7562620639801025,12.633760452270508
1772810233150642000,2.132641845703125,26.267696380615234,3.512901782989502,9.803730010986328
1772810233160342000,2.142342041015625,21.425724029541016,5.505286693572998,6.8185577392578125
1772810233170042000,2.1520419921875,17.312559127807617,6.8879876136779785,4.368644714355469
1772810233179742200,2.1617421875,13.688410758972168,7.650838375091553,2.5755836963653564
1772810233189442300,2.1714423828125,9.846491813659668,8.926826477050781,0.7593550682067871
1772810233199142400,2.181142333984375,5.931265830993652,9.838030815124512,-0.8186373710632324
1772810233208842500,2.190842529296875,1.6806182861328125,9.41997241973877,-2.077880859375
1772810233218542600,2.20054248046875,-2.8335962295532227,8.423555374145508,-3.220820903778076
1772810233228242700,2.21024267578125,-6.557371139526367,6.545783042907715,-4.138551712036133
1772810233237942800,2.21994287109375,-9.21496295928955,3.325225830078125,-4.367927074432373
1772810233247643000,2.229642822265625,-10.016165733337402,0.5384273529052734,-4.07518196105957
1772810233257343000,2.239343017578125,-8.818801879882812,-1.9508225917816162,-3.4146134853363037
1772810233267043000,2.24904296875,-7.700038909912109,-4.245068550109863,-2.6074063777923584
1772810233276743200,2.2587431640625,-7.754657745361328,-5.959787368774414,-2.052180767059326
1772810233286443300,2.268443359375,-8.391901016235352,-7.439035415649414,-0.7059575319290161
1772810233296143400,2.278143310546875,-9.170202255249023,-8.693480491638184,1.229997158050537
1772810233305843500,2.287843505859375,-9.976337432861328,-9.335465431213379,3.193582773208618
1772810233315543600,2.29754345703125,-11.105314254760742,-9.451642036437988,4.028170585632324
1772810233325243600,2.30724365234375,-12.857672691345215,-9.107866287231445,3.3571877479553223
1772810233334943700,2.31694384765625,-14.726909637451172,-8.658310890197754,1.7781537771224976
1772810233344643800,2.326643798828125,-15.850375175476074,-8.017135620117188,0.20455896854400635
1772810233354344000,2.336343994140625,-16.357158660888672,-7.697502613067627,-0.6950376033782959
1772810233364044000,2.3460439453125,-15.931856155395508,-7.871440410614014,-0.8309932947158813
1772810233373744000,2.355744140625,-14.986488342285156,-8.100299835205078,-0.6809362769126892
1772810233383444000,2.36544384765625,-13.241271018981934,-7.728033065795898,-0.41340816020965576
1772810233393144300,2.375144287109375,-11.296823501586914,-7.6761064529418945,-0.1335551142692566
1772810233402844400,2.384844482421875,-9.655147552490234,-7.6408820152282715,0.28696268796920776
1772810233412544500,2.39454443359375,-8.51027774810791,-8.199861526489258,0.8632132411003113
1772810233422244600,2.40424462890625,-7.097026348114014,-8.47686767578125,0.9478431344032288
1772810233431944700,2.41394482421875,-6.026623249053955,-8.37714672088623,0.7024695873260498
1772810233441644500,2.42364453125,-5.501620769500732,-8.448625564575195,0.6489218473434448
1772810233451344600,2.4333447265625,-5.475541591644287,-8.750982284545898,0.7463579773902893
1772810233461044700,2.443044677734375,-5.4609375,-8.967447280883789,0.8232609033584595
1772810233470744800,2.452744873046875,-5.432402610778809,-8.885903358459473,0.7992175221443176
1772810233480445000,2.46244482421875,-5.434229373931885,-8.741338729858398,0.7842979431152344
1772810233490145000,2.47214501953125,-5.473262310028076,-8.583309173583984,0.8099367618560791
1772810233499845000,2.48184521484375,-5.430657386779785,-8.300302505493164,0.799015998840332
1772810233509545200,2.491545166015625,-5.192312717437744,-7.737020492553711,0.7242315411567688
1772810233519245300,2.501245361328125,-4.7769670486450195,-6.857762336730957,0.6745039224624634
1772810233528945400,2.5109453125,-4.262245178222656,-5.7706298828125,0.7707498669624329
1772810233538645500,2.5206455078125,-3.477993965148926,-4.526815414428711,1.4740715026855469
1772810233548345600,2.530345703125,-2.344845771789551,-3.1684892177581787,2.9722282886505127
1772810233558045700,2.540045654296875,-1.1625895500183105,-1.8814473152160645,4.377022743225098
1772810233567745800,2.549745849609375,0.009002208709716797,-0.6571168899536133,5.722149848937988
1772810233577446000,2.55944580078125,1.4933538436889648,0.6298632621765137,6.416747093200684
1772810233587146000,2.56914599609375,3.691305637359619,2.2201972007751465,6.117415428161621
1772810233596846000,2.57884619140625,6.001552581787109,3.524336814880371,5.18571662902832
1772810233606546200,2.588546142578125,7.339644432067871,4.574129581451416,4.2145466804504395
1772810233616246300,2.598246337890625,7.898322582244873,5.398863792419434,3.802974224090576
1772810233625946400,2.6079462890625,8.505237579345703,4.794844627380371,4.211476802825928
1772810233635646500,2.617646484375,8.296873092651367,4.052585601806641,4.847959518432617
1772810233645346600,2.6273466796875,7.38855504989624,4.434123992919922,4.188898086547852
1772810233655046700,2.637046630859375,5.758380889892578,4.799525260925293,2.228944778442383
1772810233664746800,2.646746826171875,4.137540817260742,5.190135955810547,-0.33259260654449463
1772810233674446800,2.65644677734375,3.172672748565674,5.705833435058594,-2.6129822731018066
1772810233684147000,2.66614697265625,2.5174055099487305,5.512994766235352,-3.6584250926971436
1772810233693847000,2.675846923828125,2.7939343452453613,5.676213264465332,-4.082977771759033
1772810233703547000,2.685546875,3.6756153106689453,6.541042327880859,-4.134043216705322
1772810233713247200,2.695247314453125,5.1372785568237305,7.02513313293457,-3.7259185314178467
1772810233722947300,2.704947265625,6.564830780029297,6.260663032531738,-2.7970001697540283
1772810233732647400,2.7146474609375,7.791163921356201,5.0969953536987305,-2.281028985977173
1772810233742347500,2.724347412109375,8.256668090820312,4.063648223876953,-2.3002357482910156
1772810233752047600,2.734047607421875,7.877946853637695,3.6988706588745117,-2.8315603733062744
1772810233761747700,2.743747802734375,6.706529140472412,3.936509132385254,-3.570931911468506
1772810233771447600,2.753447509765625,5.07639217376709,3.917923927307129,-3.963931083679199
1772810233781147600,2.763147705078125,3.3323540687561035,3.29392147064209,-3.9441027641296387
1772810233790847700,2.77284765625,1.89268159866333,2.264641761779785,-3.728407859802246
1772810233800547800,2.7825478515625,0.7418699264526367,1.0851707458496094,-3.5488393306732178
1772810233810248000,2.792248046875,-0.0997004508972168,0.0840768814086914,-3.51997447013855
1772810233819948000,2.801947998046875,-0.6487927436828613,-0.5348749160766602,-3.6567888259887695
1772810233829648100,2.811648193359375,-0.7743959426879883,-0.8254528045654297,-3.799543857574463
1772810233839348200,2.82134814453125,-0.713038444519043,-1.348062515258789,-3.468595266342163
1772810233849048300,2.83104833984375,-0.811154842376709,-2.070465087890625,-2.587233304977417
1772810233858748400,2.84074853515625,-1.1172475814819336,-2.79288911819458,-1.4190587997436523
1772810233868448500,2.850448486328125,-1.7376599311828613,-3.4869894981384277,-0.24044877290725708
1772810233878148600,2.860148681640625,-2.572587490081787,-4.181147575378418,0.6620925068855286
1772810233887848700,2.8698486328125,-3.5012638568878174,-4.837666034698486,1.253241777420044
1772810233897548800,2.879548828125,-4.323199272155762,-5.535259246826172,1.4887131452560425
1772810233907249000,2.889248779296875,-4.94322395324707,-6.333404541015625,1.4244641065597534
1772810233916949000,2.898948974609375,-5.543526649475098,-7.025541305541992,1.0913742780685425
1772810233926649000,2.908649169921875,-5.937126159667969,-7.737778663635254,0.4227088689804077
1772810233936349200,2.91834912109375,-6.157505035400391,-8.36385440826416,-0.49822914600372314
1772810233946049300,2.92804931640625,-6.42534065246582,-8.741168975830078,-1.3516052961349487
1772810233955749400,2.937749267578125,-6.777925491333008,-8.930913925170898,-1.9163830280303955
1772810233965449500,2.947449462890625,-7.208553314208984,-9.212177276611328,-2.114213466644287
1772810233975149600,2.957149658203125,-7.514255523681641,-9.442283630371094,-2.0280303955078125
1772810233984849700,2.966849609375,-7.601883888244629,-9.497753143310547,-1.8434091806411743
1772810233994549800,2.9765498046875,-7.564164161682129,-9.577394485473633,-1.5086350440979004
1772810234004249600,2.98624951171875,-7.482202529907227,-9.667859077453613,-1.219821572303772
1772810234013949700,2.99594970703125,-7.340536117553711,-9.575518608093262,-0.9798452854156494
1772810234023650000,3.005650146484375,-7.194119453430176,-9.521215438842773,-0.7690001726150513
1772810234033350100,3.01535009765625,-7.100013256072998,-9.424745559692383,-0.5219428539276123
1772810234043050200,3.02505029296875,-6.7738566398620605,-9.377854347229004,-0.24370741844177246
1772810234052750300,3.034750244140625,-6.325979709625244,-9.290525436401367,0.14118701219558716
1772810234062450400,3.044450439453125,-5.915066719055176,-9.049439430236816,0.7665746808052063
1772810234072150300,3.054150390625,-5.247060298919678,-8.846121788024902,1.6069440841674805
1772810234081850400,3.063850341796875,-4.9915571212768555,-8.539678573608398,2.159179210662842
1772810234091550500,3.073550537109375,-4.852878093719482,-7.984898090362549,2.3073580265045166
1772810234101250600,3.08325048828125,-4.92595100402832,-7.367516040802002,2.204619884490967
1772810234110950700,3.09295068359375,-5.141709327697754,-6.858419895172119,2.029108762741089
1772810234120650800,3.102650634765625,-4.8282670974731445,-6.466850280761719,1.663880467414856
1772810234130350800,3.112350830078125,-4.1674699783325195,-6.149360179901123,1.0729039907455444
1772810234140051000,3.122051025390625,-3.6433792114257812,-5.187263488769531,-0.21854043006896973
1772810234149751000,3.1317509765625,-3.522469997406006,-3.598257064819336,-1.775003433227539
1772810234159451100,3.141451171875,-3.6105973720550537,-1.6914281845092773,-3.4071075916290283
1772810234169151200,3.151151123046875,-3.174494743347168,-0.054250240325927734,-4.125308036804199
1772810234178851300,3.160851318359375,-0.8594355583190918,1.2943744659423828,-3.7127676010131836
1772810234188551400,3.170551513671875,3.247014045715332,2.9462428092956543,-3.350996255874634
1772810234198251500,3.18025146484375,9.24144458770752,5.265574932098389,-3.387218713760376
1772810234207951600,3.18995166015625,17.40592384338379,8.188464164733887,-2.7757842540740967
1772810234217651700,3.199651611328125,26.10597801208496,12.600330352783203,-2.648101329803467
1772810234227351800,3.209351806640625,33.200111389160156,16.36281394958496,-0.8459820747375488
1772810234237052000,3.219052001953125,37.89106369018555,18.28402328491211,5.618616580963135
1772810234246752000,3.228751953125,40.64984130859375,19.396848678588867,15.185307502746582
1772810234256452000,3.2384521484375,42.652069091796875,19.898361206054688,22.276819229125977
1772810234266152200,3.248152099609375,43.13780212402344,20.297325134277344,22.00333023071289
1772810234275852300,3.257852294921875,39.781307220458984,19.612838745117188,15.250038146972656
1772810234285552400,3.267552490234375,34.15032196044922,17.84078025817871,8.651249885559082
1772810234295252500,3.27725244140625,26.74311637878418,14.072980880737305,5.012320518493652
1772810234304952300,3.286952392578125,17.81015968322754,10.358258247375488,2.8581960201263428
1772810234314652400,3.29665234375,9.291902542114258,7.888558864593506,1.1826050281524658
1772810234324352500,3.3063525390625,0.36558961868286133,6.625133037567139,0.36615419387817383
1772810234334052600,3.316052490234375,-7.018487453460693,6.222690105438232,-0.42271876335144043
1772810234343753000,3.3257529296875,-11.935997009277344,6.0057783126831055,-1.8897159099578857
1772810234353453000,3.335453125,-15.174560546875,5.341232776641846,-5.1441545486450195
1772810234363153000,3.34515283203125,-16.641246795654297,4.525082111358643,-7.964964866638184
1772810234372853000,3.35485302734375,-15.522762298583984,2.5648322105407715,-8.571451187133789
1772810234382553000,3.364552978515625,-12.23607349395752,-0.44915246963500977,-6.313268661499023
1772810234392253200,3.374253173828125,-6.950992107391357,-2.805576801300049,-2.6701831817626953
1772810234401953300,3.383953369140625,-2.3440256118774414,-3.5797171592712402,-1.0128147602081299
1772810234411653400,3.3936533203125,-0.21722841262817383,-4.0247802734375,-0.6247820854187012
1772810234421353500,3.403353515625,-0.07983112335205078,-4.805837631225586,-0.3358633518218994
1772810234431053600,3.413053466796875,-0.5344796180725098,-5.369716167449951,-0.0669560432434082
1772810234440753700,3.422753662109375,-1.5155653953552246,-5.527841091156006,0.18617510795593262
1772810234450453800,3.432453857421875,-2.633882999420166,-5.185136795043945,0.40369582176208496
1772810234460153900,3.44215380859375,-4.128990173339844,-4.871445655822754,0.7844388484954834
1772810234469854000,3.45185400390625,-5.836336135864258,-4.912520885467529,1.2016074657440186
1772810234479554000,3.461553955078125,-7.117414474487305,-5.190169334411621,1.6198670864105225
1772810234489254100,3.471254150390625,-7.600656986236572,-5.539516925811768,1.6311018466949463
1772810234498954200,3.480954345703125,-7.8543853759765625,-5.680591583251953,1.0374488830566406
1772810234508654300,3.490654296875,-7.898190498352051,-5.610596179962158,0.27471041679382324
1772810234518354400,3.5003544921875,-7.891973495483398,-5.497326850891113,-0.5037174224853516
1772810234528054300,3.51005419921875,-7.759574890136719,-5.40066385269165,-1.168006181716919
1772810234537754600,3.519754638671875,-7.628350734710693,-5.324898719787598,-1.5728306770324707
1772810234547454700,3.529454833984375,-7.471642971038818,-5.469084739685059,-1.6594398021697998
1772810234557154800,3.53915478515625,-7.318291664123535,-5.801464080810547,-1.4899259805679321
1772810234566855000,3.54885498046875,-7.129937171936035,-6.082577705383301,-1.292923927307129
1772810234576555000,3.558554931640625,-6.978686332702637,-6.25390100479126,-1.2261347770690918
1772810234586254800,3.5682548828125,-6.927243232727051,-6.325657844543457,-1.2596445083618164
1772810234595955000,3.577954833984375,-6.93428897857666,-6.416421890258789,-1.2537720203399658
1772810234605655000,3.587655029296875,-7.083545684814453,-6.501734733581543,-1.1773180961608887
1772810234615355100,3.597355224609375,-7.256198883056641,-6.650199890136719,-1.1853829622268677
1772810234625055200,3.60705517578125,-7.191287040710449,-6.583652019500732,-1.0638983249664307
1772810234634755300,3.61675537109375,-7.170967102050781,-6.641173839569092,-0.9061300754547119
1772810234644455400,3.626455322265625,-7.021366596221924,-6.7823309898376465,-0.6956064701080322
1772810234654155500,3.636155517578125,-6.814950466156006,-6.950874328613281,-0.40699148178100586
1772810234663855600,3.645855712890625,-6.787455081939697,-7.223671913146973,-0.268521785736084
1772810234673555700,3.6555556640625,-6.70694637298584,-7.449770927429199,-0.09991240501403809
1772810234683255800,3.665255859375,-6.51210355758667,-7.502189636230469,0.09186744689941406
1772810234692956000,3.674955810546875,-6.37949275970459,-7.630996227264404,0.27864229679107666
1772810234702656000,3.684656005859375,-6.3136115074157715,-7.770103931427002,0.4662076234817505
1772810234712356000,3.694356201171875,-6.2756757736206055,-7.906968116760254,0.5674453973770142
1772810234722056200,3.70405615234375,-6.194237232208252,-7.894040107727051,0.5124818086624146
1772810234731756300,3.71375634765625,-6.098045349121094,-7.837597846984863,0.4126228094100952
1772810234741456400,3.723456298828125,-6.090345859527588,-7.81298828125,0.3518037796020508
1772810234751156500,3.733156494140625,-6.20379114151001,-7.832558631896973,0.3549133539199829
1772810234760856600,3.742856689453125,-5.946629047393799,-7.6960859298706055,0.5067423582077026
1772810234770556700,3.752556640625,-5.394865989685059,-7.44600248336792,0.48711371421813965
1772810234780256800,3.7622568359375,-4.8215107917785645,-6.8559088706970215,0.28403139114379883
1772810234789956900,3.771956787109375,-4.179812431335449,-5.474429130554199,-0.27159595489501953
1772810234799657000,3.781656982421875,-3.511556386947632,-3.3255105018615723,-1.0194065570831299
1772810234809356800,3.791356689453125,-2.050118923187256,-0.8501663208007812,-1.4164836406707764
1772810234819057000,3.801056884765625,0.15133190155029297,1.9366049766540527,-1.6127495765686035
1772810234828757000,3.810757080078125,2.549783229827881,5.3140788078308105,-1.5079768896102905
1772810234838457000,3.82045703125,4.548113822937012,8.98888111114502,-1.4121224880218506
1772810234848157400,3.830157470703125,6.836411952972412,10.720053672790527,-0.8996602296829224
1772810234857857300,3.839857177734375,10.144174575805664,8.28099250793457,0.8975430130958557
1772810234867557400,3.849557373046875,13.030040740966797,8.232490539550781,1.1673252582550049
1772810234877257500,3.859257568359375,16.77001190185547,8.710023880004883,1.5600876808166504
1772810234886957600,3.86895751953125,20.414175033569336,7.427942276000977,2.9394242763519287
1772810234896657700,3.87865771484375,24.211143493652344,5.326367378234863,4.2258453369140625
1772810234906357800,3.888357666015625,27.085830688476562,4.073719024658203,4.472622871398926
1772810234916057900,3.898057861328125,28.402130126953125,3.729841470718384,3.5033059120178223
1772810234925758000,3.907758056640625,27.583728790283203,4.228034973144531,1.904707431793213
1772810234935458000,3.9174580078125,25.034034729003906,5.139157295227051,-0.05402880907058716
1772810234945158100,3.927158203125,21.413637161254883,6.195976257324219,-1.9127302169799805
1772810234954858200,3.936858154296875,16.992977142333984,6.799517631530762,-3.3035190105438232
1772810234964558300,3.946558349609375,12.892094612121582,6.9141082763671875,-3.970038652420044
1772810234974258400,3.956258544921875,9.33637809753418,6.714906215667725,-3.693734884262085
1772810234983958500,3.96595849609375,6.0024213790893555,6.172922134399414,-2.913684368133545
1772810234993658600,3.97565869140625,3.2172794342041016,5.623036861419678,-2.0926706790924072
1772810235003358700,3.985358642578125,0.9128026962280273,4.999156475067139,-1.122465968132019
1772810235013058600,3.99505859375,-1.3346004486083984,4.406871795654297,-0.428194522857666
1772810235022758700,4.004758544921875,-3.042710781097412,3.875986099243164,-0.08634281158447266
1772810235032458800,4.014458740234375,-4.3622636795043945,3.285935878753662,-0.015555858612060547
1772810235042159000,4.0241591796875,-5.4015913009643555,2.6135926246643066,-0.0621333122253418
1772810235051859200,4.033859130859375,-6.078064918518066,1.9279286861419678,-0.1865839958190918
1772810235061559300,4.043559326171875,-6.48501443862915,1.2714698314666748,-0.5156004428863525
1772810235071259100,4.053259033203125,-6.739867210388184,0.5842218399047852,-0.9089356660842896
1772810235080959200,4.062959228515625,-7.01248836517334,-0.15628671646118164,-1.3444671630859375
1772810235090659300,4.072659423828125,-7.120025634765625,-0.8161187171936035,-1.761938452720642
1772810235100359400,4.082359375,-7.017299652099609,-1.4038310050964355,-2.129403591156006
1772810235110059500,4.0920595703125,-6.867253303527832,-1.9895626306533813,-2.282682180404663
1772810235119759600,4.101759521484375,-7.061252593994141,-2.5704331398010254,-2.185612201690674
1772810235129459700,4.111459716796875,-7.361851215362549,-3.114046573638916,-2.0108132362365723
1772810235139159800,4.121159912109375,-7.561999320983887,-3.491334915161133,-1.9087698459625244
1772810235148860000,4.13085986328125,-7.74339485168457,-3.7805986404418945,-1.8005831241607666
1772810235158560000,4.14056005859375,-8.067329406738281,-4.095235347747803,-1.7450482845306396
1772810235168260000,4.150260009765625,-8.431647300720215,-4.256465435028076,-1.7390023469924927
1772810235177960200,4.159960205078125,-8.746689796447754,-4.209102153778076,-1.8048577308654785
1772810235187660300,4.169660400390625,-9.106103897094727,-4.136274337768555,-1.8648200035095215
1772810235197360400,4.1793603515625,-9.408014297485352,-4.118443489074707,-1.7988377809524536
1772810235207060500,4.189060546875,-9.622429847717285,-4.145988941192627,-1.7432321310043335
1772810235216760600,4.198760498046875,-9.684088706970215,-4.189582824707031,-1.7283294200897217
1772810235226460700,4.208460693359375,-9.559147834777832,-4.208710670471191,-1.767824411392212
1772810235236160800,4.218160888671875,-9.281449317932129,-4.3197760581970215,-1.7928502559661865
1772810235245860900,4.22786083984375,-8.977788925170898,-4.408152103424072,-1.8065528869628906
1772810235255561000,4.23756103515625,-8.737862586975098,-4.513957500457764,-1.8079572916030884
1772810235265261000,4.247260986328125,-8.524147033691406,-4.639312267303467,-1.7533080577850342
1772810235274961000,4.2569609375,-8.376123428344727,-4.725093364715576,-1.6174813508987427
1772810235284661000,4.266660888671875,-8.17387580871582,-4.8346943855285645,-1.352033257484436
1772810235294361000,4.276361083984375,-7.832584857940674,-4.969997882843018,-1.0746269226074219
1772810235304061200,4.286061279296875,-7.455138206481934,-5.029758930206299,-0.8162285685539246
1772810235313761300,4.29576123046875,-6.968046188354492,-5.034729957580566,-0.529084324836731
1772810235323461400,4.30546142578125,-6.190162658691406,-4.823882102966309,-0.3284803032875061
1772810235333161500,4.315161376953125,-5.1220526695251465,-4.267992973327637,-0.5730504393577576
1772810235342861600,4.324861572265625,-4.279966354370117,-3.1486973762512207,-1.3304080963134766
1772810235352561700,4.334561767578125,-3.534970760345459,-1.2926549911499023,-2.2790422439575195
1772810235362261800,4.34426171875,-2.245637893676758,1.1682510375976562,-2.9800775051116943
1772810235371961900,4.3539619140625,-0.17113542556762695,4.274894714355469,-2.8324475288391113
1772810235381662000,4.363661865234375,3.4777708053588867,7.535843849182129,-1.8717290163040161
1772810235391362000,4.373362060546875,8.516199111938477,9.418539047241211,0.35597193241119385
1772810235401062100,4.383062255859375,14.487649917602539,7.906182289123535,3.6396446228027344
1772810235410762200,4.39276220703125,20.726112365722656,7.333451271057129,5.933835029602051
1772810235420462300,4.40246240234375,28.06926727294922,8.104228973388672,8.266496658325195
1772810235430162400,4.412162353515625,34.86799621582031,7.250467777252197,11.824605941772461
1772810235439862500,4.421862548828125,39.43329620361328,6.603012561798096,14.235933303833008
1772810235449562600,4.431562744140625,41.627471923828125,6.369751453399658,14.439250946044922
1772810235459262700,4.4412626953125,40.60580825805664,6.009178161621094,12.541379928588867
1772810235468962800,4.450962890625,37.31960678100586,5.812429904937744,9.826260566711426
1772810235478662700,4.46066259765625,32.2503547668457,6.154784202575684,6.738591194152832
1772810235488362800,4.47036279296875,26.473556518554688,6.557692527770996,3.860863208770752
1772810235498062800,4.480062744140625,20.4888858795166,6.61359977722168,1.681434154510498
1772810235507763000,4.489762939453125,14.637709617614746,6.00387716293335,0.5140674114227295
1772810235517463000,4.499463134765625,9.871415138244629,5.408560752868652,-0.07245278358459473
1772810235527163100,4.5091630859375,6.281525611877441,4.881086826324463,-0.37305307388305664
1772810235536863200,4.51886328125,3.098747730255127,4.185705661773682,-0.9150820970535278
1772810235546563300,4.528563232421875,-0.10988521575927734,3.1035938262939453,-1.1056678295135498
1772810235556263400,4.538263427734375,-3.7114362716674805,2.181826114654541,-1.8509786128997803
1772810235565963500,4.547963623046875,-7.205139636993408,0.7705869674682617,-3.122107982635498
1772810235575663600,4.55766357421875,-9.924971580505371,-0.4397740364074707,-4.630385875701904
1772810235585363700,4.56736376953125,-11.054130554199219,-1.6711783409118652,-5.605451583862305
1772810235595063800,4.577063720703125,-11.030194282531738,-3.131119728088379,-5.6308135986328125
1772810235604764000,4.586763916015625,-10.69351577758789,-4.498681545257568,-4.867761135101318
1772810235614464000,4.596464111328125,-10.490468978881836,-5.898900508880615,-3.491884708404541
1772810235624164000,4.6061640625,-10.671262741088867,-7.257986068725586,-1.9317986965179443
1772810235633864200,4.6158642578125,-11.168167114257812,-8.023715019226074,-0.8227022290229797
1772810235643564300,4.625564208984375,-11.719017028808594,-8.357393264770508,-0.41450560092926025
1772810235653264400,4.635264404296875,-12.158875465393066,-8.349660873413086,-0.6146811246871948
1772810235662964500,4.644964599609375,-12.37873649597168,-8.11398983001709,-1.144013524055481
1772810235672664300,4.654664306640625,-12.210929870605469,-7.700903415679932,-1.686793565750122
1772810235682364400,4.664364501953125,-11.73607349395752,-7.265552520751953,-2.1583733558654785
1772810235692064500,4.674064453125,-10.834954261779785,-6.941610336303711,-2.327932357788086
1772810235701764600,4.6837646484375,-9.635639190673828,-6.75789213180542,-2.4439916610717773
1772810235711464700,4.693464599609375,-8.631300926208496,-6.655104637145996,-2.334204912185669
1772810235721164800,4.703164794921875,-7.748592853546143,-6.595961093902588,-2.0821876525878906
1772810235730865000,4.712864990234375,-7.150074005126953,-6.440463542938232,-1.7518740892410278
1772810235740565000,4.72256494140625,-6.650301933288574,-6.269731521606445,-1.4812145233154297
1772810235750265000,4.73226513671875,-6.088629722595215,-6.127264499664307,-1.2121403217315674
1772810235759965200,4.741965087890625,-5.716794967651367,-5.952649116516113,-0.9332714080810547
1772810235769665300,4.751665283203125,-5.550652980804443,-5.833531379699707,-0.6881768703460693
1772810235779365400,4.761365478515625,-5.35610294342041,-5.8068623542785645,-0.5275132656097412
1772810235789065500,4.7710654296875,-5.221127510070801,-5.888191223144531,-0.508130669593811
1772810235798765600,4.780765625,-5.047732830047607,-6.0564680099487305,-0.5344110727310181
1772810235808465700,4.790465576171875,-4.7671427726745605,-6.2277703285217285,-0.5379480123519897
1772810235818165800,4.800165771484375,-4.505671501159668,-6.457864761352539,-0.5685164928436279
1772810235827865900,4.809865966796875,-4.304934978485107,-6.720522403717041,-0.5314363241195679
1772810235837566000,4.81956591796875,-4.246789932250977,-6.974864959716797,-0.4941009283065796
1772810235847266000,4.82926611328125,-4.2063374519348145,-7.316598415374756,-0.3083842992782593
1772810235856966000,4.8389658203125,-4.088540554046631,-7.721970081329346,0.014388203620910645
1772810235866666000,4.848666015625,-3.8928067684173584,-8.097887992858887,0.4057176113128662
1772810235876366000,4.858365966796875,-3.63505220413208,-8.573725700378418,0.8786413669586182
1772810235886066200,4.868066162109375,-3.3292360305786133,-9.017156600952148,1.3769272565841675
1772810235895766300,4.877766357421875,-3.1160495281219482,-9.346527099609375,1.7371357679367065
1772810235905466400,4.88746630859375,-3.027283191680908,-9.654668807983398,1.9952013492584229
1772810235915166500,4.89716650390625,-3.1835126876831055,-9.899911880493164,2.2557222843170166
1772810235924866600,4.906866455078125,-3.543257713317871,-10.065391540527344,2.413280725479126
1772810235934566700,4.916566650390625,-3.7433032989501953,-9.854403495788574,2.430617332458496
1772810235944266800,4.926266845703125,-4.008439540863037,-9.161672592163086,2.1213395595550537
1772810235953966800,4.935966796875,-4.2791829109191895,-8.189752578735352,1.6053484678268433
1772810235963667000,4.9456669921875,-4.360635757446289,-6.5063557624816895,0.9802729487419128
1772810235973367000,4.955366943359375,-4.023332595825195,-4.310705661773682,0.1717422902584076
1772810235983067100,4.965067138671875,-3.2601304054260254,-1.6180639266967773,-0.3372272849082947
1772810235992767200,4.974767333984375,-1.5968704223632812,1.470224380493164,-0.5320225954055786
1772810236002467300,4.98446728515625,0.5385427474975586,4.35653829574585,-0.38206639885902405
1772810236012167400,4.99416748046875,1.3205127716064453,7.582119464874268,-0.14775772392749786
1772810236021867500,5.003867431640625,1.8631057739257812,10.327564239501953,-0.42829784750938416
1772810236031567600,5.013567626953125,3.653629779815674,10.098848342895508,-0.480373352766037
1772810236041267500,5.023267333984375,7.323904991149902,10.499460220336914,-1.1691759824752808
1772810236050967600,5.032967529296875,14.114360809326172,11.572436332702637,-1.6136879920959473
1772810236060667600,5.042667724609375,20.435468673706055,10.67254638671875,0.04626893997192383
1772810236070367700,5.05236767578125,23.86221694946289,8.091409683227539,2.498002529144287
1772810236080067800,5.06206787109375,25.966739654541016,6.520858287811279,3.319844961166382
1772810236089768000,5.071767822265625,27.18931007385254,6.98111629486084,2.5291781425476074
1772810236099468000,5.081468017578125,26.098840713500977,8.651172637939453,0.5697681903839111
1772810236109168000,5.091168212890625,22.97079086303711,10.025761604309082,-1.3201920986175537
1772810236118868200,5.1008681640625,19.053922653198242,10.80392837524414,-2.4733991622924805
1772810236128568300,5.110568359375,14.704167366027832,11.056089401245117,-2.9705586433410645
1772810236138268400,5.120268310546875,9.395874977111816,10.425355911254883,-2.5642833709716797
1772810236147968500,5.129968505859375,4.214676856994629,9.496614456176758,-1.6252498626708984
1772810236157668600,5.139668701171875,-0.32166290283203125,8.666096687316895,-0.5991435050964355
1772810236167368700,5.14936865234375,-3.7963032722473145,7.731484889984131,0.4052286148071289
1772810236177068500,5.159068603515625,-6.114475250244141,6.642762660980225,1.0762603282928467
1772810236186769000,5.168768798828125,-7.0329508781433105,5.373733997344971,1.2544653415679932
1772810236196469000,5.178468994140625,-6.683094024658203,3.957955837249756,1.1786994934082031
1772810236206169000,5.188169189453125,-5.92250919342041,2.680542469024658,0.8169422149658203
1772810236215869200,5.197869140625,-5.15405797958374,1.3558311462402344,0.27207279205322266
1772810236225569000,5.207569091796875,-4.405182838439941,0.20404624938964844,-0.41925930976867676
1772810236235269000,5.21726904296875,-3.8449954986572266,-0.7236850261688232,-1.3000452518463135
1772810236244969200,5.22696923828125,-3.593505859375,-1.4776523113250732,-2.2138917446136475
1772810236254669300,5.23666943359375,-3.564484119415283,-2.117483139038086,-2.951561212539673
1772810236264369400,5.246369384765625,-3.876126289367676,-2.48909330368042,-3.539069175720215
1772810236274069500,5.256069580078125,-4.419705390930176,-2.767312526702881,-3.8646931648254395
1772810236283769600,5.26576953125,-5.31980037689209,-3.0371992588043213,-3.9699106216430664
1772810236293469700,5.2754697265625,-6.113836288452148,-3.3057727813720703,-3.7860000133514404
1772810236303169800,5.285169677734375,-6.553227424621582,-3.513124704360962,-3.3510262966156006
1772810236312870000,5.294869873046875,-6.929670333862305,-3.5759103298187256,-2.969391345977783
1772810236322570000,5.304570068359375,-7.480219841003418,-3.55790376663208,-2.9205563068389893
1772810236332270000,5.31427001953125,-8.037919998168945,-3.571153402328491,-3.101881980895996
1772810236341970200,5.32397021484375,-8.485208511352539,-3.607830762863159,-3.3999719619750977
1772810236351670000,5.333669921875,-8.809402465820312,-3.7071194648742676,-3.647111177444458
1772810236361370000,5.3433701171875,-8.9096097946167,-3.8602354526519775,-3.6660423278808594
1772810236371070500,5.353070556640625,-8.744440078735352,-4.06130313873291,-3.643371820449829
1772810236380770600,5.3627705078125,-8.321270942687988,-4.320789337158203,-3.472334146499634
1772810236390470700,5.372470703125,-7.833609580993652,-4.495058059692383,-3.302731990814209
1772810236400170500,5.38217041015625,-7.405625343322754,-4.661531925201416,-3.316854238510132
1772810236409870600,5.39187060546875,-6.842473983764648,-4.9477128982543945,-3.317406177520752
1772810236419570700,5.40157080078125,-6.315529823303223,-5.231845855712891,-3.255283832550049
1772810236429270800,5.411270751953125,-5.893643379211426,-5.553297519683838,-3.0255379676818848
1772810236438971000,5.420970947265625,-5.685978889465332,-5.9272613525390625,-2.6017560958862305
1772810236448671000,5.4306708984375,-5.25908088684082,-6.387578964233398,-2.1116390228271484
1772810236458371000,5.44037109375,-4.671184539794922,-6.748884677886963,-1.6470617055892944
1772810236468071200,5.4500712890625,-4.20911979675293,-7.138576507568359,-0.9851720333099365
1772810236477771300,5.459771240234375,-4.365358829498291,-7.626579284667969,-0.17691707611083984
1772810236487471400,5.469471435546875,-4.751644134521484,-7.143036842346191,0.06083106994628906
1772810236497171500,5.47917138671875,-5.210188388824463,-4.974113941192627,-0.3545159101486206
1772810236506871600,5.48887158203125,-4.3088274002075195,-1.7379090785980225,-0.43658721446990967
1772810236516571600,5.498571533203125,-1.6256136894226074,2.097461223602295,0.32520389556884766
1772810236526271500,5.508271484375,2.8568167686462402,6.951206207275391,1.7890892028808594
1772810236535971600,5.5179716796875,8.360269546508789,9.557093620300293,4.835009574890137
1772810236545671700,5.527671630859375,12.72584342956543,9.029736518859863,7.729226112365723
1772810236555371800,5.537371826171875,17.86776351928711,7.135976791381836,8.746536254882812
1772810236565072000,5.54707177734375,23.340965270996094,6.382275581359863,7.225174903869629
1772810236574772000,5.55677197265625,28.339092254638672,8.552717208862305,4.040594100952148
1772810236584472000,5.56647216796875,31.930824279785156,9.723443984985352,1.6236122846603394
1772810236594172200,5.576172119140625,33.76295471191406,11.344364166259766,-0.4495202302932739
1772810236603872300,5.585872314453125,33.31620407104492,12.311929702758789,-1.2451441287994385
1772810236613572400,5.595572265625,31.584938049316406,12.392997741699219,-0.594630241394043
1772810236623272400,5.6052724609375,28.563770294189453,12.62332534790039,1.688622236251831
1772810236632972500,5.61497265625,22.35443115234375,12.926366806030273,5.552639961242676
1772810236642672600,5.624672607421875,15.127098083496094,12.91476058959961,8.818742752075195
1772810236652372700,5.634372802734375,8.400447845458984,12.819816589355469,10.454048156738281
1772810236662072800,5.64407275390625,2.832186698913574,11.715173721313477,10.438813209533691
1772810236671773000,5.65377294921875,-0.5472316741943359,9.860361099243164,8.94739055633545
1772810236681473000,5.66347314453125,-2.2420544624328613,7.6207146644592285,6.240861892700195
1772810236691172900,5.6731728515625,-2.987025737762451,4.994378566741943,2.8052799701690674
1772810236700873000,5.682873046875,-3.0749411582946777,2.3771767616271973,-0.9553494453430176
1772810236710573000,5.692572998046875,-2.870426654815674,-0.22069597244262695,-3.9342198371887207
1772810236720273200,5.702273193359375,-2.3985490798950195,-2.288609504699707,-6.46491003036499
1772810236729973200,5.71197314453125,-1.7237043380737305,-3.9423727989196777,-8.091911315917969
1772810236739673300,5.72167333984375,-1.1885371208190918,-5.42935848236084,-8.22361946105957
1772810236749373400,5.73137353515625,-1.493865966796875,-6.674975395202637,-7.091399669647217
1772810236759073500,5.741073486328125,-2.429593086242676,-7.83626651763916,-5.256217002868652
1772810236768773600,5.750773681640625,-4.018172740936279,-8.745942115783691,-3.5590105056762695
1772810236778473700,5.7604736328125,-5.697936534881592,-9.520975112915039,-2.2218124866485596
1772810236788173800,5.770173828125,-7.416718006134033,-9.677064895629883,-1.3348171710968018
1772810236797874000,5.7798740234375,-8.93212890625,-9.487489700317383,-1.1044387817382812
1772810236807574000,5.789573974609375,-10.43698787689209,-9.245689392089844,-1.085735559463501
1772810236817274000,5.799274169921875,-11.609020233154297,-8.815135955810547,-1.8474563360214233
1772810236826974200,5.80897412109375,-12.484331130981445,-7.463706016540527,-2.6370339393615723
1772810236836674300,5.81867431640625,-13.133991241455078,-6.601588249206543,-2.8891682624816895
1772810236846374400,5.82837451171875,-13.284663200378418,-6.632728576660156,-3.0487422943115234
1772810236856074500,5.838074462890625,-13.558074951171875,-6.484921455383301,-2.8049063682556152
1772810236865774300,5.8477744140625,-13.300012588500977,-6.04822301864624,-2.8267312049865723
1772810236875474400,5.857474365234375,-12.857234954833984,-5.963233470916748,-2.3163843154907227
1772810236885174500,5.867174560546875,-12.078620910644531,-6.017857551574707,-1.974860429763794
1772810236894874600,5.87687451171875,-10.807602882385254,-6.081355094909668,-1.7992770671844482
1772810236904574700,5.88657470703125,-9.918978691101074,-5.954685211181641,-1.5370969772338867
1772810236914274800,5.89627490234375,-9.293986320495605,-6.616123199462891,-1.1043148040771484
1772810236923975000,5.905974853515625,-8.516190528869629,-7.185063362121582,-0.9041844606399536
1772810236933675000,5.915675048828125,-8.096323013305664,-7.108903408050537,-1.0785777568817139
1772810236943375000,5.925375,-7.607977867126465,-7.07835054397583,-1.3652398586273193
1772810236953075200,5.9350751953125,-7.1589813232421875,-7.145259380340576,-1.4224960803985596
1772810236962775300,5.944775390625,-6.633054733276367,-7.062810897827148,-1.2964611053466797
1772810236972475400,5.954475341796875,-6.054043769836426,-7.027660369873047,-0.9848062992095947
1772810236982175200,5.96417529296875,-5.590913772583008,-6.9451584815979,-0.67563796043396
1772810236991875300,5.973875244140625,-5.345727443695068,-6.832564353942871,-0.3320181369781494
1772810237001575400,5.983575439453125,-5.173225402832031,-6.65989351272583,-0.11233162879943848
1772810237011275800,5.99327587890625,-4.9608564376831055,-6.381007194519043,0.21729254722595215
1772810237020975900,6.002975830078125,-4.930881977081299,-6.062590599060059,0.5388736724853516
1772810237030675700,6.01267578125,-5.139142036437988,-5.710366249084473,0.6157655715942383
1772810237040375800,6.022375732421875,-5.327094078063965,-5.28321647644043,0.6285736560821533
1772810237050076000,6.032075927734375,-5.62202262878418,-4.890732288360596,0.6453418731689453
1772810237059776000,6.04177587890625,-5.930980205535889,-4.514924049377441,0.561016321182251
1772810237069476000,6.05147607421875,-6.201118469238281,-4.121075630187988,0.28914451599121094
1772810237079176200,6.06117626953125,-6.230222702026367,-3.80570125579834,0.09555459022521973
1772810237088876300,6.070876220703125,-6.129399299621582,-3.509028911590576,-0.040047407150268555
1772810237098576400,6.080576416015625,-5.923701286315918,-3.2160394191741943,0.01385188102722168
1772810237108276500,6.0902763671875,-5.488238334655762,-2.89963960647583,0.091278076171875
1772810237117976600,6.0999765625,-4.541532039642334,-2.2310800552368164,0.2138667106628418
1772810237127676700,6.1096767578125,-3.578484535217285,-1.0542325973510742,0.12709569931030273
1772810237137376800,6.119376708984375,-2.1260862350463867,0.6361932754516602,-0.44215893745422363
1772810237147076600,6.12907666015625,0.06111764907836914,2.5690255165100098,-0.9669276475906372
1772810237156776700,6.138776611328125,2.793376922607422,4.3524394035339355,-0.7861804962158203
1772810237166476800,6.148476806640625,6.1752400398254395,6.586584091186523,-0.021861553192138672
1772810237176177000,6.158177001953125,9.263069152832031,9.023998260498047,0.3699300289154053
1772810237185877000,6.167876953125,13.823978424072266,8.599777221679688,2.3663649559020996
1772810237195577000,6.1775771484375,18.555564880371094,6.5141143798828125,6.087399482727051
1772810237205277200,6.187277099609375,22.084293365478516,6.632607460021973,9.348176956176758
1772810237214977300,6.196977294921875,25.19106101989746,5.917910575866699,12.860631942749023
1772810237224677400,6.206677490234375,26.986228942871094,5.3736572265625,14.689669609069824
1772810237234377500,6.21637744140625,27.365737915039062,5.826117515563965,13.81578254699707
1772810237244077600,6.22607763671875,26.50646209716797,6.597052574157715,11.024210929870605
1772810237253777700,6.235777587890625,24.546794891357422,7.358046531677246,7.76066780090332
1772810237263477500,6.2454775390625,22.085704803466797,7.890653610229492,4.824825286865234
1772810237273177900,6.255177734375,19.71689796447754,8.0680570602417,2.653533458709717
1772810237282878000,6.2648779296875,17.03969955444336,7.779775619506836,1.3601572513580322
1772810237292578000,6.274578125,13.784568786621094,7.142240047454834,0.8248646259307861
1772810237302278100,6.284278076171875,9.996779441833496,6.3765974044799805,0.8715560436248779
1772810237311978000,6.29397802734375,5.795965194702148,5.6376142501831055,1.1354694366455078
1772810237321678000,6.303677978515625,1.6993398666381836,4.774665355682373,1.3301231861114502
1772810237331378200,6.313378173828125,-1.7456035614013672,3.7714877128601074,1.219822883605957
1772810237341078300,6.323078369140625,-4.315770626068115,2.8771800994873047,0.7233600616455078
1772810237350778400,6.3327783203125,-6.016890525817871,2.0321121215820312,-0.12538814544677734
1772810237360478500,6.342478515625,-6.964700222015381,1.3958015441894531,-1.0717203617095947
1772810237370178600,6.352178466796875,-7.539795875549316,1.041295051574707,-2.119093418121338
1772810237379878700,6.361878662109375,-7.751924991607666,0.5990686416625977,-3.113157033920288
1772810237389578800,6.371578857421875,-7.575183391571045,-0.15128803253173828,-3.8876988887786865
1772810237399278800,6.38127880859375,-6.997391223907471,-0.9963281154632568,-4.345730304718018
1772810237408979000,6.39097900390625,-6.377314567565918,-1.8311278820037842,-4.502756118774414
1772810237418679000,6.400678955078125,-5.98277473449707,-2.682880163192749,-4.386722564697266
1772810237428379000,6.41037890625,-5.935492038726807,-3.4001612663269043,-4.041162014007568
1772810237438079000,6.420078857421875,-6.19255256652832,-3.95656681060791,-3.678199291229248
1772810237447779000,6.429779052734375,-6.646333694458008,-4.318881034851074,-3.3377768993377686
1772810237457479200,6.439479248046875,-7.232517719268799,-4.550756931304932,-3.11942720413208
1772810237467179300,6.44917919921875,-7.788138389587402,-4.519261837005615,-3.122434139251709
1772810237476879400,6.45887939453125,-8.379449844360352,-4.326902389526367,-3.1909396648406982
1772810237486579500,6.468579345703125,-8.962519645690918,-4.031350612640381,-3.1688082218170166
1772810237496279600,6.478279541015625,-9.437591552734375,-3.6637344360351562,-3.141122817993164
1772810237505979600,6.487979736328125,-9.722450256347656,-3.2258012294769287,-3.093129873275757
1772810237515679700,6.4976796875,-9.807012557983398,-2.9859046936035156,-2.9830126762390137
1772810237525379800,6.5073798828125,-9.887544631958008,-2.8648271560668945,-2.8078861236572266
1772810237535080000,6.517079833984375,-9.632196426391602,-2.8055708408355713,-2.6859190464019775
1772810237544780000,6.526780029296875,-9.236754417419434,-2.943199396133423,-2.4319887161254883
1772810237554480000,6.536480224609375,-8.961284637451172,-3.0716819763183594,-2.1203930377960205
1772810237564180200,6.54618017578125,-8.575982093811035,-3.1856470108032227,-1.8463168144226074
1772810237573880300,6.55588037109375,-8.194600105285645,-3.3237016201019287,-1.6632881164550781
1772810237583580200,6.565580078125,-7.921058654785156,-3.405933380126953,-1.5761016607284546
1772810237593280300,6.5752802734375,-7.696300029754639,-3.344935655593872,-1.4594459533691406
1772810237602980400,6.58498046875,-7.466943740844727,-3.2808971405029297,-1.3380128145217896
1772810237612680400,6.594680419921875,-7.351884365081787,-3.208893060684204,-1.1550475358963013
1772810237622380500,6.604380615234375,-7.133383750915527,-3.1582465171813965,-0.8787944316864014
1772810237632080600,6.61408056640625,-6.759392261505127,-3.2104411125183105,-0.6851184368133545
1772810237641780700,6.62378076171875,-6.678617000579834,-3.170076370239258,-0.6333842277526855
1772810237651480800,6.633480712890625,-6.427888870239258,-2.977135181427002,-0.5318492650985718
1772810237661181000,6.643180908203125,-6.0045576095581055,-2.6977357864379883,-0.31004106998443604
1772810237670881000,6.652881103515625,-5.294257164001465,-2.2779788970947266,-0.25241756439208984
1772810237680581000,6.6625810546875,-3.9312820434570312,-1.331763505935669,-0.5147854089736938
1772810237690281000,6.672281005859375,-2.0779762268066406,-0.02035999298095703,-0.8181215524673462
1772810237699981000,6.68198095703125,0.5747928619384766,1.3200392723083496,-1.0883727073669434
1772810237709681200,6.69168115234375,4.179316520690918,3.0572948455810547,-0.9971292614936829
1772810237719381500,6.701381591796875,8.069343566894531,4.678658485412598,-0.25211286544799805
1772810237729081300,6.711081298828125,11.31673526763916,5.742771148681641,1.0909006595611572
1772810237738781400,6.720781494140625,14.307289123535156,5.91604471206665,3.2144668102264404
1772810237748481500,6.7304814453125,16.99560546875,6.0306077003479,5.310657501220703
1772810237758181600,6.740181640625,19.927234649658203,6.982748985290527,6.804632663726807
1772810237767881700,6.7498818359375,22.87069320678711,8.252946853637695,7.4950642585754395
1772810237777581800,6.759581787109375,25.297183990478516,9.451223373413086,7.216797351837158
1772810237787282000,6.769281982421875,27.82740020751953,10.43602180480957,5.895656585693359
1772810237796982000,6.77898193359375,31.316789627075195,10.5739164352417,5.225597381591797
1772810237806682000,6.78868212890625,35.09461212158203,9.596237182617188,5.83888578414917
1772810237816382200,6.79838232421875,37.91962814331055,8.04705810546875,7.3272013664245605
1772810237826082300,6.808082275390625,38.386009216308594,6.23081111907959,9.26498031616211
1772810237835782400,6.817782470703125,36.573081970214844,4.363750457763672,10.617717742919922
1772810237845482200,6.827482177734375,31.734249114990234,3.0553712844848633,10.47500991821289
1772810237855182300,6.837182373046875,24.67044448852539,2.7077126502990723,8.450812339782715
1772810237864882400,6.84688232421875,16.81000518798828,2.873918056488037,5.497629165649414
1772810237874582500,6.85658251953125,9.518829345703125,2.8020477294921875,2.404995918273926
1772810237884282600,6.86628271484375,3.8885936737060547,2.0435237884521484,-0.8346943855285645
1772810237893982700,6.875982666015625,-0.18005990982055664,1.0772247314453125,-4.323176860809326
1772810237903682800,6.885682861328125,-2.8594963550567627,-0.1960597038269043,-7.342775821685791
1772810237913383000,6.8953828125,-5.200029373168945,-2.2037882804870605,-9.204517364501953
1772810237923083000,6.9050830078125,-7.571394920349121,-4.143782615661621,-10.111676216125488
1772810237932783000,6.914783203125,-8.997278213500977,-5.761819839477539,-10.129022598266602
1772810237942483200,6.924483154296875,-9.630393028259277,-7.6510114669799805,-9.136824607849121
1772810237952183300,6.934183349609375,-9.925174713134766,-9.25525188446045,-7.375802516937256
1772810237961883100,6.943883056640625,-10.35308837890625,-10.220297813415527,-5.464259147644043
1772810237971583200,6.953583251953125,-10.344648361206055,-10.928559303283691,-4.082513809204102
1772810237981283600,6.96328369140625,-9.870464324951172,-11.32359504699707,-3.2298104763031006
1772810237990983700,6.972983642578125,-9.409971237182617,-11.464137077331543,-2.8639094829559326
1772810238000683500,6.98268359375,-9.017655372619629,-11.279916763305664,-3.0583605766296387
1772810238010383600,6.992383544921875,-8.586719512939453,-11.04704761505127,-3.397575616836548
1772810238020083700,7.002083740234375,-8.441783905029297,-10.859504699707031,-3.867250442504883
1772810238029783800,7.01178369140625,-8.168834686279297,-10.508913040161133,-4.370935440063477
1772810238039484000,7.02148388671875,-7.516369819641113,-9.981042861938477,-4.763514995574951
1772810238049184000,7.03118408203125,-6.545563697814941,-9.604559898376465,-4.828433036804199
1772810238058884000,7.040884033203125,-5.4291486740112305,-9.35107421875,-4.4049248695373535
1772810238068584200,7.050584228515625,-4.472539901733398,-9.18423843383789,-3.599120616912842
1772810238078284300,7.0602841796875,-3.574690341949463,-9.014163970947266,-2.774120807647705
1772810238087984400,7.069984375,-2.9023561477661133,-8.839356422424316,-2.066354751586914
1772810238097684500,7.0796845703125,-2.5341362953186035,-8.597868919372559,-1.5601767301559448
1772810238107384300,7.08938427734375,-2.385651111602783,-8.310288429260254,-1.1628319025039673
1772810238117084400,7.09908447265625,-2.2783260345458984,-8.001912117004395,-0.7816493511199951
1772810238126784500,7.108784423828125,-2.470125675201416,-7.649111270904541,-0.6924521923065186
1772810238136484600,7.118484619140625,-2.9618911743164062,-7.330289363861084,-0.8384313583374023
1772810238146184700,7.128184814453125,-3.5438756942749023,-7.124444961547852,-1.0926105976104736
1772810238155884800,7.137884765625,-4.056621074676514,-7.048556804656982,-1.3965778350830078
1772810238165585000,7.1475849609375,-4.463170528411865,-7.080957412719727,-1.557086706161499
1772810238175285000,7.157284912109375,-4.724674224853516,-7.210738182067871,-1.54838228225708
1772810238184985000,7.166985107421875,-4.761669635772705,-7.418203353881836,-1.408855676651001
1772810238194685200,7.176685302734375,-4.533349990844727,-7.672555446624756,-1.0981910228729248
1772810238204385300,7.18638525390625,-3.975632429122925,-7.878203868865967,-0.6137158870697021
1772810238214085000,7.196085205078125,-3.3768563270568848,-7.958069324493408,-0.16768407821655273
1772810238223785200,7.20578515625,-2.9853744506835938,-7.97953462600708,0.4145021438598633
1772810238233485600,7.215485595703125,-2.5836877822875977,-7.915290832519531,1.0349266529083252
1772810238243185700,7.225185546875,-2.3542776107788086,-7.715811252593994,1.4155486822128296
1772810238252885500,7.234885498046875,-2.449958562850952,-7.47829532623291,1.5883539915084839
1772810238262585600,7.244585693359375,-2.845569133758545,-7.312386989593506,1.6810264587402344
1772810238272285700,7.25428564453125,-3.3335700035095215,-7.139782428741455,1.717864990234375
1772810238281985800,7.26398583984375,-3.993699550628662,-6.983256816864014,1.7163407802581787
1772810238301386000,7.283385986328125,-4.713297367095947,-6.683874607086182,1.6694567203521729
1772810238311086000,7.293086181640625,-4.536337852478027,-6.662262916564941,1.6914783716201782
1772810238320786200,7.3027861328125,-4.250080108642578,-6.43704080581665,1.7208794355392456
1772810238330486300,7.312486328125,-3.521291971206665,-5.878357887268066,1.7746295928955078
1772810238340186400,7.322186279296875,-2.521448850631714,-4.911505222320557,1.7307673692703247
1772810238349886500,7.331886474609375,-1.235762119293213,-3.1152243614196777,1.2197786569595337
1772810238359586300,7.34158642578125,0.35117197036743164,0.09505081176757812,-0.432530015707016
1772810238369286400,7.351286376953125,2.3031821250915527,4.205756187438965,-2.61586594581604
1772810238378986500,7.360986572265625,3.7424674034118652,8.70849609375,-4.594346046447754
1772810238388686600,7.3706865234375,6.2751641273498535,13.151180267333984,-5.513705730438232
1772810238398386700,7.38038671875,9.178418159484863,17.530630111694336,-5.644260883331299
1772810238408086800,7.390086669921875,10.334834098815918,17.955602645874023,-4.108267784118652
1772810238417787000,7.399786865234375,10.636611938476562,17.387218475341797,-3.2785398960113525
1772810238427487000,7.409487060546875,13.083106994628906,18.529748916625977,-2.405768394470215
1772810238437187000,7.41918701171875,16.052038192749023,17.20760726928711,0.0956956297159195
1772810238446887200,7.42888720703125,18.41012954711914,14.321993827819824,2.5078370571136475
1772810238456587300,7.438587158203125,18.829761505126953,12.09408187866211,3.0504708290100098
1772810238466287000,7.448287109375,17.437252044677734,11.240312576293945,1.647050142288208
1772810238475987200,7.4579873046875,13.911559104919434,11.205801010131836,-0.7621603012084961
1772810238485687300,7.467687255859375,9.289566040039062,11.564319610595703,-3.172241687774658
1772810238495387600,7.4773876953125,4.58831787109375,11.984922409057617,-4.89394474029541
1772810238505087500,7.48708740234375,0.29601478576660156,11.859635353088379,-5.230096340179443
1772810238514787600,7.49678759765625,-2.906586170196533,11.194621086120605,-4.3089399337768555
1772810238524487700,7.50648779296875,-4.859556674957275,9.970312118530273,-2.6076509952545166
1772810238534187800,7.516187744140625,-5.529721260070801,8.050699234008789,-0.7307494878768921
1772810238543888000,7.525887939453125,-5.433611869812012,5.941981315612793,0.656523585319519
1772810238553588000,7.535587890625,-4.601069450378418,4.018013000488281,1.1657640933990479
1772810238563288000,7.5452880859375,-3.5070557594299316,2.066617012023926,1.1312413215637207
1772810238572988200,7.55498828125,-2.486253261566162,-0.2298583984375,1.0940951108932495
1772810238582688300,7.564688232421875,-1.6155896186828613,-2.1025476455688477,0.6289162635803223
1772810238592388400,7.574388427734375,-0.8132534027099609,-3.5138235092163086,0.42921221256256104
1772810238602088400,7.58408837890625,-0.5036664009094238,-4.649453639984131,0.15804767608642578
1772810238611788300,7.593788330078125,-0.9676198959350586,-5.620911598205566,0.08364236354827881
1772810238621488400,7.60348828125,-1.518160343170166,-6.403412818908691,0.4652007818222046
1772810238631188500,7.6131884765625,-2.11763858795166,-7.160661697387695,0.7731003761291504
1772810238640888600,7.622888671875,-3.133108139038086,-7.77731990814209,1.0237213373184204
1772810238650588700,7.632588623046875,-4.2476959228515625,-8.228952407836914,1.0676019191741943
1772810238660288800,7.642288818359375,-5.033736228942871,-8.636465072631836,0.7701853513717651
1772810238669988900,7.65198876953125,-5.5922088623046875,-9.010481834411621,0.3661123514175415
1772810238679689000,7.66168896484375,-6.023625373840332,-9.219549179077148,-0.1354837417602539
1772810238689389000,7.67138916015625,-6.117094039916992,-9.328608512878418,-0.756409227848053
1772810238699089200,7.681089111328125,-5.836667060852051,-9.3309907913208,-1.5524349212646484
1772810238708789000,7.6907890625,-5.498719215393066,-9.310951232910156,-2.193814754486084
1772810238718489000,7.700489013671875,-5.245534420013428,-9.084181785583496,-2.683911085128784
1772810238728189200,7.710189208984375,-5.1862287521362305,-8.816740036010742,-2.8966751098632812
1772810238737889300,7.71988916015625,-5.043175220489502,-8.781221389770508,-2.7616400718688965
1772810238747589400,7.72958935546875,-4.7335381507873535,-8.803157806396484,-2.5315194129943848
1772810238757289500,7.73928955078125,-4.501978874206543,-8.76620864868164,-2.31697940826416
1772810238766989600,7.748989501953125,-4.380267143249512,-8.76850414276123,-1.8780988454818726
1772810238776689700,7.758689697265625,-4.171948432922363,-8.981036186218262,-1.2687429189682007
1772810238786389800,7.7683896484375,-4.208380699157715,-9.005171775817871,-1.0186280012130737
1772810238796089900,7.77808984375,-4.0425543785095215,-8.622963905334473,-1.0397950410842896
1772810238805790000,7.7877900390625,-3.628751277923584,-8.396596908569336,-0.9601011276245117
1772810238815490000,7.797489990234375,-3.9634625911712646,-9.024724960327148,-0.8294812440872192
1772810238825190100,7.807190185546875,-5.08220911026001,-9.779749870300293,-1.0133585929870605
1772810238834890200,7.81689013671875,-6.013990879058838,-10.06338882446289,-1.70186185836792
1772810238844590300,7.82659033203125,-6.3856401443481445,-9.713972091674805,-2.1860110759735107
1772810238854290200,7.836290283203125,-5.844429969787598,-9.002583503723145,-2.2846813201904297
1772810238863990300,7.845990234375,-5.119734287261963,-8.439410209655762,-2.0719456672668457
1772810238873690400,7.8556904296875,-4.821567058563232,-7.920305252075195,-2.057030200958252
1772810238883390500,7.865390380859375,-5.023848056793213,-6.691687107086182,-2.4832329750061035
1772810238893090600,7.875090576171875,-5.198070526123047,-4.695831298828125,-3.0039024353027344
1772810238902790700,7.884790771484375,-4.294072151184082,-1.759101390838623,-3.302095890045166
1772810238912490800,7.89449072265625,-1.8568692207336426,2.3563876152038574,-2.9538333415985107
1772810238922190800,7.90419091796875,2.124558448791504,6.3509063720703125,-0.21600914001464844
1772810238931891000,7.913890869140625,7.399889945983887,9.779488563537598,3.5540835857391357
1772810238941591000,7.923591064453125,13.899557113647461,13.579532623291016,5.373446464538574
1772810238951291100,7.933291015625,20.93427085876465,17.46505355834961,7.3598952293396
1772810238960991000,7.942990966796875,26.68208122253418,21.190156936645508,8.963800430297852
1772810238970691000,7.952691162109375,29.87367057800293,24.76308250427246,11.006054878234863
1772810238980391200,7.96239111328125,30.49423599243164,27.08431625366211,13.19808578491211
1772810238990091300,7.97209130859375,28.798442840576172,27.984050750732422,13.605607986450195
1772810238999791400,7.981791259765625,26.102510452270508,29.4006404876709,12.065998077392578
1772810239009491500,7.991491455078125,23.386550903320312,28.194744110107422,10.188608169555664
1772810239019191600,8.001191650390625,20.812591552734375,26.432201385498047,7.614166259765625
1772810239028891600,8.0108916015625,18.394649505615234,24.630855560302734,4.971965789794922
1772810239038591700,8.020591796875,16.250484466552734,22.336946487426758,3.1152687072753906
1772810239048291800,8.030291748046874,14.11029052734375,19.333715438842773,2.534236192703247
1772810239057991700,8.03999169921875,11.336080551147461,15.92735481262207,2.472548007965088
1772810239067691800,8.04969189453125,8.786920547485352,12.453075408935547,2.182035207748413
1772810239077392100,8.05939208984375,7.112677574157715,8.812226295471191,2.1024324893951416
1772810239087092200,8.06909228515625,5.610254764556885,5.169363021850586,2.365546703338623
1772810239096792000,8.0787919921875,3.778837203979492,1.931218147277832,2.8026270866394043
1772810239106492200,8.0884921875,1.2488856315612793,-0.9463729858398438,2.977680206298828
1772810239116192300,8.098192138671875,-0.8622951507568359,-3.298607349395752,2.6092333793640137
1772810239125892400,8.107892333984376,-2.4465184211730957,-5.357509136199951,1.8557049036026
1772810239135592400,8.117592529296875,-3.727616786956787,-7.477250576019287,1.2140395641326904
1772810239145292500,8.12729248046875,-4.518326282501221,-9.468222618103027,0.7375345230102539
1772810239154992600,8.13699267578125,-4.685061454772949,-11.158084869384766,0.16796302795410156
1772810239164692700,8.146692626953126,-4.502690315246582,-12.659371376037598,-0.19471675157546997
1772810239174392800,8.156392822265625,-4.173937797546387,-13.870442390441895,-0.07643240690231323
1772810239184093000,8.166093017578126,-3.7669153213500977,-14.86086654663086,0.17031896114349365
1772810239193792800,8.175792724609375,-3.3930602073669434,-15.315430641174316,0.21998772025108337
1772810239203492900,8.185492919921876,-3.581922769546509,-15.475961685180664,-0.05358247458934784
1772810239213193000,8.19519287109375,-3.914104461669922,-15.298864364624023,-0.39999067783355713
1772810239222893000,8.20489306640625,-4.016339302062988,-14.824140548706055,-0.7972002029418945
1772810239232593200,8.21459326171875,-3.994739055633545,-14.428778648376465,-1.0541006326675415
1772810239242293200,8.224293212890625,-4.186028957366943,-14.132657051086426,-0.9530012607574463
1772810239251993300,8.233993408203125,-4.35488748550415,-14.000885963439941,-0.5903597474098206
1772810239261693400,8.243693359375,-4.267717361450195,-13.830533981323242,-0.16145768761634827
1772810239271393500,8.2533935546875,-4.062142372131348,-13.717412948608398,0.28350913524627686
1772810239281093600,8.26309375,-4.032597064971924,-13.722280502319336,0.612786591053009
1772810239290793700,8.272793701171874,-3.9820308685302734,-13.830558776855469,0.8536553978919983
1772810239300493600,8.28249365234375,-3.702507257461548,-13.988421440124512,0.9273236989974976
1772810239310193700,8.292193603515624,-3.356842517852783,-14.066883087158203,0.9498676657676697
1772810239319893800,8.301893798828125,-3.3070788383483887,-14.285438537597656,0.7927604913711548
1772810239329593900,8.31159375,-3.0729336738586426,-14.583306312561035,0.563900351524353
1772810239339294000,8.3212939453125,-2.7181694507598877,-14.872201919555664,0.43673980236053467
1772810239348994000,8.330994140625,-2.3356869220733643,-15.086872100830078,0.4916621446609497
1772810239358694100,8.340694091796875,-2.024458646774292,-15.274445533752441,0.6497536897659302
1772810239368394200,8.350394287109374,-1.71584951877594,-15.364084243774414,0.7206989526748657
1772810239378094300,8.36009423828125,-1.4042309522628784,-15.281208038330078,0.8809201717376709
1772810239387794400,8.36979443359375,-1.2334561347961426,-15.127866744995117,1.2314655780792236
1772810239397494300,8.379494384765625,-1.270158052444458,-14.833320617675781,1.6346287727355957
1772810239407194600,8.389194580078126,-1.409597396850586,-14.655192375183105,2.2318642139434814
1772810239416894700,8.398894775390625,-1.7533419132232666,-14.419201850891113,2.7313342094421387
1772810239426594600,8.408594482421876,-2.170506000518799,-13.94824504852295,3.082815408706665
1772810239436294700,8.418294677734375,-2.4092674255371094,-13.492733001708984,3.2320973873138428
1772810239445994800,8.427994873046876,-2.7945146560668945,-13.021717071533203,3.0665605068206787
1772810239455694800,8.43769482421875,-3.1367440223693848,-12.448222160339355,2.7932937145233154
1772810239465395000,8.44739501953125,-3.343764305114746,-11.21590805053711,2.2062606811523438
1772810239475095000,8.457094970703125,-3.4624812602996826,-9.54037857055664,1.402989387512207
1772810239484795100,8.466795166015626,-3.697300672531128,-7.763537406921387,0.38423967361450195
1772810239494495200,8.4764951171875,-3.392228126525879,-5.290442943572998,-1.0930404663085938
1772810239504195300,8.4861953125,-2.6668763160705566,-1.8933391571044922,-2.2345032691955566
1772810239513895400,8.4958955078125,-1.6085069179534912,1.664097785949707,-3.196838140487671
1772810239523595300,8.50559521484375,0.21252655982971191,5.3430023193359375,-3.756692409515381
1772810239533295400,8.51529541015625,2.0507802963256836,8.957786560058594,-4.285226821899414
1772810239542995500,8.524995361328125,3.2923669815063477,12.066391944885254,-4.031688213348389
1772810239552695600,8.534695556640624,4.855273246765137,14.150242805480957,-2.060023784637451
1772810239562395600,8.544395751953125,8.386955261230469,16.270050048828125,1.2067036628723145
1772810239572095700,8.554095703125,13.001107215881348,18.988740921020508,5.158020973205566
1772810239581795800,8.5637958984375,16.693939208984375,19.425098419189453,9.272486686706543
1772810239591496000,8.573495849609374,20.147972106933594,19.337581634521484,11.25776195526123
1772810239601196000,8.583196044921875,22.950729370117188,20.24496078491211,9.681737899780273
1772810239610896100,8.592896240234374,24.855575561523438,20.872020721435547,6.268735885620117
1772810239620596000,8.602595947265625,26.441247940063477,20.185123443603516,3.429234027862549
1772810239630296000,8.612296142578124,26.755634307861328,17.974674224853516,1.7401412725448608
1772810239639996200,8.62199609375,25.424114227294922,15.844234466552734,0.5214714407920837
1772810239649696300,8.6316962890625,21.99789810180664,14.119159698486328,-0.4616682231426239
1772810239659396400,8.641396240234375,17.275815963745117,12.883098602294922,-1.6815825700759888
1772810239669096400,8.651096435546876,12.05770492553711,11.973605155944824,-2.649318218231201
1772810239678796500,8.660796630859375,7.475153923034668,10.790946960449219,-2.6392812728881836
1772810239688496600,8.67049658203125,3.902585983276367,9.079732894897461,-2.0545825958251953
1772810239698196700,8.68019677734375,1.762186050415039,7.0486955642700195,-1.3593616485595703
1772810239707896800,8.689896728515626,0.5074386596679688,4.837959289550781,-0.8848555684089661
1772810239717596700,8.6995966796875,-0.4529285430908203,2.698014259338379,-0.5909548997879028
1772810239727297000,8.709297119140626,-1.4227466583251953,0.7353725433349609,-0.46772778034210205
1772810239736997000,8.7189970703125,-2.1613311767578125,-1.0622224807739258,-0.44190794229507446
1772810239746697200,8.728697265625,-2.475292921066284,-2.7444229125976562,-0.5036219954490662
1772810239756397000,8.73839697265625,-3.0219740867614746,-4.318504333496094,-0.6385935544967651
1772810239766097200,8.74809716796875,-3.681769371032715,-5.634227275848389,-0.7691130638122559
1772810239775797200,8.75779736328125,-3.899287223815918,-6.747167110443115,-0.7591307759284973
1772810239785497300,8.767497314453125,-4.06701135635376,-7.838698863983154,-0.5553112030029297
1772810239795197400,8.777197509765625,-4.144922733306885,-8.814610481262207,-0.22317683696746826
1772810239804897500,8.7868974609375,-4.274176597595215,-9.698208808898926,0.19673782587051392
1772810239814597600,8.79659765625,-4.587181568145752,-10.383255958557129,0.5732232928276062
1772810239824297700,8.806297607421875,-5.102847099304199,-10.847248077392578,0.6637511253356934
1772810239833997800,8.815997802734374,-5.702966690063477,-10.99809455871582,0.440698504447937
1772810239843697700,8.82569775390625,-6.315997123718262,-10.968376159667969,-0.05536150932312012
1772810239853397800,8.835397705078124,-7.003636360168457,-10.692207336425781,-0.724396824836731
1772810239863097900,8.845097900390625,-7.743598937988281,-10.121955871582031,-1.5129096508026123
1772810239872798000,8.8547978515625,-8.181028366088867,-9.416056632995605,-2.1992440223693848
1772810239882498000,8.864498046875,-8.287532806396484,-8.817346572875977,-2.5841257572174072
1772810239892198100,8.8741982421875,-8.334102630615234,-8.450909614562988,-2.5329370498657227
1772810239901898200,8.883898193359375,-8.18665885925293,-8.168357849121094,-2.1112027168273926
1772810239911598300,8.893598388671874,-7.837423801422119,-8.053167343139648,-1.5515010356903076
1772810239921298400,8.90329833984375,-7.422323226928711,-7.939532279968262,-0.9336630702018738
1772810239930998500,8.91299853515625,-7.034648895263672,-7.838747024536133,-0.34668299555778503
1772810239940698400,8.922698486328125,-6.833617210388184,-7.931612014770508,0.15389364957809448
1772810239950398500,8.9323984375,-6.617114543914795,-7.980164527893066,0.5478131175041199
1772810239960098600,8.9420986328125,-6.215210914611816,-7.975266456604004,0.7468910813331604
1772810239969798700,8.951798583984376,-5.77860164642334,-7.981754779815674,0.6458371877670288
1772810239979498800,8.961498779296875,-5.419912815093994,-8.08140754699707,0.3690876066684723
1772810239989198800,8.97119873046875,-5.050415515899658,-8.002646446228027,0.0244409441947937
1772810239998899000,8.98089892578125,-4.797407150268555,-7.753102779388428,-0.2332739531993866
1772810240008599000,8.99059912109375,-4.603041648864746,-7.428060531616211,-0.5970454812049866
1772810240018299100,9.000299072265625,-4.269558906555176,-6.992271900177002,-0.926121711730957
1772810240027999200,9.009999267578126,-3.6805801391601562,-6.202984809875488,-1.149732232093811
1772810240037699000,9.019698974609375,-3.3737239837646484,-4.810982704162598,-1.6165754795074463
1772810240047399400,9.0293994140625,-3.304837226867676,-2.9987363815307617,-2.2805838584899902
1772810240057099500,9.039099609375,-2.8718461990356445,-0.58099365234375,-2.7374093532562256
1772810240066799400,9.04879931640625,-1.950892686843872,2.798600673675537,-3.258012294769287
1772810240076499500,9.05849951171875,0.09003067016601562,6.441671848297119,-3.469733715057373
1772810240086199600,9.068199462890625,3.362241268157959,10.208562850952148,-2.915968894958496
1772810240095899600,9.077899658203124,6.232095241546631,14.249659538269043,-1.6181906461715698
1772810240105599700,9.087599853515625,9.130834579467773,16.051782608032227,0.8016324639320374
1772810240115299800,9.0972998046875,12.145904541015625,17.23280143737793,2.9382779598236084
1772810240125000000,9.107,16.174448013305664,19.685962677001953,3.920407295227051
1772810240134700000,9.116699951171874,21.695789337158203,21.725528717041016,5.021106719970703
1772810240144400100,9.126400146484375,27.736194610595703,23.11985969543457,6.7388916015625
1772810240154100200,9.136100341796874,32.433589935302734,23.34930419921875,8.52472972869873
1772810240163800000,9.145800048828125,33.43547821044922,21.87961196899414,10.021615982055664
1772810240173500200,9.155500244140624,31.124832153320312,19.811656951904297,10.045858383178711
1772810240183200300,9.1652001953125,27.36377716064453,17.87287712097168,8.512809753417969
1772810240192900400,9.174900390625,22.91973876953125,15.565801620483398,6.262279033660889
1772810240202600400,9.184600341796875,17.672283172607422,12.68983268737793,3.241898775100708
1772810240212300500,9.194300537109376,11.729734420776367,9.634828567504883,0.27432358264923096
1772810240222000600,9.204000732421875,5.39959192276001,6.7528181076049805,-2.1210672855377197
1772810240231700700,9.21370068359375,-1.3272829055786133,4.651762962341309,-3.7993853092193604
1772810240241400800,9.22340087890625,-6.970831871032715,3.4171581268310547,-5.084977149963379
1772810240251101000,9.233100830078126,-10.562187194824219,2.359668731689453,-6.096982955932617
1772810240260800800,9.24280078125,-12.20553970336914,0.9095602035522461,-6.516785144805908
1772810240270500900,9.2525009765625,-12.4651460647583,-0.6016511917114258,-6.520680904388428
1772810240280201000,9.262200927734375,-10.837160110473633,-2.1952152252197266,-6.125194549560547
1772810240289901000,9.271901123046876,-7.732968330383301,-3.839743137359619,-5.1007232666015625
1772810240299601200,9.28160107421875,-5.049937725067139,-5.6008524894714355,-3.6917293071746826
1772810240309301200,9.29130126953125,-3.4705724716186523,-7.138970851898193,-2.0904948711395264
1772810240319001300,9.30100146484375,-2.993906021118164,-7.926257133483887,-0.678135871887207
1772810240328701400,9.310701416015625,-3.5860953330993652,-8.107908248901367,0.255706787109375
1772810240338401500,9.320401611328125,-4.879890441894531,-8.121809005737305,0.6475374698638916
1772810240348101400,9.330101318359375,-6.281844615936279,-7.719538688659668,0.4460533857345581
1772810240357801500,9.339801513671874,-7.50462532043457,-7.204659938812256,0.0070677995681762695
1772810240367501600,9.34950146484375,-8.21596908569336,-6.760324954986572,-0.3564188480377197
1772810240377201700,9.35920166015625,-8.235665321350098,-6.473894119262695,-0.6041924953460693
1772810240386901800,9.36890185546875,-7.77657413482666,-6.490599632263184,-0.6136410236358643
1772810240396601900,9.378601806640624,-7.185842514038086,-6.594536781311035,-0.7386798858642578
1772810240406302000,9.388302001953125,-6.565529823303223,-6.631723403930664,-1.2026453018188477
1772810240416002000,9.398001953125,-5.838383197784424,-6.774615287780762,-1.5932438373565674
1772810240425702100,9.4077021484375,-5.308286190032959,-7.028343677520752,-1.69873046875
1772810240435402200,9.41740234375,-4.698091506958008,-7.164789199829102,-1.65390944480896
1772810240445102300,9.427102294921875,-4.130192756652832,-7.208934783935547,-1.4395395517349243
1772810240454850800,9.436850830078125,-3.582211971282959,-7.4161272048950195,-0.9980632662773132
1772810240464502300,9.446502197265625,-3.342405080795288,-7.607536315917969,-0.6437358856201172
1772810240474202400,9.456202392578126,-3.215454339981079,-7.683932304382324,-0.5222036242485046
1772810240483902500,9.46590234375,-3.2014894485473633,-7.694159030914307,-0.5971826314926147
1772810240493602600,9.4756025390625,-3.3992598056793213,-7.744694709777832,-0.7999813556671143
1772810240503302700,9.485302734375,-3.7076761722564697,-7.8629469871521,-1.0500876903533936
1772810240513002800,9.495002685546876,-3.746556043624878,-7.913087844848633,-1.2686924934387207
1772810240522702800,9.504702880859375,-3.652681827545166,-8.055190086364746,-1.35288667678833
1772810240532403000,9.51440283203125,-3.443026065826416,-8.216740608215332,-1.4186029434204102
1772810240542103000,9.52410302734375,-3.1612772941589355,-8.397401809692383,-1.3557393550872803
1772810240551803000,9.533802978515626,-2.983268976211548,-8.666916847229004,-1.1739085912704468
1772810240561503000,9.5435029296875,-2.9220409393310547,-8.860285758972168,-0.9200772047042847
1772810240571203000,9.553203125,-2.908121109008789,-8.835683822631836,-0.7906183004379272
1772810240580903200,9.562903076171875,-2.8950703144073486,-8.824984550476074,-0.6453608274459839
1772810240590603300,9.572603271484375,-2.9857046604156494,-8.809558868408203,-0.4790084958076477
1772810240600303400,9.582303466796875,-3.2894434928894043,-8.545255661010742,-0.261307954788208
1772810240610003500,9.59200341796875,-3.6969194412231445,-8.26473331451416,-0.28246212005615234
1772810240619703600,9.60170361328125,-4.059999465942383,-8.012104034423828,-0.4253441393375397
1772810240629403600,9.611403564453125,-4.133541107177734,-7.727678298950195,-0.6698861718177795
1772810240639103700,9.621103759765624,-3.7198638916015625,-7.590235710144043,-0.6653279662132263
1772810240648803800,9.630803955078125,-3.3493382930755615,-7.3093695640563965,-0.5260655879974365
1772810240658503700,9.640503662109374,-3.35811710357666,-6.5727458000183105,-0.49637797474861145
1772810240668203800,9.650203857421875,-3.564718246459961,-4.755221843719482,-0.981576681137085
1772810240677904000,9.65990380859375,-3.583728551864624,-2.2560014724731445,-1.7886511087417603
1772810240687604000,9.66960400390625,-2.977562665939331,0.4217338562011719,-2.7305448055267334
1772810240697304000,9.679303955078124,-1.126429557800293,3.712827682495117,-3.6875133514404297
1772810240707004200,9.689004150390625,2.079558849334717,7.004039764404297,-3.363175868988037
1772810240716704300,9.698704345703124,4.849253177642822,9.913187026977539,-2.602064609527588
1772810240726404400,9.708404296875,6.508718490600586,12.560606956481934,-2.3739590644836426
1772810240736104400,9.7181044921875,8.073785781860352,12.27574634552002,-1.1457470655441284
1772810240745804300,9.72780419921875,10.836503982543945,13.208602905273438,-0.14215540885925293
1772810240755504400,9.73750439453125,14.093284606933594,15.734941482543945,0.14601650834083557
1772810240765204500,9.74720458984375,17.289806365966797,16.651538848876953,1.4103713035583496
1772810240774904600,9.756904541015626,20.841114044189453,15.917020797729492,3.0431454181671143
1772810240784604700,9.766604736328125,23.489564895629883,14.527782440185547,4.472148418426514
1772810240794304800,9.7763046875,24.169723510742188,13.345182418823242,5.076094627380371
1772810240804004900,9.7860048828125,22.614137649536133,12.364328384399414,4.876856327056885
1772810240813705000,9.795705078125,19.30265235900879,11.489437103271484,4.021839618682861
1772810240823405000,9.805405029296875,14.562729835510254,10.599699020385742,3.170785427093506
1772810240833105200,9.815105224609376,9.011556625366211,9.420857429504395,2.4906458854675293
1772810240842805200,9.82480517578125,3.7689013481140137,8.282329559326172,1.9920151233673096
1772810240852505000,9.834505126953125,-0.3540215492248535,6.94975471496582,1.5423263311386108
1772810240862205200,9.844205078125,-3.234499931335449,5.58150577545166,1.0373436212539673
1772810240871905300,9.8539052734375,-4.735971927642822,4.195152282714844,0.8360213041305542
1772810240881605400,9.86360546875,-5.311847686767578,2.7780723571777344,0.8602941036224365
1772810240891305500,9.873305419921875,-5.42598295211792,1.2718963623046875,0.9271870851516724
1772810240901005600,9.883005615234374,-5.573634624481201,-0.2562217712402344,0.923920750617981
1772810240910705700,9.89270556640625,-6.08824348449707,-1.5200796127319336,0.7045620679855347
1772810240920405800,9.90240576171875,-6.70339822769165,-2.683497905731201,0.2504984140396118
1772810240930105900,9.91210595703125,-6.831203937530518,-3.8006582260131836,-0.463528573513031
1772810240939806000,9.921805908203124,-6.580315589904785,-4.986397743225098,-1.1936266422271729
1772810240949505800,9.931505859375,-6.214280128479004,-6.185421466827393,-1.5137721300125122
1772810240959206000,9.941205810546874,-5.972342014312744,-7.488354682922363,-1.507544755935669
1772810240968906000,9.950906005859375,-5.848154067993164,-8.562524795532227,-1.3579015731811523
1772810240978606000,9.960606201171874,-5.8527116775512695,-9.232487678527832,-1.3053133487701416
1772810240988306200,9.97030615234375,-5.699443340301514,-9.59282398223877,-1.3423857688903809
1772810240998006300,9.98000634765625,-5.618815898895264,-9.720821380615234,-1.3746366500854492
1772810241007706400,9.989706298828125,-5.715527534484863,-9.584046363830566,-1.3087692260742188
1772810241017406500,9.999406494140626,-5.742158889770508,-9.20913028717041,-1.3044393062591553
1772810241027106600,10.0091064453125,-5.648257255554199,-8.915916442871094,-1.191938877105713
1772810241036806700,10.018806640625,-5.601250648498535,-8.45667839050293,-1.1820907592773438
1772810241046506500,10.028506591796875,-5.582303047180176,-7.909882545471191,-1.2714797258377075
1772810241056206600,10.03820654296875,-5.641946315765381,-7.6011199951171875,-1.1687891483306885
1772810241065906700,10.04790673828125,-5.736341953277588,-7.482475280761719,-0.9027367234230042
1772810241075606800,10.057606689453126,-5.504814624786377,-7.3742995262146,-0.5993995666503906
1772810241085307000,10.067306884765625,-5.218636989593506,-7.284409046173096,-0.22731566429138184
1772810241095007000,10.077007080078126,-4.914383411407471,-7.427452564239502,0.11657845973968506
1772810241104707000,10.08670703125,-4.7384443283081055,-7.46278190612793,0.5707892179489136
1772810241114407200,10.0964072265625,-4.650836944580078,-7.462472438812256,0.9203312993049622
1772810241124107300,10.106107177734375,-5.060915946960449,-7.277891159057617,1.0146199464797974
1772810241133807000,10.11580712890625,-5.5045576095581055,-6.9831976890563965,1.2587854862213135
1772810241143507200,10.125507080078124,-5.606852054595947,-6.823645114898682,1.3675594329833984
1772810241153207300,10.135207275390625,-5.391504764556885,-6.5025482177734375,1.395337700843811
1772810241162907400,10.144907470703124,-5.171103000640869,-5.668262481689453,1.1745516061782837
1772810241172607500,10.154607421875,-4.661254405975342,-4.507739543914795,0.5169338583946228
1772810241182307600,10.1643076171875,-3.760911464691162,-2.747790813446045,-0.20023976266384125
1772810241192007700,10.174007568359375,-2.5263397693634033,-0.25467395782470703,-0.9902814626693726
1772810241201707800,10.183707763671874,-0.47046470642089844,2.518003463745117,-1.4794825315475464
1772810241211408000,10.193407958984375,2.958828926086426,4.632847785949707,-0.662013828754425
1772810241221107700,10.203107666015624,6.062709331512451,6.470180511474609,1.3168082237243652
1772810241230808000,10.21280810546875,6.254463195800781,8.44461441040039,3.1286826133728027
1772810241240508000,10.2225078125,5.567176342010498,9.127206802368164,4.466673851013184
1772810241250208000,10.2322080078125,6.687785625457764,9.667608261108398,4.270925045013428
1772810241259908000,10.241908203125,8.6288480758667,11.18766975402832,2.16593599319458
1772810241269608200,10.251608154296875,11.020635604858398,12.41225814819336,-0.7410899996757507
1772810241279308300,10.261308349609376,14.747507095336914,14.029199600219727,-3.6626758575439453
1772810241289008400,10.27100830078125,19.626325607299805,15.657248497009277,-5.248157501220703
1772810241298708500,10.28070849609375,23.17278480529785,17.226490020751953,-5.261545181274414
1772810241308408600,10.29040869140625,23.912370681762695,17.468338012695312,-3.1614558696746826
1772810241318108700,10.300108642578126,22.50082015991211,17.029483795166016,-0.3200991451740265
1772810241327808500,10.30980859375,20.127304077148438,16.68541145324707,2.7266993522644043
1772810241337508600,10.319508544921876,17.6968994140625,16.330076217651367,4.974740505218506
1772810241347208700,10.329208740234375,16.190109252929688,15.790844917297363,5.806976318359375
1772810241356908800,10.33890869140625,15.515863418579102,14.688203811645508,5.3343586921691895
1772810241366609000,10.34860888671875,14.601222038269043,13.195818901062012,3.982614517211914
1772810241376309000,10.35830908203125,13.016693115234375,11.367122650146484,2.3964405059814453
1772810241386009000,10.368009033203125,10.508312225341797,9.3988037109375,0.8375514149665833
1772810241395709200,10.377709228515625,7.301881790161133,7.38469123840332,-0.4328639805316925
1772810241405409300,10.3874091796875,4.258048057556152,5.157934188842773,-0.9784691333770752
1772810241415109000,10.397109130859375,0.8987736701965332,2.970309257507324,-0.9770482778549194
1772810241424809200,10.406809326171874,-2.5385355949401855,0.8626976013183594,-0.5232435464859009
1772810241434509300,10.41650927734375,-5.815164089202881,-1.3429851531982422,0.11717212200164795
1772810241444209400,10.42620947265625,-8.327211380004883,-3.339085102081299,0.6134059429168701
1772810241453909500,10.435909423828125,-9.915528297424316,-5.313159942626953,1.1996982097625732
1772810241463609600,10.445609619140624,-9.878974914550781,-7.673449516296387,1.7300560474395752
1772810241473309700,10.455309814453125,-8.690455436706543,-10.003549575805664,1.747972846031189
1772810241483009800,10.465009765625,-6.871284008026123,-11.6795015335083,0.9901129007339478
1772810241492710000,10.4747099609375,-5.513841152191162,-12.373078346252441,-0.3572041988372803
1772810241502410000,10.484409912109374,-5.104965686798096,-12.271024703979492,-1.8615365028381348
1772810241512109800,10.49410986328125,-5.706737518310547,-11.840450286865234,-3.1833701133728027
1772810241521810000,10.503809814453126,-6.860866069793701,-10.897623062133789,-4.203460693359375
1772810241531510000,10.513510009765625,-8.362176895141602,-9.875105857849121,-4.829545974731445
1772810241541210000,10.523210205078126,-9.471963882446289,-8.912042617797852,-4.8535847663879395
1772810241550910200,10.53291015625,-9.459649085998535,-8.65489673614502,-3.952115774154663
1772810241560610300,10.5426103515625,-8.734024047851562,-8.628599166870117,-2.6795053482055664
1772810241570310400,10.552310302734375,-7.814692497253418,-8.09458065032959,-1.1432267427444458
1772810241580010500,10.562010498046876,-6.937202453613281,-7.970223426818848,0.5830795764923096
1772810241589710600,10.571710693359375,-5.950997352600098,-8.13513469696045,1.9135682582855225
1772810241599410400,10.581410400390626,-5.259775161743164,-8.157617568969727,2.559751510620117
1772810241609110500,10.591110595703125,-5.199702262878418,-8.111120223999023,2.427976608276367
1772810241618810600,10.600810546875,-5.308714866638184,-8.097982406616211,1.8123643398284912
1772810241628510700,10.6105107421875,-5.325679779052734,-7.937563419342041,1.0271458625793457
1772810241638210800,10.6202109375,-5.348989486694336,-7.942615985870361,0.4344650208950043
1772810241647911000,10.629910888671875,-5.043796539306641,-8.205110549926758,0.034181147813797
1772810241657611000,10.639611083984375,-4.5437703132629395,-8.478548049926758,-0.1977892518043518
1772810241667311000,10.64931103515625,-3.9658565521240234,-8.669547080993652,-0.2498290091753006
1772810241677011000,10.659010986328125,-3.2220211029052734,-8.912586212158203,-0.23497219383716583
1772810241686711300,10.668711181640624,-2.5098190307617188,-9.21363353729248,-0.025073662400245667
1772810241696411100,10.6784111328125,-1.9415154457092285,-9.451011657714844,0.3302825689315796
1772810241706111200,10.688111328125,-1.3796234130859375,-9.697344779968262,0.6588110327720642
1772810241715811300,10.697811279296875,-1.0723133087158203,-9.90532112121582,0.8895399570465088
1772810241725511400,10.707511474609374,-1.0962872505187988,-9.815153121948242,1.1232950687408447
1772810241735211500,10.71721142578125,-1.0005319118499756,-9.506370544433594,1.2527406215667725
1772810241744911600,10.72691162109375,-0.5646374225616455,-9.127581596374512,1.1338121891021729
1772810241754611700,10.73661181640625,-0.11181998252868652,-8.579522132873535,1.0832688808441162
1772810241764311800,10.746311767578124,0.03948855400085449,-7.893890380859375,1.1632896661758423
1772810241774012000,10.756011962890625,-0.4280259609222412,-7.391976833343506,1.4605321884155273
1772810241783711700,10.765711669921876,-1.3533234596252441,-6.799679756164551,1.7755016088485718
1772810241793411800,10.775411865234375,-2.4511733055114746,-5.6177978515625,2.28878116607666
1772810241803112000,10.78511181640625,-3.649940013885498,-4.105411529541016,2.4581573009490967
1772810241812812000,10.79481201171875,-4.1268205642700195,-2.627485752105713,2.399327278137207
1772810241822512000,10.80451220703125,-3.233647584915161,-0.7683839797973633,1.9430066347122192
1772810241832212200,10.814212158203125,-1.4903035163879395,2.2196617126464844,0.5728095769882202
1772810241841912300,10.823912353515626,0.7937798500061035,5.153865814208984,-1.3251062631607056
1772810241851612400,10.8336123046875,3.1497039794921875,7.076491355895996,-2.4782323837280273
1772810241861312500,10.8433125,5.106944561004639,7.608577728271484,-3.0013980865478516
1772810241871012400,10.853012451171875,7.231971740722656,8.69482421875,-3.6005985736846924
1772810241880712400,10.86271240234375,9.226868629455566,11.110857963562012,-3.974107027053833
1772810241890412500,10.87241259765625,10.986640930175781,12.597349166870117,-4.158998489379883
1772810241900112600,10.882112548828125,13.568592071533203,13.184833526611328,-4.825532913208008
1772810241909812700,10.891812744140625,16.034595489501953,13.735639572143555,-5.6631951332092285
1772810241919512800,10.901512939453125,16.763639450073242,15.065540313720703,-6.715567588806152
1772810241929213000,10.911212890625,16.15341567993164,16.386762619018555,-7.1842217445373535
1772810241938913000,10.9209130859375,14.742294311523438,17.20577049255371,-6.82280969619751
1772810241948613000,10.930613037109374,13.030792236328125,17.02348518371582,-5.1432695388793945
1772810241958313000,10.94031298828125,11.199398040771484,15.755002975463867,-2.9010086059570312
1772810241968013000,10.950012939453124,9.480867385864258,13.789977073669434,-0.5006837844848633
1772810241977713200,10.959713134765625,7.627466201782227,11.488834381103516,1.5795025825500488
1772810241987413200,10.969413330078124,5.685933589935303,9.018165588378906,2.825554847717285
1772810241997113300,10.97911328125,4.0044169425964355,6.581776142120361,3.1475980281829834
1772810242006813400,10.9888134765625,2.6577534675598145,4.0241827964782715,2.648674726486206
1772810242016513500,10.998513427734375,1.4654669761657715,1.8863234519958496,1.7365663051605225
1772810242026213600,11.008213623046874,0.2513856887817383,0.14669370651245117,0.6174718141555786
1772810242035913700,11.017913818359375,-0.9386396408081055,-1.4243364334106445,-0.33907413482666016
1772810242045613600,11.027613525390626,-2.107184886932373,-2.8526716232299805,-0.7206639051437378
1772810242055313700,11.037313720703125,-3.444481372833252,-4.197247505187988,-0.6207761168479919
1772810242065013800,11.047013671875,-4.7552618980407715,-5.64111328125,-0.053446054458618164
1772810242074713900,11.0567138671875,-5.916767120361328,-6.897228717803955,0.5808506608009338
1772810242084414000,11.0664140625,-6.818573951721191,-7.765392780303955,0.932858943939209
1772810242094114000,11.076114013671875,-7.3571319580078125,-8.456977844238281,1.1606907844543457
1772810242103814100,11.085814208984376,-7.630044937133789,-8.978025436401367,1.5718104839324951
1772810242113514200,11.09551416015625,-7.8159499168396,-9.299826622009277,1.7790989875793457
1772810242123214300,11.10521435546875,-7.764154434204102,-9.309364318847656,1.6951979398727417
1772810242132914200,11.1149140625,-7.559481620788574,-9.039847373962402,1.4198042154312134
1772810242142614300,11.1246142578125,-7.694979667663574,-8.732144355773926,1.2162009477615356
1772810242152314400,11.134314453125,-7.957842826843262,-8.497386932373047,1.1418582201004028
1772810242162014500,11.144014404296875,-7.781839847564697,-8.195401191711426,1.0208916664123535
1772810242171714600,11.153714599609375,-7.404766082763672,-7.880841255187988,1.1198104619979858
1772810242181414700,11.16341455078125,-6.9920854568481445,-7.899985313415527,1.6843191385269165
1772810242191114800,11.17311474609375,-6.743826389312744,-7.949459075927734,2.4424796104431152
1772810242200814800,11.18281494140625,-6.577164173126221,-7.868216037750244,2.866914987564087
1772810242210515000,11.192514892578124,-6.076854705810547,-7.657308101654053,2.8702335357666016
1772810242220215000,11.202215087890625,-5.455528736114502,-7.564668655395508,2.567218542098999
1772810242229915000,11.211914794921874,-4.782541751861572,-7.509358882904053,2.1885242462158203
1772810242239615000,11.221614990234375,-3.8868632316589355,-7.072143077850342,1.546393871307373
1772810242249315000,11.231315185546874,-3.0102367401123047,-6.197083473205566,0.7674089670181274
1772810242259015200,11.24101513671875,-2.11922025680542,-4.938859462738037,0.12361836433410645
1772810242268715300,11.25071533203125,-1.173126220703125,-3.0471296310424805,-0.7774945497512817
1772810242278415400,11.260415283203125,-0.15561389923095703,-0.7535862922668457,-1.7857470512390137
1772810242288115500,11.270115478515624,0.8752727508544922,1.5643134117126465,-2.5543642044067383
1772810242297815600,11.279815673828125,2.734381675720215,3.2807741165161133,-2.308601140975952
1772810242307515400,11.289515380859376,5.114500999450684,5.072137355804443,-1.2460644245147705
1772810242317215500,11.299215576171875,7.7685160636901855,6.392876148223877,0.0211179256439209
1772810242326915600,11.30891552734375,10.084860801696777,7.560309886932373,0.6673181653022766
1772810242336615700,11.31861572265625,11.832189559936523,8.598594665527344,0.6474195718765259
1772810242346315800,11.328315673828126,12.590011596679688,9.16585922241211,0.08143472671508789
1772810242356015900,11.338015869140625,12.325050354003906,10.014500617980957,-0.8467628359794617
1772810242365716000,11.347716064453126,11.157482147216797,10.945444107055664,-1.440444827079773
1772810242375416000,11.357416015625,10.011981010437012,12.03431510925293,-1.6221503019332886
1772810242385116200,11.3671162109375,9.33948040008545,12.880218505859375,-1.6270394325256348
1772810242394816000,11.37681591796875,8.570526123046875,13.235443115234375,-0.8544516563415527
1772810242404516000,11.38651611328125,8.272687911987305,12.502609252929688,0.11546307802200317
1772810242414216200,11.39621630859375,8.81640625,11.026866912841797,0.9159204959869385
1772810242423916300,11.405916259765625,9.654440879821777,9.759688377380371,0.9502575397491455
1772810242433616400,11.415616455078125,10.331160545349121,8.150914192199707,0.6153139472007751
1772810242443316500,11.42531640625,10.27684211730957,6.881839752197266,0.09804907441139221
1772810242453016600,11.4350166015625,8.924552917480469,5.62936544418335,-0.4789426624774933
1772810242462716700,11.444716552734375,6.648285865783691,4.397876739501953,-0.6521523594856262
1772810242472416800,11.454416748046874,3.603905200958252,3.5890750885009766,-0.06375537812709808
1772810242482116600,11.46411669921875,-0.1164093017578125,3.0823593139648438,1.3843307495117188
1772810242491816700,11.473816650390624,-2.88116192817688,2.9495763778686523,3.3584349155426025
1772810242501516800,11.483516845703125,-5.24256706237793,2.6588973999023438,4.331892013549805
1772810242511217000,11.493216796875,-6.490108013153076,1.5579242706298828,4.221799373626709
1772810242520917000,11.5029169921875,-6.228787422180176,0.44742679595947266,3.0204410552978516
1772810242530617000,11.5126171875,-5.693297386169434,-0.9683055877685547,1.6075414419174194
1772810242540317200,11.522317138671875,-4.871984004974365,-2.206904411315918,0.28881630301475525
1772810242550017300,11.532017333984374,-4.575841903686523,-3.2234206199645996,-0.8977428674697876
1772810242559717000,11.541717041015625,-3.964200973510742,-4.065120697021484,-1.3230267763137817
1772810242569417200,11.551417236328126,-4.831821441650391,-5.107647895812988,-1.8033565282821655
1772810242579117300,11.561117431640625,-4.435410976409912,-6.283841133117676,-1.7125613689422607
1772810242588817400,11.5708173828125,-4.535468578338623,-6.280851364135742,-0.9805002212524414
1772810242598517500,11.580517578125,-4.056405544281006,-6.752850532531738,-0.5782333612442017
1772810242608217600,11.590217529296876,-3.5315046310424805,-6.723369598388672,-0.7048075199127197
1772810242617917700,11.599917724609375,-3.3436102867126465,-6.509032249450684,-0.4442683756351471
1772810242627617800,11.60961767578125,-3.890641212463379,-6.034132957458496,0.19250473380088806
1772810242637318000,11.61931787109375,-4.431818962097168,-5.895746231079102,0.733187198638916
1772810242647017700,11.629017822265626,-4.825443267822266,-5.511516094207764,0.7649281620979309
1772810242656717800,11.6387177734375,-5.318284034729004,-5.365416049957275,0.4600306451320648
1772810242666418000,11.64841796875,-5.950329303741455,-5.385405540466309,0.22829657793045044
1772810242676118000,11.658117919921875,-6.434393882751465,-5.383890151977539,0.07571494579315186
1772810242685818000,11.667818115234375,-6.87761926651001,-5.312534332275391,0.15979576110839844
1772810242695518200,11.677518310546875,-7.300967216491699,-5.166226863861084,0.24163204431533813
1772810242705218300,11.68721826171875,-7.428262233734131,-5.038852214813232,0.3307681679725647
1772810242714918400,11.69691845703125,-7.282962799072266,-4.998012065887451,0.5162417888641357
1772810242724618200,11.7066181640625,-6.651943206787109,-4.915916919708252,0.7080929279327393
1772810242734318300,11.716318359375,-5.526124477386475,-4.938938617706299,0.5226945281028748
1772810242744018400,11.726018310546875,-4.248571395874023,-4.948169231414795,0.21900635957717896
1772810242753718500,11.735718505859374,-2.8257107734680176,-5.151556968688965,0.023917078971862793
1772810242763418600,11.745418701171875,-1.8266143798828125,-4.9734697341918945,-0.0708269476890564
1772810242773118700,11.75511865234375,-1.2431764602661133,-4.324416160583496,0.1886221170425415
1772810242782818800,11.76481884765625,-0.4990272521972656,-3.25601863861084,0.1500675082206726
1772810242792519000,11.774518798828124,-0.30531978607177734,-1.7816596031188965,-0.23445451259613037
1772810242802218800,11.78421875,-0.5420341491699219,-0.5190672874450684,-0.5641925930976868
1772810242811919000,11.793919189453124,-0.7853407859802246,0.614598274230957,-0.6311776638031006
1772810242821619000,11.803618896484375,-0.9643821716308594,1.5022459030151367,0.069133460521698
1772810242831319000,11.813319091796876,-1.0424675941467285,1.9491825103759766,1.4756879806518555
1772810242841019100,11.82301904296875,-0.9774665832519531,2.2862000465393066,3.114588975906372
1772810242850719200,11.83271923828125,-1.2267255783081055,2.9003801345825195,4.1900529861450195
1772810242860419300,11.84241943359375,-0.8686666488647461,3.0995264053344727,4.23255729675293
1772810242870119400,11.852119384765626,-0.9050168991088867,2.840071201324463,3.819072961807251
