time,seconds_elapsed,z,y,x
1772810365869099800,0.127099853515625,-1.2812888622283936,-0.9860121011734009,0.04558578506112099
1772810365888499700,0.146499755859375,-1.6994258165359497,-0.9328668713569641,0.131717711687088
1772810365898199600,0.156199462890625,-1.7431026697158813,-1.1690424680709839,0.26305365562438965
1772810365907899600,0.165899658203125,-1.554650902748108,-1.5150209665298462,0.08804088830947876
1772810365917599500,0.175599609375,-1.109025001525879,-1.2318851947784424,-0.3142135739326477
1772810365927299300,0.18529931640625,-0.5323686599731445,-0.05566505342721939,-0.7500655651092529
1772810365936999400,0.19499951171875,-0.05406153202056885,0.7417425513267517,-1.1993566751480103
1772810365946699300,0.20469921875,0.13591741025447845,0.17363831400871277,-1.6984331607818604
1772810365956399400,0.2143994140625,0.11942406743764877,-1.2108103036880493,-2.2469897270202637
1772810365966099200,0.22409912109375,0.0870482325553894,-2.2517240047454834,-2.6767330169677734
1772810365975799000,0.233799072265625,0.09010255336761475,-2.4701080322265625,-2.8893139362335205
1772810365985499100,0.2434990234375,0.14080433547496796,-2.169562578201294,-2.958036422729492
1772810365995199000,0.253198974609375,0.26419901847839355,-1.771278738975525,-2.904891014099121
1772810366004899000,0.262899169921875,0.4459312856197357,-1.411173939704895,-2.75981068611145
1772810366014599000,0.272598876953125,0.5497782826423645,-0.9429461359977722,-2.5417320728302
1772810366024298800,0.282298828125,0.546113133430481,-0.3736201822757721,-2.2918882369995117
1772810366033998800,0.291998779296875,0.4682278633117676,0.09178243577480316,-2.0417392253875732
1772810366043698700,0.30169873046875,0.3906480371952057,0.5471821427345276,-1.7534109354019165
1772810366053398800,0.311398681640625,0.37323838472366333,1.0187697410583496,-1.4156028032302856
1772810366063098600,0.3210986328125,0.4257727563381195,1.2246311902999878,-1.075656533241272
1772810366072798500,0.330798583984375,0.5238165259361267,1.15132737159729,-0.799240231513977
1772810366082498600,0.34049853515625,0.6612611413002014,1.0065524578094482,-0.6266708970069885
1772810366092198400,0.350198486328125,0.8341358304023743,0.7704532146453857,-0.5347357392311096
1772810366101898500,0.3598984375,1.0290017127990723,0.46227192878723145,-0.4837285578250885
1772810366111598300,0.369598388671875,1.2049307823181152,0.11377356201410294,-0.45623964071273804
1772810366121298200,0.379298095703125,1.2999202013015747,-0.23067781329154968,-0.441884309053421
1772810366130998300,0.388998291015625,1.3170244693756104,-0.5587121844291687,-0.4684569239616394
1772810366140698000,0.398697998046875,1.3139700889587402,-0.8045852780342102,-0.5695550441741943
1772810366150398200,0.408398193359375,1.3197733163833618,-0.7694605588912964,-0.7512873411178589
1772810366160098000,0.41809814453125,1.3374884128570557,-0.3977493345737457,-1.018846035003662
1772810366169798000,0.4277978515625,1.3668099641799927,0.11133010685443878,-1.3432153463363647
1772810366179498000,0.437498046875,1.4385865926742554,0.5578722357749939,-1.6028327941894531
1772810366189197800,0.44719775390625,1.581223487854004,0.9060651659965515,-1.870697021484375
1772810366198897700,0.456897705078125,1.7739512920379639,1.0175479650497437,-2.1520001888275146
1772810366208597800,0.46659765625,2.0131049156188965,0.7057015299797058,-2.412228584289551
1772810366218297600,0.476297607421875,2.269362688064575,0.24510949850082397,-2.5738024711608887
1772810366227997700,0.485997802734375,2.5995349884033203,-0.0907897800207138,-2.538066864013672
1772810366237697500,0.495697509765625,3.0558509826660156,-0.2193768173456192,-2.2879176139831543
1772810366247397400,0.5053974609375,3.350287914276123,-0.20044000446796417,-1.9213987588882446
1772810366257097500,0.515097412109375,3.2763731479644775,-0.1885281354188919,-1.5426626205444336
1772810366266797300,0.52479736328125,2.9095489978790283,-0.2920697331428528,-1.184695839881897
1772810366276497200,0.5344970703125,2.4068071842193604,-0.4356229603290558,-0.8361974954605103
1772810366286197200,0.544197265625,1.9147557020187378,-0.6112465858459473,-0.488004595041275
1772810366295897000,0.55389697265625,1.5274673700332642,-0.8671988844871521,-0.14744748175144196
1772810366305597000,0.563596923828125,1.2550216913223267,-1.1503347158432007,0.189444437623024
1772810366315297000,0.573297119140625,1.2409718036651611,-1.2807543277740479,0.46799877285957336
1772810366324996900,0.582996826171875,1.4944807291030884,-1.1103230714797974,0.5089266896247864
1772810366334697000,0.592697021484375,1.6209297180175781,-1.1463640928268433,0.3433823585510254
1772810366344396800,0.602396728515625,1.5274673700332642,-1.5357904434204102,0.022983787581324577
1772810366354096600,0.6120966796875,1.386052131652832,-1.8855104446411133,-0.2946659028530121
1772810366363796700,0.621796630859375,1.4049890041351318,-1.781358003616333,-0.5161044001579285
1772810366373496600,0.63149658203125,1.5274673700332642,-1.1799616813659668,-0.5906298756599426
1772810366383196700,0.64119677734375,1.701563835144043,-0.4554760456085205,-0.5057196617126465
1772810366392896500,0.650896484375,1.8194607496261597,0.304974228143692,-0.19478951394557953
1772810366402596600,0.6605966796875,1.57297682762146,0.9372192621231079,0.4032471179962158
1772810366412296400,0.67029638671875,1.1710277795791626,1.0404554605484009,1.2071452140808105
1772810366421996300,0.679996337890625,0.8671225309371948,0.4851793646812439,2.0031020641326904
1772810366431696400,0.6896962890625,0.6362156867980957,-0.4716639816761017,2.619770050048828
1772810366441396200,0.699396240234375,0.40347617864608765,-1.4444661140441895,2.996673583984375
1772810366451096300,0.709096435546875,0.23182319104671478,-2.2431719303131104,3.1301474571228027
1772810366460796200,0.718796142578125,0.14508038759231567,-2.862894058227539,3.071810007095337
1772810366470496000,0.72849609375,0.13439024984836578,-3.236743450164795,2.9145121574401855
1772810366480196000,0.738196044921875,0.14233149588108063,-3.2801148891448975,2.6796348094940186
1772810366489896000,0.74789599609375,0.13683371245861053,-3.072726249694824,2.3723697662353516
1772810366499596000,0.757595947265625,0.16737695038318634,-2.7602689266204834,2.0232605934143066
1772810366509295900,0.7672958984375,0.20280711352825165,-2.4554474353790283,1.5831323862075806
1772810366518995700,0.77699560546875,0.2003636509180069,-2.238895893096924,1.035492181777954
1772810366528695800,0.78669580078125,0.23548837006092072,-1.7975460290908813,0.6252964735031128
1772810366538395600,0.796395751953125,0.28527384996414185,-1.4023164510726929,0.3216966688632965
1772810366548095500,0.806095458984375,0.30482152104377747,-1.0852776765823364,0.08498656004667282
1772810366557795600,0.815795654296875,0.30573782324790955,-0.8293253183364868,-0.06467530876398087
1772810366567495400,0.825495361328125,0.27488914132118225,-0.6582831740379333,-0.09827287495136261
1772810366577195300,0.8351953125,0.2458730787038803,-0.6136900186538696,-0.016416991129517555
1772810366586895400,0.844895263671875,0.25473061203956604,-0.7444151043891907,0.1530979871749878
1772810366596595200,0.85459521484375,0.23976442217826843,-0.8757510185241699,0.39194610714912415
1772810366606295300,0.86429541015625,0.1533270627260208,-0.8562033176422119,0.6677515506744385
1772810366615995100,0.8739951171875,-0.000610864779446274,-0.7199804782867432,0.9600503444671631
1772810366625695200,0.8836953125,-0.20769402384757996,-0.5370265245437622,1.2489893436431885
1772810366635395000,0.89339501953125,-0.4309650957584381,-0.3375791609287262,1.5299872159957886
1772810366645095200,0.90309521484375,-0.5864301919937134,-0.2822958827018738,1.7703624963760376
1772810366654795000,0.912794921875,-0.6808087825775146,-0.33513569831848145,1.9707261323928833
1772810366664494800,0.922494873046875,-0.7651081085205078,-0.36598435044288635,2.194607973098755
1772810366674195000,0.93219482421875,-0.8805615901947021,-0.414242684841156,2.440786600112915
1772810366683894800,0.941894775390625,-1.0137300491333008,-0.544051468372345,2.6658902168273926
1772810366693595000,0.951594970703125,-1.1319323778152466,-0.7212022542953491,2.8424301147460938
1772810366703294700,0.961294677734375,-1.219896912574768,-0.8742238283157349,2.9814019203186035
1772810366712994600,0.97099462890625,-1.2791508436203003,-0.9554688930511475,3.0910520553588867
1772810366722694700,0.980694580078125,-1.341459035873413,-0.9970076680183411,3.1377832889556885
1772810366732394500,0.99039453125,-1.4352267980575562,-1.035186767578125,3.1191518306732178
1772810366742094300,1.00009423828125,-1.551901936531067,-1.0721440315246582,3.0229406356811523
1772810366751794400,1.00979443359375,-1.6679662466049194,-1.0907753705978394,2.8647267818450928
1772810366761494300,1.019494384765625,-1.7669264078140259,-1.1039090156555176,2.6762750148773193
1772810366771194400,1.0291943359375,-1.8353432416915894,-1.1026872396469116,2.4924046993255615
1772810366780894200,1.038894287109375,-1.8759657144546509,-1.0663408041000366,2.3024256229400635
1772810366790594000,1.048593994140625,-1.897346019744873,-1.0180824995040894,2.0950372219085693
1772810366800294100,1.058294189453125,-1.8994840383529663,-0.9560797214508057,1.8519129753112793
1772810366809994000,1.067993896484375,-1.8781037330627441,-0.8730021119117737,1.5727477073669434
1772810366819694000,1.077694091796875,-1.8390084505081177,-0.7578541040420532,1.2618175745010376
1772810366829394000,1.087393798828125,-1.7831143140792847,-0.6188823580741882,0.9288962483406067
1772810366839094000,1.097093994140625,-1.7174463272094727,-0.4542543292045593,0.5926151871681213
1772810366848793900,1.1067939453125,-1.634368658065796,-0.26396992802619934,0.2560287117958069
1772810366858493700,1.11649365234375,-1.56350839138031,-0.06727148592472076,-0.08513928204774857
1772810366868193800,1.12619384765625,-1.4963133335113525,0.17088942229747772,-0.37835437059402466
1772810366877893600,1.1358935546875,-1.339931845664978,0.48334676027297974,-0.5115228891372681
1772810366887593700,1.14559375,-1.0143409967422485,0.6690496206283569,-0.538706362247467
1772810366897293600,1.15529345703125,-0.5433642268180847,0.5276344418525696,-0.6416370868682861
1772810366906993400,1.164993408203125,-0.006108647678047419,0.0011453714687377214,-0.9534835815429688
1772810366916693500,1.174693603515625,0.4828886091709137,-0.7037925720214844,-1.4403427839279175
1772810366926393300,1.184393310546875,0.8316923975944519,-1.4365248680114746,-1.982179880142212
1772810366936093400,1.194093505859375,1.0060943365097046,-2.0250930786132812,-2.5768566131591797
1772810366945793300,1.203793212890625,1.1163554191589355,-2.289597511291504,-3.217042922973633
1772810366955493000,1.2134931640625,1.2049307823181152,-2.1512367725372314,-3.8502042293548584
1772810366965193200,1.223193115234375,1.25715970993042,-1.5028036832809448,-4.372493743896484
1772810366974893000,1.23289306640625,1.2733476161956787,-0.3372737169265747,-4.675787925720215
1772810366984593200,1.24259326171875,1.295338749885559,1.0147991180419922,-4.713967323303223
1772810366994293000,1.25229296875,1.34237539768219,2.1696388721466064,-4.486725330352783
1772810367003993000,1.2619931640625,1.3826924562454224,2.8345654010772705,-3.9983389377593994
1772810367013693000,1.27169287109375,1.352454662322998,3.053560256958008,-3.3691482543945312
1772810367023392800,1.281392822265625,1.2617411613464355,2.780503749847412,-2.706360101699829
1772810367033092900,1.2910927734375,1.1475094556808472,2.1990368366241455,-2.071671485900879
1772810367042792700,1.300792724609375,1.0360267162322998,1.559385061264038,-1.5221986770629883
1772810367052492800,1.310492919921875,0.9416480660438538,0.986393928527832,-1.1373538970947266
1772810367062192600,1.320192626953125,0.9111047983169556,0.523969292640686,-0.9165262579917908
1772810367071892500,1.329892578125,0.9587522745132446,0.22464552521705627,-0.7854957580566406
1772810367081592600,1.339592529296875,1.0192278623580933,0.1314886510372162,-0.6819541454315186
1772810367091292400,1.34929248046875,1.007315993309021,0.1724165827035904,-0.5759690999984741
1772810367100992500,1.358992431640625,0.8985821008682251,0.2078467458486557,-0.47059494256973267
1772810367110692400,1.3686923828125,0.7095194458961487,0.22250749170780182,-0.3551415205001831
1772810367120392400,1.378392333984375,0.4740310609340668,0.22953243553638458,-0.23327398300170898
1772810367130092300,1.38809228515625,0.22815799713134766,0.22678354382514954,-0.12392919510602951
1772810367139792400,1.39779248046875,0.003970621153712273,0.21151192486286163,-0.04787652567028999
1772810367149492200,1.4074921875,-0.16798780858516693,0.1876882016658783,-0.007864884100854397
1772810367159192000,1.417192138671875,-0.2721402645111084,0.1406516134738922,0.005574141163378954
1772810367168892200,1.42689208984375,-0.3176496922969818,0.053603384643793106,0.008017600513994694
1772810367178592000,1.436592041015625,-0.31031930446624756,-0.08498656004667282,0.0077121676877141
1772810367188291800,1.446291748046875,-0.2770271897315979,-0.25877758860588074,0.010461059398949146
1772810367197992000,1.455991943359375,-0.2458730787038803,-0.4469239413738251,0.02848157100379467
1772810367207691800,1.46569189453125,-0.22266021370887756,-0.6262127757072449,0.0758235901594162
1772810367217391900,1.475391845703125,-0.20127993822097778,-0.7896190881729126,0.15676318109035492
1772810367227091700,1.485091796875,-0.16279546916484833,-0.9127083420753479,0.2853502035140991
1772810367236791800,1.494791748046875,-0.11423171311616898,-0.9686024785041809,0.4563923478126526
1772810367246491600,1.50449169921875,-0.08796452730894089,-0.9579123258590698,0.6549233794212341
1772810367256191700,1.514191650390625,-0.11606431007385254,-0.9362266063690186,0.85834139585495
1772810367265891600,1.5238916015625,-0.20677772164344788,-0.923398494720459,1.0574833154678345
1772810367275591400,1.53359130859375,-0.31062474846839905,-0.9059888124465942,1.257541537284851
1772810367285291500,1.54329150390625,-0.39828383922576904,-0.9026290774345398,1.449047565460205
1772810367294991400,1.552991455078125,-0.5015199780464172,-0.886441171169281,1.5864921808242798
1772810367304691200,1.562691162109375,-0.6230821013450623,-0.839099109172821,1.6411645412445068
1772810367314391300,1.572391357421875,-0.7342594861984253,-0.7957277297973633,1.6106213331222534
1772810367324091100,1.582091064453125,-0.8301652073860168,-0.7624356150627136,1.4817289113998413
1772810367333791200,1.591791259765625,-0.9013310074806213,-0.7331140637397766,1.2382992506027222
1772810367343491000,1.601490966796875,-0.9086613655090332,-0.7080686092376709,0.8910226225852966
1772810367353191200,1.611191162109375,-0.6719512343406677,-0.6567559838294983,0.4249328076839447
1772810367362891000,1.62089111328125,-0.4111120104789734,-0.5376373529434204,-0.13858994841575623
1772810367372591000,1.630591064453125,-0.3246746361255646,-0.33452481031417847,-0.678288996219635
1772810367382291000,1.640291015625,-0.3399462401866913,-0.0962875634431839,-1.1281908750534058
1772810367391990800,1.64999072265625,-0.268169641494751,0.17188207805156708,-1.424765706062317
1772810367401691000,1.65969091796875,-0.14782927930355072,0.3657552897930145,-1.4901282787322998
1772810367411390700,1.669390625,-0.07391463965177536,0.38560840487480164,-1.4522546529769897
1772810367421090800,1.6790908203125,-0.08277218043804169,0.228921577334404,-1.464166522026062
1772810367430790700,1.688790771484375,-0.11148282140493393,-0.2508363425731659,-1.6972113847732544
1772810367440490500,1.698490478515625,-0.0769689604640007,-0.8934661149978638,-2.090913772583008
1772810367450190600,1.708190673828125,-0.029016077518463135,-1.3561961650848389,-2.435136079788208
1772810367459890400,1.717890380859375,-0.03817904740571976,-1.5657228231430054,-2.6098434925079346
1772810367469590500,1.727590576171875,-0.021380268037319183,-1.5101341009140015,-2.6846742630004883
1772810367479290400,1.737290283203125,0.05711585655808449,-1.1646900177001953,-2.745149850845337
1772810367488990500,1.746990478515625,0.13530655205249786,-0.4551706314086914,-2.7277402877807617
1772810367498690300,1.756690185546875,0.23304490745067596,0.7399099469184875,-2.443688154220581
1772810367508390400,1.766390380859375,0.38331764936447144,2.162308692932129,-1.796782374382019
1772810367518090200,1.77609033203125,0.5845975875854492,3.082576274871826,-0.955621600151062
1772810367527790000,1.7857900390625,0.8222240209579468,3.297600746154785,-0.09460768103599548
1772810367537490200,1.795490234375,1.016784429550171,2.7933318614959717,0.6619483232498169
1772810367547190000,1.80518994140625,1.0867284536361694,1.7001893520355225,1.1940115690231323
1772810367556890000,1.81489013671875,1.0290017127990723,0.4185950756072998,1.4805071353912354
1772810367566590000,1.82458984375,0.8863648176193237,-0.5269472599029541,1.5733586549758911
1772810367576290000,1.8342900390625,0.7229584455490112,-0.857119619846344,1.5110503435134888
1772810367585990000,1.843989990234375,0.5702422857284546,-0.654617965221405,1.3555853366851807
1772810367595690000,1.85368994140625,0.4633409380912781,-0.12102758139371872,1.1564433574676514
1772810367605389800,1.863389892578125,0.3536907136440277,0.5233584046363831,0.9420298337936401
1772810367615089700,1.873089599609375,0.14508038759231567,1.1436915397644043,0.7230347990989685
1772810367624789800,1.882789794921875,-0.22266021370887756,1.614973783493042,0.49426597356796265
1772810367634489600,1.892489501953125,-0.7531962990760803,1.8489350080490112,0.2813795804977417
1772810367644189400,1.902189453125,-1.3271037340164185,1.8782564401626587,0.13965895771980286
1772810367653889500,1.9118896484375,-1.748905897140503,1.7957897186279297,0.11094831675291061
1772810367663589600,1.921589599609375,-1.915671944618225,1.7047709226608276,0.15981750190258026
1772810367673289500,1.93128955078125,-1.908647060394287,1.6617048978805542,0.23892448842525482
1772810367682989600,1.940989501953125,-1.8417572975158691,1.6574288606643677,0.3794233798980713
1772810367692689400,1.950689453125,-1.7519601583480835,1.66934072971344,0.6372083425521851
1772810367702389200,1.96038916015625,-1.6300926208496094,1.6943861246109009,1.050763726234436
1772810367712089300,1.97008935546875,-1.510363221168518,1.743560791015625,1.5864921808242798
1772810367721789200,1.9797890625,-1.443168044090271,1.7487531900405884,2.172922372817993
1772810367731489000,1.989489013671875,-1.4303399324417114,1.5951206684112549,2.7501895427703857
1772810367741189000,1.999189208984375,-1.461188554763794,1.2163845300674438,3.267897605895996
1772810367750889000,2.008888916015625,-1.4981458187103271,0.6794343590736389,3.6640431880950928
1772810367760589000,2.018589111328125,-1.5106686353683472,0.06582067906856537,3.9178576469421387
1772810367770289200,2.0282890625,-1.4981458187103271,-0.5290852785110474,4.044306755065918
1772810367779989000,2.037989013671875,-1.4450006484985352,-1.0165553092956543,4.062938213348389
1772810367789688800,2.047688720703125,-1.351232886314392,-1.3320670127868652,3.976806163787842
1772810367799389000,2.057388916015625,-1.2241730690002441,-1.4497348070144653,3.7865216732025146
1772810367809088800,2.0670888671875,-1.1053597927093506,-1.4374412298202515,3.49727725982666
1772810367818788600,2.07678857421875,-1.028390884399414,-1.3604722023010254,3.1658830642700195
1772810367828488700,2.08648876953125,-0.9929606914520264,-1.2295180559158325,2.8583126068115234
1772810367838188500,2.0961884765625,-0.9844086170196533,-1.0596213340759277,2.593808174133301
1772810367847888600,2.105888671875,-0.998763918876648,-0.9282854199409485,2.3549599647521973
1772810367857588500,2.11558837890625,-1.038164734840393,-0.8684206604957581,2.1124467849731445
1772810367867288600,2.12528857421875,-1.1050543785095215,-0.8568142056465149,1.8540509939193726
1772810367876988400,2.134988525390625,-1.1850776672363281,-0.8876628875732422,1.5748857259750366
1772810367886688500,2.1446884765625,-1.2428044080734253,-0.9444733262062073,1.2660936117172241
1772810367896388400,2.154388427734375,-1.2568542957305908,-0.9756274223327637,0.9307288527488708
1772810367906088200,2.164088134765625,-1.2272273302078247,-0.9371429085731506,0.5669588446617126
1772810367915788300,2.173788330078125,-1.1588104963302612,-0.8247438073158264,0.18211406469345093
1772810367925488000,2.183488037109375,-1.0467168092727661,-0.6387354731559753,-0.19723296165466309
1772810367935188200,2.193188232421875,-0.8909462690353394,-0.3785070776939392,-0.5515345335006714
1772810367944888000,2.20288818359375,-0.7076868414878845,-0.08468113094568253,-0.8820123672485352
1772810367954588200,2.212588134765625,-0.5213730931282043,0.21670427918434143,-1.1443787813186646
1772810367964288000,2.2222880859375,-0.3549124300479889,0.49281516671180725,-1.2912918329238892
1772810367973988000,2.231988037109375,-0.21197007596492767,0.6916516423225403,-1.3303871154785156
1772810367983688000,2.24168798828125,-0.08368847519159317,0.7429642677307129,-1.3053417205810547
1772810367993387800,2.2513876953125,0.10659590363502502,0.5083922147750854,-1.2705223560333252
1772810368003088000,2.261087890625,0.5024362802505493,-0.12560907006263733,-1.3484076261520386
1772810368012787700,2.27078759765625,1.1084141731262207,-1.1286489963531494,-1.6657519340515137
1772810368022487800,2.28048779296875,1.7095050811767578,-2.273104190826416,-2.1935391426086426
1772810368032187600,2.290187744140625,2.095877170562744,-3.2966082096099854,-2.840444803237915
1772810368041887700,2.2998876953125,2.2418737411499023,-3.9673376083374023,-3.413130521774292
1772810368051587600,2.309587646484375,2.201862096786499,-4.191830635070801,-3.7885069847106934
1772810368061287700,2.31928759765625,1.9862267971038818,-3.83539080619812,-3.9308385848999023
1772810368070987500,2.328987548828125,1.5711442232131958,-2.5034003257751465,-3.775984287261963
1772810368080687400,2.338687255859375,1.0036507844924927,-0.3519344627857208,-3.440924882888794
1772810368090387500,2.348387451171875,0.5079340934753418,1.6919426918029785,-3.016984701156616
1772810368100087300,2.35808740234375,0.2309068888425827,2.911228895187378,-2.5285983085632324
1772810368109787400,2.367787353515625,0.15485422313213348,3.1164793968200684,-1.9326997995376587
1772810368119487200,2.3774873046875,0.18723005056381226,2.4940080642700195,-1.2265400886535645
1772810368138887200,2.39688720703125,0.28954991698265076,-0.0206166859716177,0.22059854865074158
1772810368148587300,2.406587158203125,0.3283398151397705,-1.2093595266342163,0.7569378018379211
1772810368158287000,2.416287109375,0.3197877109050751,-2.1228315830230713,1.0916917324066162
1772810368167987000,2.425987060546875,0.08124501258134842,-2.731252670288086,1.2712860107421875
1772810368177687000,2.43568701171875,-0.4043924808502197,-2.8812201023101807,1.3784927129745483
1772810368187387000,2.445386962890625,-0.9706641435623169,-2.561432361602783,1.3855177164077759
1772810368197087000,2.4550869140625,-1.4621047973632812,-1.9554544687271118,1.2389100790023804
1772810368206787000,2.464787109375,-1.8102977275848389,-1.2215005159378052,0.9737948179244995
1772810368216487000,2.47448681640625,-2.0018038749694824,-0.45791950821876526,0.6500364542007446
1772810368226186800,2.484186767578125,-2.0683882236480713,0.22464552521705627,0.3079521954059601
1772810368235886800,2.493886962890625,-2.0586142539978027,0.7869465351104736,-0.03138317912817001
1772810368245586700,2.503586669921875,-2.0192134380340576,1.2099703550338745,-0.3206276595592499
1772810368255286500,2.51328662109375,-1.9382739067077637,1.4146101474761963,-0.4938078224658966
1772810368264986600,2.522986572265625,-1.795331597328186,1.3568834066390991,-0.5136609077453613
1772810368274686700,2.532686767578125,-1.601076602935791,1.096960425376892,-0.3856847584247589
1772810368284386600,2.542386474609375,-1.3637555837631226,0.7689260244369507,-0.1453094631433487
1772810368294086700,2.552086669921875,-1.0943642854690552,0.4992292523384094,0.13446660339832306
1772810368303786500,2.561786376953125,-0.8445205688476562,0.3058905303478241,0.3885863721370697
1772810368313486300,2.571486328125,-0.6447677612304688,0.12202023714780807,0.5880337357521057
1772810368323186400,2.5811865234375,-0.4831940531730652,-0.04864010959863663,0.7352521419525146
1772810368332886300,2.59088623046875,-0.34788748621940613,-0.1839466542005539,0.8256601095199585
1772810368342586400,2.60058642578125,-0.2528980076313019,-0.3000109791755676,0.8488729596138
1772810368352286200,2.6102861328125,-0.2110537886619568,-0.4151589870452881,0.7993929386138916
1772810368361986300,2.619986328125,-0.21868959069252014,-0.4805215001106262,0.6747764945030212
1772810368371686100,2.62968603515625,-0.2522871494293213,-0.47838348150253296,0.4863247275352478
1772810368381386200,2.63938623046875,-0.28985533118247986,-0.4411207437515259,0.25816673040390015
1772810368391086000,2.649086181640625,-0.33719736337661743,-0.3888917863368988,0.008323032408952713
1772810368400786000,2.658785888671875,-0.38301220536231995,-0.30978479981422424,-0.23999349772930145
1772810368410486000,2.668486083984375,-0.40836310386657715,-0.21754421293735504,-0.47670361399650574
1772810368420185900,2.678185791015625,-0.42974337935447693,-0.1378263682126999,-0.705472469329834
1772810368429886000,2.687885986328125,-0.47555822134017944,-0.08223766833543777,-0.9165262579917908
1772810368439585800,2.697585693359375,-0.5326740741729736,-0.05780307948589325,-1.0994802713394165
1772810368449286000,2.707285888671875,-0.5913171172142029,-0.029703300446271896,-1.2592214345932007
1772810368458985700,2.71698583984375,-0.6759218573570251,0.012980876490473747,-1.4043017625808716
1772810368468685800,2.726685791015625,-0.7965676784515381,0.09819651395082474,-1.5243366956710815
1772810368478385700,2.7363857421875,-0.9370665550231934,0.21181736886501312,-1.6086360216140747
1772810368488085500,2.74608544921875,-1.1016945838928223,0.31932955980300903,-1.6504802703857422
1772810368497785600,2.75578564453125,-1.2822052240371704,0.45219266414642334,-1.638873815536499
1772810368507485700,2.765485595703125,-1.4297289848327637,0.5392408967018127,-1.5860340595245361
1772810368517185500,2.775185546875,-1.5143338441848755,0.36392268538475037,-1.5704569816589355
1772810368526885400,2.784885498046875,-1.4535527229309082,-0.1268308013677597,-1.6474260091781616
1772810368536585500,2.79458544921875,-1.1801908016204834,-0.903239905834198,-1.8896338939666748
1772810368546285300,2.804285400390625,-0.7611374855041504,-1.9001712799072266,-2.3080761432647705
1772810368555985400,2.8139853515625,-0.4272999167442322,-2.716897487640381,-2.7246859073638916
1772810368565685200,2.823685302734375,-0.42791077494621277,-2.6762750148773193,-2.9219954013824463
1772810368575385300,2.83338525390625,-0.7516691088676453,-1.5125775337219238,-2.932379961013794
1772810368585085200,2.843085205078125,-1.2009601593017578,0.3061959743499756,-3.0985352993011475
1772810368594785300,2.852785400390625,-1.4828742742538452,2.002872943878174,-3.489183187484741
1772810368604485000,2.862485107421875,-1.4819579124450684,3.0529494285583496,-3.828824043273926
1772810368614185000,2.87218505859375,-1.3380992412567139,3.3311984539031982,-3.9647414684295654
1772810368623885000,2.881885009765625,-1.1252129077911377,3.0254604816436768,-3.77690052986145
1772810368633585000,2.8915849609375,-0.7877101302146912,2.271958827972412,-3.089066743850708
1772810368643285000,2.901284912109375,-0.36621344089508057,0.9753983616828918,-1.9296455383300781
1772810368652985000,2.910985107421875,0.07849612087011337,-0.5330559015274048,-0.44157886505126953
1772810368662685000,2.920684814453125,0.42943793535232544,-1.8549672365188599,1.116431713104248
1772810368672384800,2.930384765625,0.6102539300918579,-2.8522040843963623,2.538219451904297
1772810368682084900,2.9400849609375,0.6246092319488525,-3.3219590187072754,3.5595853328704834
1772810368691784700,2.94978466796875,0.5027416944503784,-3.114264965057373,4.018344879150391
1772810368701484800,2.95948486328125,0.31459537148475647,-2.30670166015625,3.9816930294036865
1772810368711184600,2.9691845703125,0.10018182545900345,-1.155527114868164,3.605705738067627
1772810368720884700,2.978884765625,-0.15546508133411407,0.06620246917009354,3.0653958320617676
1772810368730584600,2.98858447265625,-0.4419606626033783,1.060308575630188,2.546466112136841
1772810368740284700,2.99828466796875,-0.7614429593086243,1.6458224058151245,2.1677300930023193
1772810368749984500,3.007984619140625,-1.0711513757705688,1.9106323719024658,1.9511784315109253
1772810368759684400,3.017684326171875,-1.2996147871017456,2.017839193344116,1.8241186141967773
1772810368769384400,3.027384521484375,-1.4196497201919556,2.0053162574768066,1.7224096059799194
1772810368779084300,3.037084228515625,-1.4272855520248413,1.8504620790481567,1.616119146347046
1772810368788784400,3.046784423828125,-1.320078730583191,1.6268856525421143,1.4832561016082764
1772810368798484200,3.056484130859375,-1.1588104963302612,1.4601194858551025,1.2856413125991821
1772810368808184300,3.066184326171875,-0.9941824078559875,1.465617299079895,1.035492181777954
1772810368817884200,3.07588427734375,-0.8497129082679749,1.698662281036377,0.7832050323486328
1772810368827584300,3.085584228515625,-0.7360920310020447,2.103971004486084,0.608497679233551
1772810368837284000,3.0952841796875,-0.6340776681900024,2.620457172393799,0.6146063208580017
1772810368846984200,3.104984130859375,-0.47555822134017944,3.1787877082824707,0.8702532649040222
1772810368856684000,3.11468408203125,-0.29016077518463135,3.5437793731689453,1.3097704648971558
1772810368866384100,3.124384033203125,-0.18784092366695404,3.4264931678771973,1.8305326700210571
1772810368876084000,3.134083984375,-0.1945604383945465,2.8984005451202393,2.3833653926849365
1772810368885783800,3.14378369140625,-0.22724169492721558,2.183154344558716,2.9221479892730713
1772810368895484000,3.15348388671875,-0.2412915825843811,1.4078905582427979,3.357083797454834
1772810368905183700,3.163183837890625,-0.2684750556945801,0.7502946853637695,3.6179230213165283
1772810368914883800,3.1728837890625,-0.2788597643375397,0.33399030566215515,3.6768715381622314
1772810368924584000,3.182583984375,-0.26450446248054504,0.12476912885904312,3.527820348739624
1772810368934283800,3.19228369140625,-0.23518294095993042,0.07101303339004517,3.203145742416382
1772810368943983600,3.201983642578125,-0.22418737411499023,0.14462223649024963,2.761795997619629
1772810368953683700,3.21168359375,-0.2874118685722351,0.28237223625183105,2.2581379413604736
1772810368963383600,3.221383544921875,-0.45387253165245056,0.39446592330932617,1.7346268892288208
1772810368973083600,3.231083740234375,-0.657290518283844,0.4283689260482788,1.1787399053573608
1772810368982783500,3.240783447265625,-0.8042035102844238,0.4127918779850006,0.6051379442214966
1772810368992483600,3.250483642578125,-0.8643736839294434,0.3938550651073456,0.028176138177514076
1772810369002183400,3.260183349609375,-0.8381064534187317,0.36544984579086304,-0.5072468519210815
1772810369011883500,3.269883544921875,-0.7589994668960571,0.2994764447212219,-0.9620356559753418
1772810369021583400,3.279583251953125,-0.657290518283844,0.18952079117298126,-1.3053417205810547
1772810369031283200,3.289283203125,-0.5479456782341003,0.05085449293255806,-1.5377757549285889
1772810369040983300,3.2989833984375,-0.4419606626033783,-0.15065452456474304,-1.686215877532959
1772810369050683400,3.308683349609375,-0.33567020297050476,-0.39622217416763306,-1.7546327114105225
1772810369060383200,3.31838330078125,-0.23732095956802368,-0.6595048904418945,-1.7576870918273926
1772810369070083000,3.3280830078125,-0.15821397304534912,-0.9374483823776245,-1.722562313079834
1772810369079783200,3.337783203125,-0.0769689604640007,-1.1885137557983398,-1.6739985942840576
1772810369089483000,3.34748291015625,0.008857538923621178,-1.3616939783096313,-1.630627155303955
1772810369099183000,3.35718310546875,0.12217295914888382,-1.4630974531173706,-1.5964187383651733
1772810369108883000,3.366883056640625,0.2935205399990082,-1.489364743232727,-1.536859393119812
1772810369118583000,3.3765830078125,0.6334667801856995,-1.5892410278320312,-1.4550034999847412
1772810369128283000,3.386282958984375,1.0781763792037964,-2.0226495265960693,-1.5325833559036255
1772810369137983000,3.39598291015625,1.4508038759231567,-2.8748059272766113,-1.8679481744766235
1772810369147682800,3.405682861328125,1.7269147634506226,-3.720853805541992,-2.3548073768615723
1772810369157383000,3.4153828125,1.8603886365890503,-3.9028913974761963,-2.7152175903320312
1772810369167082800,3.425082763671875,1.6331470012664795,-3.5235443115234375,-2.929631233215332
1772810369176782800,3.434782958984375,1.038164734840393,-3.290499448776245,-3.1510696411132812
1772810369186482700,3.444482666015625,0.42302384972572327,-3.379074811935425,-3.3590691089630127
1772810369196182800,3.454182861328125,-0.08949168771505356,-3.4688720703125,-3.472384452819824
1772810369205882600,3.463882568359375,-0.5024362802505493,-3.1771841049194336,-3.4198501110076904
1772810369215582500,3.47358251953125,-0.7828232049942017,-2.4478116035461426,-3.09151029586792
1772810369225282600,3.483282470703125,-0.9123265743255615,-1.522656798362732,-2.4861433506011963
1772810369234982700,3.492982666015625,-0.9245438575744629,-0.654617965221405,-1.7173699140548706
1772810369244682500,3.5026826171875,-0.8640682101249695,-0.17142392694950104,-0.9715040922164917
1772810369254382600,3.512382568359375,-0.7412844300270081,-0.19463679194450378,-0.3365101218223572
1772810369264082400,3.52208251953125,-0.5632173418998718,-0.6769145131111145,0.189444437623024
1772810369273782300,3.5317822265625,-0.37171122431755066,-1.5223513841629028,0.6738601922988892
1772810369283482400,3.541482421875,-0.24251331388950348,-2.511035919189453,1.2407426834106445
1772810369293182500,3.551182373046875,-0.19792018830776215,-3.4416885375976562,1.8723769187927246
1772810369302882300,3.56088232421875,-0.25503605604171753,-4.104171276092529,2.382143497467041
1772810369312582100,3.57058203125,-0.35613417625427246,-4.434038162231445,2.608774423599243
1772810369322282200,3.5802822265625,-0.41935867071151733,-4.368675708770752,2.4807982444763184
1772810369331982000,3.589982177734375,-0.45509424805641174,-3.896477460861206,2.03486704826355
1772810369341682200,3.59968212890625,-0.5131264328956604,-3.1915392875671387,1.3687188625335693
1772810369351382000,3.609382080078125,-0.6175842881202698,-2.393444538116455,0.5883391499519348
1772810369361082000,3.61908203125,-0.7370083332061768,-1.61489737033844,-0.18929173052310944
1772810369370782000,3.628781982421875,-0.8619301915168762,-0.9267582297325134,-0.8630755543708801
1772810369380482000,3.63848193359375,-0.9932661056518555,-0.3424660563468933,-1.3743693828582764
1772810369390182000,3.648181884765625,-1.1291835308074951,0.12721258401870728,-1.7106504440307617
1772810369399882000,3.657882080078125,-1.2626575231552124,0.4705185890197754,-1.852676510810852
1772810369409581800,3.667581787109375,-1.3665045499801636,0.670576810836792,-1.7937281131744385
1772810369419282000,3.677281982421875,-1.4391974210739136,0.7319687008857727,-1.5655701160430908
1772810369428981800,3.686981689453125,-1.479514479637146,0.6824886798858643,-1.2137119770050049
1772810369438681900,3.696681884765625,-1.4865394830703735,0.5676460862159729,-0.7922152876853943
1772810369448381700,3.706381591796875,-1.4520255327224731,0.4179842174053192,-0.367053359746933
1772810369458081500,3.71608154296875,-1.36772620677948,0.2744309902191162,0.027259841561317444
1772810369467781600,3.72578173828125,-1.2455532550811768,0.13240493834018707,0.3525453209877014
1772810369477481700,3.735481689453125,-1.1252129077911377,-0.04405862092971802,0.5831468105316162
1772810369487181600,3.745181640625,-1.016784429550171,-0.24778202176094055,0.7205913662910461
1772810369496881400,3.75488134765625,-0.9034690260887146,-0.43684467673301697,0.7795398235321045
1772810369506581500,3.76458154296875,-0.7831286191940308,-0.6252964735031128,0.766406238079071
1772810369516281300,3.77428125,-0.6719512343406677,-0.8232166767120361,0.6885209679603577
1772810369525981400,3.7839814453125,-0.5879573225975037,-0.9789871573448181,0.5605447888374329
1772810369535681500,3.793681640625,-0.5436696410179138,-1.0654245615005493,0.3940841555595398
1772810369545381400,3.80338134765625,-0.5326740741729736,-1.0739766359329224,0.20227259397506714
1772810369555081200,3.813081298828125,-0.5503891706466675,-1.0055598020553589,0.009850194677710533
1772810369564781300,3.82278125,-0.5781835317611694,-0.8452077507972717,-0.18684826791286469
1772810369574481200,3.832481201171875,-0.5864301919937134,-0.6146063208580017,-0.3917934000492096
1772810369584181200,3.84218115234375,-0.5623010396957397,-0.353767067193985,-0.6010146141052246
1772810369593881300,3.85188134765625,-0.5021308660507202,-0.05810851231217384,-0.7836631536483765
1772810369603581200,3.861581298828125,-0.40744680166244507,0.2084576040506363,-0.9244675040245056
1772810369613281000,3.871281005859375,-0.30054548382759094,0.3404043912887573,-1.0215950012207031
1772810369622981000,3.880981201171875,-0.19608759880065918,0.26129740476608276,-1.083903193473816
1772810369632681000,3.890680908203125,-0.09376774728298187,-0.06330086290836334,-1.1440733671188354
1772810369642381000,3.900381103515625,0.047036588191986084,-0.581008791923523,-1.261359453201294
1772810369652081000,3.910080810546875,0.21746785938739777,-1.3406190872192383,-1.5325833559036255
1772810369661781000,3.919781005859375,0.28405213356018066,-2.491183042526245,-2.1006875038146973
1772810369671480800,3.929480712890625,0.20219624042510986,-3.862879753112793,-2.9250495433807373
1772810369681181000,3.939180908203125,0.18417572975158691,-4.850342750549316,-3.6232681274414062
1772810369690880800,3.948880859375,0.35124725103378296,-5.410505771636963,-3.949164390563965
1772810369700580900,3.958580810546875,0.5806269645690918,-5.466705322265625,-3.935725450515747
1772810369710280700,3.96828076171875,0.8014546036720276,-4.625544548034668,-3.667861223220825
1772810369719980800,3.977980712890625,0.9007201194763184,-3.5342345237731934,-3.3245551586151123
1772810369729680600,3.9876806640625,0.8359684348106384,-2.381532669067383,-2.8633522987365723
1772810369739380700,3.997380615234375,0.78648841381073,-1.0034217834472656,-2.1547491550445557
1772810369749080600,4.00708056640625,0.8197805285453796,0.20021092891693115,-1.241811752319336
1772810369758780700,4.01678076171875,0.8274163603782654,0.8342885971069336,-0.19448406994342804
1772810369768480500,4.02648046875,0.8316923975944519,0.7790052890777588,0.8910226225852966
1772810369778180600,4.0361806640625,0.8723149299621582,0.14950916171073914,1.8980332612991333
1772810369787880400,4.04588037109375,0.9092722535133362,-0.6081922650337219,2.7584362030029297
1772810369797580500,4.05558056640625,0.8768963813781738,-1.0742820501327515,3.3506696224212646
1772810369807280400,4.0652802734375,0.7528908252716064,-1.0458768606185913,3.5378997325897217
1772810369816980500,4.07498046875,0.5583304166793823,-0.48510298132896423,3.259345293045044
1772810369826680300,4.084680419921875,0.33047783374786377,0.3480401933193207,2.5547127723693848
1772810369836380200,4.094380126953125,0.05589412897825241,1.1895064115524292,1.5556435585021973
1772810369846080300,4.104080322265625,-0.2315177470445633,1.856876254081726,0.46463900804519653
1772810369855780400,4.1137802734375,-0.5137372612953186,2.2142322063446045,-0.5509236454963684
1772810369865480200,4.123480224609375,-0.7641918659210205,2.2316417694091797,-1.3768128156661987
1772810369875180300,4.13318017578125,-0.9101884961128235,2.036775827407837,-1.9690462350845337
1772810369884880100,4.142880126953125,-0.9428697824478149,1.8596251010894775,-2.3218207359313965
1772810369894580000,4.152580078125,-0.8775072693824768,1.9185734987258911,-2.404287338256836
1772810369904280000,4.162280029296875,-0.7000510096549988,2.1984260082244873,-2.2100324630737305
1772810369913980200,4.171980224609375,-0.4410443603992462,2.593579053878784,-1.7512729167938232
1772810369923680000,4.181679931640625,-0.17165300250053406,2.919475555419922,-1.0649664402008057
1772810369933380000,4.191380126953125,0.07391463965177536,3.006523609161377,-0.25465425848960876
1772810369943080000,4.201079833984375,0.27947062253952026,2.782947301864624,0.553214430809021
1772810369952780000,4.210780029296875,0.425467312335968,2.260657787322998,1.2874739170074463
1772810369962479900,4.22047998046875,0.48013970255851746,1.5089887380599976,1.9151374101638794
1772810369972180000,4.230179931640625,0.46456265449523926,0.6455313563346863,2.3983314037323
1772810369981879800,4.2398798828125,0.411722868680954,-0.17539454996585846,2.700709581375122
1772810369991579600,4.24957958984375,0.33597561717033386,-0.8061124086380005,2.823187828063965
1772810370001279700,4.25927978515625,0.26419901847839355,-1.164079189300537,2.8158576488494873
1772810370010979800,4.268979736328125,0.20127993822097778,-1.2190570831298828,2.705596446990967
1772810370020679700,4.2786796875,0.13041962683200836,-0.9951750636100769,2.508287191390991
1772810370030379800,4.2883798828125,0.021380268037319183,-0.5602393746376038,2.236757755279541
1772810370040079600,4.29807958984375,-0.11942406743764877,-0.016035201027989388,1.9169700145721436
1772810370049779500,4.307779541015625,-0.2507599890232086,0.5181660652160645,1.5849649906158447
1772810370059479600,4.3174794921875,-0.3488037884235382,0.9497420191764832,1.2679262161254883
1772810370069179600,4.3271796875,-0.42424559593200684,1.226769208908081,0.9844849705696106
1772810370078879500,4.33687939453125,-0.48441576957702637,1.3544399738311768,0.7514400482177734
1772810370088579300,4.346579345703125,-0.5137372612953186,1.3727658987045288,0.561766505241394
1772810370098279400,4.356279541015625,-0.4889972507953644,1.31870436668396,0.40202537178993225
1772810370107979300,4.365979248046875,-0.42943793535232544,1.216689944267273,0.2774089574813843
1772810370117679400,4.375679443359375,-0.3637699782848358,1.1180353164672852,0.2138790339231491
1772810370127379500,4.38537939453125,-0.28069236874580383,1.0584759712219238,0.20624321699142456
1772810370137079300,4.395079345703125,-0.19089524447917938,0.9781472086906433,0.2560287117958069
1772810370146779100,4.404779052734375,-0.12461641430854797,0.8889609575271606,0.3690386712551117
1772810370156479200,4.414479248046875,-0.09896009415388107,0.8294016718864441,0.5211440324783325
1772810370166179300,4.424179443359375,-0.11942406743764877,0.753043532371521,0.6756927967071533
1772810370175879200,4.433879150390625,-0.1802051067352295,0.6467530727386475,0.812526524066925
1772810370185579000,4.4435791015625,-0.25870123505592346,0.549930989742279,0.8980475664138794
1772810370195279000,4.453279052734375,-0.33108872175216675,0.4637990891933441,0.9313397407531738
1772810370204979000,4.46297900390625,-0.36163195967674255,0.33918267488479614,0.9463059306144714
1772810370214679000,4.472678955078125,-0.2834412455558777,0.2386954128742218,1.0086140632629395
1772810370224379100,4.482379150390625,-0.032070402055978775,0.22128576040267944,1.078863501548767
1772810370234079000,4.492078857421875,0.3500255048274994,0.054214250296354294,1.032743215560913
1772810370243778800,4.50177880859375,0.7086031436920166,-0.5309178233146667,0.8003092408180237
1772810370253479000,4.51147900390625,0.8353576064109802,-1.3455060720443726,0.49365508556365967
1772810370263179000,4.521178955078125,0.6692023873329163,-2.055636405944824,0.297872930765152
1772810370272878800,4.53087890625,0.33231043815612793,-2.7138431072235107,-0.0035888305865228176
1772810370282579000,4.540578857421875,0.01954767294228077,-3.3775477409362793,-0.7842740416526794
1772810370292278800,4.55027880859375,-0.16249002516269684,-3.692143201828003,-1.935143232345581
1772810370301978600,4.559978515625,-0.2981020212173462,-3.356778383255005,-3.0240097045898438
1772810370311678700,4.5696787109375,-0.4508182108402252,-2.2016329765319824,-3.6764132976531982
1772810370321378800,4.57937890625,-0.5668824911117554,-0.4493674039840698,-3.7607126235961914
1772810370331078700,4.58907861328125,-0.5555815100669861,1.292437195777893,-3.3893067836761475
1772810370340778500,4.598778564453125,-0.27947062253952026,2.453385591506958,-2.720104455947876
1772810370350478600,4.608478515625,0.21197007596492767,2.8629705905914307,-1.9421682357788086
1772810370360178700,4.6181787109375,0.757777750492096,2.5221078395843506,-1.161177635192871
1772810370369878500,4.62787841796875,1.2486076354980469,1.5807653665542603,-0.38812822103500366
1772810370379578600,4.63757861328125,1.5531237125396729,0.40973755717277527,0.35651594400405884
1772810370389278500,4.647278564453125,1.6169590950012207,-0.5529089570045471,1.0064760446548462
1772810370398978300,4.656978271484375,1.5415172576904297,-1.14422607421875,1.4340814352035522
1772810370408678400,4.666678466796875,1.4016292095184326,-1.3742166757583618,1.503109097480774
1772810370418378500,4.67637841796875,1.14017915725708,-1.2514328956604004,1.236161231994629
1772810370428078300,4.686078369140625,0.7422007322311401,-0.7263945937156677,0.8644500374794006
1772810370437778200,4.695778076171875,0.32039856910705566,0.07284562289714813,0.5831468105316162
1772810370447478300,4.705478271484375,-0.018631376326084137,0.8721621632575989,0.399887353181839
1772810370457178400,4.715178466796875,-0.2458730787038803,1.4897464513778687,0.26244276762008667
1772810370466878200,4.724878173828125,-0.3851502537727356,1.8419100046157837,0.16409355401992798
1772810370476578300,4.734578369140625,-0.4740310609340668,1.9341505765914917,0.1115591824054718
1772810370486278100,4.744278076171875,-0.5329795479774475,1.797927737236023,0.08254310488700867
1772810370495978000,4.75397802734375,-0.5763509273529053,1.4708096981048584,0.0397825688123703
1772810370505678000,4.763677978515625,-0.6362156867980957,1.0804671049118042,0.0025198173243552446
1772810370515378200,4.773378173828125,-0.7113520503044128,0.7380773425102234,-0.010919207707047462
1772810370525078000,4.783078125,-0.7840449213981628,0.5001455545425415,0.02084576152265072
1772810370534778000,4.792778076171875,-0.8374956250190735,0.35964664816856384,0.09323323518037796
1772810370544478000,4.80247802734375,-0.8542944192886353,0.25732678174972534,0.18639011681079865
1772810370554178000,4.812177978515625,-0.805425226688385,0.1727220118045807,0.26855143904685974
1772810370563878000,4.8218779296875,-0.6991347670555115,0.0798705667257309,0.3134499788284302
1772810370573578000,4.831577880859375,-0.5790998339653015,-0.026648975908756256,0.28504478931427
1772810370583277800,4.84127783203125,-0.5225948095321655,-0.10300707072019577,0.1931096315383911
1772810370592978000,4.85097802734375,-0.500298261642456,-0.18058690428733826,0.0553596206009388
1772810370602677800,4.860677734375,-0.43890634179115295,-0.22792892158031464,-0.12209659814834595
1772810370612377900,4.8703779296875,-0.33017241954803467,-0.116751529276371,-0.3249036967754364
1772810370622077700,4.88007763671875,-0.22327107191085815,0.10125083476305008,-0.5570323467254639
1772810370631777800,4.88977783203125,-0.12278381735086441,0.32971426844596863,-0.769002377986908
1772810370641477600,4.8994775390625,-0.05253437161445618,0.4912880063056946,-0.9296598434448242
1772810370651177700,4.909177734375,-0.021380268037319183,0.513584554195404,-1.0481675863265991
1772810370660877600,4.918877685546875,-0.046425722539424896,0.3556760251522064,-1.1294126510620117
1772810370670577700,4.92857763671875,-0.09010255336761475,0.12140937149524689,-1.1446841955184937
1772810370680277500,4.938277587890625,-0.13225223124027252,-0.10972658544778824,-1.113530158996582
1772810370689977600,4.9479775390625,-0.17592905461788177,-0.27771440148353577,-1.0628283023834229
1772810370699677700,4.957677734375,-0.18600831925868988,-0.37545275688171387,-1.0136537551879883
1772810370709377500,4.96737744140625,-0.14172062277793884,-0.43745553493499756,-0.9504292607307434
1772810370719077400,4.977077392578125,-0.08307760953903198,-0.5468003153800964,-0.8578832149505615
1772810370728777500,4.986777587890625,-0.0565049909055233,-0.8412371873855591,-0.7662535309791565
1772810370738477600,4.9964775390625,-0.031154103577136993,-1.2434916496276855,-0.7396808862686157
1772810370748177400,5.006177490234375,0.043371398001909256,-1.626198410987854,-0.9009491801261902
1772810370757877200,5.015877197265625,0.1798996776342392,-2.0840415954589844,-1.3908627033233643
1772810370767577300,5.025577392578125,0.36163195967674255,-2.722395181655884,-2.2631776332855225
1772810370777277200,5.035277099609375,0.39248061180114746,-2.946887969970703,-3.1122796535491943
1772810370786977300,5.044977294921875,0.10965022444725037,-2.161621332168579,-3.421682596206665
1772810370796677400,5.054677490234375,-0.3909534513950348,-1.0281617641448975,-3.2918739318847656
1772810370806377200,5.064377197265625,-0.7531962990760803,-0.36690065264701843,-2.9763622283935547
1772810370816077000,5.0740771484375,-0.7052434086799622,0.03527744114398956,-2.5319581031799316
1772810370825777200,5.083777099609375,-0.4990765154361725,0.2903134822845459,-1.9708788394927979
1772810370835477200,5.093477294921875,-0.4068359434604645,0.5578722357749939,-1.1932480335235596
1772810370845177000,5.103177001953125,-0.38759371638298035,1.0990984439849854,-0.16638429462909698
1772810370854877000,5.112876953125,-0.2816086709499359,1.7673845291137695,1.0025054216384888
1772810370864577000,5.122576904296875,-0.015271619893610477,1.8806999921798706,2.1103086471557617
1772810370874277000,5.132277099609375,0.27519458532333374,1.292437195777893,2.9820127487182617
1772810370883977000,5.14197705078125,0.4569268524646759,0.2603811025619507,3.469482898712158
1772810370893677000,5.151677001953125,0.5115992426872253,-0.7810669541358948,3.4899468421936035
1772810370903377000,5.161376953125,0.5427533388137817,-1.4301108121871948,3.055622100830078
1772810370913077000,5.171076904296875,0.5531380772590637,-1.5528945922851562,2.2862377166748047
1772810370922776800,5.18077685546875,0.4825831651687622,-1.228219985961914,1.3919317722320557
1772810370932477000,5.190476806640625,0.18295399844646454,-0.5516872406005859,0.5678751468658447
1772810370942176800,5.2001767578125,-0.3430005609989166,0.27809619903564453,-0.09705114364624023
1772810370951876900,5.209876953125,-0.8219185471534729,1.0780236721038818,-0.631557822227478
1772810370961576700,5.21957666015625,-1.0097594261169434,1.6171118021011353,-0.9812778830528259
1772810370971276800,5.22927685546875,-0.9178243279457092,1.7649410963058472,-1.067409873008728
1772810370980976600,5.2389765625,-0.6933315396308899,1.5844305753707886,-0.835281252861023
1772810370990676700,5.2486767578125,-0.4098902642726898,1.3590214252471924,-0.28000515699386597
1772810371000376600,5.25837646484375,-0.11239911615848541,1.2383756637573242,0.5272526741027832
1772810371010076700,5.26807666015625,0.09804379940032959,1.1950042247772217,1.4826451539993286
1772810371019776500,5.277776611328125,0.19944734871387482,1.1122320890426636,2.449033260345459
1772810371029476600,5.2874765625,0.20433427393436432,0.7108938694000244,3.214141368865967
1772810371039176400,5.297176513671875,0.15241076052188873,0.0001527161948615685,3.610898017883301
1772810371048876500,5.30687646484375,0.129197895526886,-0.8336013555526733,3.5458409786224365
1772810371058576600,5.31657666015625,0.17195843160152435,-1.4939461946487427,3.0925793647766113
1772810371068276500,5.3262763671875,0.25442516803741455,-1.710192322731018,2.454836368560791
1772810371077976300,5.335976318359375,0.2788597643375397,-1.4579051733016968,1.829921841621399
1772810371087676400,5.345676513671875,0.17287473380565643,-0.9380592107772827,1.2633447647094727
1772810371097376500,5.35537646484375,-0.025045456364750862,-0.3421606421470642,0.7801506519317627
1772810371107076400,5.365076416015625,-0.2522871494293213,0.23228132724761963,0.4340957701206207
1772810371116776400,5.3747763671875,-0.47525280714035034,0.6556106209754944,0.2346484363079071
1772810371126476300,5.384476318359375,-0.6682860851287842,0.8657481074333191,0.17997603118419647
1772810371136176400,5.39417626953125,-0.7831286191940308,0.8895718455314636,0.22151483595371246
1772810371145876200,5.403876220703125,-0.7855721116065979,0.790000855922699,0.32933247089385986
1772810371155576300,5.413576416015625,-0.702799916267395,0.6327031850814819,0.4518108665943146
1772810371165276200,5.423276123046875,-0.5772672295570374,0.4864010810852051,0.5620719790458679
1772810371174976300,5.432976318359375,-0.4276053309440613,0.3828594982624054,0.6475930213928223
1772810371184676000,5.442676025390625,-0.30024003982543945,0.27137666940689087,0.6756927967071533
1772810371194376200,5.452376220703125,-0.2932150959968567,0.1308777779340744,0.6701950430870056
1772810371204076000,5.462075927734375,-0.40378162264823914,0.06673697382211685,0.6607266068458557
1772810371213776100,5.471776123046875,-0.5241219997406006,0.08567378669977188,0.6231584548950195
1772810371223476000,5.48147607421875,-0.5681042671203613,0.13942988216876984,0.5275580883026123
1772810371233176000,5.491176025390625,-0.4926624298095703,0.25641047954559326,0.418824166059494
1772810371242876000,5.5008759765625,-0.31490078568458557,0.42195484042167664,0.3684278130531311
1772810371252576000,5.510575927734375,-0.12186752259731293,0.5734493136405945,0.42279478907585144
1772810371262275800,5.52027587890625,-0.025961752980947495,0.6630173325538635,0.5883391499519348
1772810371271976000,5.529975830078125,-0.04001164436340332,0.6272054314613342,0.7938951253890991
1772810371281676000,5.539676025390625,-0.05253437161445618,0.4686860144138336,1.0012837648391724
1772810371291375900,5.5493759765625,-0.06566796451807022,0.268627792596817,1.1714096069335938
1772810371301075700,5.55907568359375,-0.09132428467273712,0.1455385386943817,1.3192389011383057
1772810371310775800,5.56877587890625,-0.07574722915887833,0.049632761627435684,1.376354694366455
1772810371320476000,5.578475830078125,-0.04062250629067421,-0.15706861019134521,1.1194860935211182
1772810371330175700,5.58817578125,-0.029016077518463135,-0.5681806206703186,0.5397753715515137
1772810371339875600,5.59787548828125,-0.04581485688686371,-0.8977421522140503,-0.07231111824512482
1772810371349575700,5.60757568359375,-0.047036588191986084,-0.7483857274055481,-0.4125627875328064
1772810371359275800,5.61727587890625,-0.057726722210645676,-0.15370884537696838,-0.3505600392818451
1772810371368975600,5.6269755859375,-0.1078176349401474,0.31444263458251953,-0.09582941234111786
1772810371378675700,5.63667578125,-0.08429934084415436,0.2551887631416321,0.04741837829351425
1772810371388375600,5.64637548828125,-0.001832594396546483,-0.4102720618247986,-0.2781725525856018
1772810371398075600,5.65607568359375,0.06627883017063141,-1.3158791065216064,-0.8792635202407837
1772810371407775500,5.665775390625,0.18753549456596375,-1.855272650718689,-1.2900700569152832
1772810371417475600,5.6754755859375,0.3634645342826843,-1.8155665397644043,-1.3258056640625
1772810371427175400,5.685175537109375,0.47494736313819885,-1.4591268301010132,-1.0448077917099
1772810371436875500,5.69487548828125,0.5021308660507202,-1.1656063795089722,-0.5338194370269775
1772810371446575600,5.70457568359375,0.472198486328125,-1.1423934698104858,0.06330086290836334
1772810371456275500,5.714275390625,0.4166097939014435,-1.3442842960357666,0.572151243686676
1772810371465975300,5.723975341796875,0.3854556679725647,-1.6451351642608643,0.866893470287323
1772810371475675400,5.73367529296875,0.40255987644195557,-1.904141902923584,0.8904117941856384
1772810371485375500,5.74337548828125,0.45020735263824463,-2.0064616203308105,0.672027587890625
1772810371495075300,5.753075439453125,0.5073232054710388,-1.9145265817642212,0.25938844680786133
1772810371504775200,5.762775146484375,0.5592467188835144,-1.6014584302902222,-0.2732856273651123
1772810371514475300,5.772475341796875,0.5729911923408508,-1.086804747581482,-0.8841503858566284
1772810371524175400,5.78217529296875,0.536644697189331,-0.5400808453559875,-1.509981393814087
1772810371533875200,5.791875244140625,0.4676169753074646,-0.09995274990797043,-2.010890483856201
1772810371543575300,5.8015751953125,0.360410213470459,0.19929464161396027,-2.2860851287841797
1772810371553275100,5.811275146484375,0.21899501979351044,0.3513999581336975,-2.309298038482666
1772810371562975200,5.820975341796875,0.08491020649671555,0.3657552897930145,-2.1159591674804688
1772810371572675000,5.830675048828125,-0.014660755172371864,0.3214675784111023,-1.7903683185577393
1772810371582375200,5.840375244140625,-0.05803215503692627,0.32452189922332764,-1.3908627033233643
1772810371592075000,5.850074951171875,-0.04459312930703163,0.36392268538475037,-1.0506110191345215
1772810371601775000,5.859775146484375,0.016187917441129684,0.42745262384414673,-0.7912989854812622
1772810371611475200,5.86947509765625,0.09376774728298187,0.5096139311790466,-0.6089558005332947
1772810371621175000,5.879175048828125,0.18203771114349365,0.5951350331306458,-0.48739373683929443
1772810371630875000,5.888875,0.2813032269477844,0.6501128673553467,-0.40950846672058105
1772810371640575000,5.898574951171875,0.3756818473339081,0.6501128673553467,-0.3600284159183502
1772810371650275000,5.908275146484375,0.44959646463394165,0.6073523163795471,-0.3154352903366089
1772810371659975000,5.917974853515625,0.4978547990322113,0.4961749315261841,-0.2625955045223236
1772810371669674800,5.9276748046875,0.5201513767242432,0.3150535225868225,-0.1914297491312027
1772810371679374800,5.937374755859375,0.5018253922462463,0.07620538026094437,-0.08452841639518738
1772810371689075000,5.947074951171875,0.4471530318260193,-0.2099084109067917,0.05108356848359108
1772810371698774800,5.95677490234375,0.3949240744113922,-0.5107592940330505,0.21021384000778198
1772810371708475000,5.966474853515625,0.37110036611557007,-0.7602975964546204,0.3684278130531311
1772810371718174700,5.9761748046875,0.3738492429256439,-0.9447787404060364,0.487546443939209
1772810371727874800,5.985874755859375,0.4004218578338623,-1.0470986366271973,0.5489383339881897
1772810371737574700,5.99557470703125,0.4404335021972656,-1.052290916442871,0.5788707137107849
1772810371747274800,6.005274658203125,0.4877755343914032,-1.0006728172302246,0.5953640937805176
1772810371756974600,6.014974609375,0.5287034511566162,-0.9533308744430542,0.6197986602783203
1772810371766674700,6.0246748046875,0.5503891706466675,-0.978681743144989,0.6591994762420654
1772810371776374800,6.034374755859375,0.5583304166793823,-1.0819178819656372,0.7047088742256165
1772810371786074600,6.04407470703125,0.5610793232917786,-1.2596795558929443,0.7489965558052063
1772810371795774500,6.0537744140625,0.5577195286750793,-1.5064688920974731,0.7661007642745972
1772810371805474600,6.063474609375,0.5778780579566956,-1.7111085653305054,0.8137482404708862
1772810371815174700,6.073174560546875,0.6820304989814758,-1.9096397161483765,0.9353103637695312
1772810371824874500,6.08287451171875,0.878118097782135,-2.147571563720703,1.1533890962600708
1772810371834574300,6.09257421875,1.1246020793914795,-2.4777438640594482,1.4701224565505981
1772810371844274400,6.1022744140625,1.3460404872894287,-2.8803038597106934,1.782579779624939
1772810371853974500,6.111974609375,1.508836030960083,-3.1661884784698486,1.7025564908981323
1772810371863674400,6.12167431640625,1.6600250005722046,-3.1631340980529785,0.7560214996337891
1772810371873374500,6.13137451171875,1.5961896181106567,-2.636874198913574,-1.0609958171844482
1772810371883074300,6.14107421875,1.3723077774047852,-1.4062870740890503,-3.3285257816314697
1772810371892774400,6.1507744140625,1.0662645101547241,0.24602578580379486,-5.211516380310059
1772810371902474200,6.16047412109375,0.8747583627700806,1.5847359895706177,-6.131173610687256
1772810371912174300,6.17017431640625,0.8943060636520386,2.0266966819763184,-6.236853122711182
1772810371921874200,6.179874267578125,0.9755510687828064,1.3791799545288086,-5.471134185791016
1772810371931574300,6.18957421875,1.0687079429626465,0.11133010685443878,-3.497429847717285
1772810371941274000,6.199274169921875,1.0106757879257202,-1.3085486888885498,-0.7925207018852234
1772810371950974200,6.20897412109375,0.8555161356925964,-2.628322124481201,1.8280892372131348
1772810371960674000,6.218674072265625,0.7724385261535645,-3.0030875205993652,3.5378997325897217
1772810371970374100,6.2283740234375,0.758083164691925,-2.178725481033325,3.9288532733917236
1772810371980074200,6.23807421875,0.630107045173645,-0.8458186388015747,3.3027167320251465
1772810371989774000,6.247774169921875,0.39828383922576904,0.30344706773757935,2.2205698490142822
1772810371999474000,6.257473876953125,0.10079269111156464,1.0291544198989868,1.170493245124817
1772810372009174000,6.267174072265625,-0.20158538222312927,1.5074615478515625,0.3672060966491699
1772810372018874000,6.2768740234375,-0.4657844007015228,1.8193080425262451,-0.2173915058374405
1772810372028574000,6.286573974609375,-0.6780598759651184,2.0712897777557373,-0.6529380679130554
1772810372038274000,6.296274169921875,-0.8564324378967285,2.428034782409668,-0.9397391080856323
1772810372047974000,6.305973876953125,-0.9419534802436829,2.934441566467285,-0.919275164604187
1772810372057674000,6.315674072265625,-0.9434806704521179,3.3623523712158203,-0.510606586933136
1772810372067373800,6.325373779296875,-0.9398154616355896,3.5889832973480225,0.19188790023326874
1772810372077074000,6.335073974609375,-1.0222822427749634,3.59295392036438,1.0199151039123535
1772810372086774000,6.34477392578125,-1.128572702407837,3.4683375358581543,1.7599778175354004
1772810372096473900,6.354473876953125,-1.1465932130813599,3.2389578819274902,2.2233188152313232
1772810372106173700,6.364173583984375,-1.0445787906646729,2.930776596069336,2.3968043327331543
1772810372115873800,6.373873779296875,-0.861319363117218,2.548680543899536,2.3949716091156006
1772810372125574000,6.383573974609375,-0.6603448390960693,2.0725114345550537,2.273409605026245
1772810372135273700,6.393273681640625,-0.5189296007156372,1.5358667373657227,2.06663179397583
1772810372144973800,6.402973876953125,-0.44898560643196106,1.0682498216629028,1.839695692062378
1772810372154673700,6.412673583984375,-0.430659681558609,0.6998983025550842,1.634445071220398
1772810372164373800,6.422373779296875,-0.4318813979625702,0.45127636194229126,1.4734822511672974
1772810372174073600,6.432073486328125,-0.4364628791809082,0.2942841053009033,1.359250545501709
1772810372183773700,6.441773681640625,-0.45967575907707214,0.2023489624261856,1.2996912002563477
1772810372193473500,6.4514736328125,-0.5048797130584717,0.22434009611606598,1.2862521409988403
1772810372203173600,6.461173583984375,-0.5564978122711182,0.37858346104621887,1.284114122390747
1772810372212873700,6.470873779296875,-0.609948456287384,0.6207913160324097,1.274340271949768
1772810372222573600,6.480573486328125,-0.6511818766593933,0.856279730796814,1.2318851947784424
1772810372232273400,6.4902734375,-0.6750055551528931,1.003192663192749,1.1326196193695068
1772810372241973500,6.499973388671875,-0.6963858604431152,1.0257946252822876,0.9710459113121033
1772810372251673600,6.509673583984375,-0.7055488228797913,0.9439387917518616,0.7792344093322754
1772810372261373400,6.51937353515625,-0.6783653497695923,0.7976366877555847,0.5611556768417358
1772810372271073500,6.529073486328125,-0.629496157169342,0.6754637360572815,0.32505643367767334
1772810372280773400,6.5387734375,-0.573602020740509,0.6259836554527283,0.09903645515441895
1772810372290473500,6.548473388671875,-0.500298261642456,0.6617192625999451,-0.07658717036247253
1772810372300173300,6.55817333984375,-0.41447174549102783,0.7127264738082886,-0.18501566350460052
1772810372309873400,6.567873291015625,-0.3594939112663269,0.7316632866859436,-0.23480114340782166
1772810372319573200,6.5775732421875,-0.3399462401866913,0.6702713966369629,-0.23113596439361572
1772810372329273300,6.5872734375,-0.3597993552684784,0.5471821427345276,-0.18318307399749756
1772810372338973200,6.59697314453125,-0.41386088728904724,0.4378373324871063,-0.10071633011102676
1772810372348673300,6.60667333984375,-0.45967575907707214,0.33429574966430664,-0.008170315995812416
1772810372358373400,6.616373291015625,-0.4889972507953644,0.28787001967430115,0.09201150387525558
1772810372368073200,6.6260732421875,-0.5299251675605774,0.31261005997657776,0.14546217024326324
1772810372377773300,6.635773193359375,-0.5729911923408508,0.41554075479507446,0.13996438682079315
1772810372387473200,6.64547314453125,-0.6133082509040833,0.5569559335708618,0.06604975461959839
1772810372397173200,6.65517333984375,-0.61117023229599,0.7136427760124207,-0.0057268571108579636
1772810372406873000,6.664873046875,-0.572685718536377,0.884379506111145,-0.050319984555244446
1772810372416573200,6.6745732421875,-0.5580250024795532,0.9808961153030396,-0.07170025259256363
1772810372426273000,6.68427294921875,-0.5665770769119263,0.8532254099845886,-0.05734493210911751
1772810372435973000,6.69397314453125,-0.5955931544303894,0.5890263915061951,0.09170607477426529
1772810372445673200,6.703673095703125,-0.5558869242668152,0.27320927381515503,0.3333030939102173
1772810372455373000,6.713373046875,-0.2965748608112335,-0.025121813639998436,0.3882809281349182
1772810372465073000,6.723072998046875,0.09162971377372742,-0.30459246039390564,0.08529199659824371
1772810372474773000,6.73277294921875,0.3237583339214325,-0.5306124091148376,-0.4629591405391693
1772810372484473000,6.74247314453125,0.29504770040512085,-0.5535198450088501,-0.9586759209632874
1772810372494173000,6.7521728515625,0.17073670029640198,-0.7334195375442505,-1.3364957571029663
1772810372503873000,6.761873046875,0.1692095398902893,-1.4362194538116455,-1.6590323448181152
1772810372513572900,6.77157275390625,0.37110036611557007,-2.254167318344116,-2.1761293411254883
1772810372523273000,6.78127294921875,0.6065887212753296,-2.2944843769073486,-2.6767330169677734
1772810372532972800,6.790972900390625,0.7874047160148621,-1.3445897102355957,-2.6706244945526123
1772810372542673000,6.8006728515625,0.7703005075454712,-0.2700785994529724,-2.1746022701263428
1772810372552373000,6.810373046875,0.5778780579566956,0.11743875592947006,-1.3865866661071777
1772810372562072800,6.82007275390625,0.3863719701766968,-0.24442227184772491,-0.6220894455909729
1772810372571772700,6.829772705078125,0.2861901521682739,-0.885219395160675,-0.16699515283107758
1772810372581472800,6.83947265625,0.28985533118247986,-1.3644428253173828,-0.09613484144210815
1772810372591172900,6.8491728515625,0.37659814953804016,-1.4942516088485718,-0.2885572612285614
1772810372600872700,6.858872802734375,0.41844236850738525,-1.3012183904647827,-0.6330850124359131
1772810372610572800,6.86857275390625,0.35063639283180237,-0.9166789650917053,-1.1013128757476807
1772810372620272600,6.878272705078125,0.20769402384757996,-0.4395935535430908,-1.6914081573486328
1772810372629972700,6.88797265625,0.07574722915887833,0.031612250953912735,-2.323653221130371
1772810372639672600,6.897672607421875,0.0256563201546669,0.43753188848495483,-2.82303524017334
1772810372649372700,6.90737255859375,0.014660755172371864,0.6788234710693359,-3.0536367893218994
1772810372659072800,6.91707275390625,0.017104214057326317,0.7203623056411743,-2.9473462104797363
1772810372668772600,6.926772705078125,0.018631376326084137,0.5890263915061951,-2.5460081100463867
1772810372678472400,6.936472412109375,-0.021685699000954628,0.34193155169487,-1.9452224969863892
1772810372688172500,6.946172607421875,-0.11484257876873016,0.0896444097161293,-1.2558616399765015
1772810372697872600,6.95587255859375,-0.22754712402820587,-0.09873101860284805,-0.639804482460022
1772810372707572500,6.965572509765625,-0.3402516841888428,-0.20715951919555664,-0.2219729870557785
1772810372717272600,6.9752724609375,-0.4156934916973114,-0.224569171667099,-0.008781181648373604
1772810372726972400,6.984972412109375,-0.4166097939014435,-0.1527925580739975,0.04833467677235603
1772810372736672500,6.994672607421875,-0.3857611119747162,-0.07307469844818115,-0.0017562361899763346
1772810372746372400,7.004372314453125,-0.3494146466255188,-0.02328922040760517,-0.07628174126148224
1772810372756072400,7.014072509765625,-0.30085089802742004,-0.0032070400193333626,-0.11659881472587585
1772810372765772300,7.023772216796875,-0.23945899307727814,-0.05933023989200592,-0.10835213959217072
1772810372775472400,7.033472412109375,-0.18814635276794434,-0.22304199635982513,-0.043600473552942276
1772810372785172500,7.04317236328125,-0.14233149588108063,-0.47410741448402405,0.07796161621809006
1772810372794872300,7.052872314453125,-0.09071341902017593,-0.7670170664787292,0.23159411549568176
1772810372804572400,7.062572509765625,-0.04734202101826668,-1.0223585367202759,0.3693441152572632
1772810372814272300,7.072272216796875,-0.018631376326084137,-1.2242493629455566,0.4450913369655609
1772810372823972400,7.081972412109375,-0.010079269297420979,-1.3387864828109741,0.43684467673301697
1772810372833672200,7.091672119140625,-0.021685699000954628,-1.3335942029953003,0.35071274638175964
1772810372843372300,7.101372314453125,-0.08826996386051178,-1.2517383098602295,0.17569997906684875
1772810372853072400,7.111072265625,-0.23457208275794983,-1.1668280363082886,-0.060704685747623444
1772810372862772200,7.120772216796875,-0.44348782300949097,-1.1213949918746948,-0.2989419400691986
1772810372872472000,7.13047216796875,-0.6554579138755798,-1.088331937789917,-0.4727329909801483
1772810372882172200,7.140172119140625,-0.8219185471534729,-1.0428224802017212,-0.5457313060760498
1772810372891872300,7.149872314453125,-0.9355394244194031,-0.9860121011734009,-0.5270999670028687
1772810372901572000,7.159572021484375,-0.9966259002685547,-0.8678097724914551,-0.4070650041103363
1772810372911272200,7.169272216796875,-0.9718858599662781,-0.599334716796875,-0.19478951394557953
1772810372920972000,7.178971923828125,-0.9016364216804504,-0.1989128440618515,0.038560837507247925
1772810372930672000,7.188672119140625,-0.8753692507743835,0.2860374450683594,0.22243113815784454
1772810372940372000,7.1983720703125,-0.8949168920516968,0.6140718460083008,0.261526495218277
1772810372950072000,7.208072021484375,-0.9107993841171265,0.4738783538341522,0.10025817900896072
1772810372959772200,7.217772216796875,-0.9013310074806213,-0.1729510873556137,-0.1346193253993988
1772810372969472000,7.227471923828125,-0.888502836227417,-1.1142936944961548,-0.20364704728126526
1772810372979172000,7.237172119140625,-0.8747583627700806,-2.0476951599121094,-0.07231111824512482
1772810372988872000,7.246871826171875,-0.776714563369751,-2.3726751804351807,0.22884522378444672
1772810372998572000,7.256572021484375,-0.562911868095398,-1.6515493392944336,0.49548768997192383
1772810373008272000,7.26627197265625,-0.10445787757635117,0.21395538747310638,0.6524799466133118
1772810373017972000,7.275971923828125,0.8014546036720276,2.2533273696899414,0.6036107540130615
1772810373027672000,7.285672119140625,1.85092031955719,3.5950920581817627,0.24594943225383759
1772810373037372000,7.295371826171875,2.612363338470459,4.042244911193848,-0.19845469295978546
1772810373047071700,7.30507177734375,3.0308055877685547,3.9054112434387207,-0.40462157130241394
1772810373056771800,7.314771728515625,3.22170090675354,3.3150105476379395,-0.3548360764980316
1772810373066472000,7.324471923828125,2.9211554527282715,1.6284128427505493,-0.32154396176338196
1772810373076171800,7.334171875,1.96148681640625,-0.49915286898612976,-0.20792309939861298
1772810373085871900,7.343871826171875,1.053130865097046,-2.007683515548706,0.28962627053260803
1772810373095572000,7.353572021484375,0.8817833065986633,-2.8225769996643066,0.9783763289451599
1772810373105271800,7.363271728515625,1.1441497802734375,-3.0458481311798096,1.570304274559021
1772810373114971600,7.3729716796875,1.378721833229065,-2.564181327819824,2.049833059310913
1772810373124671700,7.382671630859375,1.4123194217681885,-1.6225332021713257,2.3943607807159424
1772810373134371800,7.392371826171875,1.2311979532241821,-0.5975021123886108,2.588921308517456
1772810373144071700,7.40207177734375,0.8432988524436951,0.2536616027355194,2.583423614501953
1772810373153771800,7.411771728515625,0.30543237924575806,0.8294016718864441,2.346102476119995
1772810373163471600,7.4214716796875,-0.23976442217826843,1.1378883123397827,1.9447643756866455
1772810373173171700,7.431171630859375,-0.7052434086799622,1.225242018699646,1.5183807611465454
1772810373182871600,7.44087158203125,-1.0641264915466309,1.291215419769287,1.1210132837295532
1772810373192571600,7.450571533203125,-1.258686900138855,1.4665336608886719,0.7981712222099304
1772810373202271700,7.460271728515625,-1.3194679021835327,1.8046473264694214,0.6372083425521851
1772810373211971600,7.4699716796875,-1.2800670862197876,2.2368340492248535,0.7221185564994812
1772810373221671400,7.47967138671875,-1.1966841220855713,2.5221078395843506,1.042517066001892
1772810373231371500,7.48937158203125,-1.1331541538238525,2.5269949436187744,1.5009710788726807
1772810373241071600,7.499071533203125,-1.063210129737854,2.1775801181793213,1.9890520572662354
1772810373250771500,7.508771484375,-0.9483675956726074,1.428049087524414,2.4004695415496826
1772810373260471600,7.518471435546875,-0.8390227556228638,0.3813323378562927,2.677802085876465
1772810373270171600,7.528171630859375,-0.7617483735084534,-0.699821949005127,2.820133686065674
1772810373279871500,7.53787158203125,-0.6682860851287842,-1.5553381443023682,2.8592288494110107
1772810373289571300,7.5475712890625,-0.5577195286750793,-1.9282710552215576,2.7465243339538574
1772810373299271400,7.557271484375,-0.476779967546463,-1.8030437231063843,2.3922228813171387
1772810373308971500,7.566971435546875,-0.38270679116249084,-1.3540581464767456,1.8415281772613525
1772810373318671400,7.57667138671875,-0.24923282861709595,-0.6995165348052979,1.2334123849868774
1772810373328371500,7.586371337890625,-0.15088360011577606,0.11927134543657303,0.673249363899231
1772810373338071600,7.596071533203125,-0.11911863088607788,0.8889609575271606,0.22395829856395721
1772810373347771400,7.605771484375,-0.09865466505289078,1.4662281274795532,-0.08605557680130005
1772810373357471200,7.61547119140625,-0.06933315098285675,1.7860158681869507,-0.23877176642417908
1772810373367171300,7.62517138671875,-0.07574722915887833,1.864817500114441,-0.22869250178337097
1772810373376871400,7.634871337890625,-0.1750127524137497,1.7576106786727905,-0.05306887626647949
1772810373386571300,7.6445712890625,-0.3454440236091614,1.4958550930023193,0.2658025324344635
1772810373396271400,7.654271240234375,-0.5369501113891602,1.0600031614303589,0.627129077911377
1772810373405971200,7.66397119140625,-0.7275399565696716,0.503810703754425,0.9111811518669128
1772810373415671300,7.67367138671875,-0.850934624671936,0.005039634648710489,1.0929133892059326
1772810373425371100,7.68337109375,-0.8698714375495911,-0.2923751473426819,1.1506401300430298
1772810373435071200,7.6930712890625,-0.8362739086151123,-0.11950042098760605,0.866893470287323
1772810373444771300,7.702771240234375,-0.7476984858512878,0.23991714417934418,0.43287405371665955
1772810373454471200,7.71247119140625,-0.6191114783287048,0.6604975461959839,0.13355031609535217
1772810373464171300,7.722171142578125,-0.537255585193634,0.9182825088500977,-0.0243582334369421
1772810373473871000,7.73187109375,-0.5671879649162292,1.0175479650497437,-0.09949459880590439
1772810373483571200,7.7415712890625,-0.581848680973053,0.9286671876907349,-0.07078395783901215
1772810373493271000,7.75127099609375,-0.47494736313819885,0.633619487285614,0.10270164161920547
1772810373502971100,7.76097119140625,-0.31184646487236023,0.40515607595443726,0.2141844630241394
1772810373512671200,7.770671142578125,-0.11453714966773987,0.378888875246048,0.1934150606393814
1772810373522371000,7.78037109375,0.10934479534626007,0.6559160351753235,-0.012446369975805283
1772810373532071200,7.7900712890625,0.3326158821582794,1.0428988933563232,-0.3508654534816742
1772810373541771000,7.79977099609375,0.45387253165245056,1.0071632862091064,-0.7601448893547058
1772810373551471000,7.80947119140625,0.33719736337661743,0.2942841053009033,-1.1040617227554321
1772810373561171000,7.8191708984375,0.08643736690282822,-0.5348884463310242,-1.2372303009033203
1772810373570871000,7.82887109375,-0.03695731982588768,-1.0932189226150513,-1.156596064567566
1772810373580571100,7.838571044921875,-0.01893680728971958,-1.3528363704681396,-0.9134719371795654
1772810373590271000,7.84827099609375,0.23029601573944092,-1.4466041326522827,-0.6953932046890259
1772810373599970800,7.857970703125,0.5577195286750793,-1.45698881149292,-0.7063887715339661
1772810373609671000,7.8676708984375,0.8142827749252319,-1.4841723442077637,-0.871016800403595
1772810373619371000,7.87737109375,0.9584468603134155,-1.3864339590072632,-1.0814597606658936
1772810373629070800,7.88707080078125,0.9517273306846619,-1.1733185052871704,-1.2928189039230347
1772810373638771000,7.89677099609375,0.7147117853164673,-0.9493602514266968,-1.5359431505203247
1772810373648470800,7.906470703125,0.4214966893196106,-0.6912698745727539,-1.7723478078842163
1772810373658171000,7.9161708984375,0.2254091054201126,-0.40080365538597107,-1.9494985342025757
1772810373667871000,7.92587109375,0.15057817101478577,-0.04528035223484039,-2.0063090324401855
1772810373677570800,7.93557080078125,0.12064579129219055,0.3306305706501007,-2.0145556926727295
1772810373687271000,7.94527099609375,0.07391463965177536,0.5688678026199341,-2.038074016571045
1772810373696970800,7.954970703125,0.05192350596189499,0.6476693749427795,-2.0111958980560303
1772810373706670800,7.9646708984375,0.07422006875276566,0.6094903349876404,-1.926896572113037
1772810373716370700,7.97437060546875,0.09682206809520721,0.44669488072395325,-1.8059453964233398
1772810373726070800,7.98407080078125,0.1340848207473755,0.16294817626476288,-1.602527379989624
1772810373735771000,7.99377099609375,0.2009745091199875,-0.14515674114227295,-1.278158187866211
1772810373745470700,8.003470703125,0.26969680190086365,-0.44784024357795715,-0.8575778007507324
1772810373755170800,8.0131708984375,0.3035998046398163,-0.7056251764297485,-0.4107302129268646
1772810373764870700,8.02287060546875,0.29535311460494995,-0.8421534299850464,-0.00511599238961935
1772810373774570800,8.03257080078125,0.2522871494293213,-0.8482621312141418,0.3110065162181854
1772810373784270600,8.0422705078125,0.18081597983837128,-0.7596867084503174,0.5141190886497498
1772810373793970700,8.051970703125,0.09437860548496246,-0.6057487726211548,0.6191878318786621
1772810373803670800,8.0616708984375,0.0204639695584774,-0.4087449014186859,0.6372083425521851
1772810373813370600,8.07137060546875,-0.02871064469218254,-0.21540619432926178,0.552603542804718
1772810373823070700,8.08107080078125,-0.05589412897825241,-0.06849320977926254,0.38644832372665405
1772810373832770600,8.0907705078125,-0.06352993845939636,-0.0010690133785828948,0.19646938145160675
1772810373842470700,8.100470703125,-0.047952886670827866,-0.029703300446271896,0.04528035223484039
1772810373852170500,8.11017041015625,-0.020769402384757996,-0.12255474925041199,-0.036880962550640106
1772810373861870600,8.11987060546875,0.008552107028663158,-0.21265730261802673,-0.021609341725707054
1772810373871570700,8.12957080078125,0.04062250629067421,-0.2716057598590851,0.07185296714305878
1772810373881270500,8.1392705078125,0.07483093440532684,-0.2905425727367401,0.20532692968845367
1772810373890970600,8.148970703125,0.08643736690282822,-0.27626359462738037,0.32475098967552185
1772810373900670500,8.15867041015625,0.06200277432799339,-0.28260132670402527,0.4102720618247986
1772810373910370600,8.16837060546875,0.023518294095993042,-0.307646781206131,0.4566977918148041
1772810373920070400,8.1780703125,-0.03756818547844887,-0.3626246154308319,0.4664716124534607
1772810373929770500,8.1877705078125,-0.12156209349632263,-0.45394888520240784,0.46952593326568604
1772810373939470600,8.197470703125,-0.2049451321363449,-0.5654317140579224,0.49548768997192383
1772810373949170400,8.20717041015625,-0.2813032269477844,-0.69096440076828,0.5550470352172852
1772810373958870500,8.21687060546875,-0.33322674036026,-0.7887027859687805,0.6521745324134827
1772810373968570400,8.2265703125,-0.34666576981544495,-0.8180242776870728,0.7321978211402893
1772810373978270500,8.2362705078125,-0.31612253189086914,-0.7602975964546204,0.720285952091217
1772810373987970300,8.24597021484375,-0.2626718580722809,-0.6042216420173645,0.5865065455436707
1772810373997670400,8.25567041015625,-0.2055560052394867,-0.4298197329044342,0.3177260458469391
1772810374007370500,8.26537060546875,-0.1588248461484909,-0.3125337064266205,-0.0732274129986763
1772810374017070300,8.2750703125,-0.12095122784376144,-0.2761872410774231,-0.5432878732681274
1772810374026770400,8.2847705078125,-0.09285144507884979,-0.2749654948711395,-1.0054070949554443
1772810374036470300,8.29447021484375,-0.08674279600381851,-0.27924156188964844,-1.3826160430908203
1772810374046170400,8.30417041015625,-0.11514800786972046,-0.270689457654953,-1.6324597597122192
1772810374055870500,8.313870361328124,-0.1493564397096634,-0.22731806337833405,-1.722867727279663
1772810374065570300,8.3235703125,-0.15027274191379547,-0.14149154722690582,-1.6397901773452759
1772810374084970200,8.34297021484375,-0.08979712426662445,0.10827577859163284,-1.168202519416809
1772810374094670300,8.35267041015625,-0.04245510324835777,0.15806126594543457,-0.8762091398239136
1772810374104370200,8.3623701171875,0.013439024798572063,0.141262486577034,-0.6071232557296753
1772810374114070300,8.3720703125,0.08552107214927673,0.0639880821108818,-0.38934993743896484
1772810374123770400,8.381770263671875,0.18264856934547424,-0.028787001967430115,-0.22044582664966583
1772810374133470200,8.39147021484375,0.30024003982543945,-0.12896881997585297,-0.1141553521156311
1772810374143170300,8.40117041015625,0.42791077494621277,-0.22762349247932434,-0.06559160351753235
1772810374152870100,8.4108701171875,0.5491674542427063,-0.34979644417762756,-0.02649625949561596
1772810374162570200,8.4205703125,0.6423243284225464,-0.46463900804519653,0.04833467677235603
1772810374172270000,8.43027001953125,0.7544180154800415,-0.5752055644989014,0.22395829856395721
1772810374181970200,8.43997021484375,0.7504473924636841,-0.579787015914917,0.10819942504167557
1772810374191670300,8.449670166015625,0.7073814272880554,-0.3748418986797333,-0.1193477064371109
1772810374201370000,8.4593701171875,0.6652317643165588,-0.10850485414266586,-0.3453676700592041
1772810374211070200,8.4690703125,0.5387827157974243,0.17791436612606049,-0.6465240120887756
1772810374220770300,8.478770263671874,0.3298669755458832,0.4228711426258087,-0.9363793730735779
1772810374230470100,8.48847021484375,0.05742128938436508,0.5102248191833496,-1.1003965139389038
1772810374240170000,8.498169921875,-0.12705987691879272,0.48334676027297974,-1.1080323457717896
