time,seconds_elapsed,z,y,x
1772811898124832300,0.099832275390625,0.621783971786499,-0.6808851361274719,-0.06223184987902641
1772811898134533000,0.109533203125,0.7241038084030151,-0.6026944518089294,-0.4266127049922943
1772811898153934800,0.128934814453125,1.4033855199813843,-0.20563235878944397,-1.296789526939392
1772811898163635700,0.1386357421875,1.7384448051452637,-0.4906007647514343,-1.7711260318756104
1772811898173336600,0.148336669921875,2.030438184738159,-0.8226057887077332,-2.119929790496826
1772811898183037400,0.158037353515625,2.1993422508239746,-1.0944405794143677,-2.331594467163086
1772811898192738300,0.16773828125,2.2182791233062744,-0.9328668713569641,-2.233856201171875
1772811898202439200,0.177439208984375,2.088775873184204,-0.43317949771881104,-1.806250810623169
1772811898212140000,0.18714013671875,1.8435134887695312,0.1443931609392166,-1.1651482582092285
1772811898221841000,0.1968408203125,1.4598904848098755,0.5176315307617188,-0.49655669927597046
1772811898231541800,0.206541748046875,0.9443206191062927,0.7296016216278076,0.11736239492893219
1772811898241242600,0.21624267578125,0.4846448302268982,0.9153045415878296,0.5345830321311951
1772811898250943500,0.225943603515625,0.18226677179336548,0.502970814704895,0.6958513259887695
1772811898260644400,0.235644287109375,0.00847574882209301,-0.22762349247932434,0.7065414786338806
1772811898270345200,0.24534521484375,-0.038560837507247925,-1.0990221500396729,0.5581013560295105
1772811898280046000,0.255046142578125,0.05459604039788246,-2.033339738845825,0.2801578640937805
1772811898289747000,0.264746826171875,0.23999349772930145,-2.8503713607788086,-0.019471315667033195
1772811898299447800,0.27444775390625,0.4791470468044281,-3.159163475036621,-0.376827210187912
1772811898309148700,0.284148681640625,0.6233111619949341,-1.5205187797546387,-1.1559852361679077
1772811898318849500,0.293849609375,0.7580068111419678,0.36796966195106506,-1.4467568397521973
1772811898328550400,0.30355029296875,1.0127373933792114,1.621769666671753,-1.3447424173355103
1772811898338251300,0.313251220703125,1.243338942527771,2.2973861694335938,-1.1807252168655396
1772811898347952000,0.3229521484375,1.429347276687622,2.164522886276245,-1.1058943271636963
1772811898357653000,0.332653076171875,1.4391210079193115,1.9189553260803223,-1.1138355731964111
1772811898367353900,0.342353759765625,1.1966077089309692,1.6046653985977173,-1.177976369857788
1772811898377054700,0.3520546875,0.7577013969421387,1.0677152872085571,-1.3645955324172974
1772811898386755600,0.361755615234375,0.35391977429389954,0.2720639109611511,-1.5985567569732666
1772811898396456400,0.37145654296875,0.17951788008213043,-0.6243801712989807,-1.714010238647461
1772811898406157300,0.3811572265625,0.30718863010406494,-1.4979168176651,-1.5985567569732666
1772811898415858200,0.390858154296875,0.7680860757827759,-2.262108564376831,-1.2607485055923462
1772811898425559000,0.40055908203125,1.3468804359436035,-2.4417028427124023,-0.734183132648468
1772811898435260000,0.410260009765625,1.7381393909454346,-2.060828685760498,-0.12881611287593842
1772811898444960800,0.419960693359375,1.8025856018066406,-1.7725005149841309,0.29970553517341614
1772811898454661600,0.42966162109375,1.6046653985977173,-1.8323652744293213,0.474718302488327
1772811898464362500,0.439362548828125,1.4140756130218506,-2.0428082942962646,0.5654317140579224
1772811898474063400,0.4490634765625,1.3862812519073486,-2.354654550552368,0.6292670965194702
1772811898483764200,0.45876416015625,1.4925717115402222,-2.836932420730591,0.6735547780990601
1772811898493465000,0.468465087890625,1.6953787803649902,-3.441383123397827,0.7923679947853088
1772811898503166000,0.478166015625,1.9403356313705444,-4.136241912841797,1.124372959136963
1772811898512866800,0.48786669921875,2.167271852493286,-4.8338494300842285,1.6839251518249512
1772811898522567700,0.497567626953125,2.2210280895233154,-5.45876407623291,1.9691989421844482
1772811898532268500,0.5072685546875,2.253403902053833,-5.602928161621094,1.9047527313232422
1772811898541969400,0.516969482421875,2.3199880123138428,-4.669832229614258,1.7285182476043701
1772811898551670300,0.526670166015625,2.2210280895233154,-2.927340269088745,1.581605315208435
1772811898561371100,0.53637109375,2.0249404907226562,-1.0040326118469238,1.3635265827178955
1772811898571072000,0.546072021484375,1.7531055212020874,0.4935023784637451,0.8638391494750977
1772811898580772900,0.55577294921875,1.287015676498413,1.4913500547409058,0.16165009140968323
1772811898590473700,0.5654736328125,0.7231875658035278,2.1290929317474365,-0.565889835357666
1772811898600174600,0.575174560546875,0.27511823177337646,2.518824577331543,-1.2048543691635132
1772811898609875500,0.58487548828125,-0.034895651042461395,2.672762393951416,-1.6672790050506592
1772811898619576300,0.594576416015625,-0.25327980518341064,2.6593234539031982,-1.8740568161010742
1772811898629277200,0.604277099609375,-0.3635408878326416,2.5093562602996826,-1.808083415031433
1772811898638978000,0.61397802734375,-0.358348548412323,2.3111305236816406,-1.4980695247650146
1772811898648679000,0.623678955078125,-0.2957349121570587,2.202702045440674,-1.1010074615478516
1772811898658379800,0.6333798828125,-0.1320231556892395,1.9950079917907715,-0.6767618060112
1772811898668080600,0.64308056640625,0.12576179206371307,1.8370994329452515,-0.0023671009112149477
1772811898677781500,0.652781494140625,0.279394268989563,1.8407646417617798,0.7755692005157471
1772811898687482400,0.662482421875,0.32765260338783264,1.6907973289489746,1.386128544807434
1772811898697183200,0.672183349609375,0.2876409590244293,1.3306925296783447,1.728212833404541
1772811898706884000,0.681884033203125,0.16882775723934174,0.907974123954773,1.9093341827392578
1772811898716585000,0.6915849609375,0.008781181648373604,0.5072468519210815,2.022038698196411
1772811898726285800,0.701285888671875,-0.15981750190258026,0.13370302319526672,2.1038947105407715
1772811898735986700,0.710986572265625,-0.3000109791755676,-0.1476002037525177,2.1463496685028076
1772811898745687600,0.7206875,-0.37148213386535645,-0.3061196208000183,2.1203880310058594
1772811898755388400,0.730388427734375,-0.3730092942714691,-0.4004982113838196,2.0202062129974365
1772811898765089300,0.74008935546875,-0.3369682729244232,-0.4365392327308655,1.8671845197677612
1772811898774790100,0.7497900390625,-0.29481860995292664,-0.3986656367778778,1.6842305660247803
1772811898784491000,0.759490966796875,-0.2541961073875427,-0.2975675165653229,1.4808125495910645
1772811898794192000,0.76919189453125,-0.2248746007680893,-0.1885281354188919,1.2749511003494263
1772811898803892700,0.778892822265625,-0.22243113815784454,-0.09231694042682648,1.091386318206787
1772811898813593600,0.788593505859375,-0.2654971182346344,-0.01565340906381607,0.95149827003479
1772811898823294500,0.79829443359375,-0.35559967160224915,0.05001455545425415,0.8464295268058777
1772811898832995300,0.807995361328125,-0.4802160859107971,0.09460768103599548,0.7581595778465271
1772811898842696200,0.8176962890625,-0.6207149624824524,0.12667807936668396,0.6677515506744385
1772811898852396800,0.827396728515625,-0.7514400482177734,0.1556941568851471,0.581314206123352
1772811898862098000,0.837097900390625,-0.8497892618179321,0.19509494304656982,0.5128973126411438
1772811898871798800,0.846798828125,-0.8980475664138794,0.28092142939567566,0.4774671792984009
1772811898881499600,0.856499755859375,-0.9105703234672546,0.42080947756767273,0.48510298132896423
1772811898891200500,0.866200439453125,-0.8898009061813354,0.5845212340354919,0.5309178233146667
1772811898900901400,0.8759013671875,-0.8452077507972717,0.7409026026725769,0.5965858101844788
1772811898910602200,0.885602294921875,-0.7847321629524231,0.9299652576446533,0.6888263821601868
1772811898920302800,0.895302734375,-0.7227293848991394,1.1168898344039917,0.8143591284751892
1772811898930004000,0.90500390625,-0.6747764945030212,1.2372303009033203,0.9047670960426331
1772811898939704800,0.914704833984375,-0.6430115103721619,1.103756308555603,0.876667320728302
1772811898949405400,0.924405517578125,-0.5944477915763855,0.6110938787460327,0.6811906099319458
1772811898959106300,0.934106201171875,-0.47380200028419495,-0.2713003158569336,0.2868773639202118
1772811898968807400,0.943807373046875,-0.3375791609287262,-1.4805071353912354,-0.36216646432876587
1772811898978508300,0.95350830078125,-0.32414013147354126,-2.898629665374756,-1.2271510362625122
1772811898988209000,0.963208984375,-0.525420069694519,-4.232452869415283,-2.172769546508789
1772811898997910000,0.972909912109375,-0.7642682194709778,-4.9007391929626465,-3.133660078048706
1772811899007611000,0.98261083984375,-0.8613957166671753,-4.571483135223389,-4.024911880493164
1772811899017311500,0.9923115234375,-0.8568142056465149,-2.940168619155884,-4.523682594299316
1772811899027012400,1.002012451171875,-0.7526617646217346,0.17371466755867004,-4.419530391693115
1772811899036713500,1.01171337890625,-0.4154644012451172,3.609218120574951,-3.9173994064331055
1772811899046414300,1.021414306640625,0.12606722116470337,5.93111515045166,-3.329136610031128
1772811899056115000,1.031114990234375,0.6272817850112915,6.842831134796143,-2.8758749961853027
1772811899065815800,1.04081591796875,0.9534835815429688,6.379795551300049,-2.544480800628662
1772811899075517000,1.050516845703125,1.1685079336166382,4.877373695373535,-2.2072834968566895
1772811899085217500,1.060217529296875,1.3954442739486694,3.0157630443573,-1.761963129043579
1772811899094918400,1.06991845703125,1.6590323448181152,1.299538493156433,-1.2387573719024658
1772811899104619500,1.07961962890625,1.878943681716919,-0.07429642975330353,-0.7176897525787354
1772811899114320100,1.089320068359375,1.990731954574585,-1.042211651802063,-0.24518585205078125
1772811899124021000,1.09902099609375,1.9415572881698608,-1.5364012718200684,0.1375209391117096
1772811899133721900,1.108721923828125,1.740582823753357,-1.6173408031463623,0.3879754841327667
1772811899143423000,1.118423095703125,1.4455351829528809,-1.4426335096359253,0.4814378023147583
1772811899153123600,1.12812353515625,1.1449897289276123,-1.0513746738433838,0.4719693958759308
1772811899162824400,1.137824462890625,0.8792635202407837,-0.5095375776290894,0.4038579761981964
1772811899172525300,1.147525390625,0.6648499369621277,0.03474293276667595,0.29817837476730347
1772811899182226200,1.15722607421875,0.49716755747795105,0.46662431955337524,0.19708025455474854
1772811899191927000,1.166927001953125,0.3801869750022888,0.7491493225097656,0.1576794683933258
1772811899201628000,1.1766279296875,0.32734715938568115,0.8765146136283875,0.22120940685272217
1772811899211328800,1.186328857421875,0.3343721032142639,0.8206204771995544,0.3946950137615204
1772811899221029600,1.196029541015625,0.37407833337783813,0.6025417447090149,0.6784417033195496
1772811899230730500,1.20573046875,0.43516480922698975,0.2885572612285614,1.0382410287857056
1772811899240431400,1.215431396484375,0.4928915202617645,-0.03520108386874199,1.4133120775222778
1772811899250132200,1.22513232421875,0.5084685683250427,-0.34002259373664856,1.7285182476043701
1772811899259833000,1.2348330078125,0.47028952836990356,-0.5926151871681213,1.9395719766616821
1772811899269534000,1.244533935546875,0.38446301221847534,-0.8012255430221558,2.0370049476623535
1772811899279234800,1.25423486328125,0.25007277727127075,-0.977154552936554,2.035172462463379
1772811899288935700,1.263935791015625,0.07658717036247253,-1.051985502243042,1.9536218643188477
1772811899298636500,1.273636474609375,-0.11003202199935913,-0.9985348582267761,1.7947970628738403
1772811899308337400,1.28333740234375,-0.29359689354896545,-0.8519272804260254,1.5669444799423218
1772811899318038300,1.293038330078125,-0.4447859227657318,-0.636292040348053,1.2865575551986694
1772811899327739100,1.3027392578125,-0.5541307330131531,-0.3742310404777527,0.977154552936554
1772811899337440000,1.31243994140625,-0.6650026440620422,-0.1430187225341797,0.6427060961723328
1772811899347140900,1.322140869140625,-0.7728202939033508,0.020998476073145866,0.3061196208000183
1772811899356841700,1.331841796875,-0.8430697321891785,0.12026400119066238,-0.000839939049910754
1772811899366542600,1.34154248046875,-0.8662826418876648,0.1508072465658188,-0.23419028520584106
1772811899376243500,1.351243408203125,-0.866893470287323,0.14683662354946136,-0.3756054937839508
1772811899385944300,1.3609443359375,-0.8696423768997192,0.17676898837089539,-0.4064541459083557
1772811899395645200,1.370645263671875,-0.876667320728302,0.24060437083244324,-0.3517817556858063
1772811899405346000,1.380345947265625,-0.8855248689651489,0.29558220505714417,-0.2745073735713959
1772811899415047000,1.390046875,-0.8806379437446594,0.354225218296051,-0.21281002461910248
1772811899424747800,1.399747802734375,-0.8134428262710571,0.4791470468044281,-0.18959715962409973
1772811899434448600,1.40944873046875,-0.6347648501396179,0.5048033595085144,-0.2931387424468994
1772811899444149500,1.4191494140625,-0.3827831447124481,0.07658717036247253,-0.6840922236442566
1772811899453850400,1.428850341796875,-0.1573740392923355,-0.932561457157135,-1.3942224979400635
1772811899463551200,1.43855126953125,0.041157014667987823,-2.077322006225586,-2.1990368366241455
1772811899473252000,1.448252197265625,0.279394268989563,-3.0043094158172607,-2.9558982849121094
1772811899482953000,1.457952880859375,0.43913543224334717,-3.647549867630005,-3.700847864151001
1772811899492653800,1.46765380859375,0.4898371994495392,-3.558974504470825,-4.1770172119140625
1772811899502354700,1.477354736328125,0.4993056058883667,-2.65092396736145,-4.177628040313721
1772811899512055600,1.4870556640625,0.39454227685928345,-1.1399500370025635,-3.6935174465179443
1772811899521756400,1.49675634765625,0.2176969349384308,0.7858011722564697,-2.7161338329315186
1772811899531457300,1.506457275390625,0.325514554977417,2.507523536682129,-1.3682607412338257
1772811899541158100,1.516158203125,0.6929497122764587,3.312948703765869,-0.026801692321896553
1772811899550859000,1.52585888671875,0.9434043169021606,2.9500951766967773,1.0003674030303955
1772811899560559900,1.535559814453125,0.9669225811958313,1.6642247438430786,1.708665132522583
1772811899570260700,1.5452607421875,0.8319214582443237,0.008781181648373604,2.1622321605682373
1772811899579961600,1.554961669921875,0.5836049318313599,-1.4337760210037231,2.401080369949341
1772811899589662200,1.564662109375,0.2885572612285614,-2.1967461109161377,2.432539939880371
1772811899599363300,1.57436328125,0.028328854590654373,-2.2379794120788574,2.2627193927764893
1772811899609064200,1.584064208984375,-0.1882227063179016,-1.8464151620864868,1.9410991668701172
1772811899618765000,1.59376513671875,-0.38156139850616455,-1.3458114862442017,1.5825215578079224
1772811899628465700,1.603465576171875,-0.6207149624824524,-1.0018945932388306,1.265482783317566
1772811899638166800,1.613166748046875,-0.903239905834198,-0.9087377190589905,1.0495420694351196
1772811899647867600,1.62286767578125,-1.1656063795089722,-1.0938297510147095,0.9460004568099976
1772811899657568300,1.632568359375,-1.3528363704681396,-1.4606540203094482,0.9246202111244202
1772811899667269400,1.642269287109375,-1.4627920389175415,-1.7862449884414673,0.894076943397522
1772811899676970200,1.65197021484375,-1.5202133655548096,-1.830227255821228,0.8189405798912048
1772811899686671000,1.661671142578125,-1.535485029220581,-1.6103159189224243,0.6860775351524353
1772811899696371700,1.671371826171875,-1.4847831726074219,-1.2428807020187378,0.5562687516212463
1772811899706072800,1.68107275390625,-1.359250545501709,-0.7639627456665039,0.5113701820373535
1772811899715773700,1.690773681640625,-1.1885137557983398,-0.16562071442604065,0.5822305083274841
1772811899725474300,1.700474365234375,-1.0147227048873901,0.5090794563293457,0.7364738583564758
1772811899735175200,1.710175048828125,-0.8513164520263672,1.1404081583023071,0.9426407217979431
1772811899744876300,1.719876220703125,-0.7331140637397766,1.5603777170181274,1.1662172079086304
1772811899754577000,1.729576904296875,-0.6781362891197205,1.659643292427063,1.346727728843689
1772811899764277800,1.73927783203125,-0.6482039093971252,1.4437025785446167,1.432248830795288
1772811899773978600,1.748978515625,-0.5868119597434998,1.074129343032837,1.3806307315826416
1772811899783679700,1.7586796875,-0.4805215001106262,0.7170788645744324,1.1869865655899048
1772811899793380400,1.76838037109375,-0.34490951895713806,0.47090038657188416,0.85834139585495
1772811899803081200,1.778081298828125,-0.19555309414863586,0.345062255859375,0.4469239413738251
1772811899812782000,1.787781982421875,-0.05810851231217384,0.3392590284347534,0.027870705351233482
1772811899822483000,1.79748291015625,0.03413207083940506,0.4589885175228119,-0.30779948830604553
1772811899832183800,1.807183837890625,0.060093823820352554,0.6425533890724182,-0.5179370045661926
1772811899841884700,1.816884765625,0.002672533504664898,0.8426116108894348,-0.641331672668457
1772811899851585500,1.82658544921875,-0.1573740392923355,1.0142645835876465,-0.734183132648468
1772811899861286400,1.836286376953125,-0.40202537178993225,1.1196388006210327,-0.8114575147628784
1772811899870987300,1.8459873046875,-0.6918807029724121,1.1419353485107422,-0.871933102607727
1772811899880688000,1.855688232421875,-0.9533308744430542,1.1156681776046753,-0.9055306911468506
1772811899890389000,1.865388916015625,-1.116126298904419,1.103756308555603,-0.8963677287101746
1772811899900089900,1.87508984375,-1.1610249280929565,1.121776819229126,-0.8526908755302429
1772811899909790700,1.884790771484375,-1.1200969219207764,1.174921989440918,-0.7839685678482056
1772811899919491600,1.89449169921875,-1.0135010480880737,1.2919026613235474,-0.6886736750602722
1772811899929192400,1.9041923828125,-0.8635337352752686,1.4424808025360107,-0.5695550441741943
1772811899938893300,1.913893310546875,-0.6891318559646606,1.6006947755813599,-0.41470083594322205
1772811899948594200,1.92359423828125,-0.4979311525821686,1.7485240697860718,-0.22869250178337097
1772811899958295000,1.933294921875,-0.30856308341026306,1.842902660369873,-0.018555017188191414
1772811899967996000,1.942995849609375,-0.16928590834140778,1.8587851524353027,0.20227259397506714
1772811899977696800,1.95269677734375,-0.10453423857688904,1.8129702806472778,0.43256860971450806
1772811899987397600,1.962397705078125,-0.10422880202531815,1.6703333854675293,0.6625592112541199
1772811899997098500,1.972098388671875,-0.16226094961166382,1.417740821838379,0.8791107535362244
1772811900006799400,1.98179931640625,-0.23922991752624512,1.1165844202041626,1.0831396579742432
1772811900016500200,1.991500244140625,-0.28260132670402527,0.835281252861023,1.2584577798843384
1772811900026201000,2.001201171875,-0.30031639337539673,0.5322923064231873,1.3729948997497559
1772811900035902000,2.01090185546875,-0.3333030939102173,0.14836378395557404,1.4090359210968018
1772811900045602800,2.020602783203125,-0.4347066581249237,-0.37117671966552734,1.320155143737793
1772811900055303700,2.0303037109375,-0.6662244200706482,-1.091080904006958,1.0864993333816528
1772811900065004500,2.040004638671875,-1.0489312410354614,-1.803654670715332,0.8326850533485413
1772811900074705400,2.049705322265625,-1.5037200450897217,-1.93071448802948,0.6784417033195496
1772811900084406300,2.05940625,-1.9010875225067139,-1.2926661968231201,0.5553524494171143
1772811900094107100,2.069107177734375,-2.2889866828918457,-0.48479756712913513,0.2771035432815552
1772811900103807700,2.078807861328125,-2.6206862926483154,0.20303617417812347,-0.2317468225955963
1772811900113508900,2.0885087890625,-2.7330853939056396,0.4855611324310303,-0.9928843379020691
1772811900123209700,2.098209716796875,-2.7324745655059814,0.6275871992111206,-1.6831614971160889
1772811900132910300,2.107910400390625,-2.6267948150634766,1.0958150625228882,-1.9464442729949951
1772811900142611200,2.117611083984375,-2.3167810440063477,1.4516438245773315,-1.8227441310882568
1772811900152312300,2.127312255859375,-1.8085415363311768,1.3496294021606445,-1.3933062553405762
1772811900162013200,2.13701318359375,-1.2071452140808105,0.7518981695175171,-0.7207440733909607
1772811900181414700,2.15641455078125,-0.36079201102256775,-1.1857649087905884,0.949971079826355
1772811900191115800,2.16611572265625,-0.2871828079223633,-2.242866277694702,1.6674318313598633
1772811900200816400,2.17581640625,-0.31375542283058167,-3.128314971923828,2.133826971054077
1772811900210517200,2.185517333984375,-0.3742310404777527,-3.5073564052581787,2.2889866828918457
1772811900220218000,2.195218017578125,-0.46036297082901,-3.3131015300750732,2.071518898010254
1772811900229919200,2.204919189453125,-0.5632936954498291,-2.504927396774292,1.5367066860198975
1772811900239619800,2.214619873046875,-0.663475513458252,-1.2660936117172241,0.821384072303772
1772811900249320700,2.22432080078125,-0.7676279544830322,0.08391755074262619,0.12560907006263733
1772811900259021600,2.234021484375,-0.8589522242546082,1.335884928703308,-0.37407833337783813
1772811900268722400,2.243722412109375,-0.9420298337936401,2.189568519592285,-0.6462185978889465
1772811900278423300,2.25342333984375,-1.0342704057693481,2.543564558029175,-0.6926442980766296
1772811900288124200,2.263124267578125,-1.1008546352386475,2.484921455383301,-0.5304597020149231
1772811900297825000,2.272824951171875,-1.088331937789917,2.027383804321289,-0.24671301245689392
1772811900307526000,2.28252587890625,-0.9808197617530823,1.3557380437850952,0.057497646659612656
1772811900317226800,2.292226806640625,-0.7856484651565552,0.7094430923461914,0.2871828079223633
1772811900326927600,2.301927734375,-0.5309178233146667,0.24488042294979095,0.39713847637176514
1772811900336628500,2.31162841796875,-0.2755763828754425,0.00755945174023509,0.404468834400177
1772811900346329300,2.321329345703125,-0.08498656004667282,-0.05780307948589325,0.3476584255695343
1772811900356030200,2.3310302734375,0.028328854590654373,-0.03520108386874199,0.2566395699977875
1772811900365731000,2.34073095703125,0.0576503649353981,0.03260490670800209,0.14912736415863037
1772811900375432000,2.350431884765625,0.04329504072666168,0.13339759409427643,0.046196650713682175
1772811900385132800,2.3601328125,0.028328854590654373,0.25037819147109985,-0.049709122627973557
1772811900394833700,2.369833740234375,0.020387612283229828,0.3707185685634613,-0.13889537751674652
1772811900404534500,2.379534423828125,0.014584396965801716,0.45654505491256714,-0.22350014746189117
1772811900414235400,2.3892353515625,0.00603228947147727,0.46692976355552673,-0.29161158204078674
1772811900423936300,2.398936279296875,-0.03214675933122635,0.4324159026145935,-0.3358992636203766
1772811900433637000,2.40863720703125,-0.09353867173194885,0.38904449343681335,-0.3649153411388397
1772811900443338000,2.418337890625,-0.13324488699436188,0.37804892659187317,-0.3872119188308716
1772811900453038800,2.428038818359375,-0.12988512217998505,0.4107302129268646,-0.4018726646900177
1772811900462739700,2.43773974609375,-0.08712458610534668,0.46143198013305664,-0.40462157130241394
1772811900472440600,2.447440673828125,-0.030314164236187935,0.5066359639167786,-0.39851289987564087
1772811900482141400,2.457141357421875,0.007254019379615784,0.5283216834068298,-0.39362600445747375
1772811900491842300,2.46684228515625,0.021914774551987648,0.5283216834068298,-0.3902662396430969
1772811900501543200,2.476543212890625,0.007864884100854397,0.5124391913414001,-0.39362600445747375
1772811900511243800,2.486243896484375,-0.025121813639998436,0.4983893036842346,-0.42966702580451965
1772811900520944600,2.495944580078125,-0.047723811119794846,0.45654505491256714,-0.49716755747795105
1772811900530645800,2.505645751953125,-0.02176205813884735,0.35941755771636963,-0.5603920817375183
1772811900540346600,2.5153466796875,0.07444914430379868,0.26473352313041687,-0.5631409883499146
1772811900550047200,2.525047119140625,0.19387321174144745,0.10193806141614914,-0.4935023784637451
1772811900559748000,2.534748046875,0.27084216475486755,-0.27404922246932983,-0.3239873945713043
1772811900569449200,2.54444921875,0.2995528280735016,-0.8867465853691101,-0.0191658828407526
1772811900579149800,2.55414990234375,0.1807396113872528,-1.6488003730773926,0.35101816058158875
1772811900588850700,2.5638505859375,-0.10483966767787933,-2.237368583679199,0.6295725107192993
1772811900598551600,2.573551513671875,-0.27282747626304626,-2.2352306842803955,0.7184533476829529
1772811900608252400,2.58325244140625,-0.1839466542005539,-1.7419573068618774,0.4655553102493286
1772811900617953300,2.592953369140625,0.07506000995635986,-1.2324960231781006,-0.20456334948539734
1772811900627654100,2.602654052734375,0.4519635736942291,-0.8427643179893494,-1.0603848695755005
1772811900637355000,2.61235498046875,0.760755717754364,-0.5562687516212463,-1.72378408908844
1772811900647056000,2.622055908203125,0.8893427848815918,-0.3326922357082367,-1.900018572807312
1772811900656756700,2.6317568359375,0.9415717124938965,-0.13141228258609772,-1.554879903793335
1772811900666457600,2.64145751953125,1.0313688516616821,-0.13477204740047455,-0.926910936832428
1772811900676158500,2.651158447265625,1.179198145866394,-0.5303069949150085,-0.28092142939567566
1772811900685859300,2.660859375,1.3337469100952148,-1.2126429080963135,0.25847217440605164
1772811900695560200,2.670560302734375,1.3972768783569336,-1.9594250917434692,0.6436223983764648
1772811900705261000,2.680260986328125,1.353905439376831,-2.5293619632720947,0.9343940615653992
1772811900714962000,2.6899619140625,1.2747983932495117,-2.742248296737671,1.1567487716674805
1772811900724662800,2.699662841796875,1.1660645008087158,-2.49606990814209,1.1481966972351074
1772811900734363600,2.70936376953125,0.9681442975997925,-1.8161773681640625,0.7755692005157471
1772811900744064500,2.719064453125,0.7057778835296631,-0.8326850533485413,0.12896881997585297
1772811900753765400,2.728765380859375,0.42478010058403015,0.2827540338039398,-0.5768854022026062
1772811900763466200,2.73846630859375,0.15172353386878967,1.307785153388977,-1.1712568998336792
1772811900773167000,2.7481669921875,-0.09995274990797043,2.0677008628845215,-1.5460224151611328
1772811900782868000,2.757867919921875,-0.2905425727367401,2.5340962409973145,-1.6440662145614624
1772811900792568800,2.76756884765625,-0.3901135325431824,2.7164392471313477,-1.4730240106582642
1772811900802269700,2.777269775390625,-0.3381900191307068,2.75675630569458,-1.054581642150879
1772811900811970600,2.786970458984375,-0.1115591824054718,2.719799041748047,-0.4699840843677521
1772811900821671200,2.796671142578125,0.22288928925991058,2.5878522396087646,0.19158247113227844
1772811900831372000,2.8063720703125,0.5707767605781555,2.401538610458374,0.859257698059082
1772811900841073200,2.8160732421875,0.8554397821426392,2.1938445568084717,1.4548507928848267
1772811900850774000,2.82577392578125,1.036561131477356,1.9220097064971924,1.8903974294662476
1772811900860474600,2.835474609375,1.1187224388122559,1.5710678100585938,2.1151957511901855
1772811900870175500,2.845175537109375,1.122998595237732,1.1819469928741455,2.1405465602874756
1772811900879876600,2.854876708984375,1.0304524898529053,0.8053488731384277,2.0085997581481934
1772811900889577200,2.8645771484375,0.8658244609832764,0.4883100390434265,1.7691407203674316
1772811900899278000,2.874278076171875,0.6352230310440063,0.320933073759079,1.4255293607711792
1772811900908979000,2.88397900390625,0.35758498311042786,0.32276567816734314,0.9887610077857971
1772811900918679800,2.8936796875,0.12820523977279663,0.4278344213962555,0.49396052956581116
1772811900928380700,2.903380615234375,0.002061668550595641,0.6385827660560608,0.04344775900244713
1772811900938081500,2.91308154296875,-0.04741837829351425,0.8957568407058716,-0.3038288652896881
1772811900947782400,2.922782470703125,-0.06146826967597008,1.1724785566329956,-0.5503128170967102
1772811900957483300,2.932483154296875,-0.06085740402340889,1.408272385597229,-0.7189114689826965
1772811900967184100,2.94218408203125,-0.061162836849689484,1.493488073348999,-0.8468876481056213
1772811900976885000,2.951885009765625,-0.04741837829351425,1.4537818431854248,-0.9223294854164124
1772811900986585900,2.9615859375,0.004199695307761431,1.3364957571029663,-0.9406554102897644
1772811900996286700,2.97128662109375,0.08269581943750381,1.1743111610412598,-0.9232457280158997
1772811901005987600,2.980987548828125,0.16638429462909698,1.00052011013031,-0.880179762840271
1772811901015688400,2.9906884765625,0.23449571430683136,0.8429170250892639,-0.8306997418403625
1772811901025389300,3.000389404296875,0.2897789776325226,0.6880627870559692,-0.7839685678482056
1772811901035090200,3.010090087890625,0.33742642402648926,0.5341249108314514,-0.7445678114891052
1772811901044791000,3.019791015625,0.3716348707675934,0.36766424775123596,-0.7112756967544556
1772811901054492000,3.029491943359375,0.38354671001434326,0.1657734364271164,-0.6749292016029358
1772811901064192800,3.03919287109375,0.4058432877063751,-0.051389001309871674,-0.6107884049415588
1772811901073893600,3.0488935546875,0.4843394160270691,-0.1986074149608612,-0.4797579348087311
1772811901083594500,3.058594482421875,0.5930733680725098,-0.24167338013648987,-0.28733551502227783
1772811901093295400,3.06829541015625,0.6798161268234253,-0.20166173577308655,-0.06986765563488007
1772811901102996000,3.077995849609375,0.6895899772644043,-0.09506583213806152,0.1521816849708557
1772811901112697000,3.087697021484375,0.5988765358924866,0.07414371520280838,0.38064512610435486
1772811901122398000,3.09739794921875,0.4369973838329315,0.344451367855072,0.6256018877029419
1772811901132098600,3.1070986328125,0.261984646320343,0.780303418636322,0.8919389247894287
1772811901141799400,3.11679931640625,0.08177952468395233,1.092455267906189,1.088331937789917
1772811901151500300,3.126500244140625,-0.12896881997585297,0.9687551856040955,1.0098358392715454
1772811901161201400,3.136201416015625,-0.35040730237960815,0.4134790897369385,0.6115520000457764
1772811901170902000,3.145902099609375,-0.5865065455436707,-0.3580431044101715,0.044669486582279205
1772811901180603000,3.155602783203125,-0.764879047870636,-0.8290198445320129,-0.35208719968795776
1772811901190303700,3.1653037109375,-0.8922443389892578,-0.6814960241317749,-0.3304014801979065
1772811901200004600,3.175004638671875,-0.9524145722389221,-0.147905632853508,-0.01672242395579815
1772811901209705500,3.18470556640625,-0.866893470287323,0.021914774551987648,0.22243113815784454
1772811901219406300,3.19440625,-0.7450259327888489,-0.38583746552467346,0.037033677101135254
1772811901229107200,3.204107177734375,-0.6457604169845581,-0.9011018872261047,-0.4794524908065796
1772811901238808000,3.21380810546875,-0.4756345748901367,-1.1112394332885742,-0.9434043169021606
1772811901248509000,3.223509033203125,-0.1417969912290573,-1.0205259323120117,-1.056108832359314
1772811901258209800,3.233209716796875,0.3820195496082306,-0.8873574733734131,-0.7748056054115295
1772811901267910700,3.24291064453125,0.9397391080856323,-1.0113630294799805,-0.23449571430683136
1772811901277611500,3.252611572265625,1.2906808853149414,-1.4328596591949463,0.4041634202003479
1772811901287312400,3.2623125,1.3090068101882935,-2.0675482749938965,0.932561457157135
1772811901297013200,3.27201318359375,1.0438915491104126,-2.8522040843963623,1.160719394683838
1772811901306714000,3.281714111328125,0.7439569234848022,-3.5125489234924316,1.1017709970474243
1772811901316415000,3.2914150390625,0.5900190472602844,-3.7446775436401367,0.8210785984992981
1772811901326115800,3.30111572265625,0.5820778012275696,-3.4731481075286865,0.3226129710674286
1772811901335816700,3.310816650390625,0.6230056881904602,-2.8241043090820312,-0.390571653842926
1772811901345517300,3.320517333984375,0.6727911829948425,-1.8033491373062134,-1.1346049308776855
1772811901355218400,3.330218505859375,0.7366265654563904,-0.6451495885848999,-1.6868267059326172
1772811901364919300,3.339919189453125,0.797713041305542,0.38354671001434326,-1.98920476436615
1772811901374620200,3.3496201171875,0.8090140223503113,1.1168898344039917,-2.0817508697509766
1772811901384320800,3.35932080078125,0.7183006405830383,1.4574470520019531,-2.0029492378234863
1772811901394021600,3.369021728515625,0.5414552688598633,1.4201842546463013,-1.7705152034759521
1772811901403722800,3.37872265625,0.37285658717155457,1.0252602100372314,-1.4308743476867676
1772811901413423400,3.38842333984375,0.25984659790992737,0.36308276653289795,-1.0628283023834229
1772811901423124200,3.398124267578125,0.21036656200885773,-0.32505643367767334,-0.6825650334358215
1772811901432825000,3.4078251953125,0.23449571430683136,-0.8693369626998901,-0.2992473840713501
1772811901442526000,3.41752587890625,0.3187950551509857,-1.2101994752883911,0.060551971197128296
1772811901452226800,3.427226806640625,0.4339430630207062,-1.3528363704681396,0.35651594400405884
1772811901461927700,3.436927734375,0.5518399477005005,-1.3158791065216064,0.5373319387435913
1772811901471628500,3.446628662109375,0.6562978625297546,-1.1738530397415161,0.5755109786987305
1772811901481329400,3.456329345703125,0.7338776588439941,-0.9850957989692688,0.48479756712913513
1772811901491030300,3.4660302734375,0.7314342260360718,-0.7719039916992188,0.2975675165653229
1772811901500731100,3.475731201171875,0.630641520023346,-0.5367210507392883,0.059024810791015625
1772811901510432000,3.485431884765625,0.4828122556209564,-0.331165075302124,-0.18226677179336548
1772811901520132900,3.4951328125,0.3453676700592041,-0.17692171037197113,-0.3969857394695282
1772811901529833700,3.504833740234375,0.23541201651096344,-0.06788235157728195,-0.5683333277702332
1772811901539534600,3.51453466796875,0.145614892244339,-0.0058795735239982605,-0.6871465444564819
1772811901549235500,3.5242353515625,0.07750347256660461,0.06650790572166443,-0.7537307739257812
1772811901558936300,3.533936279296875,0.05306887626647949,0.16149736940860748,-0.7745001912117004
1772811901568637200,3.54363720703125,0.06559160351753235,0.2726747691631317,-0.7628937363624573
1772811901578338000,3.553338134765625,0.08116865903139114,0.3875173330307007,-0.7210494875907898
1772811901588039000,3.563038818359375,0.09033162891864777,0.48036879301071167,-0.6624065041542053
1772811901597739500,3.572739501953125,0.10560324788093567,0.5493965148925781,-0.5906298756599426
1772811901607440600,3.582440673828125,0.1349247545003891,0.6202568411827087,-0.4886154532432556
1772811901617141500,3.5921416015625,0.1764635592699051,0.7390699982643127,-0.3245982825756073
1772811901626842000,3.601842041015625,0.20486877858638763,0.9043089747428894,-0.11995857208967209
1772811901636543000,3.61154296875,0.21067199110984802,1.0219004154205322,0.05871937796473503
1772811901646243800,3.621243896484375,0.16485713422298431,0.9305761456489563,0.14149154722690582
1772811901655945000,3.630945068359375,0.06498073786497116,0.6566032767295837,0.14362958073616028
1772811901665645600,3.6406455078125,-0.046807512640953064,0.31696245074272156,0.12133301794528961
1772811901675346400,3.650346435546875,-0.15676318109035492,-0.002825249684974551,0.08407026529312134
1772811901685047300,3.66004736328125,-0.3171151876449585,-0.34643667936325073,-0.014584396965801716
1772811901694748200,3.669748046875,-0.5626828074455261,-0.8797216415405273,-0.30138540267944336
1772811901704449000,3.679448974609375,-0.7166207432746887,-1.4496585130691528,-0.7754164934158325
1772811901714150000,3.68914990234375,-0.5690969228744507,-1.6371939182281494,-1.2344813346862793
1772811901723850800,3.698850830078125,-0.23922991752624512,-1.5889356136322021,-1.5964187383651733
1772811901733551600,3.708551513671875,0.041157014667987823,-1.6225332021713257,-1.9210933446884155
1772811901743252500,3.71825244140625,0.11659881472587585,-1.6234495639801025,-2.1657447814941406
1772811901752953300,3.727953369140625,0.07567087560892105,-1.060232162475586,-2.0808346271514893
1772811901762654200,3.737654296875,0.16760602593421936,0.05154171586036682,-1.4886010885238647
1772811901772355000,3.74735498046875,0.45104727149009705,1.1242202520370483,-0.4580722153186798
1772811901782056000,3.757055908203125,0.8615484237670898,1.381394386291504,0.6811906099319458
1772811901791756800,3.7667568359375,1.1892774105072021,0.7778599262237549,1.7526473999023438
1772811901801457700,3.776457763671875,1.2060761451721191,-0.3733147382736206,2.7355289459228516
1772811901811158500,3.786158447265625,0.8859829902648926,-1.568777084350586,3.527820348739624
1772811901820859400,3.795859375,0.408592164516449,-2.0147085189819336,3.9154140949249268
1772811901830560300,3.805560302734375,-0.014126247726380825,-1.4847831726074219,3.703444004058838
1772811901840260900,3.8152607421875,-0.2960403561592102,-0.3733147382736206,2.790506601333618
1772811901849961700,3.824961669921875,-0.3891972303390503,1.0194569826126099,1.3626102209091187
1772811901859662800,3.834662841796875,-0.27374377846717834,2.403981924057007,-0.11110103130340576
1772811901869363700,3.84436376953125,-0.15890119969844818,3.3789222240448,-1.2662463188171387
1772811901879064300,3.854064208984375,-0.13416117429733276,3.7002370357513428,-1.9272019863128662
1772811901888765200,3.86376513671875,-0.19708025455474854,3.3813655376434326,-2.1174864768981934
1772811901898466000,3.873466064453125,-0.30520331859588623,2.6593234539031982,-1.9186499118804932
1772811901908167000,3.8831669921875,-0.32994332909584045,1.9797364473342896,-1.3850594758987427
1772811901917867800,3.89286767578125,-0.21662792563438416,1.6055817604064941,-0.5646681189537048
1772811901927568600,3.902568603515625,0.003283398225903511,1.52158784866333,0.40110909938812256
1772811901937269500,3.91226953125,0.2570977210998535,1.6147446632385254,1.2969422340393066
1772811901946970400,3.921970458984375,0.49166980385780334,1.6602541208267212,1.9578980207443237
1772811901956671200,3.931671142578125,0.649578332901001,1.4131592512130737,2.337855815887451
1772811901966372000,3.9413720703125,0.6703477501869202,0.8780417442321777,2.4756059646606445
1772811901976073000,3.951072998046875,0.5463421940803528,0.20578506588935852,2.3662610054016113
1772811901985773800,3.96077392578125,0.36766424775123596,-0.450589120388031,2.0027966499328613
1772811901995474700,3.970474609375,0.25068363547325134,-0.8189405798912048,1.459737777709961
1772811902005175600,3.980175537109375,0.2216675579547882,-0.8030580878257751,0.8907172083854675
1772811902014876400,3.98987646484375,0.25007277727127075,-0.5892554521560669,0.4004982113838196
1772811902024577300,3.999577392578125,0.33345580101013184,-0.2871828079223633,0.03611737862229347
1772811902034278100,4.009278076171875,0.46570804715156555,0.0680350661277771,-0.19020801782608032
1772811902043979000,4.01897900390625,0.6004037261009216,0.35941755771636963,-0.283975750207901
1772811902053679600,4.0286796875,0.6675988435745239,0.520380437374115,-0.24029892683029175
1772811902063380500,4.03838037109375,0.5558105707168579,0.4794524908065796,-0.11323905736207962
1772811902073081300,4.048081298828125,0.23602287471294403,0.20425790548324585,-0.026801692321896553
1772811902082782200,4.0577822265625,-0.14546217024326324,-0.2618319094181061,-0.0243582334369421
1772811902092483000,4.067483154296875,-0.43776097893714905,-0.6927970051765442,-0.08269581943750381
1772811902102184000,4.077183837890625,-0.56298828125,-0.9014073610305786,-0.1505018174648285
1772811902111884800,4.086884765625,-0.5477166175842285,-0.8992693424224854,-0.2021198868751526
1772811902121585700,4.096585693359375,-0.4615846872329712,-0.7877864837646484,-0.2277761995792389
1772811902131286500,4.10628662109375,-0.3366628587245941,-0.56298828125,-0.16821688413619995
1772811902140987400,4.1159873046875,-0.20013457536697388,-0.26916229724884033,-0.0029779658652842045
1772811902150688300,4.125688232421875,-0.10483966767787933,-0.013209951110184193,0.22395829856395721
1772811902160389000,4.13538916015625,-0.09537126123905182,0.16271910071372986,0.45791950821876526
1772811902170090000,4.145090087890625,-0.17142392694950104,0.25618141889572144,0.6711113452911377
1772811902179790800,4.154790771484375,-0.307646781206131,0.2745073735713959,0.8507055640220642
1772811902189491700,4.16449169921875,-0.4768563210964203,0.2213621288537979,0.9783763289451599
1772811902199192600,4.174192626953125,-0.6341540217399597,0.15294526517391205,1.0461822748184204
1772811902208893400,4.1838935546875,-0.756632387638092,0.12056943774223328,1.044960618019104
1772811902218594300,4.19359423828125,-0.8458186388015747,0.12698352336883545,0.9698241949081421
1772811902228295200,4.203295166015625,-0.894993245601654,0.14408773183822632,0.8265764117240906
1772811902237995800,4.212995849609375,-0.8922443389892578,0.15141810476779938,0.6485093235969543
1772811902247697000,4.22269677734375,-0.8653663396835327,0.22472187876701355,0.5177842378616333
1772811902257397800,4.232397705078125,-0.8806379437446594,0.27053675055503845,0.5190060138702393
1772811902267098400,4.242098388671875,-1.004338026046753,-0.17692171037197113,0.5541307330131531
1772811902276799200,4.25179931640625,-1.2902227640151978,-1.3849067687988281,0.3488801419734955
1772811902286500000,4.2615,-1.6570470333099365,-2.957883596420288,-0.2900844216346741
1772811902296201000,4.271200927734375,-1.8073197603225708,-3.9340455532073975,-1.156596064567566
1772811902305901800,4.28090185546875,-1.652465581893921,-3.8842599391937256,-1.9965351819992065
1772811902315602700,4.290602783203125,-1.2624284029006958,-2.9508585929870605,-2.670013666152954
1772811902325303600,4.300303466796875,-0.662864625453949,-1.6765947341918945,-3.1596217155456543
1772811902335004400,4.31000439453125,-0.05780307948589325,-0.9707404971122742,-3.6715264320373535
1772811902344705300,4.319705322265625,0.46631890535354614,-0.3696495592594147,-4.087525367736816
1772811902354406100,4.32940625,1.0148755311965942,0.6361393332481384,-3.8975462913513184
1772811902364107000,4.33910693359375,1.6297109127044678,1.5713733434677124,-2.943986415863037
1772811902373807900,4.348807861328125,2.2549309730529785,1.8752784729003906,-1.4983749389648438
1772811902383508700,4.3585087890625,2.711552381515503,1.4479786157608032,-0.012446369975805283
1772811902393209600,4.368209716796875,2.843499183654785,0.4467712342739105,1.0929133892059326
1772811902402910500,4.377910400390625,2.6232824325561523,-0.8058069944381714,1.5993202924728394
1772811902412611300,4.387611328125,2.222249746322632,-1.7954078912734985,1.6026800870895386
1772811902422312200,4.397312255859375,1.8401538133621216,-2.0116541385650635,1.2899173498153687
1772811902432013000,4.407012939453125,1.5044835805892944,-1.432248830795288,0.7270054221153259
1772811902441713700,4.416713623046875,1.1614830493927002,-0.3937787115573883,0.01626427471637726
1772811902451414500,4.42641455078125,0.816038966178894,0.7772490978240967,-0.6123155951499939
1772811902461115400,4.436115478515625,0.538706362247467,1.8386266231536865,-0.9870811104774475
1772811902470816300,4.445816162109375,0.3264308571815491,2.599764108657837,-1.1077269315719604
1772811902480517000,4.45551708984375,0.18318307399749756,2.912832260131836,-1.0292308330535889
1772811902519320600,4.494320556640625,-0.08529199659824371,1.1575124263763428,0.43226319551467896
1772811902529021400,4.504021484375,-0.13843722641468048,0.5869646668434143,0.8253546953201294
1772811902538722300,4.513722412109375,-0.16226094961166382,0.1559995859861374,1.1240675449371338
1772811902548423200,4.523423095703125,-0.13507747650146484,-0.10850485414266586,1.310686707496643
1772811902558124000,4.5331240234375,-0.08132137358188629,-0.27343833446502686,1.3812416791915894
1772811902567825000,4.542824951171875,-0.01107192412018776,-0.34032803773880005,1.348254919052124
1772811902577525800,4.55252587890625,0.06345357745885849,-0.2871828079223633,1.2273037433624268
1772811902587226600,4.5622265625,0.11140646785497665,-0.183030366897583,1.0293835401535034
1772811902596927500,4.571927490234375,0.11201732605695724,-0.09873101860284805,0.7651845216751099
1772811902606628400,4.58162841796875,0.06681333482265472,-0.04283689334988594,0.45791950821876526
1772811902616329200,4.5913291015625,0.0017562361899763346,0.00755945174023509,0.14026983082294464
1772811902626029800,4.60102978515625,-0.061162836849689484,0.07261654734611511,-0.15355613827705383
1772811902635730700,4.610730712890625,-0.11461350321769714,0.12606722116470337,-0.3914879560470581
1772811902645431600,4.620431640625,-0.1427132785320282,0.18012875318527222,-0.5512291193008423
1772811902655132400,4.63013232421875,-0.13019055128097534,0.25587597489356995,-0.6187296509742737
1772811902664833300,4.639833251953125,-0.07948877662420273,0.34903284907341003,-0.6022363305091858
1772811902674534100,4.6495341796875,-0.01779143698513508,0.46112653613090515,-0.5078576803207397
1772811902684235000,4.659235107421875,0.0527634471654892,0.5924624800682068,-0.3453676700592041
1772811902693935900,4.668935791015625,0.13309216499328613,0.6605738997459412,-0.13370302319526672
1772811902703636700,4.67863671875,0.19753839075565338,0.6205622553825378,0.11247547715902328
1772811902713337600,4.688337646484375,0.2378554791212082,0.5539780259132385,0.39805474877357483
1772811902723038500,4.69803857421875,0.23999349772930145,0.5002219080924988,0.7196750640869141
1772811902732739300,4.7077392578125,0.16394083201885223,0.2781725525856018,1.032743215560913
1772811902771542500,4.74654248046875,-0.368122398853302,-3.3665521144866943,-0.5826886296272278
1772811902781243600,4.75624365234375,-0.013820815831422806,-3.8637959957122803,-1.8264093399047852
1772811902790944500,4.765944580078125,0.5124391913414001,-3.035463333129883,-2.8325035572052
1772811902800645400,4.775645263671875,0.7378482818603516,-1.3708568811416626,-3.3700647354125977
1772811902810346000,4.785345947265625,0.5723039507865906,0.3365101218223572,-3.2775185108184814
1772811902820046800,4.795046875,0.10254892706871033,1.5386919975280762,-2.561279773712158
1772811902829747700,4.804747802734375,-0.26916229724884033,2.068617105484009,-1.4568361043930054
1772811902839448600,4.814448486328125,-0.19097159802913666,2.0365467071533203,-0.2531270980834961
1772811902849149400,4.8241494140625,0.06986765563488007,1.327332854270935,0.7758746147155762
1772811902858850300,4.833850341796875,0.24396412074565887,0.1089630052447319,1.5202133655548096
1772811902868551200,4.84355126953125,0.28153231739997864,-1.172325849533081,1.8968114852905273
1772811902878252000,4.853251953125,0.25007277727127075,-2.1741440296173096,1.8784855604171753
1772811902887953000,4.862952880859375,0.21800236403942108,-2.577009439468384,1.5483131408691406
1772811902897653800,4.87265380859375,0.13858994841575623,-2.038532018661499,0.9414190053939819
1772811902907354600,4.882354736328125,-0.005268708802759647,-0.7590758204460144,0.07276926934719086
1772811902917055500,4.892055419921875,-0.15981750190258026,0.7854957580566406,-0.8377246856689453
1772811902926756400,4.90175634765625,-0.2951240539550781,2.1043527126312256,-1.55640709400177
1772811902936457200,4.911457275390625,-0.3840048611164093,2.8694610595703125,-1.887190341949463
1772811902946158000,4.921157958984375,-0.46769335865974426,2.9534547328948975,-1.7469968795776367
1772811902955858700,4.930858642578125,-0.553214430809021,2.5768566131591797,-1.1935534477233887
1772811902965559800,4.940559814453125,-0.5834522247314453,1.972406029701233,-0.3801869750022888
1772811902975260700,4.9502607421875,-0.5138136148452759,1.3123666048049927,0.5981130003929138
1772811902984961300,4.959961181640625,-0.34979644417762756,0.815122663974762,1.680870771408081
1772811902994662100,4.969662109375,-0.1842520833015442,0.5332086086273193,2.7935609817504883
1772811903004363000,4.979363037109375,-0.06849320977926254,0.43577566742897034,3.790797710418701
1772811903014063900,4.98906396484375,-0.046196650713682175,0.3545306324958801,4.485656261444092
1772811903023764700,4.9987646484375,-0.17569997906684875,0.14714205265045166,4.810025691986084
1772811903033465600,5.008465576171875,-0.44845110177993774,-0.2086866796016693,4.756269454956055
1772811903043166500,5.01816650390625,-0.7480802536010742,-0.5724566578865051,4.39097261428833
1772811903052867300,5.027867431640625,-0.9698241949081421,-0.839709997177124,3.804236888885498
1772811903062568200,5.037568115234375,-1.126205563545227,-0.9661589860916138,3.1047966480255127
1772811903072269000,5.04726904296875,-1.244713306427002,-0.8161917328834534,2.3354125022888184
1772811903081970000,5.056969970703125,-1.2792272567749023,-0.37056586146354675,1.5880193710327148
1772811903091670800,5.0666708984375,-1.2236385345458984,0.27695080637931824,1.0379356145858765
1772811903101371600,5.07637158203125,-1.1579705476760864,0.9391282200813293,0.7254782915115356
1772811903111072500,5.086072509765625,-1.1491130590438843,1.3493239879608154,0.5819250345230103
1772811903120773400,5.0957734375,-1.1701878309249878,1.4562252759933472,0.5840631127357483
1772811903130474000,5.105473876953125,-1.1793508529663086,1.2638028860092163,0.7019599676132202
1772811903140174800,5.1151748046875,-1.1170426607131958,0.8661298751831055,0.8155808448791504
1772811903149875700,5.124875732421875,-0.9237039089202881,0.44127345085144043,0.8580359220504761
1772811903159576600,5.13457666015625,-0.6170498132705688,0.09491311758756638,0.849483847618103
1772811903169277400,5.14427734375,-0.27985242009162903,-0.12774710357189178,0.7923679947853088
1772811903178978300,5.153978271484375,-0.022983787581324577,-0.2352592945098877,0.6924915909767151
1772811903188679200,5.16367919921875,0.11293362826108932,-0.2294560819864273,0.5681806206703186
1772811903198380000,5.173380126953125,0.1755472719669342,-0.09506583213806152,0.441426157951355
1772811903208081000,5.183080810546875,0.20883940160274506,0.1092684343457222,0.3165042996406555
1772811903217781800,5.19278173828125,0.2320522516965866,0.3560578227043152,0.20654866099357605
1772811903227482600,5.202482666015625,0.28122687339782715,0.6269763112068176,0.12988512217998505
1772811903237183500,5.21218359375,0.32154396176338196,0.7943533062934875,0.08987347781658173
1772811903246884400,5.22188427734375,0.34353506565093994,0.8010727763175964,0.11827868968248367
1772811903256585200,5.231585205078125,0.36369362473487854,0.6743183732032776,0.2144898921251297
1772811903266286000,5.2412861328125,0.3557523787021637,0.47517645359039307,0.32383468747138977
1772811903275986700,5.250986572265625,0.3511708974838257,0.21311545372009277,0.43684467673301697
1772811903285687600,5.2606875,0.3511708974838257,-0.07979421317577362,0.5379427671432495
1772811903295388400,5.270388427734375,0.3044397234916687,-0.29970553517341614,0.6350703239440918
1772811903305089300,5.28008935546875,0.2012035846710205,-0.4136318266391754,0.7380009889602661
1772811903314790100,5.2897900390625,0.05001455545425415,-0.7208967804908752,0.7300597429275513
1772811903324491000,5.299490966796875,-0.1430187225341797,-1.423391342163086,0.3983601927757263
1772811903334191900,5.30919189453125,-0.37697991728782654,-2.2217915058135986,-0.2543488144874573
1772811903343892700,5.318892822265625,-0.6588940024375916,-2.6655848026275635,-1.0530545711517334
1772811903353593600,5.328593505859375,-0.839709997177124,-2.2636358737945557,-1.6419281959533691
1772811903363294500,5.33829443359375,-0.9728785157203674,-1.3143519163131714,-1.9568289518356323
1772811903372995300,5.347995361328125,-1.165300965309143,-0.31375542283058167,-1.990731954574585
1772811903382696200,5.3576962890625,-1.3280963897705078,0.3300960659980774,-1.8184680938720703
1772811903392397000,5.36739697265625,-1.338481068611145,0.17860159277915955,-1.7876194715499878
1772811903402098000,5.377097900390625,-1.0959677696228027,-0.28870996832847595,-1.95438551902771
1772811903411798800,5.386798828125,-0.6136900186538696,-0.5174788236618042,-1.9647701978683472
1772811903421499600,5.396499755859375,-0.0910952091217041,-0.6112465858459473,-1.6028327941894531
1772811903431200300,5.4062001953125,0.24365869164466858,-0.8048906922340393,-0.9779181480407715
1772811903440901000,5.415901123046875,0.3181841969490051,-1.0990221500396729,-0.2274707704782486
1772811903450602200,5.425602294921875,0.1859319657087326,-1.514715552330017,0.4466184973716736
1772811903460302800,5.435302734375,0.04482220485806465,-1.8341978788375854,0.9261473417282104
1772811903470003700,5.445003662109375,0.03962985426187515,-1.8735986948013306,1.1115448474884033
1772811903479704600,5.45470458984375,0.14286600053310394,-1.5305980443954468,1.0098358392715454
1772811903489405400,5.464405517578125,0.23083053529262543,-0.904461681842804,0.7037925720214844
1772811903499106300,5.474106201171875,0.27145302295684814,-0.09567669779062271,0.3937787115573883
1772811903508807200,5.48380712890625,0.2732856273651123,0.5759690999984741,0.1882227063179016
1772811903518508000,5.493508056640625,0.20609050989151,0.9724203944206238,0.09353867173194885
1772811903528209000,5.503208984375,0.09002619981765747,1.161177635192871,0.050778135657310486
1772811903537909800,5.51290966796875,0.0035888305865228176,1.1489602327346802,0.041004300117492676
1772811903547610600,5.522610595703125,-0.0012980876490473747,1.0420589447021484,0.08223766833543777
1772811903557311500,5.5323115234375,0.07628174126148224,0.9061415195465088,0.2242637276649475
1772811903567012400,5.542012451171875,0.19998185336589813,0.7421243786811829,0.4811323583126068
1772811903576713000,5.551712890625,0.28641921281814575,0.5643627047538757,0.7871756553649902
1772811903586413800,5.561413818359375,0.28183773159980774,0.38263043761253357,1.0293835401535034
1772811903596114700,5.57111474609375,0.21586434543132782,0.20303617417812347,1.142698884010315
1772811903605815600,5.580815673828125,0.13645191490650177,0.08177952468395233,1.1301761865615845
1772811903615516400,5.590516357421875,0.05215258151292801,0.02496909722685814,1.0214422941207886
1772811903625217300,5.60021728515625,-0.0012980876490473747,-0.022983787581324577,0.8409317135810852
1772811903634918100,5.609918212890625,-0.021151192486286163,-0.14454588294029236,0.606970489025116
1772811903644619000,5.619618896484375,-0.024816380813717842,-0.30978479981422424,0.3678169548511505
1772811903654319900,5.62931982421875,-0.03917170315980911,-0.47288569808006287,0.14149154722690582
1772811903664020700,5.639020751953125,-0.06910407543182373,-0.572151243686676,-0.04909825697541237
1772811903673721600,5.6487216796875,-0.0807105079293251,-0.5984184145927429,-0.15141810476779938
1772811903683422500,5.65842236328125,-0.07704532146453857,-0.5886445641517639,-0.1550832986831665
1772811903693123300,5.668123291015625,-0.07918334752321243,-0.533666729927063,-0.10102175921201706
1772811903702824200,5.67782421875,-0.0758235901594162,-0.43195775151252747,-0.05612320080399513
1772811903712525000,5.687525146484375,-0.06635518372058868,-0.27924156188964844,-0.07933606207370758
1772811903722225700,5.6972255859375,-0.08193223923444748,-0.12957969307899475,-0.19051344692707062
1772811903731926500,5.706926513671875,-0.12621992826461792,-0.03061959706246853,-0.3771326541900635
1772811903741627400,5.71662744140625,-0.21601705253124237,-0.00038179047987796366,-0.5652790069580078
1772811903751328300,5.726328369140625,-0.3216966688632965,-0.01718057133257389,-0.6688205599784851
1772811903761029000,5.736029052734375,-0.4252382516860962,-0.05871937796473503,-0.6666825413703918
1772811903770730000,5.74572998046875,-0.5128973126411438,-0.10819942504167557,-0.5836049318313599
1772811903780430800,5.755430908203125,-0.561766505241394,-0.11278090626001358,-0.4638754427433014
1772811903790131700,5.765131591796875,-0.5519927144050598,-0.051389001309871674,-0.3084103465080261
1772811903799832600,5.77483251953125,-0.5165625214576721,-0.06391172856092453,-0.10957387089729309
1772811903809533400,5.784533447265625,-0.4878518879413605,-0.26366451382637024,0.07796161621809006
1772811903819234300,5.794234375,-0.48388126492500305,-0.7489965558052063,0.09720385819673538
1772811903828935200,5.80393505859375,-0.5122864842414856,-1.4075088500976562,-0.14714205265045166
1772811903838636000,5.813635986328125,-0.6060542464256287,-1.8687117099761963,-0.6462185978889465
1772811903848337000,5.8233369140625,-0.8091667294502258,-1.9133048057556152,-1.250363826751709
1772811903858037800,5.833037841796875,-1.0583995580673218,-1.3323724269866943,-1.6614758968353271
1772811903867738400,5.84273828125,-1.2092832326889038,-0.5916988849639893,-1.8013638257980347
1772811903877439200,5.852439208984375,-1.127121925354004,-0.2141844630241394,-1.7564653158187866
1772811903887140000,5.86214013671875,-0.8058069944381714,-0.26244276762008667,-1.584506869316101
1772811903896841000,5.871841064453125,-0.4609738290309906,-0.5632936954498291,-1.3276382684707642
1772811903906541800,5.881541748046875,-0.2297615110874176,-0.7169261574745178,-0.8890373110771179
1772811903916242700,5.89124267578125,-0.1417969912290573,-0.4518108665943146,-0.21097742021083832
1772811903925943600,5.900943603515625,-0.2569449841976166,0.049709122627973557,0.6372083425521851
1772811903935644400,5.91064453125,-0.5205331444740295,0.4482983946800232,1.580383539199829
1772811903945345300,5.92034521484375,-0.7783181071281433,0.47639816999435425,2.4191009998321533
1772811903955046100,5.930046142578125,-0.8846085667610168,0.20303617417812347,2.9646031856536865
1772811903964747000,5.9397470703125,-0.8464295268058777,-0.01779143698513508,3.109072685241699
1772811903974447900,5.94944775390625,-0.7743474841117859,-0.01259908638894558,2.7492733001708984
1772811903984148500,5.9591484375,-0.6763036847114563,0.21403174102306366,1.9664500951766968
1772811903993849300,5.968849365234375,-0.46860963106155396,0.6724857687950134,1.0064760446548462
1772811904003550500,5.978550537109375,-0.11339177191257477,1.1700351238250732,0.07948877662420273
1772811904013251000,5.9882509765625,0.2934441566467285,1.4131592512130737,-0.6895899772644043
1772811904022952000,5.997951904296875,0.7076104879379272,1.3749802112579346,-1.1324669122695923
1772811904032652800,6.00765283203125,1.105283498764038,1.2201260328292847,-1.1278854608535767
1772811904042353700,6.017353759765625,1.3652064800262451,0.9657008647918701,-0.7760273218154907
1772811904052054500,6.027054443359375,1.4467568397521973,0.7066941857337952,-0.2277761995792389
1772811904061755400,6.03675537109375,1.4397319555282593,0.5808560252189636,0.3937787115573883
1772811904071456300,6.046456298828125,1.3893356323242188,0.6532435417175293,0.9838740825653076
1772811904081157000,6.0561572265625,1.345658779144287,0.8306997418403625,1.486615777015686
1772811904090858000,6.06585791015625,1.2827396392822266,1.0170135498046875,1.8610758781433105
1772811904100558800,6.075558837890625,1.1654536724090576,1.1535418033599854,2.1115305423736572
1772811904110259700,6.085259765625,0.9989929795265198,1.102229118347168,2.250502109527588
1772811904119960600,6.094960693359375,0.7766382098197937,0.7806088328361511,2.242560863494873
1772811904129661200,6.1046611328125,0.5518399477005005,0.24549128115177155,2.049833059310913
1772811904139362000,6.114362060546875,0.3603338599205017,-0.3427715003490448,1.62742018699646
1772811904149063000,6.12406298828125,0.2375500351190567,-0.6717221736907959,0.9618829488754272
1772811904158763800,6.133763671875,0.2213621288537979,-0.5168679356575012,0.13507747650146484
1772811904168464600,6.143464599609375,0.23999349772930145,-0.1634826809167862,-0.7112756967544556
1772811904178165500,6.15316552734375,0.32307112216949463,0.1703549176454544,-1.250363826751709
1772811904187866400,6.162866455078125,0.5432878732681274,0.5735256671905518,-1.362457513809204
1772811904197567200,6.172567138671875,0.7082213759422302,0.8004619479179382,-1.2656354904174805
1772811904207268000,6.18226806640625,0.7512873411178589,0.8099303245544434,-1.1010074615478516
1772811904216969000,6.191968994140625,0.7289907336235046,0.714024543762207,-0.9101121425628662
1772811904226669800,6.201669921875,0.5771908760070801,0.5701659321784973,-0.7833577394485474
1772811904236370700,6.21137060546875,0.30627232789993286,0.3951531648635864,-0.7882446646690369
1772811904246071300,6.2210712890625,0.10713040828704834,0.26015204191207886,-0.8957568407058716
1772811904255772200,6.230772216796875,0.06681333482265472,0.24152065813541412,-1.0518327951431274
1772811904265473300,6.240473388671875,0.16302454471588135,0.26473352313041687,-1.2247074842453003
1772811904275174000,6.250173828125,0.3264308571815491,0.3704131245613098,-1.3569597005844116
1772811904284874800,6.259874755859375,0.47639816999435425,0.5799397230148315,-1.3829214572906494
1772811904294575600,6.26957568359375,0.5909352898597717,0.7650317549705505,-1.3087013959884644
1772811904304276500,6.2792763671875,0.6572141647338867,0.9238566160202026,-1.1758383512496948
1772811904313977300,6.288977294921875,0.5869646668434143,1.0170135498046875,-0.9669225811958313
1772811904323678200,6.29867822265625,0.437302827835083,0.9168316721916199,-0.6263654828071594
1772811904333379000,6.308379150390625,0.30230170488357544,0.669126033782959,-0.24090979993343353
1772811904343080000,6.318079833984375,0.21952952444553375,0.42080947756767273,0.1118646115064621
1772811904352780500,6.327780517578125,0.1758527010679245,0.2164752036333084,0.40202537178993225
1772811904362481700,6.337481689453125,0.18715369701385498,0.07017309218645096,0.5913934707641602
1772811904372182500,6.3471826171875,0.24396412074565887,0.01030834298580885,0.6378191709518433
1772811904381883400,6.35688330078125,0.3355938494205475,0.07658717036247253,0.6048324704170227
1772811904391584000,6.366583984375,0.4424951672554016,0.21952952444553375,0.6063596606254578
1772811904401284900,6.376284912109375,0.4699840843677521,0.2690095901489258,0.6869937777519226
1772811904410985700,6.38598583984375,0.43913543224334717,0.04787652567028999,0.7978657484054565
1772811904420686600,6.3956865234375,0.48586657643318176,-0.5455785989761353,0.7505237460136414
1772811904430387500,6.405387451171875,0.6611847877502441,-1.1503347158432007,0.46250098943710327
1772811904440088300,6.41508837890625,0.8490256667137146,-1.4747039079666138,-0.12118030339479446
1772811904449789200,6.4247890625,0.8499419689178467,-1.347949504852295,-0.9904409050941467
1772811904459490000,6.434489990234375,0.6877573728561401,-0.9893718957901001,-1.888717532157898
1772811904469191000,6.44419091796875,0.5390118360519409,-0.9792925715446472,-2.7992115020751953
1772811904478891800,6.453891845703125,0.595211386680603,-1.384601354598999,-3.7017641067504883
1772811904488592600,6.463592529296875,0.7738893032073975,-1.919413447380066,-4.523071765899658
1772811904498293200,6.473293212890625,0.7806088328361511,-2.348851442337036,-5.121108531951904
1772811904507994000,6.482994140625,0.6486620306968689,-2.2498912811279297,-5.256720542907715
1772811904517695000,6.492695068359375,0.6080395579338074,-1.7682244777679443,-4.928075313568115
1772811904527395800,6.502395751953125,0.723798394203186,-1.3598613739013672,-4.232300281524658
1772811904537096700,6.5120966796875,0.9015600681304932,-1.163468360900879,-3.0756278038024902
1772811904546797600,6.521797607421875,0.9687551856040955,-1.2404372692108154,-1.6061925888061523
1772811904556498400,6.53149853515625,0.8969785571098328,-1.6210060119628906,-0.18440480530261993
1772811904566199300,6.54119921875,0.761366605758667,-2.1539855003356934,0.9902881383895874
1772811904575900200,6.550900146484375,0.6007091403007507,-2.717508316040039,1.7960188388824463
1772811904585601000,6.56060107421875,0.4990001618862152,-2.8696136474609375,2.002490997314453
1772811904595302000,6.570302001953125,0.4440223276615143,-2.3131158351898193,1.4890592098236084
1772811904605002800,6.580002685546875,0.37316203117370605,-1.4740930795669556,0.5296961069107056
1772811904614703400,6.589703369140625,0.34261879324913025,-0.5791761875152588,-0.4525744318962097
1772811904624404200,6.599404296875,0.3151298761367798,0.2925278842449188,-1.1535418033599854
1772811904634105000,6.60910498046875,0.28031057119369507,1.0606902837753296,-1.4189624786376953
1772811904643806200,6.61880615234375,0.17799071967601776,1.758908748626709,-1.372231364250183
1772811904653506800,6.6285068359375,0.06345357745885849,2.287001371383667,-1.1171953678131104
1772811904663207700,6.638207763671875,0.020387612283229828,2.3658030033111572,-0.6648499369621277
1772811904672908500,6.647908447265625,-0.05933023989200592,1.8749730587005615,-0.11629338562488556
1772811904682609400,6.657609375,-0.15859577059745789,1.1275800466537476,0.42310020327568054
1772811904692310300,6.667310302734375,-0.28932082653045654,0.4473820924758911,0.839099109172821
1772811904702011100,6.67701123046875,-0.4350120723247528,0.027717988938093185,1.0681734085083008
1772811904711712000,6.6867119140625,-0.544051468372345,-0.07796161621809006,1.1240675449371338
1772811904721412900,6.696412841796875,-0.5975021123886108,0.027717988938093185,1.0654245615005493
1772811904731113500,6.706113525390625,-0.5920043587684631,0.23571744561195374,0.9637155532836914
1772811904740814300,6.715814453125,-0.5474112033843994,0.3963748812675476,0.8665880560874939
1772811904750515500,6.725515380859375,-0.46250098943710327,0.4849502742290497,0.830547034740448
1772811904760216000,6.735216064453125,-0.3519344627857208,0.4996110200881958,0.8513164520263672
1772811904769917000,6.7449169921875,-0.24381139874458313,0.40523242950439453,0.8775836229324341
1772811904779617800,6.75461767578125,-0.1787542998790741,0.2375500351190567,0.8714749813079834
1772811904789318700,6.764318603515625,-0.15126539766788483,0.10102175921201706,0.8436806201934814
1772811904799019500,6.77401953125,-0.14546217024326324,0.08575014024972916,0.7657953500747681
1772811904808720400,6.783720458984375,-0.19188790023326874,0.23571744561195374,0.6008618474006653
1772811904818421200,6.793421142578125,-0.29909467697143555,0.4214203357696533,0.39683303236961365
1772811904828122000,6.8031220703125,-0.41118836402893066,0.5823832154273987,0.2545015513896942
1772811904837823000,6.812822998046875,-0.4664716124534607,0.7018072605133057,0.21143557131290436
1772811904847523600,6.822523681640625,-0.4652498960494995,0.7198277711868286,0.26274821162223816
1772811904857224700,6.832224609375,-0.46372273564338684,0.5869646668434143,0.41790786385536194
1772811904866925600,6.841925537109375,-0.5101484656333923,0.29222244024276733,0.6527853608131409
1772811904876626200,6.851626220703125,-0.5663480162620544,-0.055970486253499985,0.9169843792915344
1772811904886327000,6.8613271484375,-0.6219366788864136,-0.2618319094181061,1.0846667289733887
1772811904896028000,6.87102783203125,-0.6543125510215759,-0.2603047490119934,1.1023818254470825
1772811904905728800,6.880728759765625,-0.6045270562171936,0.008781181648373604,1.0018945932388306
1772811904915429600,6.8904296875,-0.46830421686172485,0.3704131245613098,0.7673225402832031
1772811904925130500,6.900130615234375,-0.2606101930141449,0.5713876485824585,0.3840048611164093
1772811904934831400,6.909831298828125,-0.03764454275369644,0.575663685798645,-0.027107125148177147
1772811904944532200,6.9195322265625,0.07964149862527847,0.26534438133239746,-0.4006509482860565
1772811904954232800,6.92923291015625,-0.019624030217528343,-0.40202537178993225,-0.8227584958076477
1772811904963933700,6.93893359375,-0.1527925580739975,-1.0779472589492798,-1.417740821838379
1772811904973634600,6.948634521484375,-0.10881029069423676,-0.9912044405937195,-2.0231077671051025
1772811904983335700,6.958335693359375,0.10193806141614914,-0.13080142438411713,-2.325791358947754
1772811904993036300,6.968036376953125,0.3453676700592041,0.7488438487052917,-2.445826292037964
1772811905002737200,6.977737060546875,0.5555051565170288,1.648647665977478,-2.4586544036865234
1772811905012438000,6.98743798828125,0.7827468514442444,2.5542547702789307,-2.206367254257202
1772811905022139000,6.997138916015625,1.0332014560699463,3.3279149532318115,-1.7274491786956787
1772811905031839700,7.00683984375,1.2415063381195068,3.448866128921509,-1.0179297924041748
1772811905041540600,7.01654052734375,1.1715623140335083,2.4220025539398193,0.21235187351703644
1772811905051241500,7.026241455078125,0.7686969637870789,0.7543416619300842,1.957287073135376
1772811905060942300,7.0359423828125,0.17676898837089539,-0.9560797214508057,3.7016115188598633
1772811905070643000,7.045642822265625,-0.3901135325431824,-2.1875832080841064,4.807582378387451
1772811905080344000,7.055343994140625,-0.7040980458259583,-2.353738307952881,4.9010443687438965
1772811905090045000,7.065044921875,-0.5409971475601196,-1.5009710788726807,4.395859241485596
1772811905099745800,7.074745849609375,-0.16042836010456085,-0.5626828074455261,3.74040150642395
1772811905109446400,7.0844462890625,0.0939968153834343,0.45532333850860596,3.068755626678467
1772811905119147300,7.094147216796875,0.24060437083244324,1.112002968788147,2.5791473388671875
1772811905128848100,7.10384814453125,0.22808164358139038,1.5139520168304443,2.0037128925323486
1772811905138549000,7.113549072265625,0.03565923124551773,1.6064980030059814,1.5693880319595337
1772811905148249900,7.123249755859375,-0.3424660563468933,1.317559003829956,1.3146573305130005
1772811905157950700,7.13295068359375,-0.7679333686828613,0.7543416619300842,1.3250420093536377
1772811905167651600,7.142651611328125,-0.9478330612182617,0.2540434002876282,1.7034728527069092
1772811905177352400,7.1523525390625,-0.8653663396835327,0.10560324788093567,2.1454334259033203
1772811905187053000,7.162052978515625,-0.7135664224624634,-0.010155626572668552,2.5956408977508545
1772811905196754000,7.17175390625,-0.6054433584213257,-0.2648862302303314,2.9587998390197754
1772811905206455000,7.181455078125,-0.5791761875152588,-0.5874228477478027,3.0479862689971924
1772811905216155600,7.19115576171875,-0.5739838480949402,-0.8986584544181824,2.848538875579834
1772811905225856500,7.2008564453125,-0.5205331444740295,-1.1726312637329102,2.347935199737549
1772811905235557400,7.210557373046875,-0.4548651874065399,-1.2285254001617432,1.5944334268569946
1772811905245258200,7.22025830078125,-0.3568213880062103,-1.0189988613128662,0.746858537197113
1772811905254959000,7.229958984375,-0.25327980518341064,-0.7581595778465271,0.0016035200096666813
1772811905264660000,7.239659912109375,-0.16684244573116302,-0.5935314893722534,-0.5435932874679565
1772811905274360800,7.24936083984375,-0.09292780607938766,-0.46952593326568604,-0.8969785571098328
1772811905284061700,7.259061767578125,-0.01779143698513508,-0.2822958827018738,-1.110475778579712
1772811905293762600,7.268762451171875,0.0322994738817215,-0.147905632853508,-1.1865284442901611
1772811905303463200,7.278463134765625,0.06498073786497116,-0.116751529276371,-1.1294126510620117
1772811905313164000,7.2881640625,0.05520690605044365,-0.04711294546723366,-0.9904409050941467
1772811905322865000,7.297864990234375,0.02588539570569992,-0.00679587060585618,-0.8603267073631287
1772811905332565800,7.307565673828125,-0.016569707542657852,-0.07918334752321243,-0.7384591698646545
1772811905342266600,7.3172666015625,-0.03306305781006813,-0.22701261937618256,-0.612621009349823
1772811905351967500,7.326967529296875,-0.008323032408952713,-0.31375542283058167,-0.4883100390434265
1772811905361668400,7.33666845703125,0.02588539570569992,-0.3116174042224884,-0.4382191300392151
1772811905371369200,7.346369140625,0.044211339205503464,-0.30520331859588623,-0.44646579027175903
1772811905381070000,7.356070068359375,0.02649625949561596,-0.34429866075515747,-0.5044979453086853
1772811905390771000,7.36577099609375,0.02588539570569992,-0.3479638397693634,-0.613231897354126
1772811905400471800,7.375471923828125,0.039018988609313965,-0.26824599504470825,-0.7546470761299133
1772811905410172400,7.38517236328125,0.060093823820352554,-0.13507747650146484,-0.8649081587791443
1772811905419873300,7.394873291015625,0.09430225193500519,0.02588539570569992,-0.8862884640693665
1772811905429574100,7.40457421875,0.11262819170951843,0.14744748175144196,-0.8215367794036865
1772811905439275000,7.41427490234375,0.13217586278915405,0.23602287471294403,-0.6718748807907104
1772811905448976000,7.423975830078125,0.14928008615970612,0.274812787771225,-0.48159050941467285
1772811905458676700,7.4336767578125,0.16760602593421936,0.22655446827411652,-0.2726747691631317
1772811905468377600,7.443377685546875,0.1865428388118744,0.08575014024972916,-0.04787652567028999
1772811905478078500,7.453078369140625,0.23357942700386047,-0.049861837178468704,0.1781434416770935
1772811905487779300,7.462779296875,0.30107998847961426,-0.04222602769732475,0.34093889594078064
1772811905497480200,7.472480224609375,0.385990172624588,0.11568251997232437,0.3986656367778778
1772811905507181000,7.48218115234375,0.511217474937439,0.40920305252075195,0.4554760456085205
1772811905516882000,7.4918818359375,0.6086503863334656,0.640720784664154,0.672027587890625
1772811905526582500,7.50158251953125,0.5255727767944336,0.2827540338039398,1.190040946006775
1772811905536283400,7.511283447265625,0.06528617441654205,-0.5865065455436707,1.7725005149841309
1772811905545984300,7.520984375,-0.5501601099967957,-1.172020435333252,2.001880168914795
1772811905555685000,7.53068505859375,-0.8846085667610168,-0.8827759623527527,1.5990148782730103
1772811905565386000,7.540385986328125,-0.885830283164978,1.1110867261886597,0.6625592112541199
1772811905575086800,7.5500869140625,-0.5208385586738586,3.0762386322021484,-0.16730059683322906
1772811905584787700,7.55978759765625,0.2063959389925003,2.965672254562378,-0.6795107126235962
1772811905594488600,7.569488525390625,0.7601448893547058,2.214919328689575,-1.2671626806259155
1772811905604189400,7.579189453125,0.8019890785217285,2.4504077434539795,-1.8600069284439087
1772811905613890300,7.588890380859375,0.7445678114891052,2.8731260299682617,-2.217057466506958
1772811905623591200,7.598591064453125,0.8322269320487976,2.435746908187866,-2.0796127319335938
1772811905633292000,7.6082919921875,0.8829286694526672,1.1795035600662231,-1.3395501375198364
1772811905642992600,7.61799267578125,0.9174425601959229,-0.2658025324344635,-0.1398116797208786
1772811905652693500,7.627693603515625,0.9757801294326782,-1.4273619651794434,0.9817360639572144
1772811905662394400,7.637394287109375,0.936073899269104,-2.0040183067321777,1.5730531215667725
1772811905672095200,7.64709521484375,0.8224530816078186,-1.9606468677520752,1.5070797204971313
1772811905681796000,7.656796142578125,0.7665589451789856,-1.31160306930542,0.8113048076629639
1772811905691497000,7.6664970703125,0.7170788645744324,-0.46219557523727417,-0.13584105670452118
1772811905701197800,7.67619775390625,0.5713876485824585,0.2225838601589203,-0.8743765950202942
1772811905710898700,7.685898681640625,0.3401753306388855,0.5799397230148315,-1.269606113433838
1772811905720599300,7.695599365234375,0.1706603467464447,0.6642391085624695,-1.3016765117645264
1772811905730300200,7.705300048828125,0.12148573249578476,0.6062069535255432,-0.9684497714042664
1772811905740001000,7.7150009765625,0.22869250178337097,0.42386379837989807,-0.3508654534816742
1772811905749702000,7.724701904296875,0.33162322640419006,0.33742642402648926,0.3314704895019531
1772811905759402800,7.73440283203125,0.2735910713672638,0.23388485610485077,0.885219395160675
1772811905769103600,7.744103515625,0.11507165431976318,-0.030925029888749123,1.2715914249420166
1772811905778804500,7.753804443359375,-0.033368486911058426,-0.3082576394081116,1.4774528741836548
1772811905788505300,7.76350537109375,-0.10331250727176666,-0.46799877285957336,1.4582105875015259
1772811905798206200,7.773206298828125,-0.043753188103437424,-0.4450913369655609,1.2208895683288574
1772811905807907000,7.782906982421875,0.09430225193500519,-0.2963457703590393,0.8238275051116943
1772811905817608000,7.79260791015625,0.19204062223434448,-0.19127702713012695,0.3427715003490448
1772811905827308800,7.802308837890625,0.2121991515159607,-0.14637847244739532,-0.1037706509232521
1772811905837009400,7.812009521484375,0.1807396113872528,-0.15462514758110046,-0.47609272599220276
1772811905846710300,7.821710205078125,0.16913318634033203,-0.19097159802913666,-0.7265473008155823
1772811905856411100,7.8314111328125,0.212504580616951,-0.21754421293735504,-0.8701004981994629
1772811905866112000,7.841112060546875,0.30291256308555603,-0.19494222104549408,-0.9223294854164124
1772811905875812900,7.850812744140625,0.4122573733329773,-0.1482110619544983,-0.881706953048706
1772811905885513700,7.860513671875,0.4986947476863861,-0.11950042098760605,-0.7696132659912109
1772811905895214600,7.870214599609375,0.5460367798805237,-0.11461350321769714,-0.6367501616477966
1772811905904915500,7.87991552734375,0.5689441561698914,-0.15370884537696838,-0.5286270976066589
1772811905914616000,7.889615966796875,0.558254063129425,-0.17936517298221588,-0.474260151386261
1772811905924317000,7.89931689453125,0.49075350165367126,-0.18486295640468597,-0.4996110200881958
1772811905934017800,7.909017822265625,0.42478010058403015,-0.14607304334640503,-0.5637518167495728
1772811905943719000,7.918718994140625,0.3930151164531708,-0.04253146052360535,-0.6480512022972107
1772811905953419500,7.92841943359375,0.36949682235717773,0.07261654734611511,-0.7241038084030151
1772811905963120400,7.938120361328125,0.2931387424468994,0.1611919403076172,-0.7347939610481262
1772811905972821200,7.9478212890625,0.18715369701385498,0.24518585205078125,-0.6431642770767212
1772811905982522000,7.957522216796875,0.11384992301464081,0.3090212345123291,-0.5179370045661926
1772811905992223000,7.967222900390625,0.10102175921201706,0.3499491512775421,-0.45532333850860596
1772811906001923800,7.976923828125,0.14836378395557404,0.31115925312042236,-0.5252673625946045
1772811906011624700,7.986624755859375,0.2641226649284363,0.17371466755867004,-0.7821359634399414
1772811906021325600,7.99632568359375,0.44066259264945984,0.1092684343457222,-1.2454769611358643
1772811906031026200,8.006026123046874,0.4953349828720093,0.41928231716156006,-1.8975750207901
1772811906040727000,8.01572705078125,0.2790888547897339,1.3774237632751465,-2.384739637374878
1772811906050428000,8.025427978515625,0.037491824477910995,2.2460734844207764,-2.4669010639190674
1772811906060128800,8.035128662109376,-0.016875140368938446,2.3108251094818115,-2.440633773803711
1772811906069829600,8.04482958984375,0.05948295816779137,1.9122358560562134,-2.424445867538452
1772811906079530500,8.054530517578126,0.093691386282444,1.4259874820709229,-2.194760799407959
1772811906089231400,8.0642314453125,-0.0034361144062131643,0.9684497714042664,-1.611995816230774
1772811906098932200,8.07393212890625,-0.091400645673275,0.5017490386962891,-0.649578332901001
1772811906108632800,8.0836328125,-0.024816380813717842,0.07506000995635986,0.3690386712551117
1772811906118333700,8.093333740234375,0.14775292575359344,-0.3977493345737457,1.2722022533416748
1772811906128034800,8.103034912109376,0.41470083594322205,-0.7615193128585815,2.0376157760620117
1772811906137735700,8.112735595703125,0.6752346754074097,-1.043433427810669,2.564181327819824
1772811906147436300,8.122436279296876,0.8270345330238342,-1.22944176197052,2.9533021450042725
1772811906157137200,8.13213720703125,0.8306997418403625,-1.4227803945541382,3.2746169567108154
1772811906166838000,8.141838134765624,0.6242274641990662,-1.5290708541870117,3.278587579727173
1772811906176539000,8.151538818359375,0.15722131729125977,-1.3852123022079468,2.9203155040740967
1772811906186239700,8.16123974609375,-0.5220603346824646,-0.9096540212631226,2.2349252700805664
1772811906195940600,8.170940673828126,-1.1121556758880615,-0.2966512143611908,1.292360782623291
1772811906205641500,8.180641357421875,-1.394069790840149,0.3139081299304962,0.2560287117958069
1772811906215342300,8.19034228515625,-1.3360376358032227,0.8743765950202942,-0.5738310813903809
1772811906225043000,8.20004296875,-0.9918153285980225,1.27846360206604,-0.9122501611709595
1772811906234743800,8.209743896484374,-0.5935314893722534,1.388419270515442,-0.6996692419052124
1772811906244444700,8.219444580078125,-0.2758817970752716,1.2854886054992676,-0.12576179206371307
1772811906254145500,8.2291455078125,0.0035888305865228176,1.08573579788208,0.7028762698173523
1772811906263846400,8.238846435546876,0.3105483949184418,0.7888554930686951,1.5754966735839844
1772811906273547300,8.24854736328125,0.5500074028968811,0.2885572612285614,2.3726751804351807
1772811906283248000,8.258248046875,0.6483566164970398,-0.32444554567337036,2.884274482727051
1772811906292949000,8.267948974609375,0.6740128993988037,-0.8290198445320129,3.0015604496002197
1772811906302649900,8.27764990234375,0.6071232557296753,-1.190040946006775,2.720562696456909
1772811906312350500,8.2873505859375,0.4837285578250885,-1.3366484642028809,2.1741440296173096
1772811906322051300,8.29705126953125,0.37774351239204407,-1.2850303649902344,1.5480077266693115
1772811906331752200,8.306752197265626,0.2980256676673889,-1.1280381679534912,0.9313397407531738
1772811906341453000,8.316453125,0.22594361007213593,-0.8873574733734131,0.33544111251831055
1772811906351154000,8.32615380859375,0.14928008615970612,-0.6430115103721619,-0.12851068377494812
1772811906360854800,8.335854736328125,0.07108938694000244,-0.5000692009925842,-0.46692976355552673
1772811906370555600,8.3455556640625,-0.026648975908756256,-0.43317949771881104,-0.7085267901420593
1772811906380256500,8.355256591796875,-0.13477204740047455,-0.43226319551467896,-0.8881210088729858
1772811906389957400,8.364957275390625,-0.24350596964359283,-0.3589594066143036,-1.0356448888778687
1772811906399658200,8.374658203125,-0.3745364546775818,-0.25755587220191956,-1.2008837461471558
1772811906409359000,8.384359130859375,-0.4597521126270294,-0.17692171037197113,-1.28793203830719
1772811906419059700,8.394059814453126,-0.4469239413738251,-0.08651372790336609,-1.2659409046173096
1772811906428760600,8.403760498046875,-0.3827831447124481,-0.031841326504945755,-1.1608721017837524
1772811906438461400,8.41346142578125,-0.2923751473426819,-0.06330086290836334,-0.9733366966247559
1772811906448162300,8.423162353515625,-0.1882227063179016,-0.13080142438411713,-0.6996692419052124
1772811906457863200,8.43286328125,-0.10209077596664429,-0.194025918841362,-0.40920305252075195
1772811906467564000,8.44256396484375,-0.037949975579977036,-0.245338574051857,-0.17402009665966034
1772811906477265000,8.452264892578125,0.007864884100854397,-0.26274821162223816,-0.024663666263222694
1772811906486965800,8.4619658203125,0.06101011857390404,-0.24869832396507263,0.05047270283102989
1772811906496666600,8.47166650390625,0.0939968153834343,-0.1983019858598709,0.0550541877746582
1772811906506367200,8.4813671875,0.07994692772626877,-0.12530364096164703,0.025732679292559624
1772811906516068000,8.491068115234375,0.03779725730419159,-0.06177370250225067,-0.01977674663066864
1772811906525769000,8.50076904296875,0.01611155830323696,-0.009850194677710533,-0.06101011857390404
1772811906535469800,8.5104697265625,0.03657552972435951,0.0732274129986763,-0.09185878932476044
1772811906545170700,8.520170654296875,0.05673406645655632,0.21891866624355316,-0.05887209251523018
1772811906554871600,8.52987158203125,0.06681333482265472,0.28519749641418457,0.05169443041086197
1772811906564572400,8.539572509765625,0.18745912611484528,-0.027259841561317444,0.11888955533504486
1772811906574273300,8.549273193359374,0.41897687315940857,-0.3427715003490448,-0.07231111824512482
1772811906583974000,8.558973876953125,0.558254063129425,-0.38705918192863464,-0.6517163515090942
1772811906593674800,8.5686748046875,0.49166980385780334,0.04634936526417732,-1.4073561429977417
1772811906603375600,8.578375732421875,0.2537379562854767,0.6926442980766296,-1.9925645589828491
1772811906613076500,8.588076416015625,-0.016875140368938446,1.1083377599716187,-2.217668294906616
1772811906622777300,8.59777734375,-0.1836412250995636,1.0533599853515625,-2.0790019035339355
1772811906632478200,8.607478271484375,-0.15951207280158997,0.649578332901001,-1.8172463178634644
1772811906642179000,8.617178955078124,-0.026343543082475662,0.31726789474487305,-1.7072906494140625
1772811906651880000,8.6268798828125,0.09827287495136261,0.38904449343681335,-1.816330075263977
1772811906661580800,8.636580810546874,0.0884990319609642,0.5426769852638245,-1.889022946357727
1772811906671281700,8.64628173828125,-0.013820815831422806,0.49166980385780334,-1.6587269306182861
1772811906680982500,8.655982421875,-0.055970486253499985,0.3093266487121582,-1.1239148378372192
1772811906690683400,8.665683349609376,-0.12255474925041199,0.1251509189605713,-0.38263043761253357
1772811906700384000,8.675384033203125,-0.18639011681079865,0.00511599238961935,0.34613126516342163
1772811906710084900,8.6850849609375,-0.2819904685020447,-0.18639011681079865,0.8983530402183533
1772811906719785700,8.69478564453125,-0.28962627053260803,-0.36170831322669983,1.2773946523666382
1772811906729486600,8.704486572265624,-0.20013457536697388,-0.47929978370666504,1.5064688920974731
1772811906739187500,8.7141875,-0.09048434346914291,-0.5437459945678711,1.6414700746536255
1772811906748888300,8.723888427734375,-0.033368486911058426,-0.672638475894928,1.7022510766983032
1772811906758589200,8.733589111328126,-0.038560837507247925,-0.7978657484054565,1.7227150201797485
1772811906768290000,8.7432900390625,-0.04192059487104416,-0.7813724279403687,1.6912554502487183
1772811906777990700,8.75299072265625,-0.046196650713682175,-0.7541889548301697,1.6139811277389526
1772811906787691500,8.76269140625,-0.0703258067369461,-0.8311578631401062,1.5455642938613892
1772811906797392400,8.772392333984374,-0.08956804871559143,-0.8464295268058777,1.468289852142334
1772811906807093200,8.78209326171875,-0.11736239492893219,-0.7877864837646484,1.3879611492156982
1772811906816794000,8.791794189453125,-0.1729510873556137,-0.6903535723686218,1.2599849700927734
1772811906826495000,8.801494873046876,-0.25389066338539124,-0.5180897116661072,1.1014655828475952
1772811906836195800,8.81119580078125,-0.33055421710014343,-0.2975675165653229,0.9020181894302368
1772811906845896700,8.820896728515624,-0.4038579761981964,-0.09964732080698013,0.6191878318786621
1772811906855597300,8.830597412109375,-0.4493674039840698,0.10804671049118042,0.28870996832847595
1772811906865298200,8.840298095703124,-0.44906195998191833,0.24518585205078125,-0.00603228947147727
1772811906874999000,8.8499990234375,-0.39744389057159424,0.3090212345123291,-0.20456334948539734
1772811906884700000,8.859699951171875,-0.3183369040489197,0.3413970470428467,-0.2977202236652374
1772811906894400800,8.86940087890625,-0.24289511144161224,0.3206276595592499,-0.2574031352996826
1772811906904101600,8.8791015625,-0.16378812491893768,0.3285689055919647,-0.09918916970491409
1772811906913802500,8.888802490234376,-0.11522436887025833,0.33742642402648926,0.09384410083293915
1772811906923503400,8.89850341796875,-0.09323323518037796,0.32795801758766174,0.25236350297927856
1772811906933204200,8.908204345703124,-0.08743002265691757,0.38293585181236267,0.3528507649898529
1772811906942904800,8.91790478515625,-0.081015944480896,0.4314996004104614,0.4099666178226471
1772811906952605700,8.927605712890625,-0.07643445581197739,0.3908770978450775,0.5116755962371826
1772811906962306600,8.937306640625,-0.08040507882833481,0.13889537751674652,0.775263786315918
1772811906972007400,8.94700732421875,-0.08865175396203995,-0.04741837829351425,0.8546761870384216
1772811906981708300,8.956708251953126,-0.12316560745239258,0.06772962957620621,0.7236456871032715
1772811906991409200,8.9664091796875,-0.14546217024326324,0.24426954984664917,0.44234246015548706
1772811907001110000,8.976110107421874,-0.16409355401992798,0.32734715938568115,0.14912736415863037
1772811907010811000,8.985810791015625,-0.17508912086486816,0.32765260338783264,-0.10804671049118042
1772811907020511700,8.99551171875,-0.1424078494310379,0.23419028520584106,-0.2225838601589203
1772811907030212400,9.00521240234375,-0.10972658544778824,0.06498073786497116,-0.212504580616951
1772811907039913500,9.01491357421875,-0.1164461001753807,-0.013209951110184193,-0.2699258625507355
