time,seconds_elapsed,z,y,x
1772810468621959200,0.118959228515625,0,0,0
1772810468631659000,0.128658935546875,-0.22449874877929688,-0.12253427505493164,-0.213425874710083
1772810468641359000,0.138359130859375,-1.2476511001586914,-0.010814189910888672,-0.32365524768829346
1772810468651059200,0.14805908203125,-1.343031883239746,-0.3316941261291504,0.1750885248184204
1772810468660759000,0.157759033203125,-1.2388005256652832,-0.5845222473144531,0.4314002990722656
1772810468670459100,0.167459228515625,-0.9551510810852051,-0.720299243927002,0.45498543977737427
1772810468680159200,0.1771591796875,-0.5798835754394531,-0.545344352722168,-0.07941806316375732
1772810468689859000,0.186859130859375,-0.35771703720092773,-0.4756298065185547,-0.5948053598403931
1772810468699559000,0.196558837890625,-0.33301305770874023,-0.4219202995300293,-0.824668824672699
1772810468709259000,0.206259033203125,-0.3695974349975586,-0.0882711410522461,-0.7922331094741821
1772810468718959000,0.215958984375,-0.40154123306274414,0.4964718818664551,-0.6345374584197998
1772810468728659000,0.225658935546875,-0.7552862167358398,0.6828222274780273,-0.35720181465148926
1772810468738359000,0.235359130859375,-0.46184730529785156,0.22283077239990234,0.32223832607269287
1772810468748059000,0.245058837890625,0.1881732940673828,-0.4823927879333496,1.023773431777954
1772810468757759000,0.254759033203125,0.6030745506286621,-0.9912142753601074,1.2928123474121094
1772810468767458800,0.264458740234375,0.6252732276916504,-1.3583526611328125,1.1516720056533813
1772810468777159000,0.274158935546875,0.8344168663024902,-1.2179927825927734,1.0090731382369995
1772810468786858800,0.283858642578125,0.8960056304931641,-0.5820603370666504,0.5358110666275024
1772810468796558800,0.293558837890625,0.6264686584472656,0.2359466552734375,-0.031970471143722534
1772810468806258700,0.3032587890625,-0.10884809494018555,0.3316464424133301,-0.32275646924972534
1772810468815958800,0.312958740234375,-0.6633219718933105,0.04486799240112305,-0.2925182282924652
1772810468825659000,0.322658935546875,-0.5695891380310059,-0.12564563751220703,-0.25449949502944946
1772810468835358700,0.332358642578125,-0.26781511306762695,-0.019492149353027344,-0.0472562313079834
1772810468845058800,0.342058837890625,0.19416236877441406,-0.2600235939025879,0.3347752094268799
1772810468854758700,0.351758544921875,0.49758338928222656,-0.9407405853271484,0.7731441259384155
1772810468864458800,0.361458740234375,0.3435068130493164,-1.5594000816345215,1.173182487487793
1772810468874158600,0.37115869140625,-0.2582850456237793,-1.692507266998291,1.370100498199463
1772810468883858700,0.380858642578125,-1.0942301750183105,-1.288177251815796,1.6871689558029175
1772810468893558500,0.39055859375,-2.1725525856018066,-0.023449420928955078,2.501324415206909
1772810468903258600,0.400258544921875,-2.7788305282592773,0.6975092887878418,2.6935575008392334
1772810468912958500,0.40995849609375,-1.9566774368286133,1.6107516288757324,2.0841283798217773
1772810468922658600,0.419658447265625,2.2669825553894043,3.185875654220581,0.31563735008239746
1772810468932358400,0.4293583984375,4.698427200317383,4.1156229972839355,-1.4199867248535156
1772810468942058500,0.43905859375,2.9742231369018555,3.705801248550415,-1.6064459085464478
1772810468951758600,0.448758544921875,0.4475221633911133,4.450762748718262,-2.5942044258117676
1772810468961458400,0.45845849609375,-0.721895694732666,7.379816055297852,-5.252403736114502
1772810468971158300,0.468158203125,-1.228318214416504,5.110320091247559,-4.288293838500977
1772810468980858400,0.4778583984375,-2.2832107543945312,-0.5824065208435059,-1.136935830116272
1772810468990558500,0.487558349609375,-1.8801708221435547,-1.8895289897918701,-0.18564820289611816
1772810469000258300,0.49725830078125,0.4359421730041504,-0.5576725006103516,0.10337740182876587
1772810469009958400,0.50695849609375,1.9344744682312012,0.9091737270355225,-0.014987051486968994
1772810469019658200,0.516658203125,0.5852766036987305,1.2593088150024414,0.19502824544906616
1772810469029358300,0.5263583984375,0.42798757553100586,0.667259693145752,0.6167798638343811
1772810469039058200,0.53605810546875,1.149996280670166,0.48241400718688965,0.6749832034111023
1772810469048758300,0.54575830078125,1.5334062576293945,0.7158770561218262,0.34674108028411865
1772810469058458000,0.5554580078125,1.8230953216552734,0.9464452266693115,0.1218709945678711
1772810469068158200,0.565158203125,1.8909292221069336,0.7288894653320312,-0.19598567485809326
1772810469077858000,0.574858154296875,1.663346767425537,0.6949849128723145,-0.567336916923523
1772810469087558100,0.58455810546875,2.0670948028564453,0.9044177532196045,-1.126806378364563
1772810469097258200,0.59425830078125,2.998523712158203,0.5307319164276123,-1.032094955444336
1772810469106958000,0.6039580078125,3.182572364807129,1.6176302433013916,-1.032846450805664
1772810469116658200,0.613658203125,4.078248023986816,2.562908411026001,-0.8241625428199768
1772810469126358000,0.62335791015625,4.823085784912109,2.4260361194610596,-0.4988177418708801
1772810469136058000,0.63305810546875,5.355772972106934,1.7774794101715088,-0.19301635026931763
1772810469145758000,0.642758056640625,5.579007148742676,1.386596441268921,-0.0263669490814209
1772810469155458000,0.6524580078125,5.979307174682617,1.2850780487060547,-0.07014316320419312
1772810469165158000,0.662157958984375,6.081132888793945,1.3393888473510742,-0.2211485207080841
1772810469174858000,0.67185791015625,5.513278007507324,0.6799290180206299,0.001826465129852295
1772810469184558000,0.68155810546875,5.072998046875,-0.13943910598754883,0.7106247544288635
1772810469194258000,0.6912578125,4.285493850708008,-0.3320353031158447,0.8972892165184021
1772810469203957800,0.700957763671875,3.3933210372924805,-0.46267175674438477,0.5575416684150696
1772810469213657900,0.710657958984375,2.6284408569335938,-0.7639260292053223,0.5194340944290161
1772810469223358000,0.72035791015625,1.5152664184570312,-1.176051139831543,0.5931740403175354
1772810469233057800,0.730057861328125,0.39584827423095703,-1.5763170719146729,0.6268107891082764
1772810469242757600,0.739757568359375,-0.22979354858398438,-1.6534454822540283,0.7108619809150696
1772810469252457700,0.749457763671875,-0.6608505249023438,-1.6195578575134277,0.6592559218406677
1772810469262157800,0.75915771484375,-0.7768669128417969,-1.733896017074585,0.8361074924468994
1772810469271857700,0.768857666015625,-0.748382568359375,-2.2313241958618164,1.222157597541809
1772810469281557800,0.778557861328125,-2.1639480590820312,-2.531980037689209,0.6805418729782104
1772810469291257600,0.788257568359375,-2.122832775115967,-2.7703909873962402,0.4130723476409912
1772810469300957700,0.797957763671875,-2.127987861633301,-2.4450533390045166,-0.17999708652496338
1772810469310657500,0.807657470703125,-2.7010488510131836,-1.6520452499389648,-0.47251904010772705
1772810469320357600,0.817357666015625,-2.351358413696289,-1.86906099319458,-0.3616943359375
1772810469330057500,0.827057373046875,-2.0253729820251465,-2.0766804218292236,-0.2473081350326538
1772810469339757600,0.836757568359375,-2.182313919067383,-1.9308555126190186,-0.4381444454193115
1772810469349457700,0.846457763671875,-2.048292636871338,-1.7555251121520996,-0.5523054599761963
1772810469359157500,0.856157470703125,-1.868642807006836,-1.723296880722046,-0.5628879070281982
1772810469368857300,0.865857421875,-1.9046564102172852,-1.6657214164733887,-0.5127339363098145
1772810469378557400,0.875557373046875,-1.747136116027832,-1.4735891819000244,-0.5465117692947388
1772810469388257500,0.885257568359375,-1.6520099639892578,-1.0852491855621338,-0.6088563203811646
1772810469397957400,0.894957275390625,-1.573232650756836,-0.8503330945968628,-0.5734283924102783
1772810469407657500,0.904657470703125,-1.5984611511230469,-0.7706501483917236,-0.4975014328956604
1772810469417357300,0.914357421875,-1.4289512634277344,-0.6711767911911011,-0.4513731002807617
1772810469427057400,0.924057373046875,-1.297966480255127,-0.554790735244751,-0.373479962348938
1772810469436757200,0.93375732421875,-1.3762664794921875,-0.6304575204849243,-0.02974236011505127
1772810469446457300,0.943457275390625,-1.236185073852539,-0.7229495048522949,0.08121538162231445
1772810469456157200,0.9531572265625,-1.2970304489135742,-0.7730671763420105,0.1542912721633911
1772810469465857300,0.962857177734375,-1.4851469993591309,-0.9470216035842896,0.2983107566833496
1772810469475557000,0.97255712890625,-1.5093011856079102,-0.8908264636993408,0.32044005393981934
1772810469485257200,0.98225732421875,-1.743278980255127,-0.5996973514556885,0.04737746715545654
1772810469494957300,0.991957275390625,-2.093533515930176,-0.36320269107818604,-0.21273446083068848
1772810469504657200,1.0016572265625,-2.316290855407715,-0.1832292079925537,-0.2728426456451416
1772810469514357200,1.011357177734375,-2.44887113571167,-0.035347700119018555,-0.5604912042617798
1772810469524057000,1.02105712890625,-2.3233394622802734,-0.0362393856048584,-0.6454573273658752
1772810469533757200,1.030757080078125,-2.023682117462158,-0.17067039012908936,-0.4160841107368469
1772810469543457000,1.04045703125,-1.8096771240234375,-0.5430067777633667,-0.1588093638420105
1772810469553157000,1.0501572265625,-1.5164737701416016,-1.015378713607788,-0.042968928813934326
1772810469562857000,1.05985693359375,-0.6971616744995117,-1.1784226894378662,-0.13858985900878906
1772810469572557000,1.06955712890625,-0.2756528854370117,-0.9861530065536499,-0.16464871168136597
1772810469582257000,1.0792568359375,-0.4860715866088867,0.2472289800643921,-0.6425398588180542
1772810469591957000,1.08895703125,-0.12230205535888672,1.2044248580932617,-1.4936764240264893
1772810469601656800,1.09865673828125,0.8932952880859375,2.4930622577667236,-2.4115545749664307
1772810469611357000,1.10835693359375,2.724374771118164,4.2005534172058105,-2.5464189052581787
1772810469621057000,1.11805712890625,6.022899627685547,3.872739553451538,-1.0895166397094727
1772810469630756900,1.1277568359375,9.775256156921387,2.179271697998047,0.3267451524734497
1772810469640456700,1.137456787109375,13.546680450439453,1.884941816329956,0.735599160194397
1772810469650156800,1.14715673828125,17.979671478271484,3.0317769050598145,1.9142322540283203
1772810469659857000,1.15685693359375,20.566570281982422,3.528074264526367,2.552976608276367
1772810469669556700,1.166556640625,22.626684188842773,3.094226360321045,4.294587135314941
1772810469679256800,1.1762568359375,24.735000610351562,3.3186933994293213,4.968221664428711
1772810469688956700,1.185956787109375,26.758346557617188,4.340315341949463,4.205405235290527
1772810469698656800,1.19565673828125,27.214235305786133,4.911307334899902,3.5180535316467285
1772810469708356600,1.205356689453125,26.59365463256836,4.6570281982421875,3.1581296920776367
1772810469718056700,1.215056640625,25.024517059326172,4.341228485107422,2.9537434577941895
1772810469727756500,1.224756591796875,22.659799575805664,3.6199703216552734,3.1162567138671875
1772810469737456600,1.23445654296875,20.114404678344727,2.8049449920654297,3.450688600540161
1772810469747156500,1.244156494140625,17.42711639404297,2.201155662536621,4.09476375579834
1772810469756856600,1.253856689453125,14.787506103515625,1.4104247093200684,4.494279861450195
1772810469766556700,1.263556640625,12.397074699401855,1.0544781684875488,4.348278999328613
1772810469776256500,1.273256591796875,10.273088455200195,1.1137726306915283,3.801335573196411
1772810469785956600,1.28295654296875,8.514716148376465,1.078993558883667,2.9851300716400146
1772810469795656400,1.292656494140625,6.7990922927856445,1.099477767944336,2.1507315635681152
1772810469805356500,1.3023564453125,4.913880348205566,1.0576024055480957,1.5397934913635254
1772810469815056400,1.312056396484375,2.9758968353271484,0.9963507652282715,1.0250537395477295
1772810469824756500,1.321756591796875,0.7664575576782227,1.0775330066680908,0.6182117462158203
1772810469834456300,1.331456298828125,-1.4525604248046875,1.0446743965148926,0.31878066062927246
1772810469844156400,1.341156494140625,-3.3855199813842773,0.7564036846160889,0.030126333236694336
1772810469853856500,1.3508564453125,-4.787271499633789,0.16730546951293945,-0.2741234302520752
1772810469863556400,1.360556396484375,-6.0272626876831055,-0.8385612964630127,-0.3060181140899658
1772810469873256200,1.370256103515625,-7.318901062011719,-1.766566276550293,-0.517827033996582
1772810469882956300,1.379956298828125,-8.438209533691406,-2.3604180812835693,-0.9062066078186035
1772810469892656400,1.389656494140625,-9.48212718963623,-2.788952112197876,-1.329164981842041
1772810469902356200,1.399356201171875,-10.530972480773926,-3.398744583129883,-1.5742754936218262
1772810469912056000,1.40905615234375,-11.387818336486816,-3.8790225982666016,-2.0458600521087646
1772810469921756200,1.418756103515625,-11.877814292907715,-3.621839761734009,-2.4029173851013184
1772810469931456300,1.428456298828125,-12.071292877197266,-3.6463756561279297,-2.4579365253448486
1772810469941156000,1.438156005859375,-12.379316329956055,-4.202837944030762,-2.4408152103424072
1772810469950856200,1.447856201171875,-12.53725814819336,-4.842314720153809,-2.2128589153289795
1772810469960556000,1.45755615234375,-12.647002220153809,-5.193110942840576,-2.1678104400634766
1772810469970256100,1.467256103515625,-12.685535430908203,-5.320504188537598,-2.26358699798584
1772810469979956000,1.4769560546875,-12.696464538574219,-5.3383941650390625,-2.221640110015869
1772810469989656000,1.486656005859375,-12.525355339050293,-5.412582874298096,-2.143723964691162
1772810469999356000,1.49635595703125,-12.337076187133789,-5.647786617279053,-1.947941780090332
1772810470009056000,1.506055908203125,-12.19880485534668,-5.955543518066406,-1.7210872173309326
1772810470018756000,1.515756103515625,-12.095245361328125,-6.15357780456543,-1.5047518014907837
1772810470028456000,1.5254560546875,-11.999015808105469,-6.112330913543701,-1.4198329448699951
1772810470038156000,1.535156005859375,-11.70916748046875,-5.988029956817627,-1.4400417804718018
1772810470047855900,1.54485595703125,-11.296834945678711,-5.948599815368652,-1.3342580795288086
1772810470057556000,1.554555908203125,-10.898330688476562,-6.157800197601318,-1.138514757156372
1772810470067255800,1.564255859375,-10.584038734436035,-6.450661659240723,-1.026120662689209
1772810470076956000,1.573955810546875,-10.217413902282715,-6.7253265380859375,-0.9011836051940918
1772810470086655700,1.58365576171875,-9.572248458862305,-7.0264739990234375,-0.8560047149658203
1772810470096355800,1.59335595703125,-9.302029609680176,-7.2510552406311035,-0.6375763416290283
1772810470106055700,1.6030556640625,-9.15042781829834,-7.667479515075684,-0.6799818277359009
1772810470115755800,1.612755859375,-8.699798583984375,-7.89477014541626,-0.716384768486023
1772810470125456000,1.622455810546875,-8.537994384765625,-7.858224391937256,-0.864458441734314
1772810470135155700,1.63215576171875,-8.388670921325684,-7.761631011962891,-1.0291401147842407
1772810470144855600,1.64185546875,-8.234908103942871,-7.727851867675781,-0.9991509914398193
1772810470154555600,1.6515556640625,-8.12293815612793,-7.720329761505127,-0.8447165489196777
1772810470164255700,1.661255859375,-7.914899826049805,-7.656033515930176,-0.662825345993042
1772810470173955600,1.67095556640625,-7.750915050506592,-7.600929260253906,-0.4257115125656128
1772810470183655700,1.68065576171875,-7.5180983543396,-7.471827983856201,-0.1783137321472168
1772810470193355500,1.69035546875,-7.146068096160889,-7.210172653198242,-0.050218820571899414
1772810470203055600,1.7000556640625,-6.478078842163086,-6.74733829498291,-0.10663747787475586
1772810470212755500,1.70975537109375,-5.558619499206543,-5.930946350097656,-0.39777910709381104
1772810470222455600,1.71945556640625,-4.49017333984375,-4.860563278198242,-0.8769255876541138
1772810470232155400,1.7291552734375,-3.4678866863250732,-3.4740896224975586,-1.6042238473892212
1772810470241855500,1.73885546875,-2.015748977661133,-1.461319923400879,-2.497091770172119
1772810470251555600,1.7485556640625,0.20239925384521484,1.346116065979004,-3.5265510082244873
1772810470261255400,1.75825537109375,3.2719125747680664,4.734968662261963,-5.7704620361328125
1772810470270955300,1.767955322265625,7.869563102722168,4.996147632598877,-4.7453107833862305
1772810470280655400,1.7776552734375,12.731868743896484,2.931760311126709,-1.7065637111663818
1772810470290355500,1.78735546875,17.78661346435547,3.448347568511963,-0.4153994917869568
1772810470300055300,1.79705517578125,22.411449432373047,2.302560806274414,2.556133270263672
1772810470309755100,1.806755126953125,24.421951293945312,-0.7513983249664307,6.763436794281006
1772810470319455200,1.816455322265625,23.871204376220703,-1.5146019458770752,8.60639762878418
1772810470329155300,1.8261552734375,23.178844451904297,0.8877356052398682,7.4687886238098145
1772810470338855200,1.835855224609375,21.306137084960938,3.0026047229766846,5.396846771240234
1772810470348555300,1.84555517578125,17.842891693115234,4.662659168243408,3.267214298248291
1772810470358255000,1.855255126953125,15.002614974975586,6.145442962646484,1.5998318195343018
1772810470367955200,1.864955078125,12.605145454406738,7.105001449584961,0.5261176824569702
1772810470377655000,1.874655029296875,10.747024536132812,7.497977256774902,0.16739141941070557
1772810470387355100,1.884355224609375,9.123307228088379,7.3718109130859375,0.6072647571563721
1772810470397055000,1.894054931640625,7.229113578796387,7.2516632080078125,1.4937458038330078
1772810470406755000,1.903755126953125,4.5749101638793945,7.194275856018066,2.6601152420043945
1772810470416455200,1.913455078125,1.5577430725097656,6.92310905456543,3.5743930339813232
1772810470426155000,1.923155029296875,-1.1562309265136719,6.7079644203186035,3.9425137042999268
1772810470435855000,1.932855224609375,-3.46394681930542,6.499697208404541,3.6465485095977783
1772810470445555000,1.942554931640625,-5.092018127441406,6.098699569702148,2.9458184242248535
1772810470455255000,1.952255126953125,-6.191442012786865,5.360940933227539,1.8636043071746826
1772810470464955000,1.961954833984375,-6.60804557800293,4.474416732788086,0.69034743309021
1772810470474655000,1.971655029296875,-6.588231086730957,3.646127700805664,-0.49866819381713867
1772810470484354800,1.981354736328125,-6.449192047119141,2.8465850353240967,-1.5646588802337646
1772810470494055000,1.991054931640625,-6.314133167266846,2.1226749420166016,-2.4606521129608154
1772810470503754800,2.000754638671875,-6.188745498657227,1.552696704864502,-3.1869571208953857
1772810470513454800,2.010454833984375,-6.295646667480469,1.144411563873291,-3.6997249126434326
1772810470523155000,2.020155029296875,-6.495919227600098,0.7257044315338135,-4.01655387878418
1772810470532854800,2.029854736328125,-6.651089668273926,0.3971893787384033,-4.1730499267578125
1772810470542554600,2.0395546875,-6.828460693359375,0.22297120094299316,-4.239678859710693
1772810470552254700,2.049254638671875,-7.079925060272217,0.0721426010131836,-4.256425857543945
1772810470561954800,2.058954833984375,-7.282895088195801,-0.06974315643310547,-4.1824564933776855
1772810470571654700,2.068654541015625,-7.421462059020996,-0.2033379077911377,-4.115540504455566
1772810470581354800,2.078354736328125,-7.470072269439697,-0.23067641258239746,-4.012092113494873
1772810470591054600,2.0880546875,-7.537750244140625,-0.23546981811523438,-4.151742935180664
1772810470600754700,2.097754638671875,-7.626105308532715,-0.21398210525512695,-4.24011754989624
1772810470610454500,2.10745458984375,-7.830483436584473,-0.2203199863433838,-4.258212089538574
1772810470620154600,2.117154541015625,-8.117138862609863,-0.20722532272338867,-4.268942832946777
1772810470629854500,2.1268544921875,-8.321179389953613,-0.2626652717590332,-4.2683587074279785
1772810470639554600,2.136554443359375,-8.546156883239746,-0.3975527286529541,-4.24729585647583
1772810470649254400,2.14625439453125,-8.597020149230957,-0.4907186031341553,-4.162744522094727
1772810470658954500,2.15595458984375,-8.463777542114258,-0.5757157802581787,-4.011058807373047
1772810470668654300,2.165654296875,-8.323954582214355,-0.5719746351242065,-3.9149622917175293
1772810470678354400,2.1753544921875,-8.278450012207031,-0.6178011894226074,-3.7882368564605713
1772810470688054500,2.185054443359375,-8.196524620056152,-0.7860255241394043,-3.720024824142456
1772810470697754400,2.19475439453125,-8.007712364196777,-0.9446663856506348,-3.5992164611816406
1772810470707454200,2.2044541015625,-7.775606632232666,-0.9860684871673584,-3.611034870147705
1772810470717154300,2.214154296875,-7.480768203735352,-1.2737709283828735,-3.4699056148529053
1772810470726854400,2.2238544921875,-7.074950218200684,-1.6047841310501099,-3.2038583755493164
1772810470736554200,2.23355419921875,-6.684099197387695,-1.647261142730713,-2.8345000743865967
1772810470746254300,2.24325439453125,-6.291489124298096,-1.4665552377700806,-2.4435272216796875
1772810470755954200,2.2529541015625,-6.0195631980896,-0.7208238840103149,-1.9692201614379883
1772810470765654300,2.262654296875,-5.088105201721191,-0.0053157806396484375,-1.7602049112319946
1772810470775354000,2.27235400390625,-2.2174272537231445,0.07184219360351562,-1.2346022129058838
1772810470785054200,2.28205419921875,2.1036534309387207,0.8261120319366455,-0.22851943969726562
1772810470794754000,2.291754150390625,8.46112060546875,2.0754640102386475,1.628741979598999
1772810470804454100,2.3014541015625,16.030658721923828,2.2035281658172607,5.313700199127197
1772810470814154000,2.311154052734375,22.113231658935547,1.6583611965179443,10.482486724853516
1772810470823854000,2.32085400390625,26.05830192565918,1.9824985265731812,15.816930770874023
1772810470833554000,2.330553955078125,30.22004508972168,2.870861530303955,20.071800231933594
1772810470843254000,2.34025390625,34.89747619628906,4.911548614501953,21.53864288330078
1772810470852954000,2.3499541015625,39.01835632324219,8.410473823547363,20.819438934326172
1772810470862654000,2.359654052734375,41.8045539855957,10.899785995483398,19.25125503540039
1772810470872354000,2.36935400390625,42.94382858276367,12.797067642211914,18.246768951416016
1772810470882054000,2.379053955078125,42.77244567871094,14.367664337158203,18.226163864135742
1772810470891754000,2.38875390625,44.50020217895508,14.868826866149902,19.101343154907227
1772810470901453800,2.398453857421875,48.45763397216797,12.455479621887207,21.31719207763672
1772810470911154000,2.40815380859375,52.209999084472656,7.930868625640869,23.877422332763672
1772810470920854000,2.41785400390625,53.982444763183594,1.964026927947998,23.60801124572754
1772810470930553900,2.427553955078125,52.04216766357422,-3.5507307052612305,20.634119033813477
1772810470940253700,2.437253662109375,45.6160888671875,-7.850150108337402,17.481855392456055
1772810470949953800,2.446953857421875,35.741798400878906,-11.10618782043457,13.932820320129395
1772810470959654000,2.45665380859375,23.71845817565918,-13.621695518493652,10.848062515258789
1772810470969353700,2.466353759765625,11.01622486114502,-15.162458419799805,8.330141067504883
1772810470979053600,2.476053466796875,-0.31464385986328125,-15.998581886291504,6.458515167236328
1772810470988753700,2.485753662109375,-8.360883712768555,-16.145769119262695,4.858758449554443
1772810470998453800,2.495453857421875,-11.590088844299316,-16.574234008789062,4.319639205932617
1772810471008153600,2.505153564453125,-12.07150936126709,-16.920242309570312,4.616395950317383
1772810471017853700,2.514853759765625,-12.023759841918945,-17.384782791137695,4.5854010581970215
1772810471027553500,2.524553466796875,-11.144500732421875,-18.277679443359375,4.216527938842773
1772810471037253600,2.534253662109375,-9.87979507446289,-20.589160919189453,5.012729644775391
1772810471046953500,2.543953369140625,-7.729323863983154,-23.587053298950195,5.696228981018066
1772810471056653600,2.553653564453125,-4.518473148345947,-26.1014404296875,6.320623397827148
1772810471066353400,2.563353515625,-3.0907022953033447,-27.27832794189453,6.794460296630859
1772810471076053500,2.573053466796875,-3.9415199756622314,-30.847518920898438,7.929034233093262
1772810471085753600,2.582753662109375,-7.133537292480469,-34.27135467529297,9.75571060180664
1772810471095453400,2.592453369140625,-9.47741985321045,-32.559715270996094,8.764106750488281
1772810471105153300,2.6021533203125,-11.895706176757812,-31.474517822265625,7.290775299072266
1772810471114853400,2.611853271484375,-13.700010299682617,-29.850385665893555,4.934601783752441
1772810471124553500,2.621553466796875,-14.149120330810547,-27.39935302734375,2.282391309738159
1772810471134253300,2.63125341796875,-13.53598403930664,-25.417522430419922,0.9996986389160156
1772810471143953400,2.640953369140625,-12.060455322265625,-23.991783142089844,0.8692958354949951
1772810471153653200,2.6506533203125,-10.193527221679688,-23.082317352294922,1.6550025939941406
1772810471163353300,2.660353271484375,-8.760858535766602,-22.900100708007812,2.5445008277893066
1772810471173053200,2.67005322265625,-7.352053165435791,-22.08218002319336,2.3452658653259277
1772810471182753300,2.679753173828125,-6.41015100479126,-20.969722747802734,1.807661771774292
1772810471192453000,2.689453125,-6.021904468536377,-20.072668075561523,1.3650531768798828
1772810471202153200,2.6991533203125,-5.848624229431152,-18.989925384521484,1.0360698699951172
1772810471211853000,2.70885302734375,-5.985511302947998,-17.960317611694336,1.1156649589538574
1772810471221553200,2.71855322265625,-6.168654918670654,-17.08301544189453,1.5191240310668945
1772810471231253000,2.7282529296875,-6.185555934906006,-16.092199325561523,1.6153016090393066
1772810471240953000,2.737953125,-6.285717010498047,-15.259708404541016,1.7518219947814941
1772810471250653200,2.747653076171875,-6.602350234985352,-14.886697769165039,2.1618998050689697
1772810471260353000,2.75735302734375,-6.9787373542785645,-14.870613098144531,2.7589921951293945
1772810471270053000,2.76705322265625,-7.135706901550293,-14.585821151733398,3.055651903152466
1772810471279753000,2.7767529296875,-7.198068141937256,-14.289206504821777,3.2521066665649414
1772810471289453000,2.786453125,-7.11605167388916,-14.407705307006836,3.78088641166687
1772810471299153000,2.79615283203125,-6.869349479675293,-14.452539443969727,4.138566017150879
1772810471308853000,2.80585302734375,-6.438011169433594,-14.371767044067383,4.298882484436035
1772810471318552800,2.815552734375,-6.022162437438965,-14.259679794311523,4.243227005004883
1772810471328253000,2.8252529296875,-5.763272762298584,-13.931137084960938,3.9417600631713867
1772810471337952800,2.834952880859375,-5.666256427764893,-13.499271392822266,3.6881918907165527
1772810471347652900,2.84465283203125,-5.607529640197754,-13.170797348022461,3.784943103790283
1772810471357353000,2.85435302734375,-5.381008148193359,-12.84070873260498,4.0621337890625
1772810471367052800,2.864052734375,-5.040800094604492,-12.251623153686523,3.9640841484069824
1772810471376752600,2.873752685546875,-4.706005096435547,-11.676433563232422,3.9391376972198486
1772810471386452700,2.88345263671875,-4.410561561584473,-11.11286735534668,4.118466854095459
1772810471396152800,2.89315283203125,-3.8885135650634766,-10.433097839355469,3.9559922218322754
1772810471405852700,2.902852783203125,-2.6806466579437256,-9.596780776977539,3.4917972087860107
1772810471415552800,2.912552734375,-1.2344069480895996,-8.87258529663086,3.034976005554199
1772810471425252600,2.922252685546875,0.7464461326599121,-7.869425296783447,2.3995585441589355
1772810471434952700,2.93195263671875,2.9644131660461426,-6.547028064727783,2.633481502532959
1772810471444652500,2.941652587890625,5.598682880401611,-5.505009651184082,4.050339698791504
1772810471454352600,2.9513525390625,8.390052795410156,-3.4026501178741455,5.155880451202393
1772810471464052500,2.961052490234375,12.050191879272461,-0.7021098136901855,6.558440685272217
1772810471473752600,2.970752685546875,15.853978157043457,-0.052243709564208984,9.240036010742188
1772810471483452400,2.980452392578125,16.798717498779297,-1.882041335105896,13.11856460571289
1772810471493152500,2.990152587890625,18.26995849609375,-2.6046807765960693,15.256420135498047
1772810471502852400,2.999852294921875,21.997034072875977,-1.6470061540603638,14.2857027053833
1772810471512552400,3.009552490234375,27.202865600585938,-1.6484311819076538,14.692816734313965
1772810471522252500,3.01925244140625,32.24061965942383,-2.3205513954162598,15.95753288269043
1772810471531952400,3.028952392578125,36.237667083740234,-1.9837331771850586,16.662036895751953
1772810471541652200,3.03865234375,37.8488883972168,-0.43564581871032715,16.212467193603516
1772810471551352300,3.048352294921875,36.54427719116211,0.7007843852043152,15.725016593933105
1772810471561052400,3.058052490234375,34.127464294433594,1.8904294967651367,14.39084243774414
1772810471570752300,3.067752197265625,31.833515167236328,3.593757152557373,11.985526084899902
1772810471580452400,3.077452392578125,30.60948371887207,8.096081733703613,7.365652084350586
1772810471590152200,3.087152099609375,28.184518814086914,9.605436325073242,6.762552738189697
1772810471599852300,3.096852294921875,22.699533462524414,6.736672878265381,8.448528289794922
1772810471619252200,3.116252197265625,15.86423110961914,8.271197319030762,4.920064926147461
1772810471628952000,3.1259521484375,11.160017967224121,8.189393043518066,3.59665584564209
1772810471638652200,3.135652099609375,7.431596755981445,8.694446563720703,2.1331050395965576
1772810471648352000,3.14535205078125,4.36977481842041,8.857779502868652,1.2671136856079102
1772810471658052000,3.155052001953125,1.6962203979492188,8.33121395111084,0.6433103084564209
1772810471667752000,3.164751953125,-0.3567390441894531,7.660787105560303,-0.1485271453857422
1772810471677452000,3.1744521484375,-1.7852368354797363,6.982912063598633,-1.012991189956665
1772810471687152000,3.184152099609375,-2.6165571212768555,6.120609283447266,-1.8674839735031128
1772810471696852000,3.19385205078125,-2.9275994300842285,5.1140971183776855,-2.858067750930786
1772810471706551800,3.2035517578125,-3.241008758544922,4.139244556427002,-3.8914613723754883
1772810471716252000,3.213251953125,-3.556783676147461,3.1736514568328857,-4.879737854003906
1772810471725952000,3.222951904296875,-4.030328750610352,2.3538691997528076,-5.684335708618164
1772810471735651800,3.23265185546875,-4.646361351013184,1.5992271900177002,-6.144041061401367
1772810471745352000,3.24235205078125,-5.464901924133301,0.8415976762771606,-6.172916412353516
1772810471755051800,3.2520517578125,-6.402480125427246,0.09597474336624146,-5.882506370544434
1772810471764752000,3.261751953125,-7.197088718414307,-0.5798397660255432,-5.692080020904541
1772810471774451700,3.27145166015625,-7.7965922355651855,-1.0584990978240967,-5.634159088134766
1772810471784151800,3.28115185546875,-8.258607864379883,-1.4612888097763062,-5.511570930480957
1772810471793851600,3.2908515625,-8.542980194091797,-1.8817518949508667,-5.330888271331787
1772810471803551700,3.3005517578125,-8.858404159545898,-2.162672996520996,-5.123455047607422
1772810471813251600,3.31025146484375,-9.12450885772705,-2.315532684326172,-4.944483757019043
1772810471822951700,3.31995166015625,-9.385933876037598,-2.484438180923462,-4.783443450927734
1772810471832651500,3.329651611328125,-9.590723037719727,-2.5533571243286133,-4.680830001831055
1772810471842351600,3.3393515625,-9.7870454788208,-2.5784454345703125,-4.532608985900879
1772810471852051700,3.3490517578125,-9.909391403198242,-2.6521153450012207,-4.3433332443237305
1772810471861751600,3.35875146484375,-9.933464050292969,-2.735567092895508,-4.036966323852539
1772810471871451600,3.36845166015625,-9.83714771270752,-2.888253688812256,-3.6893415451049805
1772810471881151500,3.3781513671875,-9.719522476196289,-3.0256423950195312,-3.397091865539551
1772810471890851600,3.3878515625,-9.474081993103027,-3.075665235519409,-3.1527609825134277
1772810471900551400,3.397551513671875,-9.137970924377441,-3.19142746925354,-2.93049693107605
1772810471910251500,3.40725146484375,-8.978886604309082,-3.337398052215576,-2.7374331951141357
1772810471919951400,3.416951416015625,-9.058197021484375,-3.441183567047119,-2.4793996810913086
1772810471929651500,3.4266513671875,-9.558737754821777,-3.535137176513672,-2.1823244094848633
1772810471939351300,3.436351318359375,-9.199263572692871,-3.093862295150757,-2.5037717819213867
1772810471949051400,3.446051513671875,-8.685705184936523,-2.66672682762146,-3.0725741386413574
1772810471958751200,3.455751220703125,-8.666837692260742,-2.4156432151794434,-3.138298749923706
1772810471968451300,3.465451416015625,-8.371216773986816,-2.3353374004364014,-3.5517616271972656
1772810471978151200,3.475151123046875,-7.878597259521484,-1.9850990772247314,-3.9637136459350586
1772810471987851300,3.484851318359375,-7.6776533126831055,-1.625186562538147,-4.110474586486816
1772810471997551400,3.49455126953125,-7.560202598571777,-1.5263711214065552,-3.9017741680145264
1772810472007251200,3.504251220703125,-7.0435075759887695,-1.8989672660827637,-3.1492371559143066
1772810472016951300,3.513951416015625,-6.167402267456055,-2.4078450202941895,-1.79286527633667
1772810472036351200,3.533351318359375,-4.388246059417725,-2.4853732585906982,0.2229914665222168
1772810472046051000,3.543051025390625,-2.633066177368164,-1.7114849090576172,-0.494243860244751
1772810472055751200,3.552751220703125,-1.1238131523132324,0.46036162972450256,-2.3840699195861816
1772810472065451000,3.562450927734375,2.3541040420532227,3.601613759994507,-4.223997116088867
1772810472075151000,3.572151123046875,10.740493774414062,6.796118259429932,-4.427458763122559
1772810472084851000,3.581850830078125,20.038684844970703,7.414888858795166,0.5481758117675781
1772810472094551000,3.591551025390625,30.28019905090332,4.589991092681885,11.289677619934082
1772810472104251000,3.6012509765625,42.3226432800293,-0.8196218013763428,22.20257568359375
1772810472113951000,3.610950927734375,51.030826568603516,-4.072746753692627,27.63134002685547
1772810472123651000,3.620651123046875,54.77009963989258,-2.3546946048736572,28.355810165405273
1772810472133351000,3.630350830078125,53.29988098144531,-0.932931661605835,27.78959083557129
1772810472143050800,3.64005078125,50.522911071777344,0.7780252695083618,23.994056701660156
1772810472152750800,3.649750732421875,47.388572692871094,2.7461252212524414,19.904186248779297
1772810472162451000,3.659450927734375,44.26542282104492,3.3902652263641357,16.805206298828125
1772810472172150800,3.66915087890625,43.32060241699219,2.4940993785858154,15.509005546569824
1772810472181851000,3.678850830078125,43.1840934753418,-0.8753314018249512,16.760351181030273
1772810472191550700,3.68855078125,41.727935791015625,-5.880414009094238,20.572912216186523
1772810472201250800,3.698250732421875,38.92007064819336,-10.976573944091797,25.524417877197266
1772810472210950700,3.70795068359375,33.71223449707031,-16.569690704345703,29.349929809570312
1772810472220650800,3.717650634765625,25.49285888671875,-20.305152893066406,27.572193145751953
1772810472230350600,3.7273505859375,17.139493942260742,-22.959945678710938,22.629566192626953
1772810472240050700,3.73705078125,8.99134635925293,-24.135412216186523,16.93570327758789
1772810472249750800,3.746750732421875,2.373432159423828,-23.29891586303711,11.333894729614258
1772810472259450600,3.75645068359375,-2.8461828231811523,-20.833208084106445,6.640617370605469
1772810472269150500,3.766150390625,-6.476309299468994,-18.252315521240234,3.6211585998535156
1772810472278850600,3.7758505859375,-9.246905326843262,-16.433643341064453,1.5295510292053223
1772810472288550700,3.785550537109375,-10.792652130126953,-15.128952026367188,0.17427945137023926
1772810472298250500,3.79525048828125,-11.24411678314209,-14.22631549835205,-0.17270052433013916
1772810472307950300,3.804950439453125,-11.121644020080566,-13.98565673828125,0.16967076063156128
1772810472317650400,3.814650390625,-10.512889862060547,-14.558367729187012,1.0402270555496216
1772810472337050400,3.83405029296875,-10.668388366699219,-18.600360870361328,4.974024295806885
1772810472346750500,3.84375048828125,-11.198867797851562,-20.410564422607422,5.374076843261719
1772810472356450300,3.8534501953125,-11.464259147644043,-21.555187225341797,4.505580902099609
1772810472366150400,3.863150390625,-11.567323684692383,-22.10405158996582,2.909496545791626
1772810472375850200,3.872850341796875,-11.855243682861328,-21.49307632446289,1.181269884109497
1772810472385550300,3.88255029296875,-12.396557807922363,-20.972301483154297,-0.5912688970565796
1772810472395250200,3.892250244140625,-12.980672836303711,-20.604827880859375,-1.6996190547943115
1772810472404950300,3.9019501953125,-13.449484825134277,-19.982398986816406,-2.3562707901000977
1772810472414650400,3.911650390625,-13.574264526367188,-19.36933135986328,-2.5675048828125
1772810472424350200,3.92135009765625,-13.460283279418945,-18.81765365600586,-2.508516788482666
1772810472434050000,3.931050048828125,-12.877374649047852,-18.23831558227539,-2.591362476348877
1772810472443750100,3.940750244140625,-11.801643371582031,-17.732816696166992,-2.811403512954712
1772810472453450200,3.9504501953125,-10.93275260925293,-17.455827713012695,-2.9979844093322754
1772810472463150000,3.960150146484375,-9.70370101928711,-17.171356201171875,-2.8734638690948486
1772810472472850000,3.969849853515625,-8.307634353637695,-16.717761993408203,-2.913651943206787
1772810472482550000,3.979550048828125,-6.986359119415283,-16.304058074951172,-2.929391384124756
1772810472492250000,3.98925,-5.813210487365723,-15.761494636535645,-2.905364990234375
1772810472501950000,3.998949951171875,-5.031728744506836,-15.259176254272461,-2.7379679679870605
1772810472511650000,4.008650146484375,-4.473526954650879,-14.782947540283203,-2.321183681488037
1772810472521350000,4.018349853515625,-4.43921422958374,-14.113128662109375,-1.8227578401565552
1772810472531050000,4.028050048828125,-4.704758644104004,-13.413873672485352,-1.3356744050979614
1772810472540749800,4.037749755859375,-4.933324337005615,-12.859126091003418,-0.977618932723999
1772810472550450000,4.047449951171875,-5.358704566955566,-12.236839294433594,-0.6226910352706909
1772810472560149800,4.057149658203125,-5.601230621337891,-11.658506393432617,-0.3512314558029175
1772810472569849900,4.066849853515625,-5.753672122955322,-11.201679229736328,-0.11111247539520264
1772810472579550000,4.076550048828125,-5.851803779602051,-10.849714279174805,0.16721737384796143
1772810472589249800,4.086249755859375,-5.965211868286133,-10.562141418457031,0.4762103259563446
1772810472598949600,4.09594970703125,-6.075620651245117,-10.323793411254883,0.7010624408721924
1772810472608649700,4.105649658203125,-6.029912948608398,-10.14230728149414,0.7450783252716064
1772810472618349800,4.115349853515625,-5.875425338745117,-9.952779769897461,0.7078376412391663
1772810472628049700,4.125049560546875,-5.765861511230469,-9.847484588623047,0.6974069476127625
1772810472637749500,4.13474951171875,-5.659228324890137,-9.879158020019531,0.8820919394493103
1772810472647449600,4.14444970703125,-5.539093017578125,-9.83989143371582,1.0221259593963623
1772810472657149700,4.154149658203125,-5.4095563888549805,-9.773258209228516,1.545905351638794
1772810472666849500,4.163849609375,-5.344930648803711,-9.767271995544434,1.9585180282592773
1772810472676549600,4.173549560546875,-5.297565460205078,-9.853322982788086,2.2808802127838135
1772810472686249500,4.18324951171875,-5.21254825592041,-9.48756217956543,2.284010887145996
1772810472695949600,4.192949462890625,-5.26602840423584,-9.004404067993164,1.8825137615203857
1772810472705649400,4.2026494140625,-5.272603988647461,-8.581082344055176,1.2192803621292114
1772810472715349500,4.212349609375,-5.361390113830566,-7.85361385345459,0.11016416549682617
1772810472725049300,4.22204931640625,-5.250327110290527,-6.4744157791137695,-1.3571248054504395
1772810472734749400,4.23174951171875,-3.9871087074279785,-5.968935966491699,-1.1064600944519043
1772810472744449500,4.241449462890625,-2.7569847106933594,-5.686823844909668,0.23764151334762573
1772810472754149400,4.2511494140625,-1.096144199371338,-3.8198013305664062,1.8320672512054443
1772810472763849200,4.26084912109375,3.313704013824463,-0.6184887886047363,2.149019956588745
1772810472773549300,4.27054931640625,8.752737045288086,5.243865966796875,-1.052919864654541
1772810472783249400,4.28024951171875,12.458049774169922,9.621149063110352,-0.2335110902786255
1772810472792949200,4.28994921875,17.642980575561523,4.5206828117370605,7.187058925628662
1772810472802649000,4.299649169921875,23.133766174316406,3.014982223510742,10.712071418762207
1772810472812349200,4.30934912109375,30.622318267822266,1.615098476409912,16.822933197021484
1772810472822049300,4.31904931640625,35.84919738769531,-1.74668550491333,23.3256778717041
1772810472831749000,4.3287490234375,37.661624908447266,-3.783358097076416,24.677452087402344
1772810472841449200,4.33844921875,37.67951965332031,-0.8038977384567261,20.842098236083984
1772810472851149000,4.348149169921875,34.3310546875,4.079142093658447,14.341715812683105
1772810472860849200,4.35784912109375,28.679664611816406,6.088523864746094,8.790343284606934
1772810472870549000,4.367549072265625,24.192073822021484,8.644304275512695,4.231404781341553
1772810472880249000,4.3772490234375,21.8026123046875,12.132474899291992,0.24921846389770508
1772810472889949000,4.386948974609375,20.077350616455078,13.278116226196289,0.5794398784637451
1772810472899649000,4.39664892578125,17.01786231994629,11.487865447998047,2.9930331707000732
1772810472909349000,4.40634912109375,12.614555358886719,9.308557510375977,4.81545877456665
1772810472919049000,4.416049072265625,8.410923957824707,8.55817985534668,5.133635520935059
1772810472928748800,4.425748779296875,4.282773017883301,9.059942245483398,4.178361892700195
1772810472938449000,4.435448974609375,0.7235393524169922,8.627267837524414,3.163668632507324
1772810472948149000,4.44514892578125,-1.9612550735473633,7.760905742645264,2.363797187805176
1772810472957848800,4.454848876953125,-3.583038330078125,7.184110164642334,1.2755653858184814
1772810472967548700,4.464548583984375,-4.863307952880859,6.596105098724365,0.33696842193603516
1772810472977248800,4.474248779296875,-5.67478609085083,5.505209922790527,-0.5902214050292969
1772810472986948900,4.483948974609375,-6.106573104858398,4.730295658111572,-1.6560356616973877
1772810472996648700,4.493648681640625,-6.5908637046813965,4.104653358459473,-2.5999741554260254
1772810473006348800,4.503348876953125,-6.781351089477539,3.446298599243164,-3.515263795852661
1772810473016048600,4.513048583984375,-6.968623161315918,2.9615659713745117,-4.395008087158203
1772810473025748700,4.522748779296875,-7.2439188957214355,2.663935661315918,-5.202138900756836
1772810473035448600,4.532448486328125,-7.510246276855469,2.3807320594787598,-5.886474609375
1772810473045148700,4.542148681640625,-7.604538917541504,2.1897003650665283,-6.544411659240723
1772810473054848500,4.5518486328125,-7.235971927642822,2.014387845993042,-7.172463417053223
1772810473064548600,4.561548583984375,-6.843594074249268,1.8340048789978027,-7.429843902587891
1772810473074248700,4.571248779296875,-6.404589653015137,1.5888671875,-7.5525736808776855
1772810473083948500,4.580948486328125,-5.753583908081055,1.2146732807159424,-7.463005065917969
1772810473093648400,4.5906484375,-5.053575038909912,0.8059898018836975,-7.150476455688477
1772810473103348500,4.600348388671875,-4.37567663192749,0.20010906457901,-6.1138153076171875
1772810473113048600,4.610048583984375,-3.927093982696533,-0.4161418080329895,-4.797752857208252
1772810473122748400,4.61974853515625,-3.1969032287597656,-0.5814529657363892,-4.213911533355713
1772810473132448300,4.6294482421875,-1.8347482681274414,-0.5619592666625977,-3.9542489051818848
1772810473142148400,4.6391484375,-0.8793916702270508,-0.6550592184066772,-3.0438647270202637
1772810473151848400,4.648848388671875,-0.5582489967346191,-1.0560349225997925,-1.906877040863037
1772810473161548300,4.65854833984375,-0.030091285705566406,-1.9458510875701904,-1.1061558723449707
1772810473171248400,4.668248291015625,0.4585990905761719,-2.6901211738586426,-0.7830679416656494
1772810473180948200,4.6779482421875,0.7201919555664062,-3.1382968425750732,-0.9598789215087891
1772810473190648300,4.6876484375,0.8217763900756836,-3.4635212421417236,-1.327927589416504
1772810473200348200,4.69734814453125,0.4498300552368164,-3.1344175338745117,-1.7950975894927979
1772810473210048300,4.70704833984375,-0.39405345916748047,-2.420780897140503,-2.3740968704223633
1772810473219748000,4.716748046875,-1.481278419494629,-1.9719555377960205,-2.8353404998779297
1772810473229448200,4.7264482421875,-2.549001693725586,-1.5799320936203003,-3.3770811557769775
1772810473239148000,4.73614794921875,-3.42171573638916,-1.1071573495864868,-3.948333978652954
1772810473248848100,4.74584814453125,-4.119880676269531,-0.7079796195030212,-4.3892340660095215
1772810473258548000,4.7555478515625,-4.631405830383301,-0.5075027942657471,-4.66950798034668
1772810473268248000,4.765248046875,-5.086863994598389,-0.3520379960536957,-4.942360877990723
1772810473277948000,4.774947998046875,-5.316265106201172,-0.47252631187438965,-5.147846221923828
1772810473287648000,4.78464794921875,-5.360714912414551,-0.7999045848846436,-5.37261962890625
1772810473297347800,4.794347900390625,-5.267449378967285,-0.8519946932792664,-5.786929130554199
1772810473307048000,4.8040478515625,-4.861764430999756,-0.6852701902389526,-6.235847473144531
1772810473316747800,4.813747802734375,-4.027461051940918,-0.5405464172363281,-6.274194717407227
1772810473326447900,4.82344775390625,-3.669158935546875,-0.5064166784286499,-5.659076690673828
1772810473336148000,4.83314794921875,-3.4519577026367188,-0.6541868448257446,-4.443121910095215
1772810473345847800,4.842847900390625,-2.9402589797973633,-0.8051539659500122,-3.2337381839752197
1772810473355548000,4.8525478515625,-1.7766046524047852,-0.7375221252441406,-2.4877779483795166
1772810473365247700,4.862247802734375,0.2158336639404297,-0.5635441541671753,-1.6229276657104492
1772810473374947800,4.87194775390625,3.2772750854492188,0.5494865775108337,-1.6105685234069824
1772810473384647700,4.881647705078125,7.57528018951416,1.9528921842575073,-0.8920819759368896
1772810473394347800,4.89134765625,12.587479591369629,1.7586312294006348,1.4364652633666992
1772810473404047600,4.901047607421875,18.865331649780273,0.6118983030319214,4.083324432373047
1772810473413747700,4.910747802734375,26.13039779663086,-1.3063275814056396,7.133596897125244
1772810473423447600,4.920447509765625,33.22087097167969,-4.415050506591797,11.25482177734375
1772810473433147600,4.930147705078125,38.62275314331055,-5.433309555053711,13.614323616027832
1772810473442847500,4.939847412109375,40.28940200805664,-5.912079811096191,14.536020278930664
1772810473452547600,4.949547607421875,38.17913818359375,-5.727984428405762,14.501285552978516
1772810473462247400,4.959247314453125,35.6661376953125,-3.2169342041015625,12.53962516784668
1772810473471947500,4.968947509765625,32.593048095703125,-1.8636624813079834,10.813016891479492
1772810473481647400,4.9786474609375,31.08567237854004,-1.335847020149231,10.106433868408203
1772810473491347500,4.988347412109375,31.8948974609375,-1.9120604991912842,10.304708480834961
1772810473501047600,4.998047607421875,33.03300857543945,-2.8032665252685547,10.018362045288086
1772810473510747400,5.007747314453125,33.29611587524414,-4.3988871574401855,10.104987144470215
1772810473520447200,5.017447265625,32.1242561340332,-6.156648635864258,10.242992401123047
1772810473530147300,5.027147216796875,29.18560218811035,-7.903201103210449,10.158702850341797
1772810473539847400,5.036847412109375,24.607696533203125,-9.073576927185059,9.910693168640137
1772810473549547300,5.04654736328125,18.63541603088379,-9.525671005249023,8.947515487670898
1772810473559247000,5.0562470703125,12.055266380310059,-9.674901962280273,7.850146770477295
1772810473568947200,5.065947265625,5.7754364013671875,-9.772920608520508,6.71996545791626
1772810473578647300,5.075647216796875,0.407318115234375,-10.153095245361328,5.516982078552246
1772810473588347100,5.08534716796875,-3.8997678756713867,-11.034566879272461,4.693718433380127
1772810473598047200,5.095047119140625,-7.01648473739624,-12.096014022827148,3.860426664352417
1772810473607747000,5.1047470703125,-8.20217227935791,-13.489936828613281,3.162867546081543
1772810473617447200,5.114447265625,-8.634687423706055,-15.262638092041016,2.8020269870758057
1772810473627147000,5.12414697265625,-8.604243278503418,-16.82330894470215,2.3697381019592285
1772810473636847000,5.13384716796875,-8.453133583068848,-18.22730255126953,2.7443737983703613
1772810473646547000,5.143546875,-9.18946647644043,-19.42976951599121,3.8718056678771973
1772810473656247000,5.1532470703125,-9.534449577331543,-20.011058807373047,4.654386043548584
1772810473665947100,5.162947021484375,-9.778413772583008,-19.832178115844727,4.780849456787109
1772810473675647000,5.17264697265625,-9.874629974365234,-19.66349220275879,4.283332347869873
1772810473685346800,5.182346923828125,-9.253087997436523,-19.579910278320312,3.169234037399292
1772810473695047000,5.192046875,-8.633119583129883,-19.238967895507812,2.08221435546875
1772810473704747000,5.2017470703125,-7.63926887512207,-19.11433219909668,0.7300620079040527
1772810473714446800,5.21144677734375,-6.063807487487793,-18.926055908203125,-0.5998635292053223
1772810473724146700,5.221146728515625,-4.886078357696533,-18.517982482910156,-1.4624773263931274
1772810473733846800,5.2308466796875,-4.019093990325928,-18.447444915771484,-1.767804741859436
1772810473743547000,5.240546875,-3.4471466541290283,-18.350513458251953,-1.99505615234375
1772810473753246700,5.250246826171875,-3.18949556350708,-18.09343719482422,-1.9618773460388184
1772810473762946800,5.25994677734375,-3.248178482055664,-17.973323822021484,-1.7517473697662354
1772810473772646700,5.269646728515625,-3.454756259918213,-17.8941650390625,-1.5490224361419678
1772810473782346800,5.2793466796875,-3.9216864109039307,-17.520597457885742,-1.2611234188079834
1772810473792046600,5.289046630859375,-4.542540073394775,-17.177871704101562,-1.0758097171783447
1772810473801746700,5.29874658203125,-4.922783851623535,-16.920795440673828,-1.1862632036209106
1772810473811446500,5.308446533203125,-5.570291519165039,-16.720243453979492,-1.4277410507202148
1772810473821146600,5.318146728515625,-6.159563064575195,-16.374439239501953,-1.8721157312393188
1772810473830846700,5.3278466796875,-6.1833176612854,-16.417449951171875,-2.240562677383423
1772810473840546600,5.337546630859375,-5.974767208099365,-16.301082611083984,-2.5936341285705566
1772810473850246400,5.347246337890625,-5.318511009216309,-16.26201820373535,-2.8347387313842773
1772810473859946500,5.356946533203125,-4.700851917266846,-16.25997543334961,-2.907418966293335
1772810473869646600,5.366646484375,-4.250298976898193,-16.25359344482422,-2.8039047718048096
1772810473879346400,5.376346435546875,-3.911487102508545,-16.102386474609375,-2.5974817276000977
1772810473889046300,5.38604638671875,-3.7251949310302734,-15.682662010192871,-2.365088939666748
1772810473898746400,5.395746337890625,-3.8154075145721436,-15.234378814697266,-1.9866747856140137
1772810473908446500,5.405446533203125,-4.052065372467041,-14.713201522827148,-1.4093081951141357
1772810473918146300,5.415146240234375,-4.6512603759765625,-14.134866714477539,-0.8563980460166931
1772810473927846400,5.424846435546875,-5.057283401489258,-13.715011596679688,-0.2103208303451538
1772810473937546200,5.434546142578125,-5.359440803527832,-13.329388618469238,0.28589242696762085
1772810473947246300,5.444246337890625,-5.592834949493408,-13.003588676452637,0.6472858786582947
1772810473956946200,5.4539462890625,-5.707681179046631,-12.520689010620117,0.7344235777854919
1772810473966646300,5.463646240234375,-5.694266319274902,-11.67127799987793,0.5477251410484314
1772810473976346000,5.47334619140625,-5.542186737060547,-10.9058198928833,0.40059489011764526
1772810473986046200,5.483046142578125,-4.628772735595703,-10.282496452331543,0.2862665355205536
1772810473995746000,5.49274609375,-3.4403772354125977,-8.779861450195312,0.43799081444740295
1772810474005446100,5.502446044921875,-1.8810956478118896,-5.913170337677002,0.19594138860702515
1772810474015146000,5.51214599609375,0.43233442306518555,-0.5600037574768066,-1.6531261205673218
1772810474024846000,5.52184619140625,5.5279436111450195,6.733850002288818,-3.176297187805176
1772810474034546000,5.5315458984375,11.132547378540039,10.318285942077637,0.8735401630401611
1772810474044246000,5.54124609375,17.519763946533203,12.059745788574219,8.046830177307129
1772810474053945900,5.55094580078125,25.48224449157715,13.573246002197266,17.186580657958984
1772810474063646000,5.56064599609375,33.4428596496582,12.977483749389648,26.629531860351562
1772810474073345800,5.570345703125,37.841434478759766,11.917484283447266,34.09722900390625
1772810474083046000,5.5800458984375,36.53473663330078,13.281805038452148,33.78664779663086
1772810474092746000,5.58974609375,31.453264236450195,17.80255889892578,26.944950103759766
1772810474102445800,5.59944580078125,25.48888397216797,20.075851440429688,19.865934371948242
1772810474112145700,5.609145751953125,20.55582046508789,20.072906494140625,13.813336372375488
1772810474121845800,5.618845703125,17.012832641601562,19.078962326049805,9.57010269165039
1772810474131545900,5.6285458984375,14.251422882080078,17.273670196533203,6.647111892700195
1772810474141245700,5.63824560546875,11.397821426391602,15.453250885009766,4.9981513023376465
1772810474150945800,5.64794580078125,8.097543716430664,13.734189987182617,4.1761627197265625
1772810474160645600,5.657645751953125,4.807768821716309,12.020181655883789,3.5229029655456543
1772810474170345700,5.667345703125,2.539158821105957,10.07158088684082,2.983055591583252
1772810474180045600,5.677045654296875,0.8475131988525391,8.289521217346191,2.6506247520446777
1772810474189745700,5.68674560546875,-0.8543386459350586,6.7106146812438965,2.1512537002563477
1772810474199445500,5.696445556640625,-2.3867154121398926,5.350045680999756,1.548356533050537
1772810474209145600,5.7061455078125,-3.6319808959960938,4.3092360496521,0.7432069778442383
1772810474218845400,5.715845458984375,-4.621652126312256,3.3027024269104004,-0.1558384895324707
1772810474228545500,5.725545654296875,-5.379339694976807,2.295238971710205,-0.9954190254211426
1772810474238245400,5.735245361328125,-5.908430099487305,1.3868861198425293,-1.8128142356872559
1772810474247945500,5.744945556640625,-6.267356872558594,0.5147256851196289,-2.58611798286438
1772810474257645600,5.7546455078125,-6.502614974975586,-0.3547673225402832,-3.2512588500976562
1772810474267345400,5.764345458984375,-6.6542863845825195,-1.11714506149292,-3.7686338424682617
1772810474277045200,5.774045166015625,-6.611907005310059,-1.8601090908050537,-4.266232013702393
1772810474286745300,5.783745361328125,-6.615273475646973,-2.620600461959839,-4.699566841125488
1772810474296445400,5.793445556640625,-6.404533386230469,-2.961634635925293,-4.785530090332031
1772810474306145300,5.803145263671875,-6.490586280822754,-2.874285936355591,-4.8418378829956055
1772810474315845400,5.812845458984375,-6.74989128112793,-2.8392372131347656,-4.75730037689209
1772810474325545200,5.822545166015625,-6.847320079803467,-2.8885769844055176,-4.560701370239258
1772810474335245300,5.832245361328125,-6.6847615242004395,-2.886960983276367,-4.325503349304199
1772810474344945200,5.841945068359375,-6.585929870605469,-2.5956673622131348,-3.9809858798980713
1772810474354645200,5.851645263671875,-6.525857925415039,-2.234297513961792,-3.4600822925567627
1772810474364345000,5.861344970703125,-5.8749847412109375,-2.1022791862487793,-3.1676712036132812
1772810474374045200,5.871045166015625,-4.597836971282959,-1.8875703811645508,-2.972640037536621
1772810474383745000,5.8807451171875,-3.668722629547119,-1.111058235168457,-2.30094313621521
1772810474393445000,5.890445068359375,-2.9500865936279297,-0.4594602584838867,-1.6155996322631836
1772810474403145000,5.90014501953125,-1.9988164901733398,-0.0068492889404296875,-1.5070436000823975
1772810474412845000,5.909844970703125,-0.9409146308898926,0.6335296630859375,-1.9441430568695068
1772810474422545000,5.919544921875,0.5208072662353516,0.599492073059082,-2.195152759552002
1772810474432245000,5.929244873046875,1.8274202346801758,1.0188102722167969,-2.605717182159424
1772810474441944800,5.93894482421875,0.8267927169799805,-0.8849730491638184,-1.9421799182891846
1772810474451645000,5.94864501953125,-0.41095781326293945,-1.8450815677642822,-1.997335433959961
1772810474461344800,5.9583447265625,-0.9837617874145508,-2.418351173400879,-2.4907267093658447
1772810474471044900,5.968044921875,-1.6550078392028809,-2.9022457599639893,-3.045182466506958
1772810474480745000,5.977744873046875,-2.2064318656921387,-3.2233259677886963,-3.4705886840820312
1772810474490444800,5.98744482421875,-2.459855079650879,-3.5070295333862305,-3.6020803451538086
1772810474500144600,5.99714453125,-2.4876184463500977,-3.621760845184326,-3.687385082244873
1772810474509844700,6.0068447265625,-2.5232553482055664,-3.635671377182007,-3.8217532634735107
1772810474519544800,6.016544921875,-2.647096633911133,-3.87368106842041,-3.9243009090423584
1772810474529244700,6.02624462890625,-2.6480588912963867,-4.0270233154296875,-4.411480903625488
1772810474538944500,6.035944580078125,-2.494851589202881,-4.077836513519287,-5.00120735168457
1772810474548644600,6.04564453125,-2.8884201049804688,-4.199366092681885,-5.434197425842285
1772810474558344700,6.0553447265625,-3.4414138793945312,-4.178139686584473,-5.741618633270264
1772810474568044500,6.06504443359375,-3.5108566284179688,-3.9407553672790527,-5.787148475646973
1772810474577744600,6.07474462890625,-3.161259174346924,-3.6938624382019043,-5.390079498291016
1772810474587444500,6.084444580078125,-2.432326316833496,-3.4798927307128906,-4.703052997589111
1772810474597144600,6.09414453125,-0.565155029296875,-3.059190273284912,-3.689650774002075
1772810474606844400,6.103844482421875,1.3882784843444824,-2.6471381187438965,-2.5589542388916016
1772810474616544500,6.11354443359375,3.0882320404052734,-2.011331558227539,-2.0364980697631836
1772810474626244400,6.123244384765625,5.035816669464111,-1.0938224792480469,-2.0567538738250732
1772810474635944400,6.1329443359375,7.406222343444824,-0.14442014694213867,-2.207979440689087
1772810474645644500,6.14264453125,11.020611763000488,0.8699464797973633,-2.7786853313446045
1772810474655344400,6.152344482421875,15.650918960571289,1.7887916564941406,-2.8422412872314453
1772810474665044200,6.162044189453125,19.84489631652832,2.6761131286621094,-1.6371359825134277
1772810474674744300,6.171744384765625,22.606321334838867,3.614379405975342,-0.11437046527862549
1772810474684444400,6.1814443359375,23.391935348510742,4.167317867279053,1.4688640832901
1772810474694144300,6.191144287109375,23.253719329833984,5.587344646453857,3.161405086517334
1772810474703844000,6.200843994140625,22.5129451751709,7.344849109649658,4.567638397216797
1772810474713544200,6.210544189453125,22.286663055419922,8.438950538635254,6.155276775360107
1772810474723244300,6.220244384765625,22.62751007080078,9.270825386047363,7.453954696655273
1772810474732944100,6.229944091796875,23.189250946044922,10.170858383178711,7.912654399871826
1772810474742644200,6.239644287109375,23.530414581298828,10.343461990356445,8.026545524597168
1772810474752344000,6.249343994140625,22.904733657836914,10.247257232666016,8.339841842651367
1772810474762044200,6.259044189453125,21.271339416503906,10.049090385437012,8.69186019897461
1772810474771744000,6.268743896484375,19.31896209716797,9.351455688476562,9.44809627532959
1772810474781444000,6.278444091796875,16.576114654541016,8.23536491394043,9.883952140808105
1772810474791144000,6.28814404296875,13.072093963623047,6.91523551940918,9.292728424072266
1772810474800844000,6.297843994140625,8.996796607971191,5.192996978759766,7.643271446228027
1772810474810543900,6.3075439453125,4.757436275482178,3.353750228881836,5.263249397277832
1772810474820244000,6.317243896484375,0.9621291160583496,1.2028355598449707,3.0706841945648193
1772810474829943800,6.32694384765625,-2.4753942489624023,-1.424394130706787,1.1585959196090698
1772810474839644000,6.336643798828125,-5.3799848556518555,-3.592306613922119,-0.5228096842765808
1772810474849343700,6.34634375,-8.241851806640625,-5.221818923950195,-1.523709774017334
1772810474859043800,6.3560439453125,-10.556339263916016,-6.986837387084961,-1.610613226890564
1772810474868743700,6.36574365234375,-11.996000289916992,-8.69711971282959,-1.2088720798492432
1772810474878443800,6.37544384765625,-12.775138854980469,-9.756415367126465,-0.8425976634025574
1772810474888143600,6.3851435546875,-13.096681594848633,-10.260436058044434,-0.5366525053977966
1772810474897843700,6.39484375,-12.661224365234375,-10.489019393920898,-0.16935408115386963
1772810474907543800,6.404543701171875,-11.975126266479492,-10.640116691589355,0.3126019239425659
1772810474917243600,6.41424365234375,-11.973394393920898,-10.533012390136719,0.7769664525985718
1772810474926943500,6.423943603515625,-12.105281829833984,-10.268030166625977,0.984744131565094
1772810474936643600,6.4336435546875,-12.193863868713379,-9.818700790405273,0.9612194299697876
1772810474946343700,6.44334375,-12.403142929077148,-9.284139633178711,1.0685604810714722
1772810474956043500,6.45304345703125,-12.706335067749023,-8.748241424560547,1.2369029521942139
1772810474965743400,6.462743408203125,-12.687997817993164,-8.091996192932129,1.3930193185806274
1772810474975443500,6.472443359375,-12.426206588745117,-7.4828619956970215,1.5024566650390625
1772810474985143600,6.4821435546875,-11.875588417053223,-7.085239887237549,1.637414574623108
1772810474994843400,6.491843505859375,-10.985076904296875,-7.145522117614746,2.3426032066345215
1772810475004543500,6.50154345703125,-10.36777114868164,-7.378586292266846,3.1224875450134277
1772810475014243300,6.511243408203125,-9.663116455078125,-6.96741247177124,3.2998287677764893
1772810475023943400,6.520943359375,-8.793550491333008,-6.523169040679932,3.2064411640167236
1772810475033643300,6.530643310546875,-8.275886535644531,-6.309347152709961,3.120211601257324
1772810475043343400,6.54034326171875,-7.811919212341309,-6.157803535461426,3.1762325763702393
1772810475053043200,6.550043212890625,-7.214147567749023,-5.954793930053711,2.9962122440338135
1772810475062743000,6.559742919921875,-6.7050395011901855,-5.657214164733887,2.705094575881958
1772810475072443100,6.569443115234375,-6.306429862976074,-5.3989667892456055,2.5483570098876953
1772810475082143200,6.579143310546875,-6.018449783325195,-5.209654808044434,2.34001088142395
1772810475091843000,6.588843017578125,-5.789455413818359,-5.001273155212402,2.029350757598877
1772810475101543200,6.598543212890625,-5.477785587310791,-4.962764739990234,1.7128138542175293
1772810475111243000,6.608242919921875,-5.218449592590332,-4.969393730163574,1.4818586111068726
1772810475120943000,6.617943115234375,-4.83219575881958,-4.812006950378418,1.2509162425994873
1772810475130643000,6.627642822265625,-4.610989570617676,-4.700860500335693,1.0561258792877197
1772810475140343000,6.637343017578125,-4.5152997970581055,-4.605228900909424,0.842965841293335
1772810475150043000,6.64704296875,-4.516912460327148,-4.511083602905273,0.55788254737854
1772810475159743000,6.656742919921875,-4.660277843475342,-4.447063446044922,0.2660463750362396
1772810475169443000,6.666443115234375,-4.846892356872559,-4.399013519287109,-0.004536718130111694
1772810475179143000,6.676142822265625,-5.08833646774292,-4.327399253845215,-0.19261327385902405
1772810475188842800,6.6858427734375,-5.339848518371582,-4.138108253479004,-0.33180105686187744
1772810475198542800,6.69554296875,-5.65346097946167,-3.839123249053955,-0.28240182995796204
1772810475208243000,6.705242919921875,-5.912479400634766,-3.738253116607666,-0.12083244323730469
1772810475217942800,6.71494287109375,-5.868796348571777,-3.6934380531311035,0.21435782313346863
1772810475227642600,6.724642578125,-5.6122331619262695,-3.4418179988861084,0.23419836163520813
1772810475237342700,6.7343427734375,-5.292288780212402,-2.8917036056518555,-0.012178122997283936
1772810475247042800,6.744042724609375,-4.963490962982178,-1.9892857074737549,-0.21888095140457153
1772810475256742700,6.75374267578125,-4.11201286315918,-0.7573328018188477,-0.4819043278694153
1772810475266442800,6.76344287109375,-2.4567909240722656,0.6485886573791504,-0.6279771327972412
1772810475276142600,6.773142578125,0.3689088821411133,1.6079449653625488,-0.3262815773487091
1772810475285842400,6.782842529296875,4.909005165100098,2.752316951751709,-0.15507566928863525
1772810475295542500,6.79254248046875,9.554574966430664,6.12817907333374,-1.8962483406066895
1772810475305242600,6.80224267578125,13.904397010803223,8.955183982849121,-2.766756296157837
1772810475314942500,6.8119423828125,18.508403778076172,4.717886924743652,2.2895772457122803
1772810475324642600,6.821642578125,22.116897583007812,4.261919021606445,4.591512680053711
1772810475334342400,6.83134228515625,25.41818618774414,5.477901458740234,5.5740814208984375
1772810475344042500,6.84104248046875,26.852725982666016,3.842604637145996,8.094095230102539
1772810475353742300,6.850742431640625,26.755041122436523,2.6242945194244385,8.62072467803955
1772810475363442400,6.8604423828125,26.383914947509766,3.8961329460144043,6.429015636444092
1772810475373142300,6.870142333984375,24.155902862548828,5.367883682250977,3.683821678161621
1772810475382842400,6.87984228515625,20.991535186767578,6.132132530212402,1.5161464214324951
1772810475392542200,6.889542236328125,18.125776290893555,7.083996772766113,-0.3767922818660736
1772810475402242300,6.8992421875,15.78098201751709,7.745394706726074,-1.9390699863433838
1772810475411942100,6.908942138671875,13.223432540893555,7.684846878051758,-2.94851016998291
1772810475421642200,6.918642333984375,10.713911056518555,6.867763042449951,-3.3096907138824463
1772810475431342300,6.92834228515625,8.707961082458496,5.607610702514648,-2.8649213314056396
1772810475441042200,6.938042236328125,6.783228874206543,4.098875999450684,-2.199676513671875
1772810475450742000,6.947741943359375,4.529338836669922,2.7375593185424805,-1.5560429096221924
1772810475460442000,6.957442138671875,2.050082206726074,1.729222297668457,-1.1644904613494873
1772810475470142200,6.96714208984375,-0.4656333923339844,1.0253324508666992,-1.0359971523284912
1772810475479842000,6.976842041015625,-2.7818069458007812,0.40734410285949707,-0.9013885259628296
1772810475489542100,6.986542236328125,-4.865566253662109,-0.2600247859954834,-0.7157292366027832
1772810475499242000,6.996241943359375,-6.470280647277832,-0.7734365463256836,-0.693157434463501
1772810475508941800,7.00594189453125,-7.480948448181152,-1.2389633655548096,-0.7344386577606201
1772810475518642000,7.015641845703125,-8.181912422180176,-1.6080596446990967,-0.9135621786117554
1772810475528342000,7.025342041015625,-8.694985389709473,-2.0201849937438965,-0.9974139928817749
1772810475538041900,7.035041748046875,-9.072988510131836,-2.441070318222046,-1.0886764526367188
1772810475547741700,7.04474169921875,-9.317996978759766,-2.7805323600769043,-1.0970382690429688
1772810475557441800,7.05444189453125,-9.20571517944336,-2.9165360927581787,-1.1499896049499512
1772810475567142000,7.064141845703125,-9.012127876281738,-2.843362808227539,-1.1019535064697266
1772810475576841700,7.073841796875,-9.066888809204102,-2.881351947784424,-1.0451024770736694
1772810475586541800,7.083541748046875,-9.107487678527832,-2.963508367538452,-0.9931765794754028
1772810475596241700,7.09324169921875,-9.039740562438965,-2.9687259197235107,-0.8139907121658325
1772810475605941800,7.102941650390625,-9.067039489746094,-2.8709590435028076,-0.4107341766357422
1772810475615641600,7.1126416015625,-9.117693901062012,-2.8246166706085205,0.048368602991104126
1772810475625341700,7.122341796875,-8.990211486816406,-2.859633445739746,0.2730807960033417
1772810475635041500,7.13204150390625,-8.918131828308105,-2.9269537925720215,0.4423051178455353
1772810475644741600,7.14174169921875,-9.001615524291992,-2.998499631881714,0.6520050168037415
1772810475654441500,7.15144140625,-9.34235668182373,-3.1335089206695557,0.9026483297348022
1772810475664141600,7.1611416015625,-9.715409278869629,-3.2304470539093018,1.0375664234161377
1772810475673841400,7.17084130859375,-9.947381019592285,-3.1379096508026123,0.9453890919685364
1772810475683541500,7.18054150390625,-10.193172454833984,-3.0745410919189453,0.7927600741386414
1772810475693241300,7.190241455078125,-10.440267562866211,-3.106534957885742,0.6712344884872437
1772810475702941400,7.19994140625,-10.445978164672852,-3.1986842155456543,0.528229296207428
1772810475712641300,7.209641357421875,-10.399523735046387,-3.3379411697387695,0.43931955099105835
1772810475722341400,7.21934130859375,-10.11782169342041,-3.5538992881774902,0.45377081632614136
1772810475732041200,7.229041259765625,-9.626834869384766,-3.729910373687744,0.35502001643180847
1772810475741741300,7.2387412109375,-9.2572603225708,-3.854260206222534,0.16074088215827942
1772810475751441400,7.24844140625,-8.860548973083496,-3.8679699897766113,0.028827205300331116
1772810475761141200,7.258141357421875,-8.570026397705078,-4.024433612823486,0.1547042280435562
1772810475770841000,7.267841064453125,-8.002720832824707,-4.105557441711426,0.39773595333099365
1772810475780541200,7.277541259765625,-7.23112678527832,-3.6999638080596924,0.49263978004455566
1772810475790241300,7.2872412109375,-6.657904148101807,-3.203378438949585,0.3383339047431946
1772810475799941000,7.296941162109375,-5.165806293487549,-1.569993019104004,-0.40382152795791626
1772810475809641000,7.306640869140625,-2.8627853393554688,0.531606912612915,-0.1975017488002777
1772810475819341000,7.316341064453125,-0.022504806518554688,2.289438247680664,0.3134527802467346
1772810475829041200,7.326041259765625,5.129239082336426,4.3567070960998535,0.9008761644363403
1772810475838741000,7.335740966796875,11.718904495239258,6.184588432312012,2.6588425636291504
1772810475848441000,7.345441162109375,18.872976303100586,6.87990140914917,5.557429790496826
1772810475858141000,7.355140869140625,26.52825927734375,4.168612480163574,11.622036933898926
1772810475867841000,7.364841064453125,33.400062561035156,3.678959608078003,16.221094131469727
1772810475877540900,7.374540771484375,39.193058013916016,3.9993202686309814,19.132823944091797
1772810475887241000,7.384240966796875,42.60321044921875,3.9404683113098145,19.69304656982422
1772810475896940800,7.39394091796875,44.537757873535156,4.639588356018066,16.815229415893555
1772810475906641000,7.403640869140625,44.50712585449219,5.775086402893066,12.873907089233398
1772810475916340700,7.4133408203125,41.878623962402344,6.553008079528809,9.929584503173828
1772810475926040800,7.423040771484375,37.399906158447266,6.954442977905273,7.095025539398193
1772810475935740700,7.43274072265625,31.733720779418945,7.073912143707275,3.867302417755127
1772810475945440800,7.442440673828125,25.728530883789062,7.05779504776001,1.4555015563964844
1772810475955140600,7.452140625,19.890960693359375,6.5007853507995605,0.5312530994415283
1772810475964840700,7.4618408203125,14.930323600769043,5.600032329559326,0.2741321325302124
1772810475974540500,7.47154052734375,10.696023941040039,3.9004569053649902,0.056563615798950195
1772810475984240600,7.48124072265625,6.035250663757324,1.2412266731262207,-0.947758674621582
1772810475993940500,7.4909404296875,1.1542186737060547,-1.040689468383789,-3.41940975189209
1772810476003640600,7.500640625,-3.229726791381836,-2.966330051422119,-6.415884017944336
1772810476013340700,7.510340576171875,-6.569398880004883,-3.963503360748291,-9.508733749389648
1772810476023040500,7.52004052734375,-8.519761085510254,-4.361391067504883,-11.32844352722168
1772810476032740400,7.529740234375,-9.590089797973633,-6.338059902191162,-9.435210227966309
1772810476042440400,7.5394404296875,-10.531055450439453,-8.264997482299805,-7.364858627319336
1772810476052140300,7.549140380859375,-10.524744987487793,-9.521553039550781,-5.773960590362549
1772810476061840400,7.55884033203125,-10.711585998535156,-10.21347713470459,-4.723276138305664
1772810476071540500,7.56854052734375,-11.211896896362305,-10.685871124267578,-3.766615152359009
1772810476081240300,7.578240234375,-11.671670913696289,-10.920186996459961,-2.8993804454803467
1772810476090940200,7.587940185546875,-12.089824676513672,-10.806113243103027,-2.231139659881592
1772810476100640300,7.59764013671875,-12.414918899536133,-10.587446212768555,-1.670804500579834
1772810476110340400,7.60734033203125,-12.436534881591797,-10.470166206359863,-0.8932453989982605
1772810476120040200,7.617040283203125,-11.829890251159668,-10.311249732971191,0.058058466762304306
1772810476129740000,7.626739990234375,-10.763608932495117,-10.65168571472168,1.0919562578201294
1772810476139440000,7.636440185546875,-9.574211120605469,-10.460397720336914,1.8066480159759521
1772810476149140200,7.64614013671875,-8.37173080444336,-10.295252799987793,2.3395168781280518
1772810476158840000,7.655840087890625,-7.243599891662598,-10.345553398132324,2.6227867603302
1772810476168540200,7.6655400390625,-6.42995548248291,-10.320137977600098,2.58204984664917
1772810476178240000,7.675239990234375,-5.901309490203857,-10.17501449584961,2.456808567047119
1772810476187940000,7.684940185546875,-5.654641628265381,-9.981710433959961,2.454000234603882
1772810476197640000,7.694639892578125,-5.604310035705566,-9.641138076782227,2.406690835952759
1772810476207340000,7.704340087890625,-5.778138160705566,-9.230237007141113,2.2626259326934814
1772810476217040000,7.714039794921875,-6.024102687835693,-8.744516372680664,2.0703065395355225
1772810476226740000,7.723739990234375,-6.496517658233643,-8.267531394958496,1.7835317850112915
1772810476236439800,7.733439697265625,-6.805456638336182,-7.982698440551758,1.4551091194152832
1772810476246140000,7.743139892578125,-6.984037399291992,-7.776987552642822,1.2138012647628784
1772810476255839700,7.75283984375,-7.139060020446777,-7.667533874511719,1.1360321044921875
1772810476265539800,7.762539794921875,-7.028180122375488,-7.56818962097168,1.191935658454895
1772810476275239700,7.77223974609375,-6.966983318328857,-7.420502662658691,1.2614003419876099
1772810476284939800,7.781939697265625,-6.771960258483887,-7.284379482269287,1.2057074308395386
1772810476294639600,7.7916396484375,-6.622673034667969,-7.144767761230469,1.1517970561981201
1772810476304339700,7.801339599609375,-6.448084354400635,-7.053860664367676,1.1498252153396606
1772810476314039600,7.81103955078125,-6.063863277435303,-6.930118083953857,1.3143045902252197
1772810476323739600,7.82073974609375,-5.721455097198486,-6.766913890838623,1.6566072702407837
1772810476333439700,7.830439697265625,-5.680167198181152,-6.632315158843994,2.080014705657959
1772810476343139600,7.8401396484375,-5.725841999053955,-6.324862003326416,2.4270639419555664
1772810476352839400,7.84983935546875,-5.904491424560547,-5.888728618621826,2.692232131958008
1772810476362539500,7.85953955078125,-6.084896564483643,-5.329651832580566,2.817225456237793
1772810476372239400,7.8692392578125,-6.038318157196045,-4.643368721008301,2.795619487762451
1772810476381939500,7.878939453125,-5.889488220214844,-3.869936466217041,2.6740562915802
1772810476391639300,7.888639404296875,-5.611639022827148,-2.929137706756592,2.476792573928833
1772810476401339400,7.89833935546875,-5.481300354003906,-1.369004726409912,1.7032465934753418
1772810476411039200,7.908039306640625,-5.126372337341309,0.6523866653442383,0.770582914352417
1772810476420739300,7.9177392578125,-4.34702730178833,2.5135674476623535,0.0576930046081543
1772810476430439400,7.927439453125,-2.9917876720428467,4.890049934387207,-0.31295037269592285
1772810476440139300,7.93713916015625,-0.6051383018493652,7.168074607849121,-0.23579668998718262
1772810476449839000,7.946839111328125,1.5064077377319336,9.342679977416992,-0.23127758502960205
1772810476459539200,7.956539306640625,4.251575946807861,8.399370193481445,0.3040505647659302
1772810476469239300,7.9662392578125,6.956074237823486,7.815196990966797,-1.6418360471725464
1772810476478939100,7.975939208984375,9.73104476928711,9.349624633789062,-5.142995834350586
1772810476488639200,7.98563916015625,11.700515747070312,9.943016052246094,-6.715474605560303
1772810476498339000,7.995339111328125,13.816364288330078,9.932825088500977,-5.884120941162109
1772810476508039200,8.0050390625,15.215664863586426,8.955455780029297,-3.389010429382324
1772810476517739000,8.014739013671875,15.558719635009766,7.873594284057617,-0.5375602841377258
1772810476527439000,8.024439208984376,14.770336151123047,7.582004070281982,0.9818950295448303
1772810476537139000,8.034138916015625,13.09353256225586,7.794031620025635,1.460954189300537
1772810476546838800,8.0438388671875,11.092735290527344,7.959275722503662,1.6635345220565796
1772810476556539000,8.053538818359375,9.244331359863281,7.934778213500977,1.3250370025634766
1772810476566239000,8.063239013671875,7.807254314422607,7.688965320587158,0.6545275449752808
1772810476575938800,8.072938720703124,6.715548992156982,6.913846969604492,-0.1106102466583252
1772810476585639000,8.082638916015625,6.026388168334961,5.796314716339111,-1.0585932731628418
1772810476595338800,8.0923388671875,5.547549724578857,4.533735752105713,-2.1588633060455322
1772810476605038800,8.102038818359375,5.064164161682129,3.342823028564453,-3.1658215522766113
1772810476614738700,8.11173876953125,4.627833843231201,2.2662763595581055,-3.712489128112793
1772810476624438800,8.121438720703125,3.931678295135498,1.2310070991516113,-3.241471290588379
1772810476634138600,8.131138671875,2.6786770820617676,0.24213790893554688,-2.0408565998077393
1772810476643838700,8.140838623046875,1.605797290802002,-0.5807819366455078,-0.8532061576843262
1772810476653538600,8.15053857421875,0.7995977401733398,-1.3564915657043457,0.1542949080467224
1772810476663238700,8.16023876953125,-0.1802968978881836,-1.9482851028442383,0.8824626207351685
1772810476672938500,8.1699384765625,-1.1120524406433105,-2.480241298675537,1.0934877395629883
1772810476682638600,8.179638671875,-1.964026927947998,-2.8797099590301514,1.0353844165802002
1772810476692338400,8.18933837890625,-2.838606357574463,-3.14693021774292,1.0131328105926514
1772810476702038500,8.19903857421875,-3.612013816833496,-3.32783842086792,0.962943434715271
1772810476711738400,8.20873828125,-4.233734607696533,-3.3775689601898193,0.7627419829368591
1772810476721438500,8.2184384765625,-4.789693832397461,-3.401536703109741,0.5167176723480225
1772810476731138300,8.22813818359375,-5.152535438537598,-3.490938901901245,0.5099252462387085
1772810476740838400,8.23783837890625,-5.42665433883667,-3.517698049545288,0.6072684526443481
1772810476750538500,8.24753857421875,-5.696310997009277,-3.5654845237731934,0.7099322080612183
1772810476760238300,8.25723828125,-5.960330009460449,-3.5957651138305664,0.7560940980911255
1772810476769938200,8.266938232421875,-6.2693257331848145,-3.591045379638672,0.7820104360580444
1772810476779638300,8.27663818359375,-6.561343193054199,-3.5597310066223145,0.8503432273864746
1772810476789338400,8.28633837890625,-6.87800407409668,-3.56434965133667,0.8902320861816406
1772810476799038200,8.2960380859375,-7.225902557373047,-3.4743871688842773,0.9320387840270996
1772810476808738000,8.305738037109375,-7.472972393035889,-3.3459644317626953,0.7990610599517822
1772810476818438100,8.315438232421876,-7.4878435134887695,-3.0898184776306152,0.5427910089492798
1772810476828138000,8.325137939453125,-7.486520290374756,-2.931446075439453,0.3849250078201294
1772810476837838000,8.334838134765626,-7.232780456542969,-2.968008041381836,0.30956459045410156
1772810476847538200,8.3445380859375,-6.816920280456543,-3.081885814666748,0.41171538829803467
1772810476857238000,8.354238037109376,-6.593448638916016,-3.2393321990966797,0.9163482189178467
1772810476866937900,8.363937744140625,-6.613833427429199,-3.5524492263793945,1.6028592586517334
1772810476876638000,8.373637939453126,-6.563855171203613,-4.022347450256348,2.071281671524048
1772810476886338000,8.383338134765625,-6.582139015197754,-4.131716251373291,2.1566262245178223
1772810476896038000,8.393037841796875,-6.691754341125488,-3.8463382720947266,1.7182871103286743
1772810476905737700,8.40273779296875,-6.990187644958496,-3.68869686126709,1.2646739482879639
1772810476915437800,8.412437744140625,-7.328390598297119,-3.6361656188964844,0.9137281775474548
1772810476925138000,8.422137939453124,-7.580471038818359,-3.4681098461151123,0.7105408906936646
1772810476934837800,8.431837646484375,-7.295249938964844,-3.448561191558838,0.9768428802490234
1772810476944537900,8.441537841796874,-6.647768020629883,-3.370840072631836,1.2751014232635498
1772810476954237700,8.45123779296875,-5.811013221740723,-3.372011423110962,1.481181025505066
1772810476963937500,8.4609375,-4.6062188148498535,-3.567322254180908,1.7552409172058105
1772810476973637600,8.4706376953125,-2.6970605850219727,-3.8869643211364746,1.763809323310852
1772810476983337700,8.480337646484376,-0.7690048217773438,-3.857614040374756,1.3358421325683594
1772810476993037600,8.49003759765625,1.0317268371582031,-3.4920547008514404,0.7228519320487976
1772810477002737700,8.499737548828126,2.392359733581543,-2.7087841033935547,0.16632908582687378
1772810477012437500,8.5094375,2.911348342895508,-1.7721202373504639,-0.14743337035179138
1772810477022137600,8.5191376953125,3.29132080078125,-0.6002087593078613,-0.4919432997703552
1772810477031837400,8.52883740234375,3.9570512771606445,0.5116260051727295,-1.0077881813049316
1772810477041537500,8.53853759765625,4.482509613037109,1.2603744268417358,-1.0085022449493408
1772810477051237400,8.5482373046875,5.378750801086426,1.7674534320831299,-0.6227031350135803
1772810477060937500,8.5579375,6.620379447937012,2.2055797576904297,-0.21805238723754883
1772810477070637300,8.56763720703125,7.393806457519531,2.5193071365356445,0.18916165828704834
1772810477080337400,8.57733740234375,8.257881164550781,3.0029122829437256,0.2720390558242798
1772810477090037200,8.587037353515624,9.811592102050781,3.7747530937194824,-0.3012920022010803
1772810477099737300,8.5967373046875,12.120253562927246,4.50250244140625,-1.2918916940689087
1772810477109437200,8.606437255859374,14.891297340393066,5.117476463317871,-1.7253668308258057
1772810477119137300,8.61613720703125,17.92699432373047,5.559473991394043,-1.9547498226165771
1772810477128837000,8.625837158203124,20.23779296875,5.848724365234375,-2.5873801708221436
1772810477138537200,8.635537109375,22.40903091430664,6.018643856048584,-3.4092931747436523
1772810477148237000,8.645237060546876,24.60237693786621,5.306693077087402,-3.320423126220703
1772810477157937200,8.654937255859375,26.484882354736328,3.882843017578125,-2.1771035194396973
1772810477167637000,8.664636962890626,27.754924774169922,3.686955451965332,-1.2722647190093994
1772810477177337000,8.674337158203125,27.69754981994629,3.51790189743042,-0.35259491205215454
1772810477187037000,8.684036865234376,26.264083862304688,2.970285654067993,1.695629358291626
1772810477196737000,8.693737060546875,24.201662063598633,1.9852731227874756,4.154747009277344
1772810477206436900,8.703436767578125,21.195865631103516,1.5445590019226074,6.418982982635498
1772810477216137000,8.713136962890625,17.325122833251953,1.1897950172424316,7.596309661865234
1772810477225836800,8.7228369140625,13.042264938354492,1.58314847946167,7.0938191413879395
1772810477235537000,8.732536865234374,10.080239295959473,1.6735968589782715,6.410550594329834
1772810477245236700,8.74223681640625,8.55825138092041,1.539665699005127,4.993900299072266
1772810477254936800,8.751936767578124,8.126540184020996,0.35431814193725586,3.6735618114471436
1772810477264637000,8.761636962890625,7.26357364654541,-1.0578079223632812,2.4169535636901855
1772810477274336800,8.771336669921874,6.103948593139648,-1.796882152557373,0.9040963053703308
1772810477284036600,8.78103662109375,4.286710739135742,-2.215745210647583,0.0615234375
1772810477293736700,8.79073681640625,1.8367938995361328,-2.436978578567505,-0.18233653903007507
1772810477303436800,8.800436767578125,-0.7470693588256836,-2.5021491050720215,0.005313992500305176
1772810477313136600,8.81013671875,-3.1748862266540527,-2.7364754676818848,0.4971274137496948
1772810477322836500,8.81983642578125,-5.1595048904418945,-3.165168285369873,1.2034108638763428
1772810477332536600,8.82953662109375,-6.607751369476318,-3.7659220695495605,1.7528905868530273
1772810477342236400,8.839236328125,-7.530849456787109,-4.2711358070373535,1.9299871921539307
1772810477351936500,8.8489365234375,-8.000776290893555,-4.945952415466309,1.871843695640564
1772810477361636600,8.85863671875,-8.363890647888184,-5.813411235809326,2.0090079307556152
1772810477371336400,8.86833642578125,-8.618376731872559,-6.425197124481201,2.010195255279541
1772810477381036300,8.878036376953125,-8.951303482055664,-7.208590984344482,1.8982657194137573
1772810477390736400,8.887736328125,-9.612812042236328,-7.935876846313477,1.60420560836792
1772810477400436500,8.8974365234375,-10.233682632446289,-8.198211669921875,1.1286485195159912
1772810477410136300,8.90713623046875,-10.870687484741211,-8.45968246459961,0.7824919819831848
1772810477419836400,8.91683642578125,-11.277755737304688,-8.649227142333984,0.5810940265655518
1772810477429536300,8.926536376953125,-11.290290832519531,-8.793858528137207,0.4093252420425415
1772810477439236400,8.936236328125,-11.25522518157959,-8.992878913879395,0.39791062474250793
1772810477448936200,8.945936279296875,-11.069881439208984,-9.266653060913086,0.35479235649108887
1772810477458636300,8.95563623046875,-10.78036880493164,-9.510181427001953,0.08809725940227509
1772810477468336000,8.965336181640625,-10.563935279846191,-9.539094924926758,-0.24646231532096863
1772810477478036000,8.975035888671876,-10.484046936035156,-9.473227500915527,-0.5851128101348877
1772810477487736000,8.984736083984375,-10.543020248413086,-9.351112365722656,-0.9551318287849426
1772810477497436200,8.994436279296876,-11.019987106323242,-8.957959175109863,-0.7304071187973022
1772810477507136000,9.004135986328125,-10.73265552520752,-8.641717910766602,-0.6374725103378296
1772810477516836000,9.013836181640626,-10.70454216003418,-8.177549362182617,-0.1054491326212883
1772810477526536000,9.023535888671875,-10.420097351074219,-7.866107940673828,0.33670422434806824
1772810477536236000,9.033236083984375,-9.946222305297852,-7.619751930236816,0.33731162548065186
1772810477545936000,9.042935791015625,-9.308652877807617,-7.565378665924072,0.303978830575943
1772810477555636000,9.052635986328125,-8.338150024414062,-7.69697380065918,0.08137285709381104
1772810477565335800,9.062335693359374,-7.179037094116211,-7.6486430168151855,-0.1816462278366089
1772810477575036000,9.072035888671875,-6.361401081085205,-7.448225498199463,-0.14402979612350464
1772810477584735700,9.08173583984375,-5.904353141784668,-7.09497594833374,-0.14668023586273193
1772810477594435800,9.091435791015625,-5.530461311340332,-6.659080982208252,-0.36291056871414185
1772810477604135700,9.1011357421875,-5.736584663391113,-6.005983352661133,-0.5629952549934387
1772810477613835800,9.110835693359375,-5.8976569175720215,-5.542206287384033,-1.2602972984313965
1772810477623535600,9.12053564453125,-5.851424217224121,-4.666402339935303,-2.190690040588379
1772810477633235700,9.130235595703125,-5.3368072509765625,-3.3929615020751953,-2.767486333847046
1772810477642935600,9.139935546875,-4.1801557540893555,-2.179342746734619,-2.618457555770874
1772810477652635600,9.1496357421875,-2.558119297027588,-0.8026747703552246,-2.3244247436523438
1772810477662335500,9.15933544921875,-0.6583318710327148,0.8223905563354492,-1.6593729257583618
1772810477672035600,9.16903564453125,1.5173802375793457,2.609732151031494,-1.112228274345398
1772810477681735400,9.1787353515625,3.036038875579834,5.406245708465576,-0.9973576068878174
1772810477691435500,9.188435546875,4.565703868865967,6.730609893798828,-0.10608148574829102
1772810477701135400,9.19813525390625,5.330448627471924,6.551224231719971,1.0595141649246216
1772810477710835500,9.20783544921875,4.373072147369385,6.109788417816162,1.5560288429260254
1772810477720535300,9.217535400390625,4.072763919830322,5.489886283874512,0.5083457827568054
1772810477730235400,9.2272353515625,4.806090354919434,5.836331367492676,-1.0515964031219482
1772810477739935200,9.236935302734375,5.66074800491333,6.175755023956299,-0.8108838796615601
1772810477749635300,9.24663525390625,7.023732662200928,5.500029563903809,0.5380462408065796
1772810477759335200,9.256335205078125,9.423300743103027,5.194220066070557,1.6365742683410645
1772810477769035300,9.26603515625,12.250566482543945,5.436789512634277,2.233964443206787
1772810477778735000,9.275735107421875,13.723094940185547,5.714881896972656,1.9971044063568115
1772810477788435200,9.285435302734374,14.794589042663574,5.351853370666504,1.8701738119125366
1772810477798135000,9.295135009765625,14.617953300476074,5.701766014099121,1.9194856882095337
1772810477807835100,9.304835205078126,13.611632347106934,5.426468849182129,-0.05949580669403076
1772810477817535000,9.314534912109375,11.129497528076172,4.292999267578125,-2.4620206356048584
1772810477827235000,9.324235107421876,8.811820030212402,3.2737388610839844,-3.779581308364868
1772810477836935200,9.33393505859375,6.728397369384766,2.4080748558044434,-3.6729278564453125
1772810477846635000,9.343635009765626,4.998928070068359,1.9436414241790771,-3.0429635047912598
1772810477856334800,9.3533349609375,3.040578842163086,1.7062904834747314,-2.27138090133667
1772810477866035000,9.363034912109375,1.0417757034301758,1.4219017028808594,-1.7037432193756104
1772810477875735000,9.372735107421875,-0.8711814880371094,1.2608485221862793,-1.2197171449661255
1772810477885435000,9.382434814453125,-2.593005657196045,1.1570796966552734,-0.7940257787704468
1772810477895134700,9.392134765625,-3.926454544067383,1.0873126983642578,-0.5769644379615784
1772810477904834800,9.401834716796875,-4.5229949951171875,1.043684482574463,-0.7962095141410828
1772810477914534700,9.41153466796875,-4.513848781585693,0.8995580673217773,-1.1638455390930176
1772810477924234800,9.42123486328125,-4.3023881912231445,0.7102761268615723,-1.2809635400772095
1772810477933934800,9.430934814453124,-4.071981430053711,0.5325770378112793,-1.2353885173797607
1772810477943634700,9.440634765625,-3.757051467895508,0.4000868797302246,-0.9827415943145752
1772810477953334500,9.45033447265625,-3.4029479026794434,0.2313852310180664,-0.6088115572929382
1772810477963034600,9.46003466796875,-3.1114296913146973,0.15504980087280273,-0.42036375403404236
1772810477972734700,9.469734619140626,-2.870929718017578,-0.02939319610595703,-0.46622002124786377
1772810477982434600,9.4794345703125,-2.5629281997680664,-0.2191472053527832,-0.6042906045913696
1772810477992134400,9.489134521484376,-2.2982254028320312,-0.41239452362060547,-0.5537691712379456
1772810478001834500,9.49883447265625,-2.041639804840088,-0.5469484329223633,-0.5305417776107788
1772810478011534300,9.508534423828126,-1.7984733581542969,-0.585240364074707,-0.41720736026763916
1772810478021234400,9.518234375,-1.6728954315185547,-0.49150753021240234,-0.18462635576725006
1772810478030934500,9.5279345703125,-1.5871233940124512,-0.32740211486816406,-0.050751157104969025
1772810478040634400,9.53763427734375,-1.6060638427734375,-0.1704082489013672,0.16029992699623108
1772810478050334200,9.547334228515625,-1.8364624977111816,0.021483898162841797,0.3600523769855499
1772810478060034300,9.557034423828124,-2.043367385864258,0.015521049499511719,0.5163531303405762
1772810478069734400,9.566734375,-2.176590919494629,-0.05600547790527344,0.7260321378707886
1772810478079434200,9.576434326171874,-2.102707862854004,-0.12534141540527344,0.8980658054351807
1772810478089134300,9.58613427734375,-1.8461942672729492,-0.3148832321166992,0.8618106245994568
1772810478098834200,9.595834228515624,-1.4935722351074219,-0.38847923278808594,0.5552671551704407
1772810478108534300,9.6055341796875,-1.197005271911621,-0.3174319267272949,0.15169329941272736
1772810478118234000,9.615234130859376,-1.0956854820251465,-0.17425537109375,-0.12406474351882935
1772810478127934200,9.624934326171875,-1.2058334350585938,0.13630962371826172,-0.28899168968200684
1772810478137634000,9.634634033203126,-1.2976574897766113,0.42128562927246094,-0.40746593475341797
1772810478147334000,9.644333984375,-1.1797327995300293,0.6343903541564941,-0.6085399985313416
1772810478157034000,9.654033935546876,-1.0075149536132812,0.8552689552307129,-0.6927763223648071
1772810478166734000,9.663734130859375,-0.6670265197753906,0.9783878326416016,-0.6390184164047241
1772810478176434000,9.673433837890625,-0.40010643005371094,1.014305591583252,-0.6376516819000244
1772810478186134000,9.683134033203125,-0.3179512023925781,1.049940586090088,-0.6250957250595093
1772810478195833900,9.692833740234375,-0.44457244873046875,1.3279266357421875,-0.4910958409309387
1772810478205533700,9.70253369140625,-0.7216796875,1.5219783782958984,-0.1219848096370697
1772810478215233800,9.71223388671875,-0.8331232070922852,1.51133394241333,0.16644899547100067
1772810478224934000,9.721933837890624,-1.0658888816833496,1.8945083618164062,0.6351857781410217
1772810478234633700,9.7316337890625,-1.0627803802490234,2.0426559448242188,1.0108797550201416
1772810478244333600,9.74133349609375,-1.0777349472045898,2.111344814300537,1.1426867246627808
1772810478254033700,9.75103369140625,-1.0703277587890625,2.192490577697754,1.1459320783615112
1772810478263733800,9.760733642578124,-1.1575927734375,2.1949615478515625,1.0702892541885376
1772810478273433600,9.77043359375,-1.114349365234375,1.9866771697998047,0.918858528137207
1772810478283133700,9.7801337890625,-0.9110989570617676,1.5975604057312012,0.6178624629974365
