time,seconds_elapsed,z,y,x
1772810205392729000,0.09172900390625,-0.4456258714199066,0.04199695214629173,0.11980585753917694
1772810205402429400,0.101429443359375,-0.5283980369567871,0.014202605932950974,0.12102758139371872
1772810205412129500,0.111129638671875,-0.5500837564468384,-0.15890119969844818,0.12011128664016724
1772810205421829600,0.12082958984375,-0.5748237371444702,-0.4444804787635803,0.15645773708820343
1772810205431529700,0.13052978515625,-0.5537489056587219,-0.7325032353401184,0.2407570779323578
1772810205441229800,0.140229736328125,-0.3738492429256439,-1.0861939191818237,0.3436878025531769
1772810205450930200,0.14993017578125,-0.19364413619041443,-1.4560725688934326,0.48876819014549255
1772810205460630300,0.15963037109375,-0.04245510324835777,-1.394069790840149,0.590171754360199
1772810205470330400,0.169330322265625,-0.011606430634856224,-1.061453938484192,0.6533962488174438
1772810205480030700,0.17903076171875,-0.0821613147854805,-0.848567545413971,0.7770963311195374
1772810205489730800,0.188730712890625,-0.12064579129219055,-0.9728785157203674,0.9310342669487
1772810205499431000,0.198430908203125,-0.1340848207473755,-1.3784927129745483,1.0165553092956543
1772810205509131000,0.208131103515625,-0.17287473380565643,-1.764559268951416,1.0443496704101562
1772810205518831400,0.217831298828125,-0.20127993822097778,-1.9050581455230713,1.0428224802017212
1772810205528531500,0.227531494140625,-0.18203771114349365,-1.6649882793426514,0.9823469519615173
1772810205538231600,0.2372314453125,-0.07238747924566269,-1.1494184732437134,0.8989638686180115
1772810205547932000,0.246931884765625,0.07605266571044922,-0.7086794972419739,0.8051961660385132
1772810205557632000,0.256632080078125,0.1646280586719513,-0.4979311525821686,0.6610320210456848
1772810205567332000,0.26633203125,0.26878049969673157,-0.4209621846675873,0.5089266896247864
1772810205577032400,0.276032470703125,0.4608974754810333,-0.25389066338539124,0.395305871963501
1772810205586732500,0.285732666015625,0.6071996092796326,-0.0651334598660469,0.2972620725631714
1772810205596432600,0.2954326171875,0.6328558921813965,-0.05352702736854553,0.19646938145160675
1772810205606132700,0.3051328125,0.536339282989502,-0.26221370697021484,0.06085740402340889
1772810205615833000,0.3148330078125,0.25350889563560486,-0.6228529810905457,-0.11782054603099823
1772810205625533200,0.324533203125,-0.07299833744764328,-1.0590105056762695,-0.31848961114883423
1772810205635233300,0.3342333984375,-0.17165300250053406,-1.2129483222961426,-0.48128509521484375
1772810205644933400,0.343933349609375,-0.04886918142437935,-0.9609666466712952,-0.5625301003456116
1772810205654633700,0.3536337890625,0.18264856934547424,-0.48968449234962463,-0.5542834401130676
1772810205664333800,0.363333740234375,0.3811796307563782,-0.03153589367866516,-0.46540260314941406
1772810205674034000,0.373033935546875,0.4657844007015228,0.2790125012397766,-0.3759109079837799
1772810205683734300,0.382734375,0.5131264328956604,0.4405862092971802,-0.33834272623062134
1772810205693434400,0.392434326171875,0.5619956254959106,0.4702131748199463,-0.3795761168003082
1772810205703134500,0.402134521484375,0.6108647584915161,0.3975202441215515,-0.4589885175228119
1772810205712834800,0.411834716796875,0.6050615906715393,0.1715002804994583,-0.5060251355171204
1772810205722535000,0.421534912109375,0.5601630210876465,-0.08834631741046906,-0.49716755747795105
1772810205732235000,0.431235107421875,0.5955931544303894,-0.19005531072616577,-0.3725511431694031
1772810205741935000,0.44093505859375,0.7082977294921875,0.0013744457392022014,-0.11293362826108932
1772810205751635500,0.450635498046875,0.7015781998634338,0.5813905596733093,0.23342670500278473
1772810205761335600,0.46033544921875,0.3543015718460083,1.465617299079895,0.5755109786987305
1772810205771035600,0.47003564453125,-0.10965022444725037,1.5639665126800537,0.6158280372619629
1772810205780736000,0.479736083984375,-0.6209440231323242,0.8614720702171326,0.3983601927757263
1772810205790436000,0.48943603515625,-1.1814124584197998,0.1343138962984085,0.26732969284057617
1772810205800136200,0.49913623046875,-1.609323263168335,-0.4182133078575134,0.3363574147224426
1772810205809836300,0.508836181640625,-1.830150842666626,-0.7480802536010742,0.4102720618247986
1772810205819536400,0.518536376953125,-1.8561125993728638,-0.6197986602783203,0.36476263403892517
1772810205829236700,0.52823681640625,-1.6936225891113281,0.058795735239982605,0.14454588294029236
1772810205838936800,0.537936767578125,-1.3817760944366455,0.9613484740257263,-0.24029892683029175
1772810205848637000,0.547636962890625,-1.0128138065338135,1.9222387075424194,-0.4999164640903473
1772810205858337300,0.557337158203125,-0.6557633280754089,2.7340779304504395,-0.432721346616745
1772810205868037400,0.567037353515625,-0.42791077494621277,2.934136152267456,-0.034437503665685654
1772810205877737500,0.576737548828125,-0.26419901847839355,2.5355470180511475,0.6616429090499878
1772810205887437800,0.586437744140625,-0.01740964688360691,1.837023138999939,1.533652424812317
1772810205897138000,0.596137939453125,0.323452889919281,1.0019710063934326,2.374202251434326
1772810205906838000,0.605838134765625,0.7134900689125061,0.11682789027690887,3.088608741760254
1772810205916538400,0.615538330078125,1.05496346950531,-0.8714749813079834,3.6554911136627197
1772810205926238500,0.625238525390625,1.288313865661621,-1.8354195356369019,4.035754680633545
1772810205935938600,0.6349384765625,1.3839141130447388,-2.4924046993255615,4.115777969360352
1772810205945638700,0.644638671875,1.349705696105957,-2.6179373264312744,3.7828564643859863
1772810205955339000,0.654339111328125,1.2764019966125488,-2.212017774581909,3.047375202178955
1772810205965039000,0.6640390625,1.196073293685913,-1.5638902187347412,2.0672428607940674
1772810205974739200,0.6737392578125,1.0696241855621338,-0.848567545413971,1.0388518571853638
1772810205984439300,0.683439208984375,0.9447023868560791,-0.12896881997585297,0.14515674114227295
1772810205994139600,0.6931396484375,0.8545998334884644,0.5786416530609131,-0.43974629044532776
1772810206003839700,0.70283984375,0.7180715203285217,1.2286018133163452,-0.6703477501869202
1772810206013539800,0.712539794921875,0.4783071279525757,1.6785037517547607,-0.6453022956848145
1772810206023240000,0.722239990234375,0.13591741025447845,1.8235840797424316,-0.48159050941467285
1772810206032940300,0.731940185546875,-0.2568686306476593,1.8098396062850952,-0.19448406994342804
1772810206042640400,0.741640380859375,-0.6123919486999512,1.7869322299957275,0.22579088807106018
1772810206052340500,0.751340576171875,-0.8646790981292725,1.8122830390930176,0.7694605588912964
1772810206062040800,0.761040771484375,-0.9819651246070862,1.873369574546814,1.4178935289382935
1772810206071741000,0.770740966796875,-0.9300416111946106,1.7832670211791992,2.060523271560669
1772810206081441000,0.78044091796875,-0.7351757884025574,1.4347686767578125,2.580369234085083
1772810206091141400,0.790141357421875,-0.4831940531730652,0.8599448800086975,2.8943536281585693
1772810206100841500,0.799841552734375,-0.28466299176216125,0.23167046904563904,2.999116897583008
1772810206110541600,0.80954150390625,-0.18325942754745483,-0.27863070368766785,2.924591541290283
1772810206120242000,0.819241943359375,-0.15577052533626556,-0.5678751468658447,2.711399793624878
1772810206129942000,0.82894189453125,-0.2260199636220932,-0.7037925720214844,2.3436591625213623
1772810206139642000,0.83864208984375,-0.347582072019577,-0.737084686756134,1.8415281772613525
1772810206149342200,0.84834228515625,-0.46456265449523926,-0.6185769438743591,1.236772060394287
1772810206159042600,0.85804248046875,-0.5415316224098206,-0.3568213880062103,0.581314206123352
1772810206168742700,0.86774267578125,-0.5641336441040039,-0.14149154722690582,-0.05917752534151077
1772810206178442800,0.87744287109375,-0.5213730931282043,0.024281874299049377,-0.5716930627822876
1772810206188142800,0.887142822265625,-0.4269944727420807,0.16508620977401733,-0.9290489554405212
1772810206197843000,0.896843017578125,-0.3448331654071808,0.24999640882015228,-1.1599558591842651
1772810206207543300,0.906543212890625,-0.2868010103702545,0.2585485279560089,-1.2909862995147705
1772810206217243400,0.916243408203125,-0.22785256803035736,0.2280052751302719,-1.3569597005844116
1772810206226943500,0.925943603515625,-0.16768237948417664,0.18616104125976562,-1.3871976137161255
1772810206236643800,0.935643798828125,-0.12736530601978302,0.1513417512178421,-1.4162136316299438
1772810206246344000,0.945343994140625,-0.10476330667734146,0.10186170041561127,-1.4696643352508545
1772810206256044000,0.9550439453125,-0.06047561392188072,0.005650499369949102,-1.5518256425857544
1772810206265744400,0.964744384765625,0.004886918235570192,-0.0755181610584259,-1.6327651739120483
1772810206275444500,0.974444580078125,0.07757982611656189,-0.1118646115064621,-1.6791908740997314
1772810206285144600,0.98414453125,0.16279546916484833,-0.10178534686565399,-1.6743040084838867
1772810206294845000,0.993844970703125,0.23457208275794983,-0.046196650713682175,-1.6061925888061523
1772810206304545000,1.003544921875,0.29138249158859253,0.04780016839504242,-1.4617230892181396
1772810206314245000,1.0132451171875,0.34788748621940613,0.16294817626476288,-1.2363139390945435
1772810206323945200,1.0229453125,0.4166097939014435,0.2900080680847168,-0.9492074847221375
1772810206333645600,1.0326455078125,0.46975502371788025,0.3764454126358032,-0.6297252178192139
1772810206343345700,1.042345703125,0.4712821841239929,0.32330018281936646,-0.3249036967754364
1772810206353045800,1.052045654296875,0.4376846253871918,0.1498909443616867,-0.055512335151433945
1772810206362746000,1.06174609375,0.37629270553588867,-0.07460185885429382,0.16623157262802124
1772810206372446200,1.0714462890625,0.27580544352531433,-0.31467172503471375,0.3116174042224884
1772810206382146300,1.081146240234375,0.1640172004699707,-0.5794816017150879,0.38522660732269287
1772810206391846400,1.090846435546875,0.08765909820795059,-0.7890082001686096,0.40691229701042175
1772810206401546500,1.10054638671875,0.09346231073141098,-0.784426748752594,0.4182133078575134
1772810206411246800,1.110246826171875,0.19272783398628235,-0.5000692009925842,0.45364347100257874
1772810206420947000,1.119947021484375,0.32131487131118774,-0.02367101050913334,0.4059959948062897
1772810206430647000,1.12964697265625,0.4172206521034241,0.18310672044754028,0.08956804871559143
1772810206440347400,1.139347412109375,0.3329212963581085,-0.20715951919555664,-0.547563910484314
1772810206450047500,1.149047607421875,0.017715077847242355,-0.7987820506095886,-1.1834741830825806
1772810206459747600,1.15874755859375,-0.3084867000579834,-0.9918153285980225,-1.4879902601242065
1772810206469447700,1.16844775390625,-0.30024003982543945,-0.812221109867096,-1.5805362462997437
1772810206479148000,1.17814794921875,0.000610864779446274,-0.6952404975891113,-1.7387502193450928
1772810206488848100,1.18784814453125,0.21930044889450073,-0.904461681842804,-2.234467029571533
1772810206498548200,1.19754833984375,0.25870123505592346,-1.1549161672592163,-2.9870524406433105
1772810206508248600,1.20724853515625,0.3078758418560028,-0.9747111201286316,-3.5600435733795166
1772810206517948700,1.21694873046875,0.4169152081012726,-0.30222535133361816,-3.6574764251708984
1772810206527648800,1.226648681640625,0.5189296007156372,0.3825540542602539,-3.23689603805542
1772810206537349000,1.23634912109375,0.5803215503692627,0.6565269231796265,-2.449186086654663
1772810206547049200,1.24604931640625,0.5317577719688416,0.6189587116241455,-1.563126564025879
1772810206556749300,1.255749267578125,0.4560105502605438,0.18096868693828583,-0.49136435985565186
1772810206566449400,1.265449462890625,0.3591884970664978,-0.5886445641517639,0.38583746552467346
1772810206576149500,1.2751494140625,0.2837466895580292,-1.1683552265167236,0.8711695075035095
1772810206585849900,1.284849853515625,0.28557929396629333,-1.3167953491210938,1.1014655828475952
1772810206595550000,1.294550048828125,0.3533852696418762,-1.124372959136963,1.1350631713867188
1772810206605250000,1.30425,0.41935867071151733,-0.6955459117889404,1.0107520818710327
1772810206614950100,1.3139501953125,0.45051276683807373,-0.17936517298221588,0.8204677700996399
1772810206624650500,1.323650390625,0.425467312335968,0.22708898782730103,0.6332377195358276
1772810206634350600,1.3333505859375,0.3494146466255188,0.4799869954586029,0.516257107257843
1772810206644050700,1.34305078125,0.25350889563560486,0.5939132571220398,0.49365508556365967
1772810206653751000,1.3527509765625,0.14630211889743805,0.5710058808326721,0.552603542804718
1772810206663451100,1.362451171875,0.04367683082818985,0.4182896614074707,0.6674461364746094
1772810206673151200,1.372151123046875,-0.057726722210645676,0.21090106666088104,0.7996983528137207
1772810206682851600,1.3818515625,-0.15515965223312378,0.022754713892936707,0.9056833982467651
1772810206692551700,1.3915517578125,-0.24342961609363556,-0.1265253722667694,0.9502764940261841
1772810206702251800,1.401251708984375,-0.3295615613460541,-0.25786128640174866,0.9282854199409485
1772810206711952000,1.410951904296875,-0.41935867071151733,-0.35529422760009766,0.857730507850647
1772810206721652200,1.42065234375,-0.5158752799034119,-0.43806639313697815,0.7538834810256958
1772810206731352300,1.430352294921875,-0.6114756464958191,-0.5458840131759644,0.6252964735031128
1772810206741052400,1.440052490234375,-0.7043271064758301,-0.6680569648742676,0.47502371668815613
1772810206750752800,1.449752685546875,-0.7794634699821472,-0.7856484651565552,0.31436628103256226
1772810206760452900,1.459452880859375,-0.7965676784515381,-0.8271872401237488,0.13813179731369019
1772810206770153000,1.469153076171875,-0.7504473924636841,-0.7966440320014954,-0.060704685747623444
1772810206779853000,1.47885302734375,-0.6466003656387329,-0.7587704062461853,-0.27114760875701904
1772810206789553200,1.48855322265625,-0.5097666382789612,-0.7367792725563049,-0.4678460657596588
1772810206799253500,1.49825341796875,-0.36621344089508057,-0.7120392322540283,-0.6373610496520996
1772810206808953600,1.50795361328125,-0.22204934060573578,-0.6701950430870056,-0.7552579641342163
1772810206818653700,1.51765380859375,-0.09071341902017593,-0.6304888129234314,-0.8093194961547852
1772810206828354000,1.52735400390625,0.004276053514331579,-0.5831468105316162,-0.8087086081504822
1772810206838054100,1.53705419921875,0.05742128938436508,-0.5208385586738586,-0.7790816426277161
1772810206847754200,1.546754150390625,0.06414080411195755,-0.47807803750038147,-0.7354048490524292
1772810206857454300,1.556454345703125,0.036651886999607086,-0.44875654578208923,-0.6831759214401245
1772810206867154700,1.56615478515625,-0.012217295356094837,-0.4496728479862213,-0.6443859934806824
1772810206876854800,1.575854736328125,-0.06780599057674408,-0.4502837061882019,-0.6193405389785767
1772810206886555000,1.585554931640625,-0.09865466505289078,-0.3885863721370697,-0.6007091403007507
1772810206896255200,1.595255126953125,-0.09865466505289078,-0.27717989683151245,-0.6175079345703125
1772810206905955300,1.604955322265625,-0.061391908675432205,-0.1738673895597458,-0.6914225816726685
1772810206915655400,1.614655517578125,0.04153880476951599,-0.029474224895238876,-0.7546470761299133
1772810206925355800,1.624355712890625,0.20647229254245758,0.1608865112066269,-0.7369319796562195
1772810206935056000,1.634055908203125,0.37843072414398193,0.29825472831726074,-0.6254491806030273
1772810206944756000,1.643755859375,0.5170970559120178,0.37094762921333313,-0.4699840843677521
1772810206954456000,1.6534560546875,0.6071996092796326,0.4195113778114319,-0.2977202236652374
1772810206964156400,1.663156494140625,0.6133082509040833,0.3623955249786377,-0.1297324001789093
1772810206973856500,1.6728564453125,0.5247328281402588,0.11866047978401184,0.017486004158854485
1772810206983556600,1.682556640625,0.3992001414299011,-0.33483025431632996,0.08529199659824371
1772810206993256700,1.692256591796875,0.3543015718460083,-0.9356157779693604,0.043753188103437424
1772810207002956800,1.701956787109375,0.42271843552589417,-1.3448951244354248,-0.03565923124551773
1772810207012657200,1.7116572265625,0.46517354249954224,-1.431943416595459,-0.12148573249578476
1772810207022357200,1.721357177734375,0.42088583111763,-1.1656063795089722,-0.20578506588935852
1772810207032057300,1.731057373046875,0.374765545129776,-0.4976257085800171,-0.23907721042633057
1772810207041757700,1.7407578125,0.22876885533332825,0.10644318908452988,-0.20517420768737793
1772810207051457800,1.750457763671875,-0.033597562462091446,0.4637990891933441,-0.056428633630275726
1772810207061158000,1.760157958984375,-0.2828303873538971,0.5542070865631104,0.26396992802619934
1772810207070858000,1.76985791015625,-0.41935867071151733,0.26618432998657227,0.7321978211402893
1772810207080558300,1.779558349609375,-0.37293294072151184,-0.28351762890815735,1.290833592414856
1772810207090258400,1.789258544921875,-0.11942406743764877,-0.8998801708221436,1.8464151620864868
1772810207099958500,1.79895849609375,0.24404047429561615,-1.4331650733947754,2.345491647720337
1772810207109659000,1.808658935546875,0.6157516837120056,-1.737681269645691,2.7468297481536865
1772810207119359000,1.81835888671875,0.9462295174598694,-1.8671845197677612,3.0122506618499756
1772810207129059000,1.82805908203125,1.1911863088607788,-1.9591196775436401,3.1124324798583984
1772810207138759200,1.83775927734375,1.3179407119750977,-2.0177626609802246,3.0812783241271973
1772810207148459500,1.84745947265625,1.3078614473342896,-1.922467827796936,2.98873233795166
1772810207158159600,1.85715966796875,1.1884374618530273,-1.6463569402694702,2.842735528945923
1772810207167859700,1.866859619140625,1.028390884399414,-1.2138646841049194,2.608163595199585
1772810207177560000,1.87656005859375,0.8564324378967285,-0.6384300589561462,2.2715771198272705
1772810207187260200,1.88626025390625,0.6496546864509583,-0.041004300117492676,1.8711551427841187
1772810207196960300,1.895960205078125,0.4120282828807831,0.45799586176872253,1.442022681236267
1772810207206660400,1.905660400390625,0.1649334877729416,0.8358157277107239,1.0510692596435547
1772810207216360400,1.9153603515625,-0.08155044913291931,1.0994038581848145,0.7480802536010742
1772810207226060800,1.925060791015625,-0.3197877109050751,1.2090541124343872,0.5736783742904663
1772810207235761000,1.934760986328125,-0.5262600183486938,1.1583523750305176,0.5471057891845703
1772810207245461000,1.9444609375,-0.6786707639694214,1.0038034915924072,0.6527853608131409
1772810207255161000,1.9541611328125,-0.7644972801208496,0.7829759120941162,0.8476512432098389
1772810207264861400,1.963861328125,-0.7846558094024658,0.505032479763031,1.0654245615005493
1772810207274561500,1.9735615234375,-0.7574723362922668,0.21639885008335114,1.2437970638275146
1772810207284261600,1.98326171875,-0.7095194458961487,-0.03306305781006813,1.3421462774276733
1772810207293962000,1.9929619140625,-0.6652317643165588,-0.19646938145160675,1.3473386764526367
1772810207303662000,2.002662109375,-0.6414080262184143,-0.2654971182346344,1.247462272644043
1772810207313362200,2.012362060546875,-0.6508764028549194,-0.23831361532211304,1.0483202934265137
1772810207323062300,2.022062255859375,-0.6856957077980042,-0.10911571979522705,0.7688496708869934
1772810207332762600,2.0317626953125,-0.7394518256187439,0.08781181275844574,0.4441750645637512
1772810207342462700,2.041462646484375,-0.8268054723739624,0.3413206934928894,0.11491893976926804
1772810207352162800,2.051162841796875,-0.9358448386192322,0.6012436747550964,-0.19845469295978546
1772810207361863200,2.06086328125,-1.0421353578567505,0.8584177494049072,-0.5084685683250427
1772810207371563300,2.070563232421875,-1.1297943592071533,1.0819942951202393,-0.7888554930686951
1772810207381263400,2.080263427734375,-1.1951569318771362,1.251509189605713,-0.9797507524490356
1772810207390963500,2.08996337890625,-1.2486076354980469,1.3144283294677734,-1.1019237041473389
1772810207400663800,2.099663818359375,-1.3081669807434082,1.2246311902999878,-1.1892774105072021
1772810207410364000,2.109364013671875,-1.3564252853393555,1.0138828754425049,-1.2528072595596313
1772810207420064000,2.11906396484375,-1.3713914155960083,0.791528046131134,-1.2998439073562622
1772810207429764000,2.12876416015625,-1.3387101888656616,0.6415607333183289,-1.323056697845459
1772810207439464200,2.138464111328125,-1.26021409034729,0.5752819180488586,-1.342298984527588
1772810207449164500,2.14816455078125,-1.1487312316894531,0.5884155035018921,-1.3667335510253906
1772810207458864600,2.15786474609375,-1.0396918058395386,0.625067412853241,-1.4061343669891357
1772810207468564700,2.167564697265625,-0.9550870656967163,0.6229293346405029,-1.452865481376648
1772810207478265000,2.17726513671875,-0.8866702318191528,0.597273051738739,-1.4928771257400513
1772810207487965200,2.186965087890625,-0.813671886920929,0.5795579552650452,-1.5047889947891235
1772810207497665300,2.196665283203125,-0.7425061464309692,0.5621483325958252,-1.472718596458435
1772810207507365400,2.206365478515625,-0.6713404059410095,0.5309942364692688,-1.4107158184051514
1772810207517065700,2.216065673828125,-0.618806004524231,0.4799869954586029,-1.3309979438781738
1772810207526765800,2.225765869140625,-0.5968148708343506,0.4027126133441925,-1.2387573719024658
1772810207536466000,2.2354658203125,-0.5778780579566956,0.263435423374176,-1.1239148378372192
1772810207546166300,2.245166259765625,-0.5293143391609192,0.13271036744117737,-0.9806670546531677
1772810207555866400,2.254866455078125,-0.4166097939014435,0.15592323243618011,-0.7870228886604309
1772810207565566500,2.26456640625,-0.1957821547985077,0.45127636194229126,-0.5781071782112122
1772810207575266600,2.2742666015625,0.07116574794054031,0.827874481678009,-0.4544070363044739
1772810207584967000,2.283966796875,0.2464839369058609,0.9078977704048157,-0.5093848705291748
1772810207594667000,2.2936669921875,0.3185659945011139,0.5395463109016418,-0.7769436240196228
1772810207604367000,2.3033671875,0.31612253189086914,0.1617264449596405,-1.0686315298080444
1772810207614067500,2.3130673828125,0.4108065664768219,-0.23373213410377502,-1.2983167171478271
1772810207623767600,2.322767578125,0.7632755637168884,-1.0612248182296753,-1.7253111600875854
1772810207633467600,2.332467529296875,1.1710277795791626,-2.0208170413970947,-2.381380081176758
1772810207643167700,2.342167724609375,1.4743221998214722,-2.4783546924591064,-2.965672254562378
1772810207652867800,2.351867919921875,1.7217223644256592,-2.1396303176879883,-3.320889949798584
1772810207662568200,2.361568115234375,1.9868377447128296,-1.211115837097168,-3.3893067836761475
1772810207672268300,2.371268310546875,2.185368776321411,-0.25816673040390015,-3.1440446376800537
1772810207681968400,2.380968505859375,2.190255641937256,0.2536616027355194,-2.6150357723236084
1772810207691668500,2.39066845703125,2.003636360168457,0.21639885008335114,-1.8447352647781372
1772810207701368800,2.400368896484375,1.8338160514831543,-0.194025918841362,-0.917747974395752
1772810207711069000,2.41006884765625,1.7996076345443726,-0.8604794144630432,-0.028634287416934967
1772810207720769000,2.41976904296875,1.8393138647079468,-1.541288137435913,0.6705004572868347
1772810207730469000,2.42946923828125,1.8949025869369507,-1.9151374101638794,1.1411718130111694
1772810207740169500,2.43916943359375,1.959959626197815,-1.911166787147522,1.3668862581253052
1772810207749869600,2.44886962890625,2.0134103298187256,-1.6005420684814453,1.365053653717041
1772810207759569700,2.458569580078125,2.048229694366455,-1.1097122430801392,1.127427339553833
1772810207769270000,2.46827001953125,2.0158538818359375,-0.6252964735031128,0.6518690586090088
1772810207778970000,2.47797021484375,1.8206825256347656,-0.23892448842525482,0.046807512640953064
1772810207788670200,2.487670166015625,1.4816524982452393,0.028863361105322838,-0.5466476082801819
1772810207798370300,2.497370361328125,1.1029163599014282,0.22250749170780182,-1.0515273809432983
1772810207808070700,2.507070556640625,0.7434224486351013,0.4082103967666626,-1.4253766536712646
1772810207817770800,2.516770751953125,0.44440412521362305,0.6046034097671509,-1.6226859092712402
1772810207827470800,2.526470947265625,0.21349723637104034,0.754265308380127,-1.6419281959533691
1772810207837171200,2.536171142578125,0.03787361457943916,0.827874481678009,-1.5011237859725952
1772810207846871300,2.545871337890625,-0.09468404203653336,0.8541416525840759,-1.2363139390945435
1772810207856571400,2.5555712890625,-0.20127993822097778,0.8040507435798645,-0.908890426158905
1772810207866271500,2.565271484375,-0.2919933497905731,0.6815723776817322,-0.5710822343826294
1772810207875971800,2.574971923828125,-0.35185810923576355,0.5514581799507141,-0.25954118371009827
1772810207885672000,2.584671875,-0.37293294072151184,0.471129447221756,0.016569707542657852
1772810207895372000,2.5943720703125,-0.3860665261745453,0.3889681398868561,0.24106250703334808
1772810207905072000,2.604072021484375,-0.4218021333217621,0.2897026240825653,0.40080365538597107
1772810207914772200,2.613772216796875,-0.46883872151374817,0.18921536207199097,0.5022072196006775
1772810207924472600,2.62347265625,-0.5076286196708679,0.13729186356067657,0.5409971475601196
1772810207934172700,2.633172607421875,-0.5396990180015564,0.18555018305778503,0.523892879486084
1772810207943872800,2.642872802734375,-0.5589412450790405,0.26710063219070435,0.46952593326568604
1772810207953572900,2.65257275390625,-0.5879573225975037,0.3379609286785126,0.3992764949798584
1772810207963273200,2.662273193359375,-0.6432406306266785,0.40607234835624695,0.32933247089385986
1772810207972973300,2.671973388671875,-0.7018836140632629,0.4912880063056946,0.2658025324344635
1772810207982672400,2.68167236328125,-0.750141978263855,0.5722275972366333,0.20685409009456635
1772810207992372500,2.69137255859375,-0.8200859427452087,0.595745861530304,0.16439898312091827
1772810208002072600,2.701072509765625,-0.943786084651947,0.5462658405303955,0.15187625586986542
1772810208011772700,2.710772705078125,-1.084285020828247,0.45677414536476135,0.16928590834140778
1772810208021472800,2.72047265625,-1.1792744398117065,0.36422812938690186,0.18669554591178894
1772810208031173000,2.730173095703125,-1.2290599346160889,0.24663665890693665,0.17692171037197113
1772810208040873200,2.739873291015625,-1.273958444595337,0.13851359486579895,0.1369100660085678
1772810208050573300,2.7495732421875,-1.2822052240371704,0.11438442766666412,0.07948877662420273
1772810208060273400,2.7592734375,-1.2049307823181152,0.16752967238426208,0.04650207981467247
1772810208069973800,2.768973876953125,-1.0702351331710815,0.2753472924232483,0.05871937796473503
1772810208079673900,2.778673828125,-0.9596685767173767,0.37064221501350403,0.10942115634679794
1772810208089374000,2.7883740234375,-0.9324851036071777,0.3675878942012787,0.21540619432926178
1772810208099074300,2.79807421875,-0.9697478413581848,0.20448698103427887,0.39683303236961365
1772810208108774400,2.8077744140625,-1.035415768623352,-0.16409355401992798,0.5999455451965332
1772810208118474500,2.817474609375,-1.0430516004562378,-0.6402626633644104,0.7056251764297485
1772810208128174600,2.827174560546875,-0.9382883310317993,-1.023885726928711,0.61827152967453
1772810208137875000,2.836875,-0.7498365044593811,-1.1396446228027344,0.4038579761981964
1772810208147575000,2.846574951171875,-0.4773908257484436,-1.127121925354004,0.15981750190258026
1772810208157275100,2.856275146484375,-0.11911863088607788,-1.3638319969177246,-0.15386156737804413
1772810208166975500,2.8659755859375,0.3643808364868164,-2.18025279045105,-0.5997928380966187
1772810208176675600,2.875675537109375,0.8640682101249695,-3.49422287940979,-1.2085195779800415
1772810208186375700,2.885375732421875,1.2498292922973633,-4.672886371612549,-1.8422918319702148
1772810208196075800,2.89507568359375,1.5152500867843628,-4.807276725769043,-2.2326343059539795
1772810208205776100,2.904776123046875,1.609323263168335,-3.3955681324005127,-2.239964723587036
1772810208215476200,2.914476318359375,1.490510106086731,-1.0645081996917725,-1.9650756120681763
1772810208225176300,2.92417626953125,1.3209950923919678,0.7988584041595459,-1.526780128479004
1772810208234876400,2.93387646484375,1.3026691675186157,1.6818634271621704,-0.779692530632019
1772810208244576800,2.94357666015625,1.4388920068740845,1.790902853012085,0.33055421710014343
1772810208254276900,2.95327685546875,1.5906919240951538,1.3168717622756958,1.5819107294082642
1772810208263977000,2.96297705078125,1.6523892879486084,0.5670352578163147,2.608469009399414
1772810208273677000,2.972677001953125,1.692095398902893,-0.12408190965652466,3.483532667160034
1772810208283377200,2.982377197265625,1.709810495376587,-0.5898662805557251,4.2107672691345215
1772810208293077500,2.992077392578125,1.564424753189087,-0.5611556768417358,4.401662349700928
1772810208302777600,3.001777587890625,1.311832070350647,-0.1631772518157959,4.10081148147583
1772810208312477700,3.011477783203125,0.9159917235374451,0.314748078584671,3.4453537464141846
1772810208322177800,3.021177734375,0.49632763862609863,0.9155336022377014,2.569373607635498
1772810208331878100,3.030878173828125,0.08155044913291931,1.5196788311004639,1.569082498550415
1772810208341578200,3.040578125,-0.34116798639297485,1.9405646324157715,0.6268236041069031
1772810208351278300,3.0502783203125,-0.6914989352226257,2.282649040222168,-0.040546149015426636
1772810208360978700,3.059978759765625,-0.8985821008682251,2.518519163131714,-0.3545306324958801
1772810208370678800,3.0696787109375,-0.961195707321167,2.5667011737823486,-0.32123851776123047
1772810208380379000,3.07937890625,-0.8936951756477356,2.4857614040374756,0.005268708802759647
1772810208390079000,3.089078857421875,-0.7693842053413391,2.3208279609680176,0.5251146554946899
1772810208399779300,3.098779296875,-0.6432406306266785,1.992488145828247,1.09688401222229
1772810208409479400,3.1084794921875,-0.5305360555648804,1.4958550930023193,1.62742018699646
1772810208419179500,3.118179443359375,-0.4514290690422058,0.9335541129112244,2.041586399078369
1772810208428879600,3.127879638671875,-0.39858928322792053,0.4332558512687683,2.297844171524048
1772810208438580000,3.137580078125,-0.3646862804889679,0.06734783947467804,2.393139123916626
1772810208448280000,3.147280029296875,-0.3594939112663269,-0.12438733875751495,2.3158648014068604
1772810208457980200,3.156980224609375,-0.3961458206176758,-0.14149154722690582,2.0837361812591553
1772810208467680500,3.166680419921875,-0.4838049113750458,-0.05352702736854553,1.7557017803192139
1772810208477380600,3.176380615234375,-0.6029235124588013,0.0844520553946495,1.3904045820236206
1772810208487080700,3.186080810546875,-0.7431169748306274,0.24174973368644714,1.0296889543533325
1772810208496780800,3.19578076171875,-0.8839213252067566,0.4182896614074707,0.7218130826950073
1772810208506481000,3.20548095703125,-1.018311619758606,0.5969675779342651,0.4814378023147583
1772810208516181000,3.215180908203125,-1.1432334184646606,0.7753401398658752,0.28260132670402527
1772810208525881300,3.22488134765625,-1.2623521089553833,0.9430224895477295,0.09445496648550034
1772810208535581400,3.23458154296875,-1.3530654907226562,1.0499238967895508,-0.09827287495136261
1772810208545281500,3.244281494140625,-1.3979640007019043,1.0816887617111206,-0.29100072383880615
1772810208554981600,3.253981689453125,-1.416595458984375,1.0374010801315308,-0.4632645845413208
1772810208564682000,3.263681884765625,-1.4187334775924683,0.9469931125640869,-0.5985711216926575
1772810208574382000,3.273382080078125,-1.3921607732772827,0.8239038586616516,-0.7060832977294922
1772810208584082200,3.283082275390625,-1.3301581144332886,0.6653844714164734,-0.7919098138809204
1772810208593782500,3.292782470703125,-1.2373065948486328,0.5169443488121033,-0.8612430095672607
1772810208603482600,3.302482666015625,-1.1349867582321167,0.402407169342041,-0.9235512018203735
1772810208613182700,3.3121826171875,-1.0238093137741089,0.30711227655410767,-0.9809724688529968
1772810208622882800,3.3218828125,-0.9028581380844116,0.2808450758457184,-1.0194569826126099
1772810208632583200,3.331583251953125,-0.7849612236022949,0.33460119366645813,-1.0347285270690918
1772810208642283300,3.341283203125,-0.6621774435043335,0.42653632164001465,-1.031063437461853
1772810208651983400,3.3509833984375,-0.5387827157974243,0.5181660652160645,-1.0023527145385742
1772810208661683500,3.360683349609375,-0.44470956921577454,0.6091849207878113,-0.9510400891304016
1772810208671383800,3.3703837890625,-0.38331764936447144,0.7261655330657959,-0.8908699154853821
1772810208681084000,3.380083984375,-0.323452889919281,0.7735075354576111,-0.8517745733261108
1772810208690784000,3.389783935546875,-0.22418737411499023,0.7429642677307129,-0.8328377604484558
1772810208700484000,3.399484130859375,-0.04550942778587341,0.7903063297271729,-0.8175661563873291
1772810208710184400,3.409184326171875,0.20189081132411957,1.004719853401184,-0.779692530632019
1772810208719884500,3.418884521484375,0.5045742988586426,1.3361139297485352,-0.6730966567993164
1772810208729584600,3.428584716796875,0.7641918659210205,1.5682425498962402,-0.5078576803207397
1772810208739285000,3.438284912109375,0.8155044913291931,1.292131781578064,-0.34200790524482727
1772810208748985000,3.447985107421875,0.46608981490135193,0.47357290983200073,-0.13828451931476593
1772810208758685200,3.457685302734375,-0.23426663875579834,-0.2761872410774231,0.23892448842525482
1772810208768385300,3.46738525390625,-0.7996219992637634,-0.7715985774993896,0.589560866355896
1772810208778085400,3.47708544921875,-0.8668171167373657,-1.2178353071212769,0.4304305911064148
1772810208787785500,3.486785400390625,-0.4923570156097412,-1.2437970638275146,-0.35941755771636963
1772810208797485800,3.49648583984375,0.0873536616563797,-0.895604133605957,-1.463861107826233
1772810208807186000,3.50618603515625,0.4621191918849945,-0.24839289486408234,-2.28913950920105
1772810208816886000,3.515885986328125,0.5962040424346924,0.39538222551345825,-2.4638466835021973
1772810208826586000,3.525586181640625,0.8118392825126648,0.7020363211631775,-2.065868377685547
1772810208836286500,3.535286376953125,1.1041381359100342,0.5514581799507141,-1.2766309976577759
1772810208845986600,3.544986572265625,1.2024873495101929,-0.12774710357189178,-0.2277761995792389
1772810208855686700,3.554686767578125,1.1545344591140747,-1.0748928785324097,0.7798452377319336
1772810208865387000,3.564386962890625,1.109025001525879,-1.9447643756866455,1.443244457244873
1772810208875087000,3.574087158203125,1.1013891696929932,-2.398942232131958,1.6677372455596924
1772810208884787200,3.583787109375,1.0992511510849,-2.2608869075775146,1.486615777015686
1772810208894487300,3.5934873046875,1.1038326025009155,-1.636277675628662,1.0409899950027466
1772810208904187600,3.603187744140625,1.0955859422683716,-0.8039743900299072,0.46952593326568604
1772810208913887700,3.6128876953125,1.0332777500152588,-0.04833467677235603,-0.10346522182226181
1772810208923587800,3.622587890625,0.916297197341919,0.5053378939628601,-0.5668061375617981
1772810208933288000,3.632287841796875,0.7562506198883057,0.8526145219802856,-0.8481093645095825
1772810208942988300,3.64198828125,0.5619956254959106,0.9955568909645081,-0.963257372379303
1772810208952688400,3.6516884765625,0.3497200906276703,0.9198096394538879,-0.9479857683181763
1772810208962388500,3.661388427734375,0.1545487940311432,0.6348412036895752,-0.8230639100074768
1772810208972088600,3.671088623046875,0.019242240116000175,0.249690979719162,-0.6165916323661804
1772810208981789000,3.680788818359375,-0.051618073135614395,-0.08559742569923401,-0.39423686265945435
1772810208991489000,3.690489013671875,-0.0925460159778595,-0.3070359230041504,-0.2070067971944809
1772810209001189000,3.700189208984375,-0.13927717506885529,-0.40294167399406433,-0.08239039033651352
1772810209010889200,3.70988916015625,-0.20891575515270233,-0.37636905908584595,-0.024663666263222694
1772810209020589600,3.719589599609375,-0.2965748608112335,-0.2300669401884079,-0.023747367784380913
1772810209030289700,3.72928955078125,-0.37110036611557007,-0.005268708802759647,-0.037491824477910995
1772810209039989800,3.73898974609375,-0.4114174246788025,0.2234237939119339,-0.013668099418282509
1772810209049689900,3.74868994140625,-0.4202749729156494,0.4094321131706238,0.052916161715984344
1772810209059390000,3.758389892578125,-0.3995055556297302,0.5071704983711243,0.15706861019134521
1772810209069090300,3.76809033203125,-0.37232208251953125,0.5245801210403442,0.26885685324668884
1772810209078790400,3.777790283203125,-0.3436114490032196,0.45097091794013977,0.377285361289978
1772810209088490500,3.787490478515625,-0.3081812858581543,0.31902414560317993,0.4713585376739502
1772810209098190600,3.797190673828125,-0.2816086709499359,0.16264274716377258,0.5519927144050598
1772810209107891000,3.806890869140625,-0.3026835024356842,-0.019013166427612305,0.6164389252662659
1772810209117591000,3.816591064453125,-0.36193737387657166,-0.22365286946296692,0.6506473422050476
1772810209127291100,3.826291015625,-0.4266890585422516,-0.4035525321960449,0.6393463611602783
1772810209136991200,3.8359912109375,-0.47464191913604736,-0.5235874652862549,0.581314206123352
1772810209146691600,3.845691650390625,-0.5164861679077148,-0.570624053478241,0.4768563210964203
1772810209156391700,3.8553916015625,-0.5592467188835144,-0.525420069694519,0.32352927327156067
1772810209166091800,3.865091796875,-0.5907062292098999,-0.36170831322669983,0.1430187225341797
1772810209175791900,3.8747919921875,-0.619722306728363,-0.16653701663017273,-0.023441936820745468
1772810209185492200,3.8844921875,-0.674700140953064,0.004123337101191282,-0.14286600053310394
1772810209195192300,3.8941923828125,-0.7724385261535645,0.11682789027690887,-0.21067199110984802
1772810209204892400,3.903892333984375,-0.8909462690353394,0.10797034949064255,-0.23999349772930145
1772810209214592500,3.913592529296875,-0.998763918876648,-0.024510949850082397,-0.22838707268238068
1772810209224292900,3.92329296875,-1.061682939529419,-0.24656029045581818,-0.17218750715255737
1772810209233993000,3.932992919921875,-1.0329723358154297,-0.4759400188922882,-0.09124792367219925
1772810209243693000,3.942693115234375,-0.8759800791740417,-0.6219366788864136,-0.03840812295675278
1772810209253393200,3.95239306640625,-0.6252201199531555,-0.6692787408828735,-0.051847148686647415
1772810209263093500,3.962093505859375,-0.36193737387657166,-0.727921724319458,-0.11537708342075348
1772810209272793600,3.971793701171875,-0.17287473380565643,-0.9744057059288025,-0.20761767029762268
1772810209282493700,3.98149365234375,-0.11575887352228165,-1.4820343255996704,-0.4073704481124878
1772810209292193800,3.99119384765625,-0.23457208275794983,-1.8787909746170044,-0.7323505282402039
1772810209301894100,4.00089404296875,-0.45051276683807373,-1.3476440906524658,-1.0173189640045166
1772810209311594200,4.01059423828125,-0.6493492722511292,-0.08407026529312134,-1.2650245428085327
1772810209321294300,4.02029443359375,-0.6805033683776855,1.0261001586914062,-1.5893938541412354
1772810209330994400,4.029994384765625,-0.4263836145401001,1.624747633934021,-1.86916983127594
1772810209340694800,4.03969482421875,-0.049480047076940536,1.1409426927566528,-1.935143232345581
1772810209350395000,4.049394775390625,0.2886336147785187,-0.1378263682126999,-1.6376521587371826
1772810209360095000,4.059094970703125,0.537255585193634,-1.331150770187378,-0.9879974126815796
1772810209369795000,4.068795166015625,0.7562506198883057,-1.97805655002594,-0.15874847769737244
1772810209379495200,4.0784951171875,1.0693187713623047,-1.6646828651428223,0.77618008852005
1772810209389195500,4.088195556640625,1.4013237953186035,-1.0003674030303955,1.599625825881958
1772810209398895600,4.0978955078125,1.73088538646698,-0.6002510190010071,2.0589962005615234
1772810209408595700,4.107595703125,2.0998477935791016,-0.2450331300497055,2.102672815322876
1772810209418295800,4.1172958984375,2.461479663848877,0.15378521382808685,1.820453405380249
1772810209427996200,4.12699609375,2.680169105529785,0.4864010810852051,1.4212533235549927
1772810209437696300,4.1366962890625,2.615112066268921,0.8700241446495056,1.0565669536590576
1772810209447396400,4.146396240234375,2.3206753730773926,1.3791799545288086,0.7364738583564758
1772810209457096400,4.156096435546875,1.9401065111160278,1.8507676124572754,0.4298197329044342
1772810209466796800,4.165796875,1.5024219751358032,2.1164937019348145,0.09842558950185776
1772810209476497000,4.175496826171875,0.9908226728439331,2.0248639583587646,-0.261984646320343
1772810209486197000,4.185197021484375,0.4169152081012726,1.6727005243301392,-0.6004037261009216
1772810209495897000,4.19489697265625,-0.14508038759231567,1.2869393825531006,-0.8597158193588257
1772810209505597400,4.204597412109375,-0.527481734752655,1.0816887617111206,-1.0142645835876465
1772810209515297500,4.214297607421875,-0.6478220820426941,1.1824815273284912,-1.018846035003662
1772810209524997600,4.22399755859375,-0.6175842881202698,1.5416699647903442,-0.8539125919342041
1772810209534697700,4.23369775390625,-0.5406153202056885,1.9808818101882935,-0.47578731179237366
1772810209544398000,4.243398193359375,-0.4987711012363434,2.2200353145599365,0.12255474925041199
1772810209554098200,4.25309814453125,-0.5051851868629456,2.0807580947875977,0.8723912835121155
1772810209563798300,4.26279833984375,-0.4871646761894226,1.5453351736068726,1.6564362049102783
1772810209573498400,4.272498291015625,-0.3946186602115631,0.7484620809555054,2.3186135292053223
1772810209583198700,4.28219873046875,-0.24312418699264526,-0.13507747650146484,2.750800371170044
1772810209592898800,4.29189892578125,-0.12003492563962936,-1.0000619888305664,2.940474033355713
1772810209602599000,4.301598876953125,-0.047036588191986084,-1.7126357555389404,2.920620918273926
1772810209612299000,4.311299072265625,-0.01282816007733345,-2.0150139331817627,2.681467294692993
1772810209621999400,4.320999267578125,-0.012217295356094837,-1.8839833736419678,2.247753381729126
1772810209631699500,4.330699462890625,-0.03451386094093323,-1.4664572477340698,1.6958370208740234
1772810209641399600,4.340399658203125,-0.0824667438864708,-0.9698241949081421,1.1485021114349365
1772810209651099600,4.350099609375,-0.16187916696071625,-0.572151243686676,0.6805797219276428
1772810209660799700,4.3597998046875,-0.24404047429561615,-0.2508363425731659,0.3287216126918793
1772810209670500000,4.3695,-0.2864955961704254,0.09208786487579346,0.09323323518037796
1772810209680200200,4.3792001953125,-0.277332603931427,0.37583455443382263,-0.03627009689807892
1772810209689900300,4.388900390625,-0.258395791053772,0.49250972270965576,-0.04543306678533554
1772810209699600400,4.398600341796875,-0.2837466895580292,0.4454731345176697,0.06727148592472076
1772810209709300500,4.408300537109375,-0.34147340059280396,0.2854265570640564,0.25847217440605164
1772810209719000800,4.418000732421875,-0.38789913058280945,0.07895427197217941,0.44814568758010864
1772810209728701000,4.427700927734375,-0.4211912751197815,-0.09934188425540924,0.5837576389312744
1772810209738401000,4.437401123046875,-0.4523453712463379,-0.20624321699142456,0.6387354731559753
1772810209748101000,4.44710107421875,-0.4761691093444824,-0.23128867149353027,0.6081922650337219
1772810209757801500,4.456801513671875,-0.4880809485912323,-0.1689804643392563,0.5073995590209961
1772810209767501600,4.46650146484375,-0.48655378818511963,-0.04802924394607544,0.3571268320083618
1772810209777201700,4.47620166015625,-0.4712821841239929,0.11927134543657303,0.19127702713012695
1772810209786901800,4.48590185546875,-0.44379326701164246,0.31932955980300903,0.03886627033352852
1772810209796602000,4.49560205078125,-0.42302384972572327,0.48701193928718567,-0.07628174126148224
1772810209806302200,4.50530224609375,-0.4224129915237427,0.5628355145454407,-0.1443931609392166
1772810209816002300,4.515002197265625,-0.4221075773239136,0.5667297840118408,-0.1556941568851471
1772810209825702400,4.524702392578125,-0.401949018239975,0.5163334608078003,-0.1196531355381012
1772810209835402800,4.53440283203125,-0.36224281787872314,0.4127918779850006,-0.0683404952287674
1772810209845102800,4.544102783203125,-0.282524973154068,0.2802342176437378,-0.03810269013047218
1772810209854803000,4.553802978515625,-0.16310089826583862,0.14034618437290192,-0.06528617441654205
1772810209864503000,4.5635029296875,-0.05497783049941063,0.002901607658714056,-0.18959715962409973
1772810209874203400,4.573203369140625,0.03543015569448471,-0.1326340138912201,-0.45593419671058655
1772810209883903500,4.582903564453125,0.15271618962287903,-0.20838125050067902,-0.8554397821426392
1772810209893603600,4.592603515625,0.3087921440601349,-0.0755181610584259,-1.2848776578903198
1772810209903303700,4.6023037109375,0.4944950342178345,0.2503018379211426,-1.657199740409851
1772810209913004000,4.612004150390625,0.6551524996757507,0.5181660652160645,-1.9256749153137207
1772810209922704100,4.6217041015625,0.6032289862632751,0.5502364635467529,-2.0704498291015625
1772810209932404200,4.631404296875,0.2718348205089569,0.6204859018325806,-1.9659919738769531
1772810209942104300,4.641104248046875,-0.20738859474658966,0.9332486391067505,-1.5154792070388794
1772810209951804700,4.6508046875,-0.6414080262184143,1.2835795879364014,-1.1373538970947266
1772810209961504800,4.6605048828125,-0.7987056970596313,1.1326960325241089,-0.9330195784568787
1772810209971204900,4.670204833984375,-0.8057306408882141,0.4399753510951996,-1.0799325704574585
1772810209980905000,4.679905029296875,-0.6175842881202698,-0.3843103051185608,-1.3713151216506958
1772810209990605000,4.68960498046875,-0.3231474757194519,-1.1171189546585083,-1.5777873992919922
1772810210000305400,4.699305419921875,-0.06536252796649933,-1.3968186378479004,-1.556101679801941
1772810210010005500,4.709005615234375,0.16859868168830872,-1.1909571886062622,-1.3948333263397217
1772810210019705600,4.71870556640625,0.42821621894836426,-0.8800270557403564,-1.1840850114822388
1772810210029405700,4.72840576171875,0.7434224486351013,-0.6353757381439209,-0.8652135729789734
1772810210039105800,4.738105712890625,1.1071923971176147,-0.5141190886497498,-0.4226420819759369
1772810210048806000,4.747805908203125,1.4272855520248413,-0.474718302488327,0.16012293100357056
1772810210058506200,4.75750634765625,1.6074906587600708,-0.5348884463310242,0.8308524489402771
1772810210068206300,4.767206298828125,1.7134757041931152,-0.6876046657562256,1.551061987876892
1772810210077906400,4.776906494140625,1.812130331993103,-0.9090431332588196,2.2266783714294434
1772810210087606500,4.7866064453125,1.8570289611816406,-1.1042144298553467,2.7501895427703857
1772810210097307000,4.796306884765625,1.813657522201538,-1.1698824167251587,3.0620360374450684
1772810210107007000,4.806007080078125,1.6621630191802979,-1.0834450721740723,3.142364740371704
1772810210116707000,4.81570703125,1.3909391164779663,-0.9255365133285522,2.9872050285339355
1772810210126407200,4.8254072265625,1.0415244102478027,-0.7114284038543701,2.6121342182159424
1772810210136107500,4.835107421875,0.6731730103492737,-0.4951822757720947,2.068464517593384
1772810210145807600,4.8448076171875,0.2935205399990082,-0.3323867917060852,1.3965132236480713
1772810210155507700,4.8545078125,-0.059864748269319534,-0.17753258347511292,0.6518690586090088
1772810210165207800,4.864207763671875,-0.33231043815612793,-0.016340631991624832,-0.07444914430379868
1772810210174908200,4.873908203125,-0.5348120927810669,0.13240493834018707,-0.7186060547828674
1772810210184608300,4.883608154296875,-0.667064368724823,0.2964221239089966,-1.242117166519165
1772810210194308400,4.893308349609375,-0.7205150127410889,0.48273590207099915,-1.6248239278793335
1772810210204008400,4.903008544921875,-0.7211259007453918,0.6091849207878113,-1.8648937940597534
1772810210213708800,4.912708740234375,-0.6743947267532349,0.6931788325309753,-1.9293400049209595
1772810210223409000,4.922408935546875,-0.574212908744812,0.771980345249176,-1.816024661064148
1772810210233109000,4.93210888671875,-0.45387253165245056,0.7860302329063416,-1.5557962656021118
1772810210242809000,4.94180908203125,-0.3481929302215576,0.7038689255714417,-1.1733949184417725
1772810210252509400,4.951509521484375,-0.26939135789871216,0.5163334608078003,-0.7097485065460205
1772810210262209500,4.96120947265625,-0.20769402384757996,0.2188423126935959,-0.22502730786800385
1772810210271909600,4.97090966796875,-0.15179990231990814,-0.14057525992393494,0.2297615110874176
1772810210281609700,4.980609619140625,-0.08918625861406326,-0.4716639816761017,0.6060542464256287
1772810210291309800,4.990309814453125,-0.006719512399286032,-0.7270054221153259,0.857119619846344
1772810210301010200,5.00001025390625,0.08796452730894089,-0.9169843792915344,0.9741002321243286
1772810210310710300,5.009710205078125,0.16340632736682892,-1.0342704057693481,0.9783763289451599
1772810210320410400,5.019410400390625,0.20922118425369263,-1.0657299757003784,0.8794162273406982
1772810210330110500,5.0291103515625,0.25381430983543396,-1.0309107303619385,0.7040980458259583
1772810210339810800,5.038810791015625,0.2877173125743866,-0.9649372696876526,0.47441285848617554
1772810210349511000,5.048510986328125,0.2574795186519623,-0.8870519995689392,0.21174100041389465
1772810210359211000,5.0582109375,0.1334739476442337,-0.7975603342056274,-0.05520690605044365
1772810210368911000,5.0679111328125,-0.041844237595796585,-0.6781362891197205,-0.3004691004753113
1772810210378611200,5.077611083984375,-0.2254091054201126,-0.5180897116661072,-0.5222130417823792
1772810210388311600,5.0873115234375,-0.4312705397605896,-0.34643667936325073,-0.7299070358276367
1772810210398011600,5.09701171875,-0.638353705406189,-0.17631085216999054,-0.8884264826774597
1772810210407711700,5.106711669921875,-0.7831286191940308,-0.014126247726380825,-0.9800561666488647
1772810210417411800,5.116411865234375,-0.8194751143455505,0.1311832070350647,-1.0530545711517334
1772810210427112000,5.12611181640625,-0.748920202255249,0.2863428592681885,-1.1853067874908447
1772810210436812300,5.135812255859375,-0.5763509273529053,0.4405862092971802,-1.4101049900054932
1772810210446512400,5.145512451171875,-0.3121519088745117,0.5267944931983948,-1.6565889120101929
1772810210456212500,5.15521240234375,0.017715077847242355,0.4592176079750061,-1.87222421169281
1772810210465912600,5.16491259765625,0.18661919236183167,0.06551524996757507,-2.113210439682007
1772810210475612700,5.17461279296875,-0.000305432389723137,-0.42737627029418945,-2.2799763679504395
1772810210485313000,5.18431298828125,-0.39767298102378845,-0.3177260458469391,-2.2497386932373047
1772810210495013000,5.19401318359375,-0.6704241037368774,0.5282453298568726,-2.018831729888916
1772810210504713200,5.203713134765625,-0.5809323787689209,1.0780236721038818,-1.7760130167007446
1772810210514413300,5.213413330078125,-0.10018182545900345,1.0401500463485718,-1.4152973890304565
1772810210524113700,5.22311376953125,0.518318772315979,0.6440041661262512,-0.6462185978889465
1772810210533813800,5.232813720703125,0.822834849357605,-0.21051926910877228,0.5187005400657654
1772810210543513900,5.242513916015625,0.8023709058761597,-0.9224821925163269,1.9493458271026611
1772810210553214000,5.2522138671875,0.5415316224098206,-1.1781290769577026,3.368384838104248
1772810210562914300,5.261914306640625,0.04825831577181816,-1.0388518571853638,4.315225124359131
1772810210572614400,5.271614501953125,-0.3659079968929291,-0.25786128640174866,4.620963096618652
1772810210582314500,5.281314453125,-0.5531380772590637,0.8174898028373718,4.330191135406494
1772810210592014600,5.2910146484375,-0.5067123174667358,1.808923363685608,3.734903573989868
1772810210601715000,5.30071484375,-0.2467893660068512,2.2557709217071533,3.131369113922119
1772810210611415000,5.3104150390625,0.07422006875276566,1.8299981355667114,2.647869825363159
1772810210621115100,5.320115234375,0.2055560052394867,0.7470112442970276,2.3247222900390625
1772810210630815200,5.329815185546875,0.10018182545900345,-0.5975021123886108,2.30975604057312
1772810210640515300,5.339515380859375,-0.10231985151767731,-1.8018220663070679,2.594419002532959
1772810210650215700,5.349215576171875,-0.3744601011276245,-2.700098752975464,3.0366852283477783
1772810210659915800,5.358915771484375,-0.7189878225326538,-2.8971025943756104,3.418170213699341
1772810210669615900,5.368615966796875,-1.1157444715499878,-2.415741205215454,3.619450092315674
1772810210679316000,5.37831591796875,-1.5045599937438965,-1.689117431640625,3.599902391433716
1772810210689016300,5.388016357421875,-1.7999130487442017,-1.1579705476760864,3.3747987747192383
1772810210698716400,5.39771630859375,-1.9107850790023804,-0.8051961660385132,2.9917867183685303
1772810210708416500,5.40741650390625,-1.8109086751937866,-0.4872410297393799,2.47713303565979
1772810210718116600,5.41711669921875,-1.6035200357437134,-0.36018115282058716,1.947513222694397
1772810210727817000,5.42681689453125,-1.3460404872894287,-0.21632249653339386,1.636277675628662
1772810210737517000,5.43651708984375,-1.0112866163253784,0.07589995115995407,1.6252820491790771
1772810210747217200,5.446217041015625,-0.6612611413002014,0.3199404180049896,1.7673081159591675
1772810210756917200,5.455917236328125,-0.37293294072151184,0.44119709730148315,1.9075015783309937
1772810210766617600,5.46561767578125,-0.1389717310667038,0.45646870136260986,1.9401829242706299
1772810210776317700,5.475317626953125,0.024434590712189674,0.33948808908462524,1.7902156114578247
1772810210786017800,5.485017822265625,0.06963858753442764,0.1614210158586502,1.4789799451828003
1772810210795718000,5.4947177734375,0.03023780696094036,0.06520981341600418,1.0642027854919434
1772810210805418000,5.50441796875,-0.0717766135931015,0.09941824525594711,0.5828413367271423
1772810210815118000,5.5141181640625,-0.1997527778148651,0.24144430458545685,0.04589121788740158
1772810210824818400,5.523818359375,-0.29993459582328796,0.5364919900894165,-0.511217474937439
1772810210834518500,5.5335185546875,-0.33078327775001526,0.9775363802909851,-1.0069342851638794
1772810210844218600,5.543218505859375,-0.33139413595199585,1.437517523765564,-1.3670389652252197
1772810210853918700,5.552918701171875,-0.3503309488296509,1.8028147220611572,-1.5438843965530396
1772810210873319200,5.572319091796875,-0.36254823207855225,2.0429608821868896,-1.408577799797058
1772810210883019300,5.582019287109375,-0.2886336147785187,1.8843650817871094,-1.2634974718093872
1772810210892719400,5.59171923828125,-0.1496618688106537,1.5007420778274536,-1.1578178405761719
1772810210902419500,5.60141943359375,0.05039634555578232,0.9509637355804443,-1.1523200273513794
1772810210912119600,5.61111962890625,0.28435754776000977,0.40026915073394775,-1.250363826751709
1772810210921820000,5.62081982421875,0.48930269479751587,-0.008704823441803455,-1.4229331016540527
1772810210931520000,5.63052001953125,0.6255255341529846,-0.27374377846717834,-1.6437608003616333
1772810210941220000,5.64022021484375,0.7055488228797913,-0.3720930218696594,-1.879249095916748
1772810210950920200,5.649920166015625,0.7357866168022156,-0.27801984548568726,-2.0823616981506348
1772810210960620500,5.65962060546875,0.7177661061286926,-0.06391172856092453,-2.2329399585723877
1772810210970320600,5.669320556640625,0.674700140953064,0.2280052751302719,-2.3221261501312256
1772810210980020700,5.679020751953125,0.6484329700469971,0.5087739825248718,-2.340146541595459
1772810210989720800,5.688720947265625,0.6774490475654602,0.6837103962898254,-2.2769222259521484
1772810210999421000,5.6984208984375,0.7929024696350098,0.7344121932983398,-2.141921043395996
1772810211009121300,5.708121337890625,0.9621120095252991,0.6513345837593079,-1.973933219909668
1772810211018821400,5.7178212890625,1.0861176252365112,0.4384481906890869,-1.7729586362838745
1772810211028521500,5.727521484375,1.1166608333587646,0.11835505068302155,-1.546327829360962
1772810211038221600,5.7372216796875,1.05496346950531,-0.1992182731628418,-1.3209186792373657
1772810211047922000,5.746921875,0.9013310074806213,-0.49457138776779175,-1.1278854608535767
1772810211057622000,5.7566220703125,0.6615665555000305,-0.7951168417930603,-0.9907463192939758
1772810211067322000,5.766322021484375,0.42302384972572327,-1.0248019695281982,-0.8902590870857239
1772810211077022200,5.776022216796875,0.2522871494293213,-1.0529018640518188,-0.7409026026725769
1772810211086722600,5.78572265625,0.15607595443725586,-0.8800270557403564,-0.511217474937439
1772810211096422700,5.795422607421875,0.1340848207473755,-0.672638475894928,-0.2677878439426422
1772810211106122800,5.805122802734375,0.09926552325487137,-0.5959749221801758,-0.14744748175144196
1772810211115822800,5.81482275390625,-0.046425722539424896,-0.4964039921760559,-0.09094249457120895
1772810211125523000,5.82452294921875,-0.2574795186519623,-0.21510076522827148,0.00954476185142994
1772810211135223300,5.834223388671875,-0.44959646463394165,0.15935935080051422,0.09812015295028687
1772810211144923400,5.84392333984375,-0.49968740344047546,0.4631882309913635,0.04711294546723366
1772810211154623500,5.85362353515625,-0.34208428859710693,0.6989820003509521,-0.1963166743516922
1772810211164323600,5.863323486328125,-0.05803215503692627,0.6458367705345154,-0.7027235627174377
1772810211174024000,5.87302392578125,0.18570289015769958,0.15775582194328308,-1.342909812927246
1772810211183724000,5.88272412109375,0.3039052188396454,-0.8742238283157349,-1.9217042922973633
1772810211193424100,5.892424072265625,0.35155269503593445,-2.1536800861358643,-2.323042392730713
1772810211203124200,5.902124267578125,0.4120282828807831,-3.0715043544769287,-2.49133563041687
1772810211212824300,5.91182421875,0.47586366534233093,-3.2413249015808105,-2.443688154220581
1772810211222524700,5.921524658203125,0.48960810899734497,-2.558683395385742,-2.094578981399536
1772810211232224800,5.931224853515625,0.3857611119747162,-1.2767837047576904,-1.4146864414215088
1772810211241924900,5.9409248046875,0.189673513174057,0.041386090219020844,-0.48586657643318176
1772810211251625000,5.950625,0.023518294095993042,0.8804088830947876,0.49334967136383057
1772810211261325000,5.960324951171875,-0.037262752652168274,1.1446079015731812,1.38735032081604
1772810211271025400,5.970025390625,-0.049480047076940536,0.9747874736785889,2.049527645111084
1772810211280725500,5.9797255859375,-0.008857538923621178,0.5740602016448975,2.3983314037323
1772810211290425600,5.989425537109375,0.1078176349401474,0.11988221108913422,2.4200172424316406
1772810211300125700,5.999125732421875,0.25534147024154663,-0.24808746576309204,2.1408519744873047
1772810211309825800,6.00882568359375,0.3289506733417511,-0.38675376772880554,1.6200897693634033
1772810211319526000,6.01852587890625,0.2968802750110626,-0.27893611788749695,0.9447787404060364
1772810211329226200,6.028226318359375,0.1954767256975174,-0.04589121788740158,0.18639011681079865
1772810211338926300,6.03792626953125,0.09560033679008484,0.24602578580379486,-0.5912407636642456
1772810211348626400,6.04762646484375,-0.032681263983249664,0.5554288029670715,-1.3022873401641846
1772810211358326500,6.057326416015625,-0.22235478460788727,0.856279730796814,-1.8841360807418823
1772810211368026600,6.067026611328125,-0.42271843552589417,1.1485785245895386,-2.270813465118408
1772810211377727000,6.07672705078125,-0.56382817029953,1.4692825078964233,-2.39023756980896
1772810211387427000,6.086427001953125,-0.6432406306266785,1.7151556015014648,-2.224998712539673
1772810211397127200,6.096127197265625,-0.6652317643165588,1.8266384601593018,-1.8184680938720703
1772810211406827300,6.1058271484375,-0.646905779838562,1.8290818929672241,-1.2509746551513672
1772810211416527600,6.115527587890625,-0.5958985686302185,1.6940807104110718,-0.6205622553825378
1772810211426227700,6.125227783203125,-0.49999281764030457,1.3660463094711304,-0.03107774630188942
1772810211435927800,6.134927734375,-0.36712974309921265,0.8364266157150269,0.42126762866973877
1772810211445628000,6.1446279296875,-0.22693626582622528,0.2533561587333679,0.7163153290748596
1772810211455328000,6.154327880859375,-0.13103049993515015,-0.2618319094181061,0.8678097724914551
1772810211465028400,6.1640283203125,-0.11178825795650482,-0.6332377195358276,0.8705586791038513
1772810211474728400,6.173728515625,-0.12614357471466064,-0.7725148797035217,0.7612138986587524
1772810211484428500,6.183428466796875,-0.1493564397096634,-0.6888263821601868,0.6008618474006653
1772810211494128600,6.193128662109375,-0.19181154668331146,-0.47960519790649414,0.4450913369655609
1772810211503829000,6.2028291015625,-0.26022839546203613,-0.21265730261802673,0.326583594083786
1772810211513529000,6.212529052734375,-0.3481929302215576,0.05024362727999687,0.2447277009487152
1772810211523229200,6.222229248046875,-0.4535670876502991,0.2386954128742218,0.20288346707820892
1772810211532929300,6.23192919921875,-0.5778780579566956,0.3410152494907379,0.1986074149608612
1772810211542629400,6.24162939453125,-0.7195987105369568,0.4286743700504303,0.2395353466272354
1772810211552329700,6.251329833984375,-0.8830050230026245,0.4751000702381134,0.37026041746139526
1772810211562029800,6.26102978515625,-1.053436279296875,0.31352636218070984,0.6112465858459473
1772810211571730000,6.27072998046875,-1.1841614246368408,-0.04039343446493149,0.9518036842346191
1772810211581430000,6.280429931640625,-1.2693769931793213,-0.5315287113189697,1.2914445400238037
1772810211591130400,6.29013037109375,-1.3277145624160767,-0.940808117389679,1.4982222318649292
1772810211600830500,6.29983056640625,-1.3552035093307495,-1.0609194040298462,1.553505539894104
1772810211610530600,6.309530517578125,-1.3121376037597656,-0.9322559833526611,1.5165481567382812
1772810211620230700,6.319230712890625,-1.147204041481018,-0.5684860348701477,1.4722604751586914
1772810211629930800,6.3289306640625,-0.9208786487579346,-0.03306305781006813,1.4582105875015259
1772810211639631000,6.338631103515625,-0.8148936033248901,0.17424917221069336,1.3891829252243042
1772810211649331200,6.348331298828125,-0.7238747477531433,-0.2722166180610657,1.2050070762634277
1772810211659031300,6.35803125,-0.6386591196060181,-0.7486911416053772,0.9292016625404358
1772810211668731400,6.3677314453125,-0.591622531414032,-1.0388518571853638,0.5132027864456177
1772810211678431700,6.377431640625,-0.5946768522262573,-1.0049489736557007,0.024816380813717842
1772810211688131800,6.3871318359375,-0.6496546864509583,-0.5660426020622253,-0.3951531648635864
1772810211697832000,6.39683203125,-0.7803797721862793,0.2182314395904541,-0.8297834396362305
1772810211707532000,6.406531982421875,-0.9251546859741211,0.69012451171875,-1.049083948135376
1772810211717232000,6.416232177734375,-1.0751219987869263,0.5016726851463318,-1.1795035600662231
1772810211726932500,6.425932373046875,-0.9593631625175476,-0.13385574519634247,-1.0738239288330078
1772810211736632600,6.435632568359375,-0.508544921875,-0.9912044405937195,-0.7030289769172668
1772810211746332700,6.445332763671875,0.0027488914784044027,-1.8797073364257812,-0.14744748175144196
1772810211756032800,6.45503271484375,0.3955349326133728,-2.052887439727783,0.6683624386787415
1772810211765732900,6.46473291015625,0.6221657991409302,-1.6042072772979736,1.3638319969177246
1772810211775433200,6.47443310546875,0.3811796307563782,-0.7511346340179443,1.4808125495910645
1772810211785133300,6.48413330078125,0.025961752980947495,-0.19097159802913666,1.1982876062393188
1772810211794833400,6.49383349609375,-0.10934479534626007,0.47693267464637756,1.2132538557052612
1772810211804533500,6.503533447265625,-0.004581485874950886,1.0401500463485718,1.6842305660247803
1772810211814233600,6.513233642578125,0.1591302752494812,1.0734421014785767,2.415435791015625
1772810211823934000,6.522933837890625,0.4581485986709595,0.7035635113716125,3.2798094749450684
1772810211833634000,6.532634033203125,0.8225294351577759,0.24297146499156952,3.9502334594726562
1772810211843334100,6.542334228515625,1.1417062282562256,-0.19646938145160675,4.3503499031066895
1772810211853034200,6.5520341796875,1.1707223653793335,-0.7367792725563049,4.566901683807373
1772810211862734300,6.561734375,0.9511164426803589,-1.1408662796020508,4.67533016204834
1772810211872434400,6.571434326171875,0.6575959324836731,-1.290833592414856,4.561708927154541
1772810211882134800,6.581134765625,0.43493571877479553,-1.2948042154312134,4.142961502075195
1772810211891835000,6.5908349609375,0.42088583111763,-1.0220531225204468,3.5815765857696533
1772810211901535000,6.600534912109375,0.5039634704589844,-0.6033053398132324,3.0149993896484375
1772810211911235000,6.610235107421875,0.4770853817462921,-0.22731806337833405,2.523864269256592
1772810211920935200,6.61993505859375,0.26419901847839355,0.12965604662895203,2.1845288276672363
1772810211930635500,6.629635498046875,-0.12614357471466064,0.44638943672180176,1.9972987174987793
1772810211940335600,6.639335693359375,-0.6166679859161377,0.7313578724861145,1.9716423749923706
1772810211950035700,6.64903564453125,-1.0687079429626465,0.9091194868087769,2.0541090965270996
1772810211959735800,6.65873583984375,-1.3952151536941528,1.0276272296905518,2.262108564376831
1772810211969436000,6.668435791015625,-1.6187916994094849,0.9243911504745483,2.4753005504608154
1772810211988836400,6.68783642578125,-1.6572761535644531,0.2799287736415863,2.692157506942749
1772810211998536400,6.697536376953125,-1.323133111000061,-0.06268999725580215,2.6649739742279053
1772810212008236500,6.707236572265625,-0.8836159110069275,-0.358348548412323,2.4975969791412354
1772810212017936600,6.7169365234375,-0.47525280714035034,-0.5663480162620544,2.206214427947998
1772810212027637000,6.726636962890625,-0.21471896767616272,-0.5550470352172852,1.8668791055679321
1772810212037337000,6.736337158203125,-0.1847866028547287,-0.2969566285610199,1.5186861753463745
1772810212047037200,6.746037109375,-0.3228420317173004,0.0902552679181099,1.1530836820602417
1772810212056737300,6.7557373046875,-0.5155698657035828,0.5203040838241577,0.783815860748291
1772810212066437600,6.765437744140625,-0.6866120100021362,0.8639155030250549,0.43776097893714905
1772810212076137700,6.7751376953125,-0.8017600178718567,0.9686788320541382,0.15859577059745789
1772810212085837800,6.784837890625,-0.8448259830474854,0.8339831233024597,-0.0371863916516304
1772810212095538000,6.794537841796875,-0.7754928469657898,0.5249619483947754,-0.15874847769737244
1772810212105238000,6.804238037109375,-0.6298015713691711,0.17333288490772247,-0.20547963678836823
1772810212114938400,6.8139384765625,-0.44837474822998047,-0.12377647310495377,-0.20731224119663239
1772810212124638500,6.823638427734375,-0.2571740746498108,-0.30337071418762207,-0.22105668485164642
1772810212134338600,6.833338623046875,-0.07819069176912308,-0.3626246154308319,-0.2977202236652374
1772810212144038700,6.84303857421875,0.08338304609060287,-0.33024877309799194,-0.4376082420349121
1772810212153738800,6.85273876953125,0.21868959069252014,-0.260915607213974,-0.6175079345703125
1772810212163439000,6.862439208984375,0.2883281707763672,-0.2248746007680893,-0.816038966178894
1772810212173139200,6.87213916015625,0.2776380479335785,-0.2456440031528473,-1.0090723037719727
1772810212182839300,6.88183935546875,0.2611446976661682,-0.2868773639202118,-1.2011892795562744
1772810212192539400,6.891539306640625,0.2886336147785187,-0.26794055104255676,-1.4033855199813843
1772810212202239500,6.901239501953125,0.3396408259868622,-0.17508912086486816,-1.6159664392471313
1772810212211939800,6.91093994140625,0.4068359434604645,-0.03428478538990021,-1.8111376762390137
1772810212221640000,6.920639892578125,0.5061014890670776,0.1516471803188324,-1.9604941606521606
1772810212231340000,6.930340087890625,0.6126973628997803,0.2948949635028839,-2.0475423336029053
1772810212241040100,6.9400400390625,0.6682860851287842,0.2704603672027588,-2.0392956733703613
1772810212250740200,6.949740234375,0.6698132157325745,0.1055268943309784,-1.907348871231079
1772810212260440600,6.959440673828125,0.6704241037368774,-0.1118646115064621,-1.6889647245407104
1772810212270140700,6.969140625,0.7324268817901611,-0.20074543356895447,-1.4620285034179688
1772810212279840800,6.9788408203125,0.8155044913291931,-0.11766783148050308,-1.3474913835525513
1772810212289540900,6.988540771484375,0.8533781170845032,0.054214250296354294,-1.3615412712097168
1772810212299241200,6.9982412109375,0.8014546036720276,0.23472478985786438,-1.4601958990097046
1772810212308941300,7.00794140625,0.7614429593086243,0.41034841537475586,-1.706068992614746
1772810212318641400,7.017641357421875,0.8512400984764099,0.4796815812587738,-2.2347724437713623
1772810212328341500,7.027341552734375,0.9837977290153503,0.36483898758888245,-2.957425355911255
1772810212338041600,7.03704150390625,1.1508692502975464,0.34376415610313416,-3.625100612640381
1772810212347742000,7.046741943359375,1.4639374017715454,0.6617192625999451,-4.043237686157227
1772810212357442000,7.056442138671875,1.7305799722671509,0.8956804871559143,-4.262232780456543
1772810212367142100,7.06614208984375,1.8768820762634277,0.5059487819671631,-4.560029029846191
1772810212376842200,7.07584228515625,2.1670427322387695,-0.5321395993232727,-5.089649200439453
1772810212386542300,7.085542236328125,2.4849979877471924,-1.7618104219436646,-5.564596176147461
1772810212396242700,7.09524267578125,2.54577898979187,-2.295095443725586,-5.693488597869873
1772810212405942800,7.10494287109375,2.283412456512451,-1.8079307079315186,-5.430206298828125
1772810212415643000,7.114642822265625,1.8753548860549927,-0.8161917328834534,-4.715494155883789
1772810212425343000,7.124343017578125,1.4737112522125244,0.17974695563316345,-3.48002028465271
1772810212435043000,7.13404296875,1.1753038167953491,0.7738129496574402,-1.8187735080718994
1772810212444743400,7.143743408203125,1.0567960739135742,0.7848085165023804,0.09170607477426529
1772810212454443500,7.153443603515625,0.9676098227500916,0.25793763995170593,2.0174572467803955
1772810212464143600,7.1631435546875,0.8127555847167969,-0.43745553493499756,3.6802313327789307
1772810212473843700,7.17284375,0.6462949514389038,-0.9854012727737427,4.8005571365356445
1772810212483543800,7.182543701171875,0.46364638209342957,-1.2428807020187378,5.243739604949951
1772810212493244200,7.192244140625,0.23548837006092072,-1.1250602006912231,5.069032192230225
1772810212502944300,7.2019443359375,-0.05283980444073677,-0.7004328370094299,4.461221694946289
1772810212512644400,7.211644287109375,-0.3176496922969818,-0.1011744812130928,3.591961145401001
1772810212522344400,7.221344482421875,-0.5161807537078857,0.5096139311790466,2.595029830932617
1772810212532044500,7.23104443359375,-0.6646208763122559,1.042288064956665,1.5828269720077515
1772810212541744600,7.24074462890625,-0.7935133576393127,1.3684898614883423,0.6665298342704773
1772810212551445000,7.250445068359375,-0.952032744884491,1.4176644086837769,-0.10315979272127151
1772810212561145000,7.26014501953125,-1.1114684343338013,1.2551743984222412,-0.685924768447876
1772810212570845200,7.26984521484375,-1.1795798540115356,1.0068578720092773,-1.049389362335205
1772810212580545300,7.279545166015625,-1.1340705156326294,0.7491493225097656,-1.2298998832702637
1772810212590245400,7.289245361328125,-1.053436279296875,0.5270236134529114,-1.2494475841522217
1772810212599945500,7.298945556640625,-0.990517258644104,0.3043633699417114,-1.1291072368621826
1772810212609645800,7.308645751953125,-0.9349285364151001,0.13820815086364746,-0.8533017635345459
1772810212619346000,7.318345947265625,-0.9013310074806213,-0.02176205813884735,-0.48189595341682434
1772810212629046000,7.3280458984375,-0.9312633275985718,-0.23800818622112274,-0.05367974191904068
1772810212638746000,7.33774609375,-1.007010579109192,-0.4615846872329712,0.37575820088386536
1772810212648446200,7.3474462890625,-1.0610721111297607,-0.6708058714866638,0.7438042163848877
1772810212658146600,7.357146484375,-1.0684025287628174,-0.8409317135810852,1.0135010480880737
1772810212667846700,7.3668466796875,-1.0216712951660156,-0.9536362886428833,1.154305338859558
1772810212677546800,7.376546630859375,-0.9056070446968079,-1.0440442562103271,1.172020435333252
1772810212687246800,7.386246826171875,-0.7189878225326538,-1.0721440315246582,1.0748928785324097
1772810212696947000,7.395947021484375,-0.48594292998313904,-0.9783763289451599,0.8723912835121155
1772810212706647300,7.405647216796875,-0.22663083672523499,-0.7667116522789001,0.5816196203231812
1772810212716347400,7.415347412109375,0.003970621153712273,-0.497320294380188,0.25389066338539124
1772810212726047500,7.425047607421875,0.15821397304534912,-0.30459246039390564,-0.03657552972435951
1772810212735747600,7.43474755859375,0.21441353857517242,-0.2566395699977875,-0.23419028520584106
1772810212745447700,7.44444775390625,0.20189081132411957,-0.2908479869365692,-0.3401753306388855
1772810212755148000,7.45414794921875,0.16340632736682892,-0.3287216126918793,-0.40339982509613037
1772810212764848000,7.46384814453125,0.12370011955499649,-0.3470475673675537,-0.4739547073841095
1772810212774548200,7.47354833984375,0.09162971377372742,-0.3482692837715149,-0.5784125924110413
1772810212784248300,7.483248291015625,0.03695731982588768,-0.2957349121570587,-0.7201332449913025
1772810212793948400,7.492948486328125,-0.024434590712189674,-0.19524765014648438,-0.9266055226325989
1772810212803648800,7.502648681640625,-0.06627883017063141,-0.07765618711709976,-1.1730895042419434
1772810212813348900,7.512348876953125,-0.09621120244264603,0.07223475724458694,-1.407050609588623
1772810212823049000,7.522049072265625,-0.13958260416984558,0.23594652116298676,-1.5900046825408936
1772810212832749000,7.5317490234375,-0.23029601573944092,0.3623955249786377,-1.6907973289489746
1772810212842449200,7.54144921875,-0.3384190797805786,0.38011062145233154,-1.7020983695983887
1772810212852149500,7.5511494140625,-0.40286532044410706,0.2380845546722412,-1.6468150615692139
1772810212861849600,7.560849609375,-0.401949018239975,-0.039477135986089706,-1.5713733434677124
1772810212871549700,7.5705498046875,-0.32100942730903625,-0.42218393087387085,-1.5249475240707397
1772810212881249800,7.580249755859375,-0.09285144507884979,-0.8952987194061279,-1.573205828666687
1772810212890950000,7.589949951171875,0.3610210716724396,-1.5070797204971313,-1.8352668285369873
1772810212900650200,7.599650146484375,1.0293071269989014,-2.197662353515625,-2.312352180480957
1772810212910350300,7.609350341796875,1.6551381349563599,-2.6093852519989014,-2.8893139362335205
1772810212920050400,7.619050537109375,1.9425499439239502,-2.3784782886505127,-3.376478672027588
1772810212929750500,7.62875048828125,1.8561125993728638,-2.038532018661499,-3.725893259048462
1772810212939450600,7.63845068359375,1.4804308414459229,-1.7615050077438354,-3.9955902099609375
1772810212949150700,7.648150634765625,1.1438442468643188,-1.3888773918151855,-4.0655341148376465
1772810212958851000,7.65785107421875,0.9856303334236145,-1.0248783826828003,-3.7549095153808594
1772810212968551200,7.66755126953125,0.8283326625823975,-0.3733147382736206,-2.8777077198028564
1772810212978251300,7.677251220703125,0.5030471682548523,0.2631300091743469,-1.3755911588668823
1772810212987951400,7.686951416015625,0.17348559200763702,0.24602578580379486,0.516257107257843
1772810212997651500,7.6966513671875,-0.10384701192378998,-0.48937904834747314,2.437426805496216
1772810213007351800,7.706351806640625,-0.24037529528141022,-1.3082432746887207,4.199161052703857
1772810213017052000,7.716052001953125,-0.29138249158859253,-1.838779330253601,5.579104423522949
1772810213026752000,7.725751953125,-0.44501498341560364,-2.0388376712799072,6.388805866241455
1772810213036452000,7.7354521484375,-0.7046325206756592,-1.9444589614868164,6.565040111541748
1772810213046152200,7.745152099609375,-0.9636391997337341,-1.5938225984573364,6.218679904937744
1772810213055852500,7.7548525390625,-1.1527018547058105,-0.9747111201286316,5.53787088394165
1772810213065552600,7.764552734375,-1.1859939098358154,-0.18180863559246063,4.698237419128418
1772810213075252700,7.774252685546875,-1.0216712951660156,0.5621483325958252,3.8695993423461914
1772810213084952800,7.783952880859375,-0.7464767694473267,1.1644610166549683,3.0876924991607666
1772810213094653000,7.79365283203125,-0.5690205693244934,1.5566362142562866,2.3161702156066895
1772810213104353300,7.803353271484375,-0.564439058303833,1.6720895767211914,1.6533818244934082
1772810213114053400,7.813053466796875,-0.6563742160797119,1.4891356229782104,1.1570543050765991
1772810213123753500,7.82275341796875,-0.7467821836471558,1.26189386844635,0.8430697321891785
1772810213133453600,7.83245361328125,-0.8991929292678833,1.0648900270462036,0.6851612329483032
1772810213143153700,7.842153564453125,-1.1447606086730957,0.8287907838821411,0.6613374948501587
1772810213152854000,7.85185400390625,-1.359174132347107,0.8917098641395569,0.7938951253890991
1772810213162554000,7.86155419921875,-1.48776113986969,1.346498727798462,1.0953569412231445
1772810213172254200,7.871254150390625,-1.5231913328170776,1.9564471244812012,1.4475204944610596
1772810213181954300,7.880954345703125,-1.4636319875717163,2.5169155597686768,1.8149555921554565
1772810213191654400,7.890654296875,-1.3942989110946655,2.5517349243164062,2.186361312866211
1772810213201354800,7.900354736328125,-1.3548980951309204,1.7640247344970703,2.5818963050842285
1772810213211054800,7.910054931640625,-1.2705987691879272,0.18890993297100067,2.9056546688079834
1772810213220755000,7.9197548828125,-1.0958913564682007,-1.57060968875885,2.9670464992523193
1772810213230455000,7.929455078125,-0.7666352987289429,-2.602971076965332,2.7107887268066406
1772810213240155100,7.939155029296875,-0.36285367608070374,-2.624962329864502,2.1631486415863037
1772810213249855200,7.948855224609375,-0.050090912729501724,-1.8140393495559692,1.3852123022079468
1772810213259555600,7.9585556640625,0.07391463965177536,-0.6598103046417236,0.5642099976539612
1772810213269255700,7.968255615234375,0.007024944759905338,0.31810784339904785,-0.12392919510602951
1772810213278955800,7.977955810546875,-0.19120067358016968,0.9375247359275818,-0.60406893491745
1772810213288656000,7.98765576171875,-0.43310311436653137,1.282357931137085,-0.8835395574569702
1772810213298356000,7.99735595703125,-0.620333194732666,1.3672680854797363,-1.0225112438201904
1772810213308056300,8.007056396484375,-0.6887500286102295,1.2512037754058838,-1.083903193473816
1772810213317756400,8.01675634765625,-0.6597339510917664,1.0468695163726807,-1.1095595359802246
1772810213327456500,8.02645654296875,-0.5604684352874756,0.8553634285926819,-1.1373538970947266
1772810213337156600,8.036156494140625,-0.4196641147136688,0.7557924389839172,-1.1782817840576172
1772810213346856700,8.045856689453124,-0.3084867000579834,0.7295252680778503,-1.2470040321350098
1772810213356557000,8.05555712890625,-0.24923282861709595,0.7246383428573608,-1.3297762870788574
1772810213366257200,8.065257080078124,-0.23365578055381775,0.7099775671958923,-1.3853650093078613
1772810213375957200,8.074957275390625,-0.24006985127925873,0.7124210596084595,-1.4104104042053223
1772810213385657300,8.0846572265625,-0.268169641494751,0.7753401398658752,-1.4226276874542236
1772810213395357400,8.094357421875,-0.2675587832927704,0.7750346660614014,-1.4284309148788452
1772810213405057800,8.104057861328124,-0.21655155718326569,0.6959276795387268,-1.4131592512130737
1772810213414758000,8.1137578125,-0.13744457066059113,0.5835285782814026,-1.3838378190994263
1772810213424458000,8.1234580078125,-0.05253437161445618,0.4045451879501343,-1.3407717943191528
1772810213434158000,8.133157958984375,0.043982263654470444,0.17577634751796722,-1.2671626806259155
1772810213443858200,8.142858154296874,0.18753549456596375,-0.09262236952781677,-1.1721731424331665
1772810213453558300,8.152558349609375,0.36774060130119324,-0.4496728479862213,-1.0683261156082153
1772810213463258600,8.162258544921874,0.5503891706466675,-0.7578541040420532,-0.9592867493629456
1772810213472958700,8.171958740234375,0.6881392002105713,-0.8360447883605957,-0.8988111615180969
1772810213482658800,8.181658935546874,0.7507528066635132,-0.764879047870636,-0.8765146136283875
1772810213492359000,8.19135888671875,0.7718276381492615,-0.5587121844291687,-0.8279508352279663
1772810213502059000,8.20105908203125,0.7999274134635925,-0.19585852324962616,-0.7106648087501526
1772810213511759400,8.21075927734375,0.8203914165496826,0.18371757864952087,-0.5506182312965393
1772810213521459500,8.22045947265625,0.767857015132904,0.5624537467956543,-0.3304014801979065
1772810213531159600,8.23015966796875,0.6743947267532349,0.8883501291275024,-0.12820523977279663
1772810213540859600,8.239859619140624,0.66645348072052,0.9839504361152649,-0.18226677179336548
1772810213550559700,8.249559814453125,0.749531090259552,0.8425352573394775,-0.5649735331535339
1772810213560260000,8.259260009765624,0.8323032855987549,0.6226239204406738,-1.1901936531066895
1772810213569960200,8.268960205078125,0.9138537049293518,0.6959276795387268,-2.0735042095184326
1772810213579660300,8.278660400390624,1.0213658809661865,1.4512619972229004,-3.1571781635284424
1772810213589360400,8.2883603515625,1.2886192798614502,1.7307326793670654,-4.559723854064941
1772810213599060500,8.298060546875,1.459966778755188,1.1583523750305176,-6.114068984985352
1772810213608760600,8.307760498046875,1.6135993003845215,0.5236638188362122,-7.225232124328613
1772810213618461000,8.3174609375,1.7748676538467407,0.45646870136260986,-7.351681232452393
1772810213628161000,8.3271611328125,1.775478482246399,0.4647153913974762,-6.353222846984863
1772810213637861000,8.336861083984376,1.6270383596420288,0.6116283535957336,-4.3645524978637695
1772810213647561200,8.346561279296875,1.2873975038528442,0.33001968264579773,-1.991953730583191
1772810213657261300,8.35626123046875,0.8142827749252319,0.060933761298656464,0.3827831447124481
1772810213666961400,8.36596142578125,0.5778780579566956,-0.3934732675552368,2.0226495265960693
1772810213676661800,8.375661865234376,0.5323686599731445,-0.9188169836997986,2.8635051250457764
1772810213686361900,8.38536181640625,0.6411026120185852,-1.3329832553863525,3.1429755687713623
1772810213696062000,8.39506201171875,0.7073814272880554,-1.4621812105178833,3.1270930767059326
1772810213705762000,8.404761962890625,0.5858193039894104,-1.2969422340393066,2.927034854888916
1772810213715462100,8.414462158203126,0.2861901521682739,-0.9527199864387512,2.617326498031616
1772810213725162500,8.42416259765625,0.002443459117785096,-0.40752315521240234,2.2462260723114014
1772810213734862600,8.433862548828126,-0.1853974610567093,0.1467602699995041,1.8717660903930664
1772810213744562700,8.443562744140625,-0.4059196412563324,0.6629409790039062,1.5712205171585083
1772810213754262800,8.4532626953125,-0.6808087825775146,0.9921970963478088,1.2850303649902344
1772810213763963000,8.462962890625,-0.878118097782135,1.0483967065811157,0.9854012727737427
1772810213773663000,8.4726630859375,-0.9465349912643433,0.9506583213806152,0.7425824999809265
1772810213783363300,8.48236328125,-0.9795216917991638,0.8706350326538086,0.4808269441127777
1772810213793063400,8.4920634765625,-1.0161736011505127,0.9876156449317932,0.14912736415863037
1772810213802763500,8.501763427734375,-1.0360267162322998,1.2661700248718262,-0.25465425848960876
1772810213812463600,8.511463623046875,-1.0482439994812012,1.585957646369934,-0.6975312232971191
1772810213822163700,8.521163818359375,-1.0751219987869263,1.7924299240112305,-1.1553744077682495
1772810213831863800,8.53086376953125,-1.0855066776275635,1.8364121913909912,-1.5472440719604492
1772810213841564200,8.540564208984375,-1.0204496383666992,1.790902853012085,-1.730808973312378
1772810213851264300,8.55026416015625,-0.8833104968070984,1.5160136222839355,-1.6868267059326172
1772810213860964400,8.55996435546875,-0.7104357481002808,0.9729548692703247,-1.4699697494506836
1772810213870664400,8.56966455078125,-0.536644697189331,0.32818710803985596,-1.1541526317596436
1772810213880364500,8.579364501953124,-0.35063639283180237,-0.26885685324668884,-0.8230639100074768
1772810213890064600,8.589064697265625,-0.1536324918270111,-0.7068468928337097,-0.5329031348228455
1772810213899765000,8.598764892578124,0.024740023538470268,-0.9600503444671631,-0.30169084668159485
1772810213909465000,8.608465087890625,0.14996729791164398,-1.0397682189941406,-0.13217586278915405
1772810213919165200,8.618165283203124,0.23029601573944092,-1.032437801361084,-0.01030834298580885
1772810213928865300,8.627865234375,0.2663370370864868,-0.9915099143981934,0.07215840369462967
1772810213938565400,8.6375654296875,0.24495677649974823,-0.8827759623527527,0.10697769373655319
1772810213948265500,8.647265380859375,0.1698204129934311,-0.6827177405357361,0.07948877662420273
1772810213957965800,8.6569658203125,0.05406153202056885,-0.4857138693332672,-0.013668099418282509
1772810213967666000,8.666666015625,-0.09529490768909454,-0.2960403561592102,-0.13125957548618317
1772810213977366000,8.676365966796874,-0.25870123505592346,-0.07368556410074234,-0.24335326254367828
1772810213987066000,8.686066162109375,-0.4221075773239136,0.14004075527191162,-0.34292420744895935
1772810213996766200,8.69576611328125,-0.5763509273529053,0.264046311378479,-0.43577566742897034
1772810214006466300,8.70546630859375,-0.7104357481002808,0.29672756791114807,-0.5231293439865112
1772810214016166700,8.715166748046874,-0.8020654320716858,0.3110828995704651,-0.5811614990234375
1772810214025866800,8.72486669921875,-0.8182533979415894,0.30375251173973083,-0.585437536239624
1772810214035566800,8.73456689453125,-0.7867938280105591,0.24785839021205902,-0.5435932874679565
1772810214045267000,8.744266845703125,-0.7312051653862,0.20204351842403412,-0.4892263412475586
1772810214054967000,8.753967041015626,-0.6435460448265076,0.16264274716377258,-0.43577566742897034
1772810214064667400,8.76366748046875,-0.535728394985199,0.0899498388171196,-0.4012618064880371
1772810214074367500,8.773367431640626,-0.4059196412563324,0.004734201822429895,-0.40920305252075195
1772810214084067600,8.783067626953125,-0.2419024556875229,-0.1417969912290573,-0.5133554935455322
1772810214093767700,8.792767578125,-0.06933315098285675,-0.3531562089920044,-0.76991868019104
1772810214103467800,8.8024677734375,0.044898562133312225,-0.6769145131111145,-1.243338942527771
1772810214113168000,8.81216796875,-0.02779434807598591,-0.9563851952552795,-1.8435134887695312
1772810214122868200,8.8218681640625,-0.33597561717033386,-0.8534544706344604,-2.359083414077759
1772810214132568300,8.831568359375,-0.7929024696350098,-0.27771440148353577,-2.6886448860168457
1772810214142268400,8.841268310546875,-1.2131774425506592,0.3065013885498047,-2.8389177322387695
1772810214151968500,8.850968505859376,-1.4541635513305664,0.6253728270530701,-2.787299633026123
1772810214161668600,8.860668701171875,-1.3548980951309204,0.7683151960372925,-2.4696500301361084
1772810214171368700,8.87036865234375,-0.8594867587089539,0.8119919896125793,-1.9455279111862183
1772810214181069000,8.880069091796875,-0.22296564280986786,0.6052142977714539,-1.2674680948257446
1772810214190769200,8.88976904296875,0.30512696504592896,0.22586725652217865,-0.3612501621246338
1772810214200469200,8.89946923828125,0.6655371785163879,-0.07796161621809006,0.6121628880500793
1772810214210169300,8.90916943359375,0.9541707634925842,-0.16531528532505035,1.4337760210037231
1772810214219869400,8.918869384765625,1.1899645328521729,0.11224640160799026,1.9545382261276245
1772810214229569500,8.928569580078126,1.138346552848816,0.43631017208099365,2.096564292907715
1772810214239270000,8.938269775390625,0.8735366463661194,0.6898190379142761,2.2025492191314697
1772810214248970000,8.947969970703125,0.7177661061286926,0.9555452466011047,2.511035919189453
1772810214258670000,8.957670166015625,0.6960803866386414,1.0175479650497437,2.9450554847717285
1772810214268370200,8.9673701171875,0.7443387508392334,0.8425352573394775,3.3943464756011963
1772810214278070300,8.9770703125,0.8426879644393921,0.476321816444397,3.728184223175049
1772810214287770600,8.9867705078125,0.9731075763702393,0.046883873641490936,3.879373073577881
1772810214297470700,8.996470703125,1.0821470022201538,-0.3009272515773773,3.8668503761291504
1772810214307170800,9.0061708984375,1.064737319946289,-0.4924333691596985,3.7743043899536133
1772810214316871000,9.015870849609374,0.8536835312843323,-0.42279478907585144,3.5598907470703125
1772810214326571000,9.025571044921875,0.5390881896018982,-0.14485131204128265,3.209559917449951
1772810214336271000,9.03527099609375,0.22327107191085815,0.3352120518684387,2.8079164028167725
1772810214345971500,9.044971435546875,-0.038789913058280945,1.0374010801315308,2.4456734657287598
1772810214355671600,9.054671630859374,-0.25442516803741455,1.6543744802474976,2.188804864883423
1772810214365371600,9.06437158203125,-0.43890634179115295,1.9772166013717651,2.0877068042755127
1772810214375071700,9.07407177734375,-0.6075050234794617,1.9646939039230347,2.1567344665527344
1772810214384820500,9.083820556640624,-0.7446441650390625,1.5456405878067017,2.359541654586792
1772810214394472200,9.09347216796875,-0.8185588121414185,0.8205441236495972,2.6271002292633057
1772810214404172300,9.10317236328125,-0.8350521326065063,0.02977965772151947,2.8528149127960205
1772810214413872400,9.112872314453124,-0.7519745230674744,-0.6876046657562256,2.952080488204956
1772810214423572500,9.122572509765625,-0.562911868095398,-1.1995093822479248,2.9093198776245117
1772810214433272600,9.1322724609375,-0.32192572951316833,-1.5220459699630737,2.7159812450408936
1772810214442972700,9.14197265625,-0.07880155742168427,-1.7553962469100952,2.4114651679992676
1772810214452673000,9.151673095703124,0.11423171311616898,-1.8619922399520874,2.0953426361083984
1772810214462373000,9.161373046875,0.21471896767616272,-1.821675181388855,1.8418337106704712
1772810214472073200,9.1710732421875,0.16737695038318634,-1.7190498113632202,1.6558253765106201
1772810214481773300,9.180773193359375,-0.010995565913617611,-1.4890592098236084,1.4994440078735352
1772810214491473400,9.190473388671874,-0.23487751185894012,-1.1594977378845215,1.318627953529358
1772810214501173500,9.200173583984375,-0.4404335021972656,-0.8442915081977844,1.0748928785324097
1772810214510873900,9.209873779296874,-0.5998691916465759,-0.5770381689071655,0.7816778421401978
1772810214520574000,9.219573974609375,-0.6759218573570251,-0.3467421233654022,0.5031235218048096
1772810214530274000,9.229274169921876,-0.6875283122062683,-0.2530507445335388,0.25847217440605164
1772810214539974100,9.23897412109375,-0.6652317643165588,-0.27313292026519775,0.08376483619213104
1772810214549674200,9.24867431640625,-0.592233419418335,-0.34613126516342163,-0.015500693581998348
1772810214559374300,9.258374267578125,-0.4923570156097412,-0.44906195998191833,-0.07353284955024719
1772810214569074700,9.26807470703125,-0.40836310386657715,-0.4802160859107971,-0.13339759409427643
1772810214578774800,9.27777490234375,-0.3390299379825592,-0.41302093863487244,-0.22655446827411652
1772810214588475000,9.287474853515626,-0.2611446976661682,-0.3220020830631256,-0.34658941626548767
1772810214598175000,9.297175048828125,-0.205861434340477,-0.2447277009487152,-0.48036879301071167
1772810214607875000,9.306875,-0.17226386070251465,-0.18974986672401428,-0.6168970465660095
1772810214617575200,9.3165751953125,-0.13500112295150757,-0.20044000446796417,-0.7500655651092529
1772810214627275500,9.326275634765626,-0.08399390429258347,-0.25205808877944946,-0.8603267073631287
1772810214636975600,9.3359755859375,-0.02718348242342472,-0.3326922357082367,-0.9299652576446533
1772810214646675700,9.34567578125,0.05803215503692627,-0.4521162807941437,-0.9751692414283752
1772810214656375800,9.355375732421875,0.19883649051189423,-0.5388590693473816,-1.0096831321716309
1772810214666076000,9.365075927734376,0.36743515729904175,-0.5486329197883606,-1.0414481163024902
1772810214675776000,9.37477587890625,0.5012145638465881,-0.5303069949150085,-1.1110867261886597
1772810214685476400,9.384476318359376,0.5635227560997009,-0.49884745478630066,-1.2454769611358643
1772810214695176400,9.394176513671875,0.5574141144752502,-0.4499782621860504,-1.444924235343933
1772810214704876500,9.40387646484375,0.4987711012363434,-0.40080365538597107,-1.6831614971160889
1772810214714576600,9.41357666015625,0.43951719999313354,-0.19219332933425903,-1.854203701019287
1772810214724276700,9.42327685546875,0.4321868419647217,0.30314165353775024,-1.8545091152191162
1772810214733976800,9.432976806640625,0.43829548358917236,0.8785762786865234,-1.6984331607818604
1772810214743677200,9.44267724609375,0.3787361681461334,1.2133301496505737,-1.4485894441604614
1772810214753377300,9.452377197265625,0.29077163338661194,1.0926843881607056,-1.2158499956130981
1772810214763077400,9.462077392578125,0.3243691921234131,0.648967444896698,-1.0539708137512207
1772810214772777500,9.471777587890625,0.5980366468429565,0.22739441692829132,-0.917137086391449
1772810214782477600,9.4814775390625,0.9896009564399719,-0.22762349247932434,-0.8652135729789734
1772810214792177700,9.491177734375,1.3976585865020752,-0.8745293021202087,-1.0554980039596558
1772810214801878000,9.5008779296875,1.814573884010315,-1.423696756362915,-1.4598904848098755
1772810214811578000,9.510578125,2.134361505508423,-1.6323070526123047,-1.9339215755462646
1772810214821278200,9.5202783203125,2.082132577896118,-1.6106213331222534,-2.362748622894287
1772810214830978300,9.529978271484374,1.6148210763931274,-1.5586978197097778,-2.5979316234588623
1772810214840678400,9.539678466796875,0.906828761100769,-1.5846595764160156,-2.594266414642334
1772810214850378500,9.54937841796875,0.1640172004699707,-1.4337760210037231,-2.5179083347320557
1772810214860078800,9.559078857421875,-0.30024003982543945,-0.7905353903770447,-2.4470479488372803
1772810214869779000,9.568779052734374,-0.4318813979625702,0.03840812295675278,-2.4232242107391357
1772810214879479000,9.57847900390625,-0.40255987644195557,0.567951500415802,-2.3364813327789307
1772810214889179100,9.58817919921875,-0.4477638900279999,0.6305651664733887,-2.00172758102417
1772810214898879200,9.597879150390625,-0.5345066785812378,0.448527455329895,-1.3203078508377075
1772810214908579300,9.607579345703124,-0.4682278633117676,0.27229297161102295,-0.3914879560470581
1772810214918279700,9.61727978515625,-0.19181154668331146,0.13484840095043182,0.5483275055885315
1772810214927979800,9.626979736328124,0.1902843713760376,0.04199695214629173,1.310381293296814
1772810214937680000,9.636679931640625,0.4682278633117676,-0.02237292192876339,1.865046501159668
1772810214947380000,9.6463798828125,0.5036579966545105,-0.06757691502571106,2.228816509246826
1772810214957080000,9.656080078125,0.3643808364868164,-0.10575596243143082,2.3690099716186523
1772810214966780200,9.6657802734375,0.15638138353824615,-0.15554144978523254,2.2550837993621826
1772810214976480500,9.67548046875,-0.04245510324835777,-0.12896881997585297,1.9410991668701172
1772810214986180600,9.6851806640625,-0.16310089826583862,0.004428769461810589,1.4673736095428467
1772810214995880700,9.694880615234375,-0.22724169492721558,0.2441931962966919,0.9081268310546875
1772810215005580800,9.704580810546876,-0.2715294063091278,0.5490147471427917,0.3736201822757721
1772810215015281000,9.714281005859375,-0.30604326725006104,0.8834632039070129,-0.02741255611181259
1772810215024981000,9.72398095703125,-0.3237583339214325,1.1937824487686157,-0.25557056069374084
1772810215034681300,9.733681396484375,-0.35277441143989563,1.3379465341567993,-0.33712100982666016
1772810215044381400,9.74338134765625,-0.36743515729904175,1.2640318870544434,-0.2998582422733307
1772810215054081500,9.75308154296875,-0.3032943606376648,1.0740530490875244,-0.16974404454231262
1772810215063781600,9.76278173828125,-0.1737910360097885,0.8370374441146851,-0.01672242395579815
1772810215073481700,9.772481689453125,-0.02107483521103859,0.6259836554527283,0.09262236952781677
1772810215083182000,9.78218212890625,0.11545344442129135,0.4741837978363037,0.1164461001753807
1772810215092882200,9.791882080078125,0.19853104650974274,0.38499751687049866,0.0657443255186081
1772810215102582300,9.801582275390626,0.20311254262924194,0.34315329790115356,-0.02802342176437378
1772810215112282400,9.811282470703125,0.15057817101478577,0.37583455443382263,-0.14683662354946136
1772810215121982500,9.820982421875,0.10598503798246384,0.4066832363605499,-0.2995528280735016
1772810215131682600,9.8306826171875,0.0974329337477684,0.4292852282524109,-0.47700902819633484
1772810215141383000,9.8403828125,0.1081230640411377,0.42195484042167664,-0.6788998246192932
1772810215151083000,9.8500830078125,0.1233946830034256,0.40057456493377686,-0.8820123672485352
1772810215160783000,9.859783203125,0.11881320178508759,0.4094321131706238,-1.0695478916168213
1772810215170483200,9.869483154296875,0.06902772188186646,0.40973755717277527,-1.2460877895355225
1772810215180183300,9.879183349609375,-0.023518294095993042,0.3318522870540619,-1.3917790651321411
1772810215189883400,9.88888330078125,-0.15027274191379547,0.233503058552742,-1.4730240106582642
1772810215199583700,9.898583740234375,-0.31459537148475647,0.12018764764070511,-1.511813998222351
1772810215209283800,9.908283935546875,-0.500298261642456,0.02153298258781433,-1.50906503200531
1772810215218984000,9.91798388671875,-0.656679630279541,-0.02390008419752121,-1.4476732015609741
1772810215228684000,9.92768408203125,-0.7791580557823181,0.0025961752980947495,-1.3138937950134277
1772810215238384000,9.937384033203125,-0.8384119272232056,0.13187043368816376,-1.08268141746521
1772810215248084200,9.947084228515624,-0.8368847370147705,0.29336780309677124,-0.7897717952728271
1772810215257784600,9.95678466796875,-0.8365793228149414,0.388662725687027,-0.5661953091621399
1772810215267484700,9.966484619140624,-0.8750637769699097,0.3529271185398102,-0.4800633490085602
1772810215277184800,9.976184814453125,-0.8918625712394714,0.11835505068302155,-0.4846448302268982
1772810215286884900,9.985884765625,-0.7632755637168884,-0.2701549530029297,-0.5313760042190552
1772810215296585000,9.9955849609375,-0.4471530318260193,-0.7212022542953491,-0.7085267901420593
1772810215306285000,10.00528515625,0.006719512399286032,-1.4548507928848267,-1.159650444984436
1772810215315985400,10.0149853515625,0.5305360555648804,-2.3167810440063477,-1.871918797492981
1772810215325685500,10.024685546875,0.9297361969947815,-2.4026074409484863,-2.5334854125976562
1772810215335385600,10.034385498046875,1.0344995260238647,-1.8259512186050415,-3.0292019844055176
1772810215345085700,10.044085693359374,0.898276686668396,-0.9579123258590698,-3.198106288909912
1772810215354785800,10.053785888671875,0.5772672295570374,0.01763872057199478,-2.938488721847534
1772810215364486000,10.06348583984375,0.17592905461788177,0.7741183638572693,-2.2915828227996826
1772810215374186200,10.073186279296875,-0.16554436087608337,1.1326960325241089,-1.5145628452301025
1772810215383886300,10.08288623046875,-0.30482152104377747,0.8584177494049072,-0.8084031939506531
1772810215393586400,10.09258642578125,-0.24220788478851318,0.11163553595542908,-0.12789981067180634
1772810215403286500,10.10228662109375,0.0027488914784044027,-0.5296961069107056,0.6243801712989807
1772810215412986600,10.111986572265625,0.3998109996318817,-0.7331140637397766,1.4627920389175415
1772810215422686700,10.121686767578124,0.8170316219329834,-0.7493020296096802,2.334190607070923
1772810215432387000,10.131386962890625,1.1145228147506714,-0.7236456871032715,3.164661407470703
1772810215442087200,10.141087158203124,1.2409718036651611,-0.5510764122009277,3.8027095794677734
1772810215451787300,10.150787353515625,1.1850776672363281,-0.13660463690757751,4.013152599334717
1772810215461487400,10.1604873046875,0.9663881063461304,0.5480984449386597,3.73734712600708
1772810215471187500,10.1701875,0.6420188546180725,1.4320197105407715,3.1554982662200928
1772810215480887600,10.179887451171876,0.2617555558681488,2.1696388721466064,2.5140902996063232
1772810215490588000,10.189587890625,-0.06811141967773438,2.6315290927886963,1.960341453552246
1772810215500288000,10.1992880859375,-0.27550002932548523,2.797302484512329,1.569998860359192
1772810215509988000,10.208988037109375,-0.37201663851737976,2.6082398891448975,1.4166717529296875
1772810215519688200,10.218688232421876,-0.44990190863609314,2.025780439376831,1.448742151260376
1772810215529388300,10.22838818359375,-0.5873464941978455,1.1088722944259644,1.4924190044403076
1772810215539088400,10.23808837890625,-0.7272345423698425,0.20967933535575867,1.3992621898651123
1772810215548788500,10.24778857421875,-0.7095194458961487,-0.20044000446796417,1.1848485469818115
1772810215558488800,10.25748876953125,-0.5983420610427856,-0.17478369176387787,0.8763619065284729
1772810215568189000,10.26718896484375,-0.4786125421524048,0.20601414144039154,0.5639045238494873
1772810215577889000,10.276888916015626,-0.3390299379825592,0.7945823669433594,0.35132360458374023
1772810215587589000,10.286589111328125,-0.14721840620040894,1.4170535802841187,0.29481860995292664
1772810215597289200,10.296289306640626,0.13622283935546875,1.7951788902282715,0.3693441152572632
1772810215606989300,10.3059892578125,0.4166097939014435,1.6522364616394043,0.5978075265884399
1772810215616689700,10.315689697265626,0.5256491303443909,0.984255850315094,0.9679915904998779
1772810215626389800,10.3253896484375,0.4401280879974365,0.015806125476956367,1.3632211685180664
1772810215636089900,10.33508984375,0.29413139820098877,-1.0666462182998657,1.5855759382247925
1772810215645790000,10.3447900390625,0.23335035145282745,-1.8277838230133057,1.451491117477417
1772810215655490000,10.354489990234375,0.24220788478851318,-1.9325470924377441,0.9627992510795593
1772810215665190100,10.364190185546875,0.26419901847839355,-1.568777084350586,0.22823435068130493
1772810215674890200,10.37389013671875,0.2461785078048706,-1.0174716711044312,-0.5918515920639038
1772810215684590600,10.383590576171875,0.18112140893936157,-0.312228262424469,-1.2448660135269165
1772810215694290700,10.393290771484375,0.07910698652267456,0.40057456493377686,-1.637346625328064
1772810215703990800,10.40299072265625,-0.05589412897825241,0.9198096394538879,-1.7735695838928223
1772810215713691000,10.41269091796875,-0.21930044889450073,1.188590168952942,-1.657199740409851
1772810215723391000,10.422390869140624,-0.3863719701766968,1.218522548675537,-1.326111078262329
1772810215733091000,10.432091064453125,-0.5088503360748291,1.0706932544708252,-0.8978948593139648
1772810215742791400,10.44179150390625,-0.5198459029197693,0.8645263910293579,-0.483423113822937
1772810215752491500,10.451491455078125,-0.3995055556297302,0.6491965651512146,-0.15661045908927917
1772810215762191600,10.461191650390624,-0.20280711352825165,0.44119709730148315,0.08132137358188629
1772810215771891700,10.4708916015625,0.022296564653515816,0.18555018305778503,0.25725042819976807
1772810215781591800,10.480591796875,0.21777328848838806,-0.13507747650146484,0.404468834400177
1772810215791292000,10.4902919921875,0.33139413595199585,-0.4310414493083954,0.5293906927108765
1772810215800992000,10.499991943359374,0.3698786199092865,-0.6433169841766357,0.5782598853111267
1772810215810692400,10.5096923828125,0.36285367608070374,-0.7034871578216553,0.5284743905067444
1772810215820392400,10.519392333984374,0.33750277757644653,-0.6848557591438293,0.38095054030418396
1772810215830092500,10.529092529296875,0.29901832342147827,-0.5962803959846497,0.16378812491893768
1772810215839792600,10.538792724609374,0.2620609998703003,-0.43195775151252747,-0.10346522182226181
1772810215849492700,10.54849267578125,0.20952661335468292,-0.3571268320083618,-0.4076758921146393
1772810215859192800,10.55819287109375,0.12980876863002777,-0.3986656367778778,-0.7375428676605225
1772810215868893200,10.56789306640625,0.06444623321294785,-0.4563923478126526,-1.0866520404815674
1772810215878593300,10.57759326171875,0.09834922850131989,-0.6042216420173645,-1.501734733581543
1772810215888293400,10.58729345703125,0.23884813487529755,-0.894687831401825,-1.9513311386108398
1772810215897993500,10.596993408203126,0.4786125421524048,-1.1854594945907593,-2.264704704284668
1772810215907693600,10.606693603515625,0.740368127822876,-1.2868629693984985,-2.334954261779785
1772810215917393700,10.6163935546875,0.9083559513092041,-1.3864339590072632,-2.220111608505249
1772810215927093800,10.62609375,0.9043853282928467,-1.42522394657135,-1.991953730583191
1772810215936794000,10.635794189453126,0.7559451460838318,-1.0953569412231445,-1.6617813110351562
1772810215946494200,10.645494140625,0.44440412521362305,-0.35651594400405884,-1.207297921180725
1772810215956194300,10.6551943359375,0.1331685185432434,0.4864010810852051,-0.7656426429748535
1772810215965894400,10.664894287109375,-0.020158538594841957,1.402698278427124,-0.5555051565170288
1772810215975594500,10.674594482421876,0.015577051788568497,1.6326888799667358,-0.8126792311668396
1772810215985294600,10.684294677734375,0.10506874322891235,0.8009964227676392,-1.6239076852798462
1772810215994995000,10.693994873046876,0.18173226714134216,-0.17569997906684875,-2.6382486820220947
1772810216004695000,10.703695068359375,0.4630354940891266,-0.7282271981239319,-3.4500880241394043
1772810216014395100,10.71339501953125,0.9370665550231934,-1.2471568584442139,-4.066755771636963
1772810216024095200,10.72309521484375,1.3924663066864014,-1.6100105047225952,-4.451906204223633
1772810216033795300,10.73279541015625,1.7498221397399902,-1.3882665634155273,-4.368828773498535
1772810216043495400,10.742495361328125,1.9468261003494263,-0.8161917328834534,-3.9201483726501465
1772810216053195800,10.75219580078125,1.588248372077942,-0.15706861019134521,-3.1599271297454834
1772810216062895900,10.761895751953125,0.8124501705169678,0.5548942685127258,-2.2109487056732178
1772810216072596000,10.771595947265626,0.11575887352228165,1.0151045322418213,-1.352072834968567
1772810216082296000,10.781296142578125,-0.2467893660068512,1.0865757465362549,-0.8065705895423889
1772810216091996200,10.79099609375,-0.34605491161346436,0.9439387917518616,-0.5683333277702332
1772810216101696300,10.8006962890625,-0.25961753726005554,0.8321505188941956,-0.6086503863334656
1772810216111396400,10.810396240234375,-0.15577052533626556,0.6873756051063538,-0.8896481990814209
1772810216121096700,10.8200966796875,-0.18784092366695404,0.4903717041015625,-1.3035091161727905
1772810216130796800,10.829796875,-0.3659079968929291,0.37094762921333313,-1.733863353729248
1772810216140497000,10.839496826171874,-0.6038398146629333,0.3361283540725708,-2.1125993728637695
1772810216150197000,10.849197021484375,-0.8258891701698303,0.3352120518684387,-2.3896267414093018
1772810216159897000,10.85889697265625,-0.9428697824478149,0.3092502951622009,-2.466290235519409
1772810216169597200,10.86859716796875,-0.9175189137458801,0.2838993966579437,-2.2915828227996826
1772810216179297500,10.878297607421874,-0.8005383014678955,0.2487746775150299,-1.8841360807418823
1772810216188997600,10.88799755859375,-0.6349939107894897,0.09880737960338593,-1.314810037612915
1772810216198697700,10.89769775390625,-0.4166097939014435,-0.2096029818058014,-0.6795107126235962
1772810216208397800,10.907397705078125,-0.2254091054201126,-0.6845503449440002,-0.04696023091673851
1772810216218098000,10.917097900390624,-0.13622283935546875,-1.1872920989990234,0.5281689763069153
1772810216227798000,10.926798095703125,-0.10140355676412582,-1.5504511594772339,0.9805143475532532
1772810216237498000,10.936498046875,-0.06322450190782547,-1.5098286867141724,1.098411202430725
1772810216247198500,10.946198486328125,0.06047561392188072,-1.1717150211334229,0.894687831401825
1772810216256898600,10.955898681640624,0.2211330533027649,-0.6863829493522644,0.6301833987236023
1772810216266598700,10.9655986328125,0.34086254239082336,-0.5263363718986511,0.35132360458374023
1772810216285998800,10.984998779296875,0.2776380479335785,-1.1852303743362427,0.13813179731369019
1772810216295699000,10.994698974609374,0.16829325258731842,-1.541288137435913,0.21082471311092377
1772810216305399000,11.00439892578125,0.09651663154363632,-1.698891282081604,0.25297439098358154
1772810216315099400,11.014099365234374,0.11056652665138245,-1.50738525390625,0.2716057598590851
1772810216324799500,11.023799560546875,0.19761475920677185,-1.0944405794143677,0.3110065162181854
1772810216334499600,11.03349951171875,0.3066541254520416,-0.7749583125114441,0.35468336939811707
1772810216344199700,11.04319970703125,0.39797839522361755,-0.5776489973068237,0.37056586146354675
1772810216353899800,11.052899658203126,0.457843154668808,-0.4197404682636261,0.3433823585510254
1772810216363600000,11.062599853515625,0.4682278633117676,-0.5364156365394592,0.27404922246932983
1772810216373300000,11.072300048828126,0.43401941657066345,-0.6845503449440002,0.18119776248931885
1772810216383000300,11.082000244140625,0.3808741867542267,-0.8314633369445801,0.02023489587008953
1772810216392700400,11.091700439453126,0.3338375985622406,-0.9059888124465942,-0.19509494304656982
1772810216402400500,11.101400390625,0.3433060050010681,-0.821384072303772,-0.43058329820632935
1772810216412100600,11.1111005859375,0.281914085149765,-0.6314051151275635,-0.6431642770767212
1772810216421800700,11.12080078125,0.2205221801996231,-0.42187848687171936,-0.7974076271057129
1772810216431500800,11.130500732421876,0.168904110789299,-0.22579088807106018,-0.843833327293396
1772810216441201000,11.140200927734375,0.13041962683200836,-0.09048434346914291,-0.8019890785217285
1772810216450901200,11.1499013671875,0.10598503798246384,-0.015729768201708794,-0.6993638277053833
1772810216460601300,11.159601318359375,0.11209368705749512,0.012675444595515728,-0.5628355145454407
1772810216470301400,11.169301513671876,0.11514800786972046,0.012675444595515728,-0.45593419671058655
1772810216480001500,11.17900146484375,0.08888082206249237,-0.007177661173045635,-0.38934993743896484
1772810216489701600,11.18870166015625,0.05864302068948746,-0.0553596206009388,-0.34200790524482727
1772810216499401700,11.198401611328125,0.054672397673130035,-0.12255474925041199,-0.31268641352653503
1772810216509102000,11.20810205078125,0.06291907280683517,-0.19066616892814636,-0.29619306325912476
1772810216518802200,11.21780224609375,0.06291907280683517,-0.224569171667099,-0.2827540338039398
1772810216528502300,11.227502197265625,0.05070177838206291,-0.2343430072069168,-0.27572908997535706
1772810216538202400,11.237202392578125,0.020158538594841957,-0.23128867149353027,-0.28641921281814575
1772810216547902500,11.24690234375,-0.014660755172371864,-0.19585852324962616,-0.3084103465080261
1772810216557602600,11.2566025390625,-0.043982263654470444,-0.12591449916362762,-0.32795801758766174
1772810216567303000,11.266302978515625,-0.07116574794054031,-0.03550651669502258,-0.34658941626548767
1772810216577003000,11.2760029296875,-0.10842850059270859,0.010842849500477314,-0.34872743487358093
1772810216586703000,11.285703125,-0.15760311484336853,0.0154243353754282,-0.3337612450122833
1772810216596403200,11.2954033203125,-0.20799945294857025,0.02367101050913334,-0.30199626088142395
1772810216606103300,11.305103271484375,-0.2513708472251892,0.04505127668380737,-0.2580140233039856
1772810216615803400,11.314803466796874,-0.28008151054382324,0.07528908550739288,-0.2225838601589203
1772810216625503700,11.324503662109375,-0.3020726442337036,0.0691804364323616,-0.1859319657087326
1772810216635203800,11.334203857421874,-0.31459537148475647,0.03252854943275452,-0.1245400533080101
1772810216644904000,11.343904052734375,-0.31062474846839905,-0.026343543082475662,-0.03871355578303337
1772810216654604000,11.35360400390625,-0.30543237924575806,-0.08834631741046906,0.059635672718286514
1772810216664304000,11.36330419921875,-0.3075704276561737,-0.1222493126988411,0.14149154722690582
1772810216674004200,11.373004150390624,-0.3130682110786438,-0.12286017835140228,0.1983019858598709
1772810216683704300,11.382704345703125,-0.3130682110786438,-0.12866339087486267,0.2349538654088974
1772810216693404700,11.39240478515625,-0.2984074354171753,-0.1421024203300476,0.26794055104255676
1772810216703104800,11.402104736328125,-0.2776380479335785,-0.16470441222190857,0.29817837476730347
1772810216712804900,11.411804931640624,-0.25503605604171753,-0.19188790023326874,0.3271944522857666
1772810216722505000,11.4215048828125,-0.23518294095993042,-0.21571162343025208,0.34979644417762756
1772810216732205000,11.431205078125,-0.22266021370887756,-0.25786128640174866,0.36690065264701843
1772810216741905200,11.4409052734375,-0.21716243028640747,-0.3073413372039795,0.37026041746139526
1772810216751605200,11.450605224609374,-0.21441353857517242,-0.3323867917060852,0.35987570881843567
1772810216761305600,11.4603056640625,-0.21899501979351044,-0.3485747277736664,0.33483025431632996
1772810216771005700,11.470005615234374,-0.22937972843647003,-0.3641517758369446,0.29848378896713257
1772810216780705800,11.479705810546875,-0.23029601573944092,-0.39255696535110474,0.26855143904685974
1772810216790406000,11.489406005859376,-0.21807873249053955,-0.41668614745140076,0.28321218490600586
1772810216800106000,11.49910595703125,-0.21868959069252014,-0.42829257249832153,0.2138790339231491
1772810216809806000,11.50880615234375,-0.2409861534833908,-0.3540725111961365,0.08712458610534668
1772810216819506200,11.518506103515625,-0.2678641974925995,-0.2618319094181061,-0.03535379841923714
1772810216829206300,11.528206298828126,-0.30054548382759094,-0.19127702713012695,-0.1963166743516922
1772810216838906600,11.53790673828125,-0.3533852696418762,-0.12835796177387238,-0.36216646432876587
1772810216848606700,11.547606689453126,-0.4272999167442322,-0.08743002265691757,-0.4935023784637451
1772810216858306800,11.557306884765625,-0.4978547990322113,-0.08834631741046906,-0.549091100692749
1772810216868007000,11.5670068359375,-0.5393936038017273,-0.09567669779062271,-0.5423715710639954
1772810216877707000,11.57670703125,-0.5445859432220459,-0.11308634281158447,-0.4699840843677521
1772810216887407000,11.586406982421876,-0.5201513767242432,-0.13538290560245514,-0.3853793144226074
