time,seconds_elapsed,z,y,x
1772810488942394000,0.10439404296875,0,0,0
1772810488961794000,0.1237939453125,-0.178375244140625,0.3299264907836914,0.024927854537963867
1772810488971494100,0.133494140625,0.02350902557373047,0.6008334159851074,0.013144850730895996
1772810488981194000,0.143194091796875,0.08707714080810547,0.5222940444946289,0.06980109214782715
1772810488990894000,0.15289404296875,-0.10838794708251953,-0.026013851165771484,0.32485973834991455
1772810489000594000,0.162593994140625,-0.33077144622802734,-0.4665799140930176,0.5246109366416931
1772810489010294000,0.1722939453125,-0.5705041885375977,-0.22186279296875,0.6397823691368103
1772810489019993900,0.181993896484375,-0.5690221786499023,-0.22703027725219727,0.20044565200805664
1772810489029693700,0.191693603515625,-0.7299251556396484,-0.44150209426879883,-0.08177351951599121
1772810489039393800,0.201393798828125,-0.9875936508178711,-0.7157225608825684,-0.04297494888305664
1772810489049093600,0.21109375,-1.2099075317382812,-0.39952898025512695,-0.1763993501663208
1772810489058793700,0.220793701171875,-1.1590681076049805,-0.10440254211425781,-0.13693249225616455
1772810489068493600,0.23049365234375,-1.0763683319091797,0.12011003494262695,0.18584883213043213
1772810489078193700,0.240193603515625,-0.893132209777832,0.35018062591552734,0.320001482963562
1772810489087893500,0.2498935546875,-0.7801837921142578,0.3824601173400879,0.44459235668182373
1772810489097593600,0.259593505859375,-0.9863348007202148,-0.026541709899902344,0.6683367490768433
1772810489107293400,0.26929345703125,-1.2778196334838867,-0.8602597713470459,1.0599279403686523
1772810489116993500,0.27899365234375,-1.3442316055297852,-1.9582619667053223,1.5951001644134521
1772810489126693400,0.288693359375,-1.065070629119873,-2.778545618057251,1.9556477069854736
1772810489136393500,0.2983935546875,-0.4462614059448242,-3.102307081222534,1.944342851638794
1772810489146093300,0.30809326171875,0.29452037811279297,-2.699634552001953,1.4383220672607422
1772810489155793200,0.317793212890625,1.345381736755371,-1.9432120323181152,0.5593003630638123
1772810489165493200,0.3274931640625,2.1856069564819336,-1.2220027446746826,-0.3682306110858917
1772810489175193000,0.337193115234375,1.9475469589233398,-0.7422952651977539,-0.8796043395996094
1772810489184893200,0.34689306640625,0.5860757827758789,-0.8738665580749512,-0.5143598914146423
1772810489194593000,0.356593017578125,-0.5621519088745117,-0.7650046348571777,-0.12522879242897034
1772810489204293000,0.366293212890625,-1.2018184661865234,-0.5646309852600098,-0.27191874384880066
1772810489213993000,0.375992919921875,-0.9772853851318359,-0.42383480072021484,-0.7778817415237427
1772810489223693000,0.385693115234375,-0.5928468704223633,-0.40847158432006836,-1.1334220170974731
1772810489233393000,0.395392822265625,-0.6351985931396484,-0.7258305549621582,-1.2059550285339355
1772810489243092700,0.4050927734375,-0.7330532073974609,-1.0984737873077393,-1.1171396970748901
1772810489252792800,0.414792724609375,-0.6979789733886719,-1.259286642074585,-0.993441641330719
1772810489262493000,0.424492919921875,-0.39722347259521484,-1.0012099742889404,-0.9478782415390015
1772810489272192800,0.43419287109375,-0.10155105590820312,-0.4610421657562256,-1.0494396686553955
1772810489281892900,0.443892822265625,-0.5237045288085938,-0.06918191909790039,-0.8234037756919861
1772810489291592700,0.4535927734375,-1.9657773971557617,-0.09381747245788574,-0.4106302261352539
1772810489301292500,0.46329248046875,-2.3666739463806152,-0.6132473945617676,-0.380251944065094
1772810489310992600,0.47299267578125,-2.423360824584961,-0.860206127166748,-0.5318189263343811
1772810489320692500,0.4826923828125,-1.936814308166504,-0.5340349674224854,-0.8127771019935608
1772810489330392600,0.492392578125,-1.6157350540161133,-0.17474055290222168,-1.0219509601593018
1772810489340092400,0.502092529296875,-1.998927116394043,-0.34522080421447754,-0.7499444484710693
1772810489349792500,0.51179248046875,-2.6014795303344727,-0.5802066326141357,0.07813382148742676
1772810489359492400,0.521492431640625,-3.0440802574157715,-0.4907846450805664,1.4140129089355469
1772810489369192400,0.5311923828125,-2.371112823486328,-0.47360706329345703,1.323559284210205
1772810489378892300,0.540892333984375,-2.4826674461364746,-0.6436851024627686,1.224967122077942
1772810489388592000,0.550592041015625,-2.566621780395508,-0.6084821224212646,0.8362419605255127
1772810489398292200,0.560292236328125,-2.99979305267334,-0.594395637512207,0.5297924876213074
1772810489407992000,0.569991943359375,-3.7453346252441406,-0.5013595819473267,-0.1426970362663269
1772810489417692200,0.579692138671875,-3.885129928588867,0.398792028427124,-1.8167667388916016
1772810489427392000,0.58939208984375,-4.719048500061035,1.5229287147521973,-2.048175096511841
1772810489437092000,0.599092041015625,-5.560019493103027,1.0190765857696533,-1.0291974544525146
1772810489446792000,0.6087919921875,-6.019160270690918,-0.7798919677734375,0.6760063171386719
1772810489456492000,0.618491943359375,-5.934382915496826,-1.4443591833114624,0.9615933895111084
1772810489466192000,0.62819189453125,-6.010213851928711,-1.2621831893920898,0.9406949281692505
1772810489475892000,0.63789208984375,-5.647552490234375,-0.9117328524589539,0.9284107685089111
1772810489485591800,0.647591796875,-5.0456624031066895,-0.9948267936706543,0.8862228393554688
1772810489495292000,0.6572919921875,-4.513099193572998,-0.9800046682357788,1.0327991247177124
1772810489504991700,0.66699169921875,-3.9640536308288574,-0.8236876726150513,1.5577067136764526
1772810489514691600,0.676691650390625,-3.264535903930664,-0.8423609733581543,2.1488046646118164
1772810489524391700,0.6863916015625,-2.4377331733703613,-1.0073872804641724,2.5088083744049072
1772810489534091500,0.696091552734375,0.3215322494506836,-0.6261188387870789,2.233999252319336
1772810489543791600,0.70579150390625,1.0823431015014648,-0.41276100277900696,2.871844530105591
1772810489553491500,0.715491455078125,1.6585407257080078,-1.0988080501556396,3.053544521331787
1772810489563191600,0.725191650390625,2.8623762130737305,-1.7738763093948364,3.0314035415649414
1772810489572891400,0.734891357421875,3.586604118347168,-1.6389741897583008,2.6476738452911377
1772810489582591500,0.744591552734375,3.9203386306762695,-0.9919000864028931,2.0644428730010986
1772810489592291300,0.754291259765625,4.163284778594971,-0.48313891887664795,1.5115787982940674
1772810489601991200,0.7639912109375,4.875372886657715,-0.06845879554748535,1.3976190090179443
1772810489611691300,0.773691162109375,5.637465000152588,0.2916370630264282,1.3881380558013916
1772810489621391400,0.783391357421875,6.068650722503662,0.7044618129730225,1.3981683254241943
1772810489631091200,0.79309130859375,6.413647651672363,1.2013027667999268,1.26338529586792
1772810489640791300,0.802791259765625,6.687979221343994,1.6201444864273071,0.9970443248748779
1772810489650491100,0.8124912109375,7.0416412353515625,1.9936846494674683,0.76242995262146
1772810489660191000,0.82219091796875,6.99916934967041,2.1680004596710205,0.4963555335998535
1772810489669891000,0.83189111328125,6.406534671783447,2.28424072265625,0.1993701457977295
1772810489679591000,0.8415908203125,5.706186771392822,2.5152125358581543,-0.1655440330505371
1772810489689291000,0.851291015625,5.03582763671875,2.750281810760498,-0.6688508987426758
1772810489698990800,0.860990966796875,4.90265417098999,3.1243395805358887,-1.0623447895050049
1772810489708691000,0.87069091796875,5.008800029754639,3.520313262939453,-1.533737063407898
1772810489718390800,0.880390869140625,4.95816707611084,3.692312479019165,-1.8958590030670166
1772810489728091000,0.8900908203125,5.165792465209961,3.674992322921753,-2.0884571075439453
1772810489737790700,0.899790771484375,5.5041704177856445,3.4798407554626465,-2.17230486869812
1772810489747490600,0.909490478515625,5.65608024597168,3.2557733058929443,-2.1198208332061768
1772810489757190700,0.919190673828125,5.873615741729736,2.9893040657043457,-2.041086196899414
1772810489766890500,0.928890380859375,6.0702385902404785,2.8156819343566895,-1.9543451070785522
1772810489776590600,0.938590576171875,6.017790794372559,2.5640411376953125,-1.6864659786224365
1772810489786290700,0.948290771484375,5.978809356689453,2.4075281620025635,-1.5375059843063354
1772810489795990500,0.957990478515625,6.084096908569336,2.4457459449768066,-1.415819525718689
1772810489805690400,0.9676904296875,6.098681449890137,2.309274673461914,-1.1971780061721802
1772810489815390500,0.977390380859375,6.118396759033203,2.0184359550476074,-0.689706563949585
1772810489825090300,0.98709033203125,6.498621940612793,1.8048312664031982,-0.16355180740356445
1772810489834790400,0.996790283203125,7.011823654174805,1.5610334873199463,0.33531856536865234
1772810489844490200,1.006490234375,7.818719863891602,1.2707254886627197,1.135218858718872
1772810489854190300,1.0161904296875,8.904077529907227,1.129197120666504,1.9412002563476562
1772810489863890200,1.02589013671875,9.587759017944336,1.1937977075576782,3.2187399864196777
1772810489873590300,1.03559033203125,10.440545082092285,0.3577849864959717,5.595722198486328
1772810489883290000,1.0452900390625,11.53915786743164,-0.7669241428375244,8.463033676147461
1772810489892990000,1.054989990234375,12.699569702148438,-1.3011741638183594,11.052835464477539
1772810489902690000,1.06468994140625,13.99293327331543,-1.398625373840332,12.667031288146973
1772810489912390000,1.074389892578125,15.533432960510254,-1.4252620935440063,13.715270042419434
1772810489922090000,1.084090087890625,17.352508544921875,-1.9137095212936401,14.391082763671875
1772810489931789800,1.093789794921875,19.68381690979004,-2.386988639831543,13.68234920501709
1772810489941490000,1.103489990234375,21.640811920166016,-3.4262642860412598,12.201651573181152
1772810489951189800,1.113189697265625,22.25503158569336,-5.57697868347168,10.914219856262207
1772810489960889900,1.122889892578125,21.63789176940918,-7.624953269958496,8.831147193908691
1772810489970589700,1.132589599609375,20.101062774658203,-8.497495651245117,6.1777424812316895
1772810489980289800,1.142289794921875,17.945106506347656,-8.229279518127441,3.4970898628234863
1772810489989989600,1.15198974609375,15.420575141906738,-7.089893341064453,1.2212605476379395
1772810489999689700,1.161689697265625,12.424202919006348,-5.283229351043701,-0.3244004249572754
1772810490009389600,1.1713896484375,9.370034217834473,-3.4422597885131836,-1.46834135055542
1772810490019089400,1.18108935546875,6.519961357116699,-1.7149550914764404,-2.861495018005371
1772810490028789500,1.19078955078125,4.001187324523926,-0.28904640674591064,-4.447311878204346
1772810490038489300,1.2004892578125,1.8325815200805664,0.7296309471130371,-6.074295997619629
1772810490048189400,1.210189453125,0.04811668395996094,0.9537079334259033,-7.557893753051758
1772810490057889300,1.21988916015625,-1.635528564453125,0.7433052062988281,-8.956035614013672
1772810490067589400,1.22958935546875,-2.6018238067626953,0.40250587463378906,-10.168889999389648
1772810490077289200,1.239289306640625,-3.4492573738098145,-0.24245262145996094,-10.576830863952637
1772810490086989300,1.2489892578125,-4.759011268615723,-1.3752305507659912,-9.924999237060547
1772810490096689200,1.258689208984375,-6.280803680419922,-2.375749349594116,-8.574396133422852
1772810490106389000,1.268388916015625,-7.420587539672852,-3.01078462600708,-7.222111701965332
1772810490116089000,1.278089111328125,-8.680217742919922,-3.5134193897247314,-6.098413944244385
1772810490125789000,1.287788818359375,-10.069365501403809,-4.221330165863037,-5.013469696044922
1772810490135489000,1.297489013671875,-11.006224632263184,-4.14344596862793,-4.838773250579834
1772810490145189000,1.307189208984375,-11.414376258850098,-3.243054151535034,-4.764204025268555
1772810490154889000,1.316888916015625,-12.464691162109375,-3.5625510215759277,-4.55956506729126
1772810490164588800,1.3265888671875,-12.511313438415527,-4.334890365600586,-4.2256598472595215
1772810490174289000,1.336288818359375,-12.387178421020508,-4.483404159545898,-4.218965530395508
1772810490183988700,1.34598876953125,-12.4126558303833,-4.39307165145874,-4.206699848175049
1772810490193688800,1.355688720703125,-12.15532398223877,-4.4388580322265625,-3.987051010131836
1772810490203388700,1.365388671875,-11.553070068359375,-4.704512596130371,-3.6260766983032227
1772810490213088800,1.3750888671875,-11.021658897399902,-4.983281135559082,-3.2749922275543213
1772810490222788600,1.38478857421875,-10.50683879852295,-5.224263668060303,-2.908257007598877
1772810490232488700,1.39448876953125,-9.970708847045898,-5.515859603881836,-2.5520410537719727
1772810490242188500,1.4041884765625,-9.504165649414062,-5.778088569641113,-2.290154218673706
1772810490251888400,1.413888427734375,-9.159588813781738,-6.0613226890563965,-2.049823760986328
1772810490261588500,1.42358837890625,-8.910842895507812,-6.367724418640137,-1.8028442859649658
1772810490271288800,1.433288818359375,-8.81043815612793,-6.597251892089844,-1.6733657121658325
1772810490280988700,1.44298876953125,-8.743474960327148,-6.7588300704956055,-1.59489905834198
1772810490290688800,1.452688720703125,-8.65264892578125,-6.877381801605225,-1.5805233716964722
1772810490300388600,1.462388671875,-8.557626724243164,-7.049471378326416,-1.5568113327026367
1772810490310088700,1.472088623046875,-8.510140419006348,-7.221370697021484,-1.487303614616394
1772810490319788500,1.48178857421875,-8.489336967468262,-7.400748252868652,-1.3703821897506714
1772810490329488600,1.491488525390625,-8.35128116607666,-7.526915550231934,-1.3388692140579224
1772810490339188500,1.5011884765625,-8.09644603729248,-7.5992584228515625,-1.3738126754760742
1772810490348888600,1.510888671875,-7.96506404876709,-7.6490983963012695,-1.2965774536132812
1772810490358588400,1.52058837890625,-7.760921478271484,-7.713344097137451,-1.1810276508331299
1772810490368288300,1.530288330078125,-7.510756015777588,-7.86332893371582,-1.0420472621917725
1772810490377988400,1.53998828125,-7.278148174285889,-7.906168460845947,-0.840652346611023
1772810490387688200,1.549688232421875,-7.108356952667236,-7.889589786529541,-0.6782957315444946
1772810490397388300,1.55938818359375,-6.988836765289307,-7.918331623077393,-0.48066258430480957
1772810490407088000,1.569088134765625,-6.986352920532227,-7.98043155670166,-0.26524919271469116
1772810490416788200,1.578788330078125,-6.9957380294799805,-7.930660724639893,-0.1627863645553589
1772810490426488000,1.588488037109375,-7.0648512840271,-7.746346473693848,-0.15368437767028809
1772810490436188200,1.598188232421875,-7.279268264770508,-7.547231197357178,-0.11381375789642334
1772810490445888000,1.607887939453125,-7.3108649253845215,-6.962858200073242,-0.5047866106033325
1772810490455588000,1.617588134765625,-6.994781017303467,-6.3016510009765625,-0.4673801064491272
1772810490465288000,1.627287841796875,-6.736780166625977,-5.875476360321045,-0.3102220594882965
1772810490474988000,1.636988037109375,-6.360246181488037,-5.281363487243652,-0.245564267039299
1772810490484688000,1.64668798828125,-5.933621406555176,-4.163991928100586,-0.6159116625785828
1772810490494387700,1.6563876953125,-5.424166679382324,-2.664064884185791,-0.892743706703186
1772810490504087800,1.666087890625,-4.875632286071777,-1.4062304496765137,-0.9420795440673828
1772810490513787600,1.67578759765625,-4.448925971984863,-0.30884504318237305,-1.0159926414489746
1772810490523487700,1.68548779296875,-3.9306936264038086,2.1586999893188477,-2.345505714416504
1772810490533187600,1.6951875,-2.0966176986694336,5.832726001739502,-4.10873556137085
1772810490542887700,1.7048876953125,2.724419593811035,5.316790580749512,-1.7659815549850464
1772810490552587500,1.71458740234375,9.688156127929688,2.5409018993377686,1.2538803815841675
1772810490562287600,1.72428759765625,16.496051788330078,2.31998610496521,3.1575355529785156
1772810490571987500,1.733987548828125,23.828853607177734,1.42378830909729,7.199644088745117
1772810490581687300,1.743687255859375,28.846851348876953,-2.691991090774536,12.889764785766602
1772810490591387400,1.753387451171875,28.835269927978516,-5.027755260467529,16.99458122253418
1772810490601087200,1.763087158203125,28.971569061279297,-2.366504669189453,15.43245792388916
1772810490610787300,1.772787353515625,28.680999755859375,0.6417232751846313,11.407596588134766
1772810490620487400,1.7824873046875,25.119693756103516,2.2663793563842773,8.328595161437988
1772810490630187300,1.792187255859375,21.077274322509766,4.478201389312744,5.720611572265625
1772810490639887000,1.80188720703125,17.10824203491211,6.654527187347412,3.4462780952453613
1772810490649587200,1.811587158203125,13.606220245361328,7.661219596862793,2.158886432647705
1772810490659287000,1.821287109375,10.689789772033691,7.493064880371094,1.68050217628479
1772810490668987100,1.830987060546875,7.894092559814453,6.866655349731445,1.6612040996551514
1772810490678687000,1.84068701171875,5.4086198806762695,6.206489562988281,1.6461641788482666
1772810490688387000,1.850386962890625,2.9928770065307617,5.599437713623047,1.5263047218322754
1772810490698087000,1.8600869140625,0.7129793167114258,5.107405662536621,1.2943274974822998
1772810490707787000,1.869787109375,-1.0913314819335938,4.688512802124023,0.9698481559753418
1772810490717486800,1.87948681640625,-2.6555490493774414,4.421385288238525,0.5634050369262695
1772810490727186700,1.889186767578125,-4.041548728942871,4.138973236083984,0.039072513580322266
1772810490736886800,1.89888671875,-5.218966007232666,3.8897552490234375,-0.5247538089752197
1772810490746586600,1.908586669921875,-6.292357444763184,3.676072120666504,-1.0198676586151123
1772810490756286700,1.91828662109375,-7.29402494430542,3.4146370887756348,-1.5109336376190186
1772810490765986600,1.927986572265625,-8.018868446350098,3.0627832412719727,-1.970508098602295
1772810490775686700,1.937686767578125,-8.289042472839355,2.6019649505615234,-2.447035789489746
1772810490785386500,1.947386474609375,-8.209656715393066,2.0969772338867188,-2.842094898223877
1772810490795086600,1.957086669921875,-7.94600248336792,1.6857197284698486,-3.1525306701660156
1772810490804786400,1.966786376953125,-7.611300945281982,1.2988815307617188,-3.405357837677002
1772810490814486300,1.976486328125,-7.276797771453857,1.0041851997375488,-3.6074769496917725
1772810490824186400,1.986186279296875,-7.065848350524902,0.7628766298294067,-3.7484498023986816
1772810490833886200,1.99588623046875,-6.92793083190918,0.6538357138633728,-3.8138084411621094
1772810490843586300,2.00558642578125,-6.999998092651367,0.5439481735229492,-3.818375587463379
1772810490853286100,2.0152861328125,-7.245174884796143,0.02281661331653595,-3.493957042694092
1772810490862986200,2.024986328125,-7.692126750946045,-0.11871302127838135,-3.731271743774414
1772810490872686000,2.03468603515625,-7.414374828338623,0.33899372816085815,-4.044193267822266
1772810490882386200,2.04438623046875,-7.696195125579834,0.5827767252922058,-4.160539150238037
1772810490892086000,2.0540859375,-8.132251739501953,0.3423762917518616,-4.250312805175781
1772810490901786000,2.0637861328125,-8.222357749938965,0.10148662328720093,-4.226382732391357
1772810490911486000,2.07348583984375,-8.08102798461914,0.03874453902244568,-4.346763610839844
1772810490921186000,2.08318603515625,-8.037219047546387,-0.0715358555316925,-4.424328804016113
1772810490930886000,2.092885986328125,-8.117532730102539,-0.16607427597045898,-4.479787349700928
1772810490940585700,2.102585693359375,-8.162657737731934,-0.2744407653808594,-4.553640842437744
1772810490950285800,2.112285888671875,-8.193235397338867,-0.3670938014984131,-4.621359825134277
1772810490959985700,2.121985595703125,-8.03353500366211,-0.5563693046569824,-4.590083599090576
1772810490969685800,2.131685791015625,-7.7827534675598145,-0.8142868876457214,-4.572432518005371
1772810490979385600,2.141385498046875,-7.290396213531494,-1.1189426183700562,-4.4793291091918945
1772810490989085700,2.151085693359375,-6.4002203941345215,-1.5101515054702759,-4.21484375
1772810490998785500,2.16078564453125,-5.471808910369873,-1.7109463214874268,-3.436321496963501
1772810491008485600,2.170485595703125,-4.777764797210693,-1.7371718883514404,-2.0871176719665527
1772810491018185500,2.180185546875,-3.9968361854553223,-1.8365070819854736,-0.48943138122558594
1772810491027885300,2.18988525390625,-2.1053977012634277,-2.214778184890747,0.7883744239807129
1772810491037585400,2.19958544921875,0.9120678901672363,-2.522614002227783,1.6456036567687988
1772810491047285200,2.20928515625,3.386739730834961,-2.117136001586914,2.598212242126465
1772810491056985300,2.2189853515625,4.778943061828613,-1.255423665046692,4.815556049346924
1772810491066685400,2.228685546875,7.078432083129883,-1.0035680532455444,7.978957653045654
1772810491076385300,2.23838525390625,11.459861755371094,-1.8593376874923706,10.967369079589844
1772810491086085000,2.248085205078125,17.045787811279297,-3.1479039192199707,13.58038330078125
1772810491095785200,2.25778515625,22.909313201904297,-4.057271480560303,15.485679626464844
1772810491105485000,2.267485107421875,27.745643615722656,-4.212390899658203,16.737640380859375
1772810491115185000,2.277184814453125,30.038070678710938,-4.563939094543457,17.919960021972656
1772810491124885000,2.286885009765625,30.187633514404297,-4.48853063583374,19.120330810546875
1772810491134585000,2.296585205078125,29.407005310058594,-4.138094902038574,19.306364059448242
1772810491144285000,2.306284912109375,28.715656280517578,-4.773013591766357,18.598873138427734
1772810491153985000,2.315985107421875,27.313074111938477,-4.799318313598633,17.673114776611328
1772810491163684900,2.325684814453125,25.643962860107422,-4.8498334884643555,16.27838134765625
1772810491173384700,2.335384765625,23.536823272705078,-5.426530361175537,14.848278045654297
1772810491183084800,2.345084716796875,20.949398040771484,-5.576667785644531,12.946226119995117
1772810491192784600,2.35478466796875,18.09888458251953,-5.140599250793457,11.052814483642578
1772810491202484700,2.364484619140625,14.942915916442871,-4.518523693084717,9.151108741760254
1772810491212184600,2.3741845703125,11.756169319152832,-3.6342554092407227,7.14861536026001
1772810491221884700,2.383884765625,8.731600761413574,-2.6173489093780518,5.368550777435303
1772810491231584500,2.39358447265625,5.8169660568237305,-1.5811787843704224,3.815370559692383
1772810491241284600,2.40328466796875,2.9994945526123047,-0.7157052159309387,2.072348117828369
1772810491250984400,2.412984375,0.391326904296875,0.16513586044311523,0.23437261581420898
1772810491260684300,2.422684326171875,-2.071953296661377,0.8619900941848755,-1.4429054260253906
1772810491270384400,2.43238427734375,-4.458715915679932,1.182225227355957,-3.0246694087982178
1772810491280084200,2.442084228515625,-6.667325496673584,1.1780965328216553,-4.636069297790527
1772810491289784300,2.451784423828125,-8.504192352294922,0.8893774747848511,-6.291288375854492
1772810491299484400,2.461484375,-9.500181198120117,0.29283273220062256,-7.717972755432129
1772810491309184300,2.471184326171875,-9.593185424804688,-0.3349250555038452,-8.645774841308594
1772810491318884000,2.480884033203125,-9.257210731506348,-1.0656123161315918,-9.096107482910156
1772810491328584200,2.490584228515625,-8.79750919342041,-1.994057297706604,-9.075299263000488
1772810491338284000,2.500283935546875,-8.552831649780273,-2.9827029705047607,-8.419054985046387
1772810491347984000,2.50998388671875,-8.763566970825195,-3.7919344902038574,-7.6121673583984375
1772810491357684000,2.51968408203125,-9.293304443359375,-4.441598415374756,-7.076458930969238
1772810491367384000,2.529384033203125,-9.771263122558594,-4.883378028869629,-6.8120646476745605
1772810491377084000,2.539083984375,-10.032691955566406,-4.973773002624512,-6.73675537109375
1772810491386784000,2.548783935546875,-10.182363510131836,-4.940144062042236,-6.758536338806152
1772810491396483800,2.55848388671875,-10.167236328125,-4.798270225524902,-6.934332847595215
1772810491406183700,2.56818359375,-10.051755905151367,-4.602817535400391,-7.035155296325684
1772810491415883800,2.5778837890625,-9.77449893951416,-4.3820013999938965,-6.944902420043945
1772810491425583600,2.58758349609375,-9.472038269042969,-4.10588264465332,-6.950121879577637
1772810491435283700,2.59728369140625,-9.459052085876465,-3.8807120323181152,-7.00208854675293
1772810491444983600,2.606983642578125,-9.473884582519531,-3.8193352222442627,-7.0492634773254395
1772810491454683600,2.61668359375,-9.371150970458984,-3.7930986881256104,-7.008586883544922
1772810491464383500,2.626383544921875,-9.423422813415527,-3.80471134185791,-6.962738990783691
1772810491474083600,2.63608349609375,-9.529565811157227,-3.774996519088745,-6.953001976013184
1772810491483783400,2.645783447265625,-9.555316925048828,-3.776270627975464,-7.009324550628662
1772810491493483300,2.655483154296875,-9.512306213378906,-3.7945282459259033,-7.053016662597656
1772810491503183400,2.665183349609375,-9.437941551208496,-3.834333896636963,-7.028168678283691
1772810491512883200,2.67488330078125,-9.387970924377441,-3.878091335296631,-6.9778923988342285
1772810491522583300,2.684583251953125,-9.40134048461914,-3.904812812805176,-6.830754280090332
1772810491532283100,2.694283203125,-9.462482452392578,-3.911198616027832,-6.615545272827148
1772810491541983200,2.703983154296875,-9.35413932800293,-3.9547462463378906,-6.395995616912842
1772810491551683000,2.71368310546875,-9.16152572631836,-4.044636249542236,-6.176944732666016
1772810491561383200,2.723383056640625,-8.997407913208008,-4.0949859619140625,-5.949366569519043
1772810491571083000,2.7330830078125,-8.761734008789062,-4.034189701080322,-5.69228458404541
1772810491580782800,2.742782958984375,-8.536173820495605,-3.9707751274108887,-5.4479193687438965
1772810491590483000,2.75248291015625,-8.336697578430176,-3.9631409645080566,-5.213189125061035
1772810491600182800,2.762182861328125,-8.054364204406738,-3.851944923400879,-4.969883441925049
1772810491609883000,2.7718828125,-7.799077033996582,-3.7884554862976074,-4.667980670928955
1772810491619582700,2.781582763671875,-7.562952041625977,-3.8168785572052,-4.321482181549072
1772810491629282800,2.79128271484375,-7.302133083343506,-3.787041187286377,-4.0869245529174805
1772810491638982700,2.800982666015625,-6.997695446014404,-3.7270100116729736,-3.818066358566284
1772810491648682800,2.810682861328125,-6.65217924118042,-3.8218369483947754,-3.13482666015625
1772810491658382600,2.820382568359375,-6.128879070281982,-3.7775814533233643,-2.164215087890625
1772810491668082400,2.83008251953125,-5.293335914611816,-3.4476799964904785,-1.3322210311889648
1772810491677782500,2.839782470703125,-3.7746853828430176,-3.068981170654297,-0.7048096656799316
1772810491687482600,2.849482666015625,-2.07210636138916,-2.375678777694702,-0.2732372283935547
1772810491697182500,2.859182373046875,-0.17473936080932617,-1.5077755451202393,0.46666812896728516
1772810491706882300,2.86888232421875,2.034979820251465,-0.6372621059417725,2.1126608848571777
1772810491716582400,2.87858251953125,7.382491111755371,1.3862435817718506,3.304006338119507
1772810491726282200,2.8882822265625,15.24594783782959,3.6072793006896973,3.1846141815185547
1772810491745682200,2.90768212890625,26.87253761291504,-1.4707190990447998,11.648503303527832
1772810491755382300,2.91738232421875,29.12582778930664,-2.135694742202759,14.508125305175781
1772810491765082000,2.92708203125,28.301410675048828,-1.3929020166397095,15.35934829711914
1772810491774782200,2.9367822265625,25.268291473388672,-2.1832404136657715,16.065811157226562
1772810491784482000,2.94648193359375,21.266231536865234,-1.5966851711273193,14.416952133178711
1772810491794182000,2.956181884765625,17.599472045898438,0.4813193082809448,10.712482452392578
1772810491803882000,2.965882080078125,13.908613204956055,1.967671275138855,7.286679267883301
1772810491813581800,2.975581787109375,10.876940727233887,2.706672191619873,4.662640571594238
1772810491823282000,2.985281982421875,8.936367988586426,3.352644920349121,2.4779722690582275
1772810491832981800,2.994981689453125,7.743995666503906,3.8635261058807373,0.9480488300323486
1772810491842681900,3.004681884765625,6.927669525146484,4.121448516845703,-0.10215258598327637
1772810491852381700,3.014381591796875,6.107806205749512,4.633589744567871,-1.0836167335510254
1772810491862081800,3.024081787109375,5.154523849487305,4.665687561035156,-1.2986589670181274
1772810491871781600,3.03378173828125,3.9898557662963867,3.919025421142578,-0.7267084121704102
1772810491881481500,3.0434814453125,2.526165008544922,3.2461485862731934,-0.04536294937133789
1772810491891181600,3.053181640625,1.1755084991455078,3.093519687652588,0.06838703155517578
1772810491900881400,3.06288134765625,0.07361030578613281,3.206204652786255,0.09012389183044434
1772810491910581500,3.07258154296875,-1.1602325439453125,3.2819578647613525,0.14311909675598145
1772810491920281300,3.08228125,-2.3691458702087402,3.32416033744812,0.009407520294189453
1772810491929981400,3.0919814453125,-3.3354334831237793,3.304248809814453,-0.3167226314544678
1772810491939681300,3.101681396484375,-4.165926456451416,3.218172550201416,-0.76271653175354
1772810491949381400,3.11138134765625,-4.922751426696777,3.0515401363372803,-1.2404234409332275
1772810491959081200,3.121081298828125,-5.615560054779053,2.9207208156585693,-1.7112092971801758
1772810491968781000,3.130781005859375,-6.245394706726074,2.802037477493286,-2.100184917449951
1772810491978481200,3.140481201171875,-6.698390960693359,2.6462748050689697,-2.5378737449645996
1772810491988181000,3.150180908203125,-6.9462199211120605,2.4919214248657227,-2.8665874004364014
1772810491997881000,3.159881103515625,-7.102540969848633,2.3267054557800293,-3.058082103729248
1772810492007581200,3.169581298828125,-7.24446439743042,2.0935263633728027,-3.188390016555786
1772810492017281000,3.179281005859375,-7.351806163787842,1.8166143894195557,-3.3111913204193115
1772810492026980900,3.18898095703125,-7.365486145019531,1.580970048904419,-3.3235855102539062
1772810492036681000,3.198680908203125,-7.424807548522949,1.4015953540802002,-3.3407278060913086
1772810492046380800,3.208380859375,-7.628269195556641,1.2170039415359497,-3.389228582382202
1772810492056080600,3.21808056640625,-7.936450958251953,0.9497793316841125,-3.5033624172210693
1772810492065780700,3.22778076171875,-8.017412185668945,0.8996840715408325,-3.5206997394561768
1772810492075480600,3.23748046875,-8.168216705322266,0.8913710117340088,-3.4866957664489746
1772810492085180700,3.2471806640625,-8.22150993347168,0.6343234777450562,-3.339998722076416
1772810492094880800,3.256880859375,-8.274345397949219,0.4059995710849762,-3.254026174545288
1772810492104580600,3.26658056640625,-8.197457313537598,0.3894577920436859,-3.4039173126220703
1772810492114280400,3.276280517578125,-8.079230308532715,0.44176873564720154,-3.6677803993225098
1772810492123980500,3.28598046875,-8.116015434265137,0.5527853965759277,-3.786024570465088
1772810492133680400,3.295680419921875,-8.130311965942383,0.527924656867981,-3.8216288089752197
1772810492143380200,3.305380126953125,-7.91756010055542,0.41864213347435,-3.9319474697113037
1772810492153080300,3.315080322265625,-7.73477840423584,0.4551471769809723,-4.019129753112793
1772810492162780400,3.324780517578125,-7.585027694702148,0.5676150321960449,-4.0325398445129395
1772810492172480300,3.334480224609375,-7.266385555267334,0.528518557548523,-3.7443273067474365
1772810492182180400,3.344180419921875,-6.753643035888672,0.48295044898986816,-3.386855125427246
1772810492191880200,3.353880126953125,-5.951557159423828,0.6056804656982422,-3.176074981689453
1772810492201580000,3.363580078125,-4.934838771820068,0.7679888010025024,-2.992327928543091
1772810492211280100,3.373280029296875,-3.7064523696899414,0.8378892540931702,-2.7270963191986084
1772810492220980000,3.38297998046875,-2.2029781341552734,0.8889988660812378,-2.6417737007141113
1772810492230680000,3.39268017578125,-0.3165764808654785,0.9381116628646851,-2.3015451431274414
1772810492240380000,3.4023798828125,2.5554122924804688,0.590855598449707,-1.138598918914795
1772810492250080000,3.412080078125,7.677799701690674,0.5665612816810608,0.8999991416931152
1772810492259779800,3.42177978515625,14.323352813720703,1.6019846200942993,3.258394718170166
1772810492269480000,3.43147998046875,19.464176177978516,2.1904492378234863,7.905813217163086
1772810492279179800,3.4411796875,22.23341178894043,1.052040696144104,14.902673721313477
1772810492288879600,3.450879638671875,23.20590591430664,-1.2868802547454834,20.83974838256836
1772810492298579700,3.460579833984375,22.535518646240234,-2.9094386100769043,24.144235610961914
1772810492308279600,3.470279541015625,21.339950561523438,-2.434544086456299,24.184547424316406
1772810492317979600,3.479979736328125,21.10259246826172,-1.8393685817718506,22.246370315551758
1772810492327679500,3.489679443359375,22.0439453125,-1.4624762535095215,19.279422760009766
1772810492337379600,3.499379638671875,24.34033203125,-1.4745984077453613,16.797752380371094
1772810492347079400,3.509079345703125,27.784259796142578,-1.9938335418701172,15.201988220214844
1772810492356779500,3.518779541015625,31.547819137573242,-3.1073598861694336,14.81933879852295
1772810492366479400,3.528479248046875,34.8788948059082,-4.113214015960693,16.10418701171875
1772810492376179200,3.53817919921875,36.56096267700195,-4.98759126663208,18.452417373657227
1772810492385879300,3.54787939453125,36.23763656616211,-5.832502365112305,21.170501708984375
1772810492395579100,3.5575791015625,33.17393112182617,-6.268887519836426,22.99611473083496
1772810492405279200,3.567279296875,27.600427627563477,-5.563032150268555,22.178207397460938
1772810492414979000,3.57697900390625,21.239498138427734,-4.339386940002441,19.42165756225586
1772810492424679200,3.58667919921875,14.56999683380127,-3.061373472213745,15.776418685913086
1772810492434379000,3.59637890625,8.063589096069336,-2.376978635787964,12.120726585388184
1772810492444079000,3.6060791015625,2.5105743408203125,-2.541606903076172,8.72916030883789
1772810492453779000,3.615779052734375,-2.059075355529785,-3.7005326747894287,5.701979160308838
1772810492463478800,3.625478759765625,-5.629587173461914,-5.398942947387695,3.2760400772094727
1772810492473179000,3.635178955078125,-8.101895332336426,-6.928418159484863,0.9463317394256592
1772810492482878700,3.644878662109375,-9.260512351989746,-8.054182052612305,-1.2782882452011108
1772810492492578800,3.654578857421875,-9.525596618652344,-9.143416404724121,-2.5512266159057617
1772810492502278700,3.664278564453125,-9.618500709533691,-10.598246574401855,-2.6775519847869873
1772810492511978800,3.673978759765625,-9.97478199005127,-12.291559219360352,-1.7861778736114502
1772810492521678600,3.6836787109375,-10.300320625305176,-13.856728553771973,-0.6830110549926758
1772810492531378700,3.693378662109375,-11.014676094055176,-15.797441482543945,0.5925209522247314
1772810492541078500,3.70307861328125,-11.768468856811523,-17.727977752685547,1.3850497007369995
1772810492550778400,3.7127783203125,-12.449752807617188,-19.040803909301758,1.5417413711547852
1772810492560478500,3.722478515625,-13.159343719482422,-19.31300163269043,1.236257553100586
1772810492570178300,3.73217822265625,-13.938376426696777,-19.09227752685547,0.781453013420105
1772810492579878400,3.74187841796875,-14.94570541381836,-18.95824432373047,0.7388648986816406
1772810492589578200,3.751578125,-15.380504608154297,-18.475906372070312,0.3054286539554596
1772810492599278300,3.7612783203125,-15.584600448608398,-17.968219757080078,0.05788429453969002
1772810492608978200,3.770978271484375,-15.183823585510254,-17.737899780273438,0.08768638968467712
1772810492618678300,3.78067822265625,-14.539785385131836,-17.43478012084961,-0.16716915369033813
1772810492628378000,3.790378173828125,-13.686982154846191,-17.169471740722656,-0.37616947293281555
1772810492638078000,3.800077880859375,-12.683492660522461,-17.17169952392578,-0.3902890682220459
1772810492647778000,3.809778076171875,-11.601690292358398,-17.249263763427734,-0.2490767240524292
1772810492657478100,3.81947802734375,-10.56959342956543,-17.548336029052734,-0.06939172744750977
1772810492667178000,3.829177978515625,-9.660576820373535,-17.896411895751953,-0.1163783073425293
1772810492676877800,3.8388779296875,-9.131194114685059,-17.925186157226562,-0.4307817220687866
1772810492686578000,3.848577880859375,-8.802867889404297,-17.744163513183594,-1.0148662328720093
1772810492696277800,3.85827783203125,-8.438360214233398,-17.435020446777344,-1.8080897331237793
1772810492705977900,3.867977783203125,-8.158890724182129,-16.98741912841797,-2.5409765243530273
1772810492715677700,3.877677734375,-7.7054290771484375,-16.464061737060547,-2.790677070617676
1772810492725377500,3.88737744140625,-7.332099914550781,-15.95981502532959,-2.901796579360962
1772810492735077600,3.89707763671875,-6.934963703155518,-15.451116561889648,-2.651644229888916
1772810492744777500,3.906777587890625,-6.960681915283203,-15.043050765991211,-2.159630060195923
1772810492764177400,3.926177490234375,-7.4180121421813965,-14.266473770141602,-1.0088772773742676
1772810492773877500,3.93587744140625,-7.609909534454346,-13.902097702026367,-0.5454249382019043
1772810492793277400,3.95527734375,-7.560609340667725,-13.293095588684082,0.3157656192779541
1772810492802977300,3.964977294921875,-7.387514114379883,-13.111282348632812,0.6452001333236694
1772810492812677000,3.974677001953125,-6.881834030151367,-12.797614097595215,0.6764715313911438
1772810492822377200,3.984377197265625,-6.355212211608887,-12.519695281982422,0.7979612350463867
1772810492832077300,3.994077392578125,-5.985402584075928,-12.174389839172363,1.025542974472046
1772810492841777200,4.003777099609375,-5.531314849853516,-11.886780738830566,1.3326257467269897
1772810492851477000,4.01347705078125,-4.957076549530029,-11.399444580078125,1.5772254467010498
1772810492861177000,4.023177001953125,-4.71151065826416,-10.279094696044922,1.6006133556365967
1772810492870877000,4.032876953125,-4.585072994232178,-9.001190185546875,0.8889682292938232
1772810492880577000,4.042576904296875,-3.9054794311523438,-7.952581405639648,0.3712316155433655
1772810492890276900,4.05227685546875,-3.167254686355591,-6.660468578338623,0.6871131658554077
1772810492899976700,4.061976806640625,-1.3547468185424805,-4.289576530456543,1.1141993999481201
1772810492909676800,4.0716767578125,0.2759881019592285,-1.1549620628356934,1.8844248056411743
1772810492919377000,4.081376953125,2.018458366394043,0.4915595054626465,3.6101558208465576
1772810492929076700,4.09107666015625,3.0685973167419434,1.1147966384887695,5.851256370544434
1772810492938776600,4.100776611328125,1.4465045928955078,2.6432313919067383,7.839361667633057
1772810492948476700,4.1104765625,3.377678394317627,4.568683624267578,10.7643461227417
1772810492958176500,4.120176513671875,7.28623104095459,5.709277629852295,16.88193130493164
1772810492967876600,4.129876708984375,12.150346755981445,4.337141513824463,26.766294479370117
1772810492977576400,4.139576416015625,19.293001174926758,1.9537467956542969,33.339603424072266
1772810492987276500,4.149276611328125,25.319210052490234,-0.026479244232177734,33.19432067871094
1772810492996976400,4.158976318359375,29.049144744873047,2.422849178314209,27.588092803955078
1772810493006676500,4.168676513671875,31.792922973632812,6.471803665161133,20.08584213256836
1772810493016376300,4.178376220703125,29.899614334106445,7.838146686553955,14.791505813598633
1772810493026076200,4.188076171875,26.056503295898438,8.762115478515625,11.60331916809082
1772810493035776300,4.1977763671875,23.575889587402344,10.042549133300781,9.442014694213867
1772810493045476000,4.20747607421875,20.398880004882812,11.016254425048828,8.24409294128418
1772810493055176000,4.217176025390625,16.335262298583984,9.65540599822998,8.100805282592773
1772810493064876000,4.2268759765625,12.913156509399414,8.5764799118042,7.556716442108154
1772810493074576100,4.236576171875,10.15824031829834,8.589235305786133,6.295761585235596
1772810493084276000,4.24627587890625,7.733204364776611,8.543139457702637,5.097836971282959
1772810493093976000,4.25597607421875,6.279176235198975,8.541240692138672,4.045845031738281
1772810493103676000,4.265676025390625,5.212596893310547,8.012264251708984,3.2012228965759277
1772810493113375700,4.275375732421875,4.686436653137207,6.942563533782959,2.341609477996826
1772810493123075800,4.285075927734375,5.024935245513916,5.839795112609863,0.902862548828125
1772810493132775700,4.294775634765625,5.7578887939453125,4.807957649230957,-0.8919363021850586
1772810493142475500,4.3044755859375,6.584171295166016,3.8740129470825195,-2.465759754180908
1772810493152175600,4.314175537109375,7.188794136047363,3.0269699096679688,-3.675309658050537
1772810493161875700,4.323875732421875,7.012126445770264,1.8692216873168945,-4.552152633666992
1772810493171575600,4.333575439453125,6.0056257247924805,0.7746716737747192,-5.131591796875
1772810493181275600,4.343275634765625,4.640079021453857,-0.04045712947845459,-5.8060431480407715
1772810493190975500,4.3529755859375,3.021047592163086,-0.6883174180984497,-6.642149448394775
1772810493200675300,4.36267529296875,0.8470034599304199,-1.0210260152816772,-7.408397674560547
1772810493210375400,4.37237548828125,-1.356177806854248,-1.1889560222625732,-8.244413375854492
1772810493220075300,4.3820751953125,-3.3282313346862793,-1.572092056274414,-9.165172576904297
1772810493229775000,4.391775146484375,-5.256027698516846,-1.803708791732788,-10.011433601379395
1772810493239475200,4.40147509765625,-6.782474994659424,-1.7974592447280884,-10.49010944366455
1772810493249175300,4.41117529296875,-7.866575717926025,-1.9996764659881592,-10.51327896118164
1772810493258875100,4.420875244140625,-8.832367897033691,-2.2273950576782227,-10.355588912963867
1772810493268575200,4.4305751953125,-9.37055778503418,-2.365396022796631,-10.11213493347168
1772810493278275000,4.440275146484375,-9.624289512634277,-2.497938632965088,-9.948030471801758
1772810493287975000,4.449974853515625,-9.718106269836426,-2.690308094024658,-9.710893630981445
1772810493297675000,4.459675048828125,-9.79208755493164,-2.901175022125244,-9.487045288085938
1772810493307374800,4.469374755859375,-9.783231735229492,-3.0157575607299805,-9.412933349609375
1772810493317074700,4.47907470703125,-9.732658386230469,-3.1401572227478027,-9.3289794921875
1772810493326774800,4.48877490234375,-9.816550254821777,-3.2310993671417236,-9.236841201782227
1772810493336474600,4.498474609375,-9.771031379699707,-3.181637763977051,-9.116445541381836
1772810493346174700,4.5081748046875,-9.634980201721191,-3.083315134048462,-8.873322486877441
1772810493355874800,4.517874755859375,-9.30014419555664,-2.9989116191864014,-8.529406547546387
1772810493365574700,4.52757470703125,-8.889765739440918,-2.934652328491211,-8.14630126953125
1772810493375274500,4.5372744140625,-8.37405014038086,-2.853095054626465,-7.592033386230469
1772810493384974600,4.546974609375,-7.516042709350586,-2.7469749450683594,-6.944760799407959
1772810493394674400,4.55667431640625,-6.532552242279053,-2.5650177001953125,-6.104372024536133
1772810493404374300,4.566374267578125,-5.422075271606445,-2.238229990005493,-5.204856872558594
1772810493414074400,4.576074462890625,-4.05342435836792,-1.640641689300537,-4.239964962005615
1772810493423774200,4.585774169921875,-2.6770830154418945,-0.4193499982357025,-3.6120309829711914
1772810493433474300,4.595474365234375,-1.196882724761963,1.2485699653625488,-2.694828987121582
1772810493443174400,4.60517431640625,1.9774556159973145,3.6383068561553955,-0.1836075782775879
1772810493452874200,4.614874267578125,6.850044250488281,7.669958591461182,3.0219240188598633
1772810493462574000,4.624573974609375,10.33315658569336,10.381790161132812,8.23376178741455
1772810493472274200,4.634274169921875,14.092267990112305,10.453963279724121,14.752029418945312
1772810493481974000,4.64397412109375,18.757537841796875,9.428269386291504,22.259777069091797
1772810493491673900,4.653673828125,22.032312393188477,6.559534072875977,29.64625358581543
1772810493501374000,4.6633740234375,25.392377853393555,3.3480358123779297,34.44874954223633
1772810493511073800,4.67307373046875,28.32707977294922,1.395097017288208,35.57267761230469
1772810493520774000,4.68277392578125,30.009140014648438,-0.8258316516876221,33.35447311401367
1772810493530474000,4.692473876953125,31.411277770996094,-3.237544536590576,29.99947738647461
1772810493540173800,4.702173828125,33.32472229003906,-4.827718734741211,25.658798217773438
1772810493549873700,4.711873779296875,34.225738525390625,-6.055525779724121,22.264678955078125
1772810493559573800,4.72157373046875,34.78435516357422,-7.344913005828857,20.179222106933594
1772810493569273600,4.731273681640625,33.854915618896484,-7.837804794311523,18.07379913330078
1772810493578973400,4.740973388671875,31.77015495300293,-8.301214218139648,17.454378128051758
1772810493588673500,4.750673583984375,27.752214431762695,-7.308432579040527,20.47930908203125
1772810493598373600,4.76037353515625,24.856794357299805,-5.5299906730651855,25.629878997802734
1772810493608073500,4.770073486328125,23.82341766357422,-3.043165445327759,30.131145477294922
1772810493617773600,4.779773681640625,24.385875701904297,-2.5191190242767334,32.116294860839844
1772810493627473400,4.789473388671875,25.765233993530273,-3.8640170097351074,30.55458641052246
1772810493637173200,4.79917333984375,26.06221580505371,-6.9169511795043945,26.312000274658203
1772810493646873300,4.808873291015625,23.415218353271484,-10.049386024475098,20.09844398498535
1772810493656573200,4.8185732421875,18.888721466064453,-12.41440200805664,14.288515090942383
1772810493666273000,4.82827294921875,12.710545539855957,-14.511138916015625,10.717609405517578
1772810493675973000,4.83797314453125,6.84420108795166,-16.445051193237305,8.60384464263916
1772810493685673200,4.847673095703125,1.8391895294189453,-18.89667510986328,8.101253509521484
1772810493695373000,4.857373046875,-1.0288548469543457,-21.673377990722656,8.598203659057617
1772810493705073200,4.8670732421875,-2.5546011924743652,-25.33448028564453,9.857336044311523
1772810493714773000,4.87677294921875,-3.467783212661743,-29.846715927124023,11.838892936706543
1772810493724472800,4.886472900390625,-4.46183967590332,-33.59970474243164,13.031023025512695
1772810493734173000,4.8961728515625,-5.049454689025879,-36.84404754638672,13.29802131652832
1772810493743872800,4.905872802734375,-4.681455135345459,-39.2916259765625,12.091165542602539
1772810493753572600,4.915572509765625,-4.620434284210205,-41.01118850708008,10.437152862548828
1772810493763272700,4.925272705078125,-5.161962509155273,-41.57939147949219,7.819080829620361
1772810493772972800,4.934972900390625,-5.646779537200928,-40.643062591552734,4.982291221618652
1772810493782672600,4.944672607421875,-6.834066390991211,-39.89500427246094,3.30397891998291
1772810493792372700,4.954372802734375,-7.3332319259643555,-38.017120361328125,1.4486486911773682
1772810493802072600,4.964072509765625,-7.893876075744629,-35.21110916137695,0.5091183185577393
1772810493811772400,4.9737724609375,-7.156396865844727,-32.53175354003906,0.7333252429962158
1772810493821472500,4.983472412109375,-5.891687393188477,-30.3020076751709,1.8661890029907227
1772810493831172400,4.99317236328125,-4.686473369598389,-29.925384521484375,4.2620134353637695
1772810493840872200,5.0028720703125,-3.7432942390441895,-29.842723846435547,5.1905517578125
1772810493850572300,5.012572265625,-2.70620059967041,-28.282987594604492,3.5538811683654785
1772810493860272400,5.0222724609375,-3.072373151779175,-27.997455596923828,2.1741418838500977
1772810493869972200,5.03197216796875,-3.2080037593841553,-26.591670989990234,0.1533527374267578
1772810493879672300,5.04167236328125,-3.0074210166931152,-24.068017959594727,-1.832474708557129
1772810493889372200,5.0513720703125,-2.556650161743164,-22.561662673950195,-2.053107261657715
1772810493899072000,5.061072021484375,-1.8172214031219482,-21.59916114807129,-1.165576457977295
1772810493908772000,5.070772216796875,-0.9711267948150635,-20.28788948059082,-0.3344578742980957
1772810493918472000,5.080471923828125,-0.19905424118041992,-19.012874603271484,-0.08284473419189453
1772810493928171800,5.090171875,0.08982110023498535,-17.99559211730957,0.11279106140136719
1772810493937872000,5.099871826171875,-0.14655256271362305,-16.90363883972168,-0.04203081130981445
1772810493947571700,5.10957177734375,-0.8454124927520752,-16.339893341064453,-0.09367227554321289
1772810493957271800,5.119271728515625,-1.6640411615371704,-16.07398223876953,-0.07129287719726562
1772810493966972000,5.128971923828125,-2.3417670726776123,-16.020910263061523,0.18923234939575195
1772810493976671700,5.138671630859375,-2.6212730407714844,-16.251630783081055,0.6490354537963867
1772810493986371600,5.14837158203125,-2.454331874847412,-16.494918823242188,1.1051688194274902
1772810493996071700,5.15807177734375,-1.8898544311523438,-16.855703353881836,1.6474103927612305
1772810494005771500,5.167771484375,-1.3592830896377563,-17.246597290039062,2.1665291786193848
1772810494015471400,5.177471435546875,-0.8560861349105835,-17.503870010375977,2.7588119506835938
1772810494025171500,5.18717138671875,-0.5924509167671204,-17.40032196044922,3.148221492767334
1772810494034871300,5.196871337890625,-0.4622114896774292,-16.997188568115234,3.389622688293457
1772810494044571400,5.2065712890625,-0.4272690415382385,-16.424592971801758,3.5772898197174072
1772810494054271200,5.216271240234375,-0.5366873741149902,-15.641111373901367,3.5967283248901367
1772810494063971300,5.225971435546875,-0.45556628704071045,-14.599299430847168,3.3583521842956543
1772810494073671200,5.235671142578125,-0.577914297580719,-12.671965599060059,2.194780111312866
1772810494083371300,5.245371337890625,-0.6221685409545898,-10.423283576965332,0.4206247329711914
1772810494093071000,5.255071044921875,-0.35928869247436523,-9.667801856994629,-0.6041297912597656
1772810494102771000,5.26477099609375,0.33188819885253906,-9.078954696655273,-0.7022800445556641
1772810494112471000,5.274470947265625,1.7424168586730957,-6.320071697235107,-0.30457210540771484
1772810494122171000,5.2841708984375,3.610487461090088,-3.2546491622924805,1.759861707687378
1772810494131871000,5.29387109375,5.928055763244629,0.0860595703125,4.454309463500977
1772810494141570800,5.30357080078125,8.291878700256348,4.072617530822754,7.042402267456055
1772810494151271000,5.31327099609375,9.65274715423584,7.64959192276001,10.695963859558105
1772810494160970800,5.322970703125,11.738273620605469,10.138093948364258,14.867074966430664
1772810494170670800,5.3326708984375,15.344381332397461,11.939167022705078,20.547245025634766
1772810494180370700,5.34237060546875,20.17409896850586,13.85122013092041,25.43954086303711
1772810494190070500,5.352070556640625,25.285661697387695,14.23422622680664,28.183181762695312
1772810494199770600,5.3617705078125,29.626678466796875,14.405871391296387,27.921009063720703
1772810494209470500,5.371470458984375,33.00737380981445,14.753551483154297,25.36682891845703
1772810494219170600,5.381170654296875,33.44132995605469,15.180458068847656,20.707304000854492
1772810494228870400,5.390870361328125,31.304203033447266,16.34193229675293,15.571544647216797
1772810494238570500,5.400570556640625,28.023887634277344,16.68267250061035,11.692089080810547
1772810494248270300,5.410270263671875,23.301095962524414,15.731143951416016,9.576793670654297
1772810494257970400,5.419970458984375,18.60736083984375,14.959684371948242,8.919787406921387
1772810494267670300,5.429670166015625,14.615236282348633,13.568500518798828,9.170746803283691
1772810494277370000,5.4393701171875,11.434640884399414,11.710020065307617,9.06467056274414
1772810494287070200,5.4490703125,9.1709623336792,9.744682312011719,7.999261856079102
1772810494296770000,5.45877001953125,7.344520568847656,7.881893157958984,6.038833141326904
1772810494306470100,5.46847021484375,5.464212417602539,6.3361711502075195,3.8186607360839844
1772810494316170000,5.478169921875,3.5661959648132324,4.966996669769287,1.7926666736602783
1772810494325870000,5.4878701171875,1.6384010314941406,3.7816576957702637,-0.03377819061279297
1772810494335570000,5.49756982421875,-0.18188905715942383,2.733865737915039,-1.6139533519744873
1772810494345270000,5.50727001953125,-1.9426698684692383,1.9101872444152832,-3.0790505409240723
1772810494354969900,5.516969970703125,-3.4078540802001953,0.9763083457946777,-4.408792972564697
1772810494364669700,5.526669677734375,-4.691878318786621,-0.054131507873535156,-5.396340370178223
1772810494374369800,5.536369873046875,-5.916484355926514,-1.2307000160217285,-5.903186798095703
1772810494384069600,5.546069580078125,-7.275951862335205,-2.301068067550659,-5.852090835571289
1772810494393769700,5.555769775390625,-8.57848834991455,-3.5115907192230225,-5.567160606384277
1772810494403469600,5.565469482421875,-9.051657676696777,-4.917064666748047,-5.505490779876709
1772810494413169700,5.575169677734375,-8.948421478271484,-5.910267353057861,-5.491278171539307
1772810494422869500,5.584869384765625,-8.576953887939453,-6.884875297546387,-5.6578521728515625
1772810494432569600,5.594569580078125,-7.8043012619018555,-7.631872177124023,-6.023478984832764
1772810494442269400,5.60426953125,-7.264439582824707,-8.480215072631836,-6.649288177490234
1772810494451969300,5.61396923828125,-6.742090225219727,-9.175088882446289,-7.296189785003662
1772810494461669400,5.62366943359375,-5.717374801635742,-9.059247970581055,-7.828579902648926
1772810494471369200,5.633369140625,-5.0861921310424805,-8.979240417480469,-7.9791789054870605
1772810494481069300,5.6430693359375,-4.925447463989258,-8.972557067871094,-7.754965782165527
1772810494490769200,5.65276904296875,-5.029623985290527,-8.788518905639648,-7.428518295288086
1772810494500469000,5.662468994140625,-5.341409683227539,-8.314620971679688,-7.248187065124512
1772810494510169000,5.672169189453125,-5.786879539489746,-7.896950721740723,-7.148615837097168
1772810494519869000,5.681868896484375,-6.18719482421875,-7.90368127822876,-6.981980323791504
1772810494529569000,5.691569091796875,-6.66473388671875,-8.055144309997559,-6.814708709716797
1772810494539268900,5.701268798828125,-6.8389153480529785,-7.455904960632324,-7.09558629989624
1772810494548969000,5.710968994140625,-7.052141189575195,-6.675873756408691,-7.397884845733643
1772810494558668800,5.720668701171875,-7.504784107208252,-6.296090126037598,-7.626347541809082
1772810494568369000,5.730368896484375,-7.983564376831055,-6.945101261138916,-7.400799751281738
1772810494578068700,5.74006884765625,-8.231361389160156,-6.964448928833008,-7.090888977050781
1772810494587768600,5.7497685546875,-8.017034530639648,-6.349492073059082,-6.593398094177246
1772810494597468700,5.75946875,-7.481475830078125,-6.021897792816162,-6.070770263671875
1772810494607168500,5.76916845703125,-6.256685256958008,-5.712383270263672,-4.644737243652344
1772810494616868600,5.77886865234375,-4.946465492248535,-4.907332897186279,-3.6573266983032227
1772810494626568400,5.788568359375,-3.77132511138916,-3.893719434738159,-3.503082752227783
1772810494636268500,5.7982685546875,-2.972393274307251,-2.518677234649658,-3.9964687824249268
1772810494645968400,5.807968505859375,-2.2192506790161133,-0.5374383926391602,-5.1320648193359375
1772810494655668500,5.81766845703125,-1.4911041259765625,2.333204746246338,-6.425048828125
1772810494665368300,5.827368408203125,0.3189668655395508,6.397005081176758,-6.450618743896484
1772810494675068200,5.837068115234375,4.407570838928223,10.19369888305664,-2.350771427154541
1772810494684768300,5.846768310546875,9.150238037109375,12.894767761230469,6.737929344177246
1772810494694468000,5.856468017578125,13.692394256591797,14.459099769592285,17.029565811157227
1772810494704168200,5.866168212890625,17.21468162536621,13.419950485229492,25.96192169189453
1772810494713868000,5.875867919921875,21.47850227355957,13.332634925842285,32.124168395996094
1772810494723568000,5.885568115234375,29.082117080688477,16.711946487426758,32.61113739013672
1772810494733268000,5.89526806640625,34.28907775878906,19.01119041442871,32.42906188964844
1772810494742968000,5.904968017578125,37.557491302490234,17.788101196289062,32.707733154296875
1772810494752668000,5.91466796875,39.138572692871094,15.087356567382812,32.24317169189453
1772810494762367700,5.92436767578125,37.87057113647461,11.92740535736084,31.146888732910156
1772810494772067800,5.93406787109375,34.04854965209961,9.56546401977539,28.93520736694336
1772810494781767700,5.943767578125,29.459035873413086,8.471435546875,25.1209716796875
1772810494791467800,5.9534677734375,24.415302276611328,7.8466620445251465,21.302921295166016
1772810494801167600,5.963167724609375,19.067092895507812,6.456728935241699,18.138744354248047
1772810494810867700,5.97286767578125,14.182238578796387,5.228736877441406,14.941789627075195
1772810494820567600,5.982567626953125,11.460245132446289,3.860330104827881,10.659244537353516
1772810494830267600,5.992267578125,9.91496467590332,2.0452194213867188,6.207199573516846
1772810494839967500,6.001967529296875,7.204421043395996,0.050893306732177734,2.952415943145752
1772810494849667300,6.011667236328125,4.018242835998535,-2.008316993713379,1.588754653930664
1772810494859367400,6.021367431640625,-0.1271653175354004,-3.393625259399414,1.6961791515350342
1772810494869067300,6.0310673828125,-2.42120361328125,-4.661880970001221,1.5726988315582275
1772810494878767000,6.04076708984375,-3.894108533859253,-4.8487091064453125,1.6750922203063965
1772810494888467200,6.05046728515625,-4.489718437194824,-6.392014503479004,2.3884174823760986
1772810494898167300,6.060167236328125,-5.016793727874756,-7.756336688995361,2.586728096008301
1772810494907867100,6.0698671875,-5.301155090332031,-9.089015007019043,2.102651357650757
1772810494917567200,6.079567138671875,-5.942091464996338,-10.750535011291504,1.4179017543792725
1772810494927267000,6.08926708984375,-6.084336757659912,-12.107792854309082,0.1045541763305664
1772810494936967000,6.098966796875,-5.488604545593262,-13.116430282592773,-1.1489596366882324
1772810494946667000,6.1086669921875,-5.649535655975342,-14.48883056640625,-1.7385802268981934
1772810494956366800,6.118366943359375,-5.583976745605469,-16.662525177001953,-2.3779115676879883
1772810494966066700,6.128066650390625,-5.191746234893799,-18.00316047668457,-3.3462467193603516
1772810494975766800,6.137766845703125,-4.759285926818848,-18.644855499267578,-4.502983570098877
1772810494985466600,6.147466552734375,-4.4989728927612305,-19.499141693115234,-5.460410118103027
1772810494995166700,6.157166748046875,-4.564413070678711,-19.74915313720703,-6.054487228393555
1772810495004866600,6.166866455078125,-4.858672142028809,-19.519336700439453,-6.673389434814453
1772810495014566700,6.176566650390625,-5.236847877502441,-19.054853439331055,-7.181242942810059
1772810495024266500,6.1862666015625,-5.6174187660217285,-18.459087371826172,-7.034641265869141
1772810495033966600,6.195966552734375,-5.774211406707764,-18.094005584716797,-6.296407222747803
1772810495043666400,6.20566650390625,-6.0587921142578125,-17.577011108398438,-5.482051372528076
1772810495053366300,6.2153662109375,-6.139157772064209,-16.919652938842773,-4.910937309265137
1772810495063066400,6.22506640625,-5.937352180480957,-16.53934669494629,-4.514355659484863
1772810495072766200,6.23476611328125,-5.4295854568481445,-16.493879318237305,-4.053109169006348
1772810495082466300,6.24446630859375,-4.583364486694336,-16.425018310546875,-3.7516393661499023
1772810495092166100,6.254166259765625,-3.709770441055298,-16.402437210083008,-3.4792940616607666
1772810495101866200,6.2638662109375,-3.0030670166015625,-16.583110809326172,-3.2086493968963623
1772810495111566000,6.273566162109375,-2.37123966217041,-16.64606285095215,-3.122729539871216
1772810495121266200,6.28326611328125,-1.570981740951538,-16.62481117248535,-3.295842409133911
1772810495130966000,6.292966064453125,-0.8165495991706848,-16.3902587890625,-3.612423896789551
1772810495140665900,6.302665771484375,-0.2372841238975525,-16.071163177490234,-3.892747163772583
1772810495150366000,6.312365966796875,0.04441356658935547,-15.70778751373291,-3.938326358795166
1772810495160065800,6.322065673828125,-0.013572394847869873,-15.297815322875977,-3.7848563194274902
1772810495169765600,6.331765625,-0.48431527614593506,-14.757684707641602,-3.433056116104126
1772810495179465700,6.3414658203125,-1.4021637439727783,-14.132874488830566,-2.919748544692993
1772810495189165600,6.35116552734375,-2.145143508911133,-13.727128028869629,-2.317854642868042
1772810495198865700,6.36086572265625,-2.622695207595825,-13.351741790771484,-1.6580238342285156
1772810495208565500,6.3705654296875,-2.956928253173828,-12.967459678649902,-1.0812042951583862
1772810495218265600,6.380265625,-3.3800811767578125,-12.706625938415527,-0.5131415128707886
1772810495227965400,6.38996533203125,-3.111401081085205,-12.573394775390625,-0.10111986100673676
1772810495237665500,6.39966552734375,-2.6547393798828125,-12.49429702758789,0.14583496749401093
1772810495247365400,6.409365478515625,-2.6234002113342285,-11.873115539550781,-0.06108277291059494
1772810495257065200,6.419065185546875,-2.7465643882751465,-11.043095588684082,-0.5600370764732361
1772810495266765300,6.428765380859375,-2.5769784450531006,-10.561915397644043,-0.4701724350452423
1772810495276465200,6.438465087890625,-2.1991662979125977,-9.241856575012207,-0.037702739238739014
1772810495286165200,6.448165283203125,-2.3537979125976562,-6.5651960372924805,-0.06486567854881287
1772810495295865000,6.457864990234375,-1.735194206237793,-2.382260322570801,-0.7851008772850037
1772810495305565200,6.467565185546875,-0.5661337375640869,3.3550500869750977,-1.7357463836669922
1772810495315265000,6.47726513671875,1.774972915649414,9.158592224121094,-0.8668102622032166
1772810495324965000,6.486965087890625,4.76992654800415,9.831119537353516,5.418243408203125
1772810495334665000,6.4966650390625,8.108993530273438,9.738283157348633,10.574188232421875
1772810495344364800,6.50636474609375,16.05249786376953,12.257037162780762,14.138898849487305
1772810495354065000,6.51606494140625,24.674299240112305,14.660188674926758,18.0362606048584
1772810495363764700,6.5257646484375,32.91920471191406,15.252824783325195,21.713876724243164
1772810495373464800,6.53546484375,37.6387825012207,15.350326538085938,23.289392471313477
1772810495383164700,6.54516455078125,38.76457595825195,17.13399314880371,19.9437198638916
1772810495392864800,6.55486474609375,37.38783645629883,18.53274154663086,14.858662605285645
1772810495402564600,6.564564697265625,33.87091064453125,18.314970016479492,10.135451316833496
1772810495412264700,6.5742646484375,29.957366943359375,17.656291961669922,6.362779140472412
1772810495421964500,6.583964599609375,25.199295043945312,16.626049041748047,4.12563419342041
1772810495431664400,6.593664306640625,19.891033172607422,15.269418716430664,3.19326114654541
1772810495441364500,6.603364501953125,14.06618595123291,13.906917572021484,2.775879144668579
1772810495451064300,6.613064208984375,8.572492599487305,12.685311317443848,2.455386161804199
1772810495460764400,6.622764404296875,3.8514766693115234,11.442413330078125,1.7826366424560547
1772810495470464300,6.63246435546875,0.32474613189697266,9.907598495483398,0.7466027736663818
1772810495480164000,6.6421640625,-1.9737730026245117,8.389839172363281,-0.016889333724975586
1772810495489864200,6.6518642578125,-4.002683639526367,6.5939555168151855,-0.4707019329071045
1772810495499564000,6.66156396484375,-5.484293460845947,4.805661201477051,-1.01418137550354
1772810495509264100,6.67126416015625,-6.558706760406494,3.169001579284668,-1.6302839517593384
1772810495518964000,6.6809638671875,-6.998642921447754,1.5670900344848633,-2.1589598655700684
1772810495528664000,6.6906640625,-7.009718894958496,0.0020990371704101562,-2.4515323638916016
1772810495538364000,6.700364013671875,-6.866832733154297,-1.3024322986602783,-2.4863014221191406
1772810495548064000,6.71006396484375,-6.6805009841918945,-2.5372958183288574,-2.498358726501465
1772810495557763800,6.719763916015625,-6.705293655395508,-3.526437759399414,-2.5716257095336914
1772810495567463700,6.729463623046875,-7.259580612182617,-4.058319568634033,-2.6855928897857666
1772810495577163800,6.739163818359375,-8.49294376373291,-4.589433670043945,-2.375711679458618
1772810495586863600,6.748863525390625,-9.595489501953125,-5.122359275817871,-2.265780448913574
1772810495596563700,6.758563720703125,-10.220460891723633,-5.589749336242676,-2.254721164703369
1772810495606263600,6.768263671875,-10.926677703857422,-5.955439567565918,-1.8803997039794922
1772810495615963600,6.777963623046875,-11.784996032714844,-6.338269233703613,-1.367160439491272
1772810495625663500,6.78766357421875,-12.461095809936523,-6.519299507141113,-1.1164478063583374
1772810495635363600,6.797363525390625,-12.627204895019531,-6.43658971786499,-1.047904133796692
1772810495645063400,6.8070634765625,-12.605937957763672,-6.266022205352783,-1.1035343408584595
1772810495654763300,6.81676318359375,-12.580580711364746,-6.0682373046875,-1.1176602840423584
1772810495664463400,6.82646337890625,-12.266347885131836,-6.063944339752197,-1.070137619972229
1772810495674163200,6.8361630859375,-11.779783248901367,-5.995718479156494,-1.1412583589553833
1772810495683863000,6.845863037109375,-11.418288230895996,-5.656433582305908,-1.3485549688339233
1772810495693563100,6.855563232421875,-11.258081436157227,-5.434485912322998,-1.660883903503418
1772810495703263000,6.865262939453125,-10.840530395507812,-5.3000383377075195,-1.8666749000549316
1772810495712963000,6.874963134765625,-10.611483573913574,-4.9551682472229,-1.919313907623291
1772810495722663000,6.884662841796875,-10.408838272094727,-4.678410053253174,-1.8418484926223755
1772810495732363000,6.894363037109375,-9.88978385925293,-4.586515426635742,-1.5556471347808838
1772810495742062800,6.904062744140625,-9.469743728637695,-4.498177528381348,-1.0731680393218994
1772810495751763000,6.913762939453125,-9.081388473510742,-4.2437214851379395,-0.7420592308044434
1772810495761462800,6.923462890625,-8.426475524902344,-4.06572961807251,-0.4101823568344116
1772810495771162600,6.93316259765625,-7.392369747161865,-3.8740227222442627,-0.07839584350585938
1772810495780862700,6.94286279296875,-6.2946271896362305,-2.9008941650390625,-0.39424997568130493
1772810495790562600,6.9525625,-5.167413711547852,-1.5784263610839844,-0.9092302322387695
1772810495800262700,6.9622626953125,-3.6910295486450195,0.3038907051086426,-1.5010441541671753
1772810495809962500,6.97196240234375,-0.9700217247009277,2.891493320465088,-2.3422398567199707
1772810495819662600,6.98166259765625,3.2741336822509766,5.916788578033447,-2.3671677112579346
1772810495829362400,6.991362548828125,8.513723373413086,8.52584457397461,-0.7100918292999268
1772810495839062500,7.0010625,15.277770042419434,10.11306381225586,2.160642147064209
1772810495848762400,7.010762451171875,23.21658706665039,11.71363353729248,4.717075347900391
1772810495858462200,7.020462158203125,30.055519104003906,12.933361053466797,6.647969722747803
1772810495868162300,7.030162353515625,37.15015411376953,15.10015869140625,7.647416114807129
1772810495877862100,7.039862060546875,43.072532653808594,18.69607162475586,8.720118522644043
1772810495887562000,7.04956201171875,45.373268127441406,19.723663330078125,10.895004272460938
1772810495897262000,7.059261962890625,45.6612434387207,19.452255249023438,12.17625904083252
1772810495906962000,7.0689619140625,43.169227600097656,19.562841415405273,10.637052536010742
1772810495916662000,7.078662109375,39.31836700439453,17.75771141052246,9.311248779296875
1772810495926361900,7.08836181640625,34.591346740722656,15.168914794921875,7.699052333831787
1772810495936062000,7.09806201171875,29.23227310180664,12.403141021728516,6.657520294189453
1772810495945761800,7.10776171875,23.341045379638672,9.353713035583496,5.995270252227783
1772810495955462000,7.1174619140625,17.21645164489746,6.502894878387451,5.076119899749756
1772810495965161700,7.12716162109375,10.950360298156738,4.0594024658203125,3.6540067195892334
1772810495974861600,7.136861572265625,4.653007507324219,2.0544991493225098,1.9804660081863403
1772810495984561700,7.146561767578125,-0.34218883514404297,-0.1035451889038086,0.40507772564888
1772810495994261500,7.156261474609375,-2.8455185890197754,-3.4026594161987305,-0.3979305028915405
1772810496003961600,7.165961669921875,-4.190690040588379,-7.214158058166504,-1.0043697357177734
1772810496013661400,7.175661376953125,-5.017300605773926,-10.523697853088379,-1.636316180229187
1772810496023361500,7.185361572265625,-4.937294006347656,-13.1536865234375,-1.9586952924728394
1772810496033061400,7.195061279296875,-5.002943515777588,-15.105592727661133,-1.6889097690582275
1772810496042761500,7.204761474609375,-5.4704155921936035,-16.00220489501953,-1.652666449546814
1772810496052461300,7.21446142578125,-6.488868713378906,-16.2047176361084,-1.3363075256347656
1772810496062161200,7.2241611328125,-7.363039970397949,-16.10822296142578,-0.8261592388153076
1772810496071861200,7.233861328125,-7.896145820617676,-15.443979263305664,-0.31416475772857666
1772810496081561000,7.24356103515625,-7.9304609298706055,-15.057059288024902,0.2445278763771057
1772810496091261200,7.25326123046875,-7.570151329040527,-14.891166687011719,0.7218632102012634
1772810496100961000,7.2629609375,-7.360936641693115,-14.82441234588623,1.1286637783050537
1772810496110660900,7.272660888671875,-7.238535404205322,-14.367188453674316,1.238559603691101
1772810496120361000,7.28236083984375,-7.299622535705566,-13.869424819946289,1.1194509267807007
1772810496130060800,7.292060791015625,-7.34383487701416,-13.445796012878418,0.9487866163253784
1772810496139761000,7.301760986328125,-7.160524845123291,-12.852422714233398,0.9337056279182434
1772810496149460700,7.311460693359375,-6.992225170135498,-12.212407112121582,0.8233571648597717
1772810496159160800,7.321160888671875,-6.678160667419434,-11.800943374633789,0.8521139025688171
1772810496168860700,7.330860595703125,-6.514168739318848,-11.504440307617188,0.6371155977249146
1772810496178560800,7.340560791015625,-5.9927520751953125,-11.350685119628906,0.4362882375717163
1772810496188260600,7.350260498046875,-5.502460956573486,-11.197712898254395,0.32600319385528564
1772810496197960400,7.35996044921875,-5.277581214904785,-11.198020935058594,0.3062102198600769
1772810496207660500,7.36966064453125,-5.056147575378418,-11.436094284057617,0.6512582898139954
1772810496217360400,7.3793603515625,-5.002581596374512,-11.42963981628418,0.9045970439910889
1772810496227060200,7.389060302734375,-5.092020034790039,-11.115103721618652,0.8576250076293945
1772810496236760300,7.39876025390625,-5.164134979248047,-10.92371654510498,0.6011104583740234
1772810496246460200,7.408460205078125,-5.308555603027344,-10.704598426818848,0.31596410274505615
1772810496256160300,7.41816015625,-5.518243789672852,-10.443437576293945,0.09407234191894531
1772810496265860400,7.4278603515625,-5.808209419250488,-10.353689193725586,0.16586506366729736
1772810496275560200,7.437560302734375,-6.165019989013672,-10.523290634155273,0.6232689023017883
1772810496285260000,7.447260009765625,-6.327347755432129,-10.640990257263184,0.7891668081283569
1772810496294960000,7.456960205078125,-6.206887722015381,-10.690546035766602,0.7256407737731934
1772810496304660000,7.466659912109375,-6.073843002319336,-10.74854850769043,0.6886593103408813
1772810496314359800,7.47635986328125,-5.801336288452148,-10.874727249145508,0.8540753126144409
1772810496324060000,7.486059814453125,-5.501528263092041,-11.132347106933594,1.2636464834213257
1772810496333759700,7.495759765625,-5.274648666381836,-11.379724502563477,1.8074979782104492
1772810496343459800,7.5054599609375,-5.1384382247924805,-11.810575485229492,2.444274425506592
1772810496353159700,7.51515966796875,-5.255156517028809,-12.89099407196045,3.229984760284424
1772810496362859800,7.52485986328125,-5.229555130004883,-14.245935440063477,3.5909171104431152
1772810496372559600,7.5345595703125,-5.661807060241699,-15.98969554901123,3.6976311206817627
1772810496382259700,7.544259765625,-6.438108444213867,-17.015995025634766,2.531741142272949
1772810496391959600,7.55395947265625,-7.094822406768799,-17.14524269104004,0.8140577077865601
1772810496411359500,7.573359375,-6.663214206695557,-17.615821838378906,-1.9835939407348633
1772810496421059300,7.583059326171875,-3.8736186027526855,-14.592111587524414,-4.475186347961426
1772810496430759200,7.59275927734375,-0.9209320545196533,-9.519475936889648,-6.402462005615234
1772810496440459300,7.602459228515625,2.64668607711792,-5.532697677612305,-5.012792587280273
1772810496450159000,7.6121591796875,5.740324020385742,-3.1046862602233887,-1.6414090394973755
1772810496459859200,7.621859130859375,6.0750298500061035,0.6197519302368164,-1.3499399423599243
1772810496469559000,7.63155908203125,10.932031631469727,4.897183895111084,-3.3811490535736084
1772810496479259100,7.641259033203125,16.012767791748047,9.994915008544922,-3.298768997192383
1772810496488959000,7.650958984375,22.37401580810547,14.443832397460938,0.08546805381774902
1772810496498659000,7.6606591796875,28.288917541503906,18.18060302734375,3.5932748317718506
1772810496508359000,7.67035888671875,33.37776184082031,20.908533096313477,6.066157341003418
1772810496518058800,7.680058837890625,37.882572174072266,21.818023681640625,9.409880638122559
1772810496527758800,7.6897587890625,41.13179397583008,21.08574867248535,12.644554138183594
1772810496537458700,7.699458740234375,41.60044860839844,20.565155029296875,12.432621002197266
1772810496547158800,7.70915869140625,39.454978942871094,20.34889793395996,8.920499801635742
1772810496556858600,7.718858642578125,34.031715393066406,20.347156524658203,5.828225135803223
1772810496566558700,7.728558837890625,27.2020263671875,19.753700256347656,4.6708831787109375
1772810496576258600,7.738258544921875,20.84552764892578,18.24671173095703,4.291378974914551
1772810496585958700,7.747958740234375,15.519824028015137,15.971435546875,3.5936713218688965
1772810496595658500,7.757658447265625,10.879521369934082,13.453163146972656,2.2298331260681152
1772810496605358300,7.7673583984375,7.110734939575195,10.612226486206055,0.46956658363342285
1772810496615058400,7.777058349609375,4.124768257141113,7.372326850891113,-1.440623164176941
1772810496624758300,7.78675830078125,1.6177668571472168,4.091450214385986,-3.085622549057007
1772810496634458400,7.796458251953125,-0.5803542137145996,0.937314510345459,-4.517929553985596
1772810496644158200,7.806158203125,-2.048734188079834,-1.7878117561340332,-5.68991756439209
1772810496653858000,7.815858154296875,-3.2089133262634277,-4.265673637390137,-6.398610591888428
1772810496663558100,7.82555810546875,-4.067782402038574,-6.3560075759887695,-6.643352508544922
1772810496673258000,7.835258056640625,-5.142950057983398,-7.901994228363037,-6.18280553817749
1772810496682958000,7.8449580078125,-6.6334614753723145,-9.428464889526367,-5.239623546600342
1772810496692658000,7.854657958984375,-7.876934051513672,-10.584831237792969,-4.474330902099609
1772810496702358000,7.86435791015625,-9.186378479003906,-11.102592468261719,-3.8906900882720947
1772810496712057900,7.874057861328125,-10.371256828308105,-11.684001922607422,-3.560667037963867
1772810496721758000,7.883758056640625,-11.023448944091797,-12.004373550415039,-3.6870360374450684
1772810496731457800,7.893457763671875,-11.457666397094727,-12.115703582763672,-3.848682165145874
1772810496741157600,7.90315771484375,-11.65925407409668,-12.21590518951416,-4.000749588012695
1772810496750857700,7.912857666015625,-11.58067512512207,-12.518525123596191,-4.041486740112305
1772810496760557600,7.9225576171875,-11.245817184448242,-13.073040008544922,-4.225699424743652
1772810496770257400,7.93225732421875,-10.563671112060547,-13.609172821044922,-4.4851531982421875
1772810496779957500,7.94195751953125,-9.810127258300781,-13.947696685791016,-4.853941917419434
1772810496789657300,7.9516572265625,-9.08160400390625,-14.319421768188477,-5.400717258453369
1772810496799357400,7.961357421875,-8.555723190307617,-14.86644172668457,-5.5432515144348145
1772810496809057300,7.971057373046875,-9.265031814575195,-15.349014282226562,-4.609173774719238
1772810496818757400,7.98075732421875,-11.05766773223877,-14.946561813354492,-3.2803640365600586
1772810496828457200,7.990457275390625,-12.573290824890137,-14.385538101196289,-2.963576316833496
1772810496838157300,8.0001572265625,-13.191207885742188,-14.22243881225586,-2.460874319076538
1772810496847857200,8.009857177734375,-13.03780746459961,-13.414852142333984,-1.910074234008789
1772810496857557000,8.019556884765626,-11.44575309753418,-12.234536170959473,-1.5239768028259277
1772810496867257000,8.029257080078125,-9.499734878540039,-11.359577178955078,-0.9215075969696045
1772810496876957000,8.03895703125,-8.306190490722656,-10.733328819274902,-0.3486166000366211
1772810496886657000,8.048656982421875,-7.738617897033691,-9.386528968811035,-0.5475473403930664
1772810496896356900,8.05835693359375,-8.281148910522461,-8.943635940551758,0.07547855377197266
1772810496906057000,8.068056884765625,-8.012351036071777,-8.191781044006348,0.7602267265319824
1772810496915756800,8.0777568359375,-7.2942795753479,-6.8746747970581055,1.7879638671875
1772810496925457000,8.087456787109375,-6.6506571769714355,-5.380013465881348,1.9871878623962402
1772810496935156700,8.09715673828125,-5.717682838439941,-3.8143346309661865,2.165489673614502
1772810496944856600,8.106856689453124,-4.588650703430176,-1.280777931213379,1.785783290863037
1772810496954556700,8.116556640625,-3.1292619705200195,0.8167366981506348,1.0997824668884277
1772810496964256500,8.126256591796874,-1.0407767295837402,3.0343403816223145,0.38135337829589844
1772810496973956600,8.13595654296875,2.3215885162353516,7.206833362579346,0.369351863861084
1772810496983656400,8.145656494140624,7.0587544441223145,13.671557426452637,2.1567044258117676
1772810496993356300,8.155356201171875,13.345617294311523,20.954191207885742,7.933578014373779
1772810497003056400,8.165056396484376,20.94336700439453,26.244361877441406,19.052461624145508
1772810497012756200,8.174756103515625,27.651378631591797,28.204204559326172,29.308063507080078
1772810497022456300,8.184456298828126,31.470895767211914,28.756690979003906,31.374439239501953
1772810497032156200,8.19415625,33.98626708984375,29.989219665527344,26.16233253479004
1772810497041856300,8.203856201171876,36.093421936035156,29.386648178100586,21.914203643798828
1772810497051556000,8.21355615234375,37.658687591552734,28.299938201904297,21.605224609375
1772810497061256000,8.223255859375,38.566864013671875,26.837020874023438,24.92966651916504
1772810497070956000,8.2329560546875,37.65065002441406,24.250267028808594,30.70246124267578
1772810497080656000,8.24265576171875,34.00595474243164,21.977798461914062,35.850704193115234
1772810497090356000,8.25235595703125,28.109130859375,20.86851692199707,37.08761215209961
1772810497100055800,8.262055908203125,20.92459487915039,18.50278663635254,36.102210998535156
1772810497109755600,8.271755615234374,14.441271781921387,14.479127883911133,32.67766189575195
1772810497119455700,8.281455810546875,9.788463592529297,9.934412002563477,26.976757049560547
1772810497129155600,8.291155517578124,7.425400257110596,4.900482177734375,20.13994789123535
1772810497138855700,8.300855712890625,6.054891586303711,0.11992740631103516,13.100486755371094
1772810497148555500,8.310555419921876,5.109094142913818,-4.187689304351807,7.04690408706665
1772810497158255600,8.320255615234375,3.9199299812316895,-8.493194580078125,2.925579309463501
1772810497167955500,8.32995556640625,2.2267684936523438,-12.437812805175781,0.029320478439331055
1772810497177655600,8.339655517578125,0.7184891700744629,-15.795547485351562,-1.6555742025375366
1772810497187355400,8.34935546875,-0.17215895652770996,-18.624515533447266,-2.5436787605285645
1772810497197055200,8.35905517578125,-1.1776540279388428,-20.782995223999023,-2.06381893157959
1772810497206755300,8.36875537109375,-2.170548439025879,-22.21259307861328,-0.6265200972557068
1772810497216455200,8.378455078125,-2.818347454071045,-23.006385803222656,0.9878424406051636
1772810497226155300,8.3881552734375,-3.546675443649292,-23.411083221435547,2.0593068599700928
1772810497235855000,8.397855224609375,-3.980567693710327,-23.665700912475586,2.4081833362579346
1772810497245555200,8.40755517578125,-4.104152679443359,-23.91472816467285,1.81048583984375
1772810497255255000,8.417255126953124,-4.113668441772461,-23.452707290649414,0.15245604515075684
1772810497264955100,8.426955078125,-4.1179585456848145,-22.272174835205078,-1.3120250701904297
1772810497274655000,8.436655029296874,-4.377413749694824,-20.855270385742188,-1.6378068923950195
1772810497284354800,8.446354736328125,-4.964759826660156,-19.283994674682617,-1.21327543258667
1772810497294055000,8.456054931640624,-5.543732166290283,-17.525283813476562,-0.34656190872192383
1772810497303754800,8.465754638671875,-6.246246814727783,-15.980690002441406,0.8994777202606201
1772810497313454600,8.47545458984375,-6.857274055480957,-14.704834938049316,1.925891399383545
1772810497323154700,8.48515478515625,-7.094819068908691,-13.411200523376465,2.47784686088562
1772810497332854500,8.4948544921875,-6.861173629760742,-12.472282409667969,2.758002758026123
1772810497342554600,8.5045546875,-6.063910007476807,-11.83607006072998,2.820160388946533
1772810497352254500,8.51425439453125,-5.155322074890137,-11.180648803710938,2.536369562149048
1772810497361954600,8.52395458984375,-4.362403869628906,-10.740692138671875,2.2338507175445557
1772810497371654400,8.533654296875,-3.8427977561950684,-10.75588607788086,1.8737951517105103
1772810497381354500,8.5433544921875,-3.3250977993011475,-10.816264152526855,1.4921586513519287
1772810497391054300,8.553054443359375,-3.1301722526550293,-10.87912654876709,1.3136680126190186
1772810497400754200,8.562754150390624,-3.1585545539855957,-10.972904205322266,1.3779480457305908
1772810497410454300,8.572454345703125,-3.255431652069092,-11.1289701461792,1.5694143772125244
1772810497420154000,8.582154052734374,-3.3512353897094727,-11.354598045349121,1.9746513366699219
1772810497429854200,8.591854248046875,-3.6780295372009277,-11.637918472290039,2.470459461212158
1772810497439554000,8.601553955078124,-4.110763072967529,-11.934333801269531,2.4770355224609375
1772810497449254000,8.61125390625,-4.334306716918945,-12.098241806030273,2.084782361984253
1772810497458954000,8.6209541015625,-4.507788181304932,-12.288558959960938,1.577294111251831
1772810497468653800,8.63065380859375,-4.661506175994873,-12.42569351196289,1.0830968618392944
1772810497478354000,8.64035400390625,-4.637870788574219,-12.382854461669922,0.7641715407371521
1772810497488053800,8.6500537109375,-4.864405632019043,-12.31926155090332,0.7893463373184204
1772810497497753900,8.65975390625,-5.305590629577637,-12.30694580078125,0.7385004162788391
1772810497507453700,8.66945361328125,-5.5163469314575195,-12.160237312316895,0.48796647787094116
1772810497517153800,8.67915380859375,-5.697501182556152,-11.840105056762695,0.2464945912361145
1772810497526853600,8.688853515625,-6.103490352630615,-11.477810859680176,0.17581117153167725
1772810497536553500,8.698553466796875,-6.571022987365723,-11.16743278503418,0.1562468409538269
1772810497546253600,8.708253662109374,-6.774042129516602,-10.833444595336914,0.006861090660095215
1772810497555953400,8.717953369140625,-6.715675354003906,-10.211542129516602,-0.22693490982055664
1772810497565653200,8.7276533203125,-6.643000602722168,-9.44860553741455,-0.5739651918411255
1772810497575353300,8.737353271484375,-6.268265724182129,-8.356123924255371,-1.1623713970184326
1772810497585053200,8.74705322265625,-5.4445953369140625,-6.449468612670898,-1.879956603050232
1772810497594753300,8.756753173828125,-4.624842166900635,-3.7895803451538086,-1.9027503728866577
1772810497604453000,8.766453125,-3.3686416149139404,-0.8425097465515137,-1.0848479270935059
1772810497614153200,8.7761533203125,-1.562385082244873,2.66239070892334,0.5531158447265625
1772810497623853000,8.78585302734375,0.7953395843505859,6.274440765380859,2.330536127090454
1772810497633553200,8.79555322265625,3.605685234069824,10.931905746459961,1.9536241292953491
1772810497643253000,8.8052529296875,6.976650238037109,14.656620025634766,0.061404407024383545
1772810497652952800,8.814952880859375,10.252847671508789,17.04091453552246,-0.42060166597366333
1772810497662653000,8.82465283203125,13.846446990966797,16.20738983154297,1.740262746810913
1772810497672352800,8.834352783203125,19.076122283935547,16.52691650390625,6.039849758148193
1772810497682052600,8.844052490234375,23.571359634399414,16.21771240234375,11.177364349365234
1772810497691752700,8.853752685546874,28.275754928588867,13.855953216552734,13.821334838867188
1772810497701452500,8.86345263671875,33.363365173339844,12.332365036010742,13.017904281616211
1772810497711152600,8.873152587890624,35.61071014404297,12.279509544372559,9.61330509185791
1772810497720852500,8.8828525390625,35.66913986206055,12.037642478942871,5.781492233276367
1772810497730552600,8.892552490234374,32.1938591003418,11.42033576965332,3.075420379638672
1772810497740252400,8.90225244140625,27.106548309326172,11.522998809814453,1.2148326635360718
1772810497749952500,8.911952392578126,21.00204849243164,11.472356796264648,0.07585334777832031
1772810497759652400,8.92165234375,15.168289184570312,10.060800552368164,-0.13611888885498047
1772810497769352200,8.931352294921876,9.996731758117676,8.899763107299805,-0.18713712692260742
1772810497779052300,8.94105224609375,5.552114963531494,6.5833420753479,-0.21274054050445557
1772810497788752100,8.950752197265626,1.7543625831604004,4.4420485496521,-0.9877593517303467
1772810497798452200,8.9604521484375,-0.752810001373291,2.5282669067382812,-1.9840625524520874
1772810497808152000,8.970152099609376,-2.9824204444885254,0.8147945404052734,-2.7135379314422607
1772810497817852000,8.979851806640625,-4.7336225509643555,-0.3805966377258301,-2.9547908306121826
1772810497827552000,8.989552001953125,-5.901014804840088,-1.2719769477844238,-2.709758758544922
1772810497837251800,8.999251953125,-7.600428581237793,-2.4290757179260254,-1.9596959352493286
1772810497846952000,9.008951904296875,-8.764657020568848,-3.8020787239074707,-1.3450554609298706
1772810497856651800,9.01865185546875,-9.689040184020996,-4.892653465270996,-0.8141946792602539
1772810497866351900,9.028351806640625,-10.628117561340332,-5.967410564422607,-0.5676432847976685
1772810497876051700,9.0380517578125,-11.020852088928223,-6.802451133728027,-0.7514621019363403
1772810497885751800,9.047751708984375,-10.810182571411133,-7.282069206237793,-1.3450461626052856
1772810497895451600,9.05745166015625,-10.628984451293945,-7.474180698394775,-2.0460290908813477
1772810497905151500,9.0671513671875,-10.936744689941406,-7.344049453735352,-2.610023260116577
1772810497914851600,9.0768515625,-11.43258285522461,-7.155997276306152,-2.9517292976379395
1772810497924551400,9.086551513671875,-11.986236572265625,-6.823663234710693,-3.2251715660095215
1772810497934251300,9.096251220703126,-12.458755493164062,-6.407332420349121,-3.2419047355651855
1772810497943951400,9.105951416015625,-12.32364559173584,-6.294842720031738,-2.9890334606170654
1772810497953651200,9.115651123046876,-12.222415924072266,-6.460624694824219,-2.6657421588897705
1772810497963351300,9.125351318359375,-11.926945686340332,-6.513721942901611,-2.382234811782837
1772810497973051100,9.135051025390625,-11.317816734313965,-6.192437648773193,-2.390137195587158
1772810497982751200,9.144751220703125,-10.72524356842041,-5.574963092803955,-2.448789596557617
1772810497992451000,9.154451171875,-9.895285606384277,-5.26057767868042,-2.2429912090301514
1772810498002151200,9.164151123046874,-9.255149841308594,-5.044976711273193,-1.6755292415618896
1772810498011851000,9.17385107421875,-9.121129035949707,-5.007146835327148,-0.8845508098602295
1772810498021550800,9.18355078125,-8.792936325073242,-5.126095294952393,-0.2479996681213379
1772810498031251000,9.1932509765625,-8.801549911499023,-5.169196605682373,0.04196667671203613
1772810498040950800,9.20295068359375,-8.681451797485352,-5.011889457702637,-0.0715780258178711
1772810498050650600,9.212650634765625,-8.225724220275879,-4.867569446563721,-0.3682798147201538
1772810498060350700,9.222350830078126,-7.834205627441406,-4.856598377227783,-0.6397252678871155
1772810498070050600,9.232050537109375,-7.237920761108398,-4.9545578956604,-0.8499877452850342
1772810498079750700,9.241750732421876,-6.681214332580566,-4.985171318054199,-1.0947386026382446
1772810498089450500,9.251450439453125,-6.499664306640625,-4.8812360763549805,-1.3434841632843018
1772810498099150600,9.261150634765626,-6.243065357208252,-4.84599494934082,-1.4934897422790527
1772810498108850400,9.270850341796875,-5.8903303146362305,-4.4420294761657715,-1.4966278076171875
1772810498118550500,9.280550537109375,-4.679771900177002,-3.1477222442626953,-1.8866170644760132
1772810498128250400,9.29025048828125,-2.675381660461426,-0.08495187759399414,-2.691145420074463
1772810498137950200,9.2999501953125,-0.31067562103271484,3.5724129676818848,-2.517810821533203
1772810498147650300,9.309650390625,2.786778450012207,6.584930896759033,-0.5379598140716553
1772810498157350100,9.31935009765625,7.631439685821533,9.840333938598633,3.662611484527588
1772810498167050200,9.32905029296875,12.190831184387207,14.632328033447266,8.804648399353027
1772810498176750000,9.33875,17.0982608795166,17.678028106689453,14.695693969726562
1772810498186450000,9.348449951171874,25.388874053955078,20.584224700927734,18.773954391479492
1772810498196150000,9.35814990234375,33.24403381347656,22.329191207885742,20.918237686157227
1772810498205849900,9.367849853515626,42.08415603637695,17.84609603881836,21.658353805541992
1772810498215550000,9.377550048828125,50.65581130981445,15.003660202026367,16.704317092895508
1772810498225249800,9.387249755859376,53.81029510498047,13.407255172729492,10.005447387695312
1772810498234950000,9.396949951171875,50.37202072143555,10.109406471252441,5.39483642578125
1772810498244649700,9.406649658203126,44.38872146606445,7.866375923156738,3.0234127044677734
1772810498254349800,9.416349853515625,37.313690185546875,7.058785915374756,2.5436851978302
1772810498264049700,9.426049560546875,29.365711212158203,6.861301898956299,3.875521183013916
1772810498273749500,9.43574951171875,22.520065307617188,5.745974540710449,6.2068376541137695
1772810498283449600,9.44544970703125,17.21610450744629,3.8389692306518555,7.56657075881958
1772810498293149400,9.4551494140625,12.611664772033691,2.3012657165527344,7.219668388366699
1772810498302849300,9.464849365234375,8.867111206054688,1.8153400421142578,6.188188552856445
1772810498312549400,9.47454931640625,4.092860221862793,0.2959599494934082,5.1724348068237305
1772810498322249200,9.484249267578125,-1.8818235397338867,-2.282848358154297,4.587079048156738
1772810498331949300,9.49394921875,-6.845739841461182,-4.701213836669922,3.422492027282715
1772810498341649200,9.503649169921875,-9.94129753112793,-7.297232151031494,1.6456724405288696
1772810498351349200,9.513349365234374,-11.257457733154297,-9.531848907470703,0.2304856777191162
1772810498361049000,9.523049072265625,-10.825432777404785,-12.899885177612305,-0.4455464482307434
1772810498370749200,9.532749267578126,-10.09528923034668,-15.407007217407227,-1.117573857307434
1772810498380449000,9.542448974609375,-8.372367858886719,-16.692861557006836,-2.0456624031066895
1772810498390148900,9.55214892578125,-7.144457817077637,-17.84176254272461,-2.6295807361602783
1772810498399849000,9.561848876953125,-6.896830081939697,-18.2698974609375,-3.065135955810547
1772810498409548800,9.571548828125,-7.83461856842041,-17.845462799072266,-3.3165194988250732
1772810498419249000,9.581248779296875,-9.134995460510254,-17.024307250976562,-3.2236742973327637
1772810498428948700,9.59094873046875,-10.361966133117676,-15.66939640045166,-3.0134565830230713
1772810498438648600,9.600648681640624,-11.434886932373047,-14.441573143005371,-2.5812458992004395
1772810498448348700,9.6103486328125,-11.916057586669922,-13.255498886108398,-1.8447809219360352
1772810498458048500,9.620048583984374,-11.981378555297852,-12.388696670532227,-1.1126518249511719
1772810498467748600,9.62974853515625,-11.67254638671875,-11.818605422973633,-0.3959941267967224
1772810498477448400,9.639448486328124,-11.159711837768555,-11.626140594482422,0.30780860781669617
1772810498487148500,9.6491484375,-10.300952911376953,-11.331181526184082,0.7365102767944336
1772810498496848400,9.658848388671874,-9.45134162902832,-11.199462890625,1.193551778793335
1772810498506548500,9.668548583984375,-8.763071060180664,-11.185981750488281,1.4983716011047363
1772810498516248300,9.678248291015626,-8.09255599975586,-11.120548248291016,1.3916856050491333
1772810498525948200,9.6879482421875,-7.437430381774902,-11.085625648498535,1.064544439315796
1772810498535648300,9.697648193359376,-6.941248893737793,-10.93551254272461,0.8028249740600586
1772810498545348000,9.70734814453125,-6.589797496795654,-10.861284255981445,0.7204087972640991
1772810498555048000,9.7170478515625,-6.476351737976074,-10.898902893066406,0.9207390546798706
1772810498564748000,9.726748046875,-6.319690227508545,-10.972467422485352,1.1927088499069214
1772810498574447900,9.73644775390625,-6.021769046783447,-10.867986679077148,1.1916991472244263
1772810498584148000,9.74614794921875,-5.659720420837402,-10.695348739624023,0.9937416911125183
1772810498593847800,9.755847900390625,-5.49159049987793,-10.577391624450684,0.8102009892463684
1772810498603548000,9.7655478515625,-5.32263708114624,-10.407028198242188,0.44665372371673584
1772810498613247700,9.775247802734375,-4.9631428718566895,-10.195905685424805,0.0969763994216919
1772810498622947800,9.78494775390625,-4.451349258422852,-9.919061660766602,-0.20960795879364014
1772810498632647700,9.794647705078125,-3.9437379837036133,-9.511819839477539,-0.48727357387542725
1772810498642347500,9.804347412109376,-3.5168662071228027,-9.06817626953125,-0.28332340717315674
1772810498652047600,9.814047607421875,-3.279432773590088,-8.857078552246094,0.1686309576034546
1772810498661747500,9.82374755859375,-2.9195919036865234,-8.467089653015137,0.5276150703430176
1772810498671447300,9.833447265625,-2.573528528213501,-7.605955600738525,0.7225013971328735
1772810498681147400,9.8431474609375,-3.0568442344665527,-6.071500778198242,0.7751612663269043
1772810498690847200,9.85284716796875,-3.045412540435791,-4.436842441558838,1.0265069007873535
1772810498700547300,9.86254736328125,-2.7395081520080566,-2.011465072631836,0.7058561444282532
1772810498710247200,9.8722470703125,-2.1658823490142822,1.1333727836608887,-0.3980276584625244
1772810498719947300,9.881947265625,-0.361173152923584,3.1085023880004883,-1.184234380722046
1772810498729647000,9.891647216796875,0.8601555824279785,4.276334285736084,-0.4091038107872009
1772810498739347200,9.90134716796875,1.664503574371338,5.403820991516113,0.843870222568512
1772810498749047000,9.911047119140624,2.981062889099121,7.002553462982178,0.8271159529685974
1772810498758747000,9.920746826171875,4.621856212615967,10.095686912536621,-0.6709979772567749
1772810498768447000,9.930447021484374,6.555416584014893,11.613228797912598,-1.9210774898529053
1772810498778146800,9.940146728515625,6.354249477386475,11.945061683654785,-2.017063856124878
1772810498787847000,9.949846923828124,5.385458946228027,11.613658905029297,-0.7982303500175476
1772810498797546800,9.959546630859375,4.253885269165039,10.748374938964844,1.689454436302185
1772810498807246600,9.96924658203125,3.9014759063720703,10.139350891113281,3.9692461490631104
1772810498816946700,9.97894677734375,5.3982625007629395,9.937658309936523,4.985533714294434
1772810498826646500,9.988646484375,7.8476409912109375,8.736806869506836,4.428826332092285
1772810498836346400,9.998346435546875,9.965855598449707,7.811446189880371,3.160905599594116
1772810498846046500,10.00804638671875,10.921770095825195,7.333761215209961,2.182543992996216
1772810498855746300,10.017746337890625,10.653360366821289,6.738644123077393,2.0308451652526855
1772810498865446400,10.0274462890625,9.621451377868652,6.613125324249268,2.1149537563323975
1772810498875146200,10.037146240234375,8.65001106262207,6.228983402252197,2.0729801654815674
1772810498884846300,10.046846435546875,7.647808074951172,6.187722682952881,1.8592748641967773
1772810498894546200,10.056546142578124,7.108100414276123,5.988627910614014,1.850640058517456
1772810498904246300,10.066246337890625,6.415190696716309,5.605243682861328,2.074085235595703
1772810498913946000,10.075946044921874,5.8658366203308105,4.599161624908447,1.7322473526000977
1772810498923646000,10.08564599609375,5.653202533721924,3.3589696884155273,1.2175973653793335
1772810498933346000,10.095345947265624,5.20617151260376,2.1055822372436523,0.822913646697998
1772810498943046000,10.1050458984375,4.230688095092773,0.9960103034973145,0.40906012058258057
1772810498952745700,10.114745849609376,2.8238258361816406,0.14560365676879883,0.0718761682510376
1772810498962445800,10.12444580078125,1.1902875900268555,-0.3916172981262207,-0.2298208475112915
1772810498972145700,10.134145751953126,-0.5607075691223145,-0.8269872665405273,-0.28169524669647217
1772810498981845800,10.143845703125,-2.122771739959717,-1.3047733306884766,-0.35073089599609375
1772810498991545600,10.153545654296876,-2.9222588539123535,-1.8161001205444336,-0.5049669742584229
1772810499001245700,10.16324560546875,-3.010681629180908,-2.3589162826538086,-0.6943150162696838
1772810499010945500,10.172945556640625,-2.860079288482666,-2.7920455932617188,-0.7636075019836426
1772810499020645600,10.182645751953125,-2.6789021492004395,-3.124577760696411,-0.9171452522277832
1772810499030345500,10.192345458984375,-2.620211601257324,-3.268916130065918,-1.2080578804016113
1772810499040045300,10.20204541015625,-2.617140769958496,-3.1458218097686768,-1.376904010772705
1772810499049745400,10.211745361328125,-2.852006435394287,-2.726979970932007,-1.3498163223266602
1772810499059445200,10.2214453125,-3.364047050476074,-2.2227487564086914,-1.2271279096603394
1772810499069145300,10.231145263671875,-3.472477912902832,-1.8002233505249023,-1.3802478313446045
1772810499078845200,10.24084521484375,-3.352205753326416,-1.380852222442627,-1.527435064315796
1772810499088545000,10.250544921875,-3.1921281814575195,-1.1454086303710938,-1.4650977849960327
1772810499098245000,10.2602451171875,-3.025773525238037,-0.8423905372619629,-1.2591968774795532
1772810499107945000,10.269945068359375,-2.829044818878174,-0.3895111083984375,-0.831284761428833
1772810499117645000,10.27964501953125,-2.63223934173584,-0.024202823638916016,-0.3074202537536621
1772810499127345000,10.289344970703125,-2.433443546295166,0.14253997802734375,0.10558116436004639
1772810499137045000,10.299044921875,-2.1769423484802246,0.43050718307495117,0.34913015365600586
1772810499146744800,10.308744873046875,-2.059816360473633,0.3984251022338867,0.4620293378829956
1772810499156445000,10.31844482421875,-2.165347099304199,0.3323540687561035,0.43647706508636475
1772810499166144800,10.328144775390625,-2.2330703735351562,0.1799163818359375,0.2201521396636963
1772810499175844600,10.3378447265625,-2.187939167022705,-0.039137840270996094,0.09935128688812256
1772810499185544700,10.347544677734374,-1.9372892379760742,-0.28945398330688477,0.10053634643554688
1772810499195244500,10.35724462890625,-1.5584783554077148,-0.38770246505737305,0.4370044469833374
1772810499204944400,10.3669443359375,-1.259598731994629,-0.3364286422729492,0.9783967733383179
1772810499214644500,10.37664453125,-0.846013069152832,-0.213226318359375,1.5463565587997437
1772810499224344300,10.38634423828125,-0.3154568672180176,-0.2664070129394531,1.8279839754104614
1772810499234044400,10.39604443359375,0.471829891204834,-0.35411691665649414,1.764571189880371
1772810499243744300,10.405744140625,1.0594148635864258,-0.39961671829223633,1.6012083292007446
1772810499253444000,10.415444091796875,1.303628921508789,-0.419283390045166,1.4382175207138062
1772810499263144200,10.425144287109376,1.132908821105957,-0.4374423027038574,1.235757827758789
1772810499272844000,10.434843994140625,0.7461090087890625,-0.29868030548095703,0.8869960308074951
1772810499282544000,10.444544189453126,0.14024829864501953,-0.100555419921875,0.5576443672180176
1772810499292244000,10.454243896484375,-0.478548526763916,0.05988597869873047,0.2779000997543335
1772810499301944000,10.463944091796876,-0.985771656036377,0.2013835906982422,0.09246742725372314
1772810499311644000,10.473643798828125,-1.37166166305542,0.22507238388061523,0.09912514686584473
1772810499321344000,10.483343994140625,-1.4269304275512695,0.11520671844482422,-0.025054454803466797
1772810499331043800,10.4930439453125,-1.271428108215332,0.09890079498291016,-0.37957751750946045
1772810499340743700,10.50274365234375,-1.0197343826293945,0.13543462753295898,-0.5044177770614624
1772810499350443800,10.51244384765625,-0.5611186027526855,0.07932090759277344,-0.45461392402648926
1772810499360143600,10.5221435546875,0.1159524917602539,0.09491348266601562,-0.375055193901062
1772810499369843500,10.531843505859374,0.6532220840454102,0.27639341354370117,-0.016590476036071777
1772810499379543600,10.54154345703125,0.9418373107910156,0.3090658187866211,0.35438036918640137
1772810499389243400,10.551243408203124,0.9761638641357422,0.37073469161987305,0.5648125410079956
1772810499398943500,10.560943603515625,0.6238813400268555,0.4492025375366211,0.660656213760376
1772810499408643300,10.570643310546876,0.1952075958251953,0.5654072761535645,0.5408929586410522
1772810499418343400,10.580343505859375,-0.29145050048828125,0.6203789710998535,0.3837747573852539
1772810499428043300,10.590043212890626,-0.6563434600830078,0.583305835723877,0.2933776378631592
1772810499437743400,10.599743408203125,-0.828399658203125,0.680701732635498,0.36637115478515625
1772810499447443200,10.609443115234376,-0.7210483551025391,0.7155966758728027,0.3971439599990845
1772810499457143000,10.61914306640625,-1.0799980163574219,0.7372045516967773,0.8245844841003418
1772810499466843100,10.628843017578125,-1.7699546813964844,1.2978291511535645,1.2025359869003296
1772810499476543000,10.63854296875,-1.6430912017822266,1.275038242340088,1.152783989906311
1772810499486242800,10.648242919921875,-1.614201545715332,1.385176181793213,0.9783430099487305
1772810499495943000,10.65794287109375,-1.341200828552246,1.2938566207885742,0.9204059839248657
1772810499505642800,10.667642822265625,-1.0404796600341797,1.19818115234375,0.805378794670105
1772810499515342800,10.6773427734375,-0.3192787170410156,0.7438473701477051,0.30760133266448975
