time,seconds_elapsed,z,y,x
1772811959166761700,0.10476171875,-0.8806379437446594,-0.6738601922988892,0.0501672700047493
1772811959186163200,0.1241630859375,-0.6640864014625549,-0.7694605588912964,0.02023489587008953
1772811959195863800,0.13386376953125,-0.56298828125,-0.8302416205406189,0.024510949850082397
1772811959205564400,0.143564453125,-0.47288569808006287,-0.8809433579444885,0.04528035223484039
1772811959215265000,0.15326513671875,-0.38522660732269287,-0.8839976787567139,0.08681915700435638
1772811959224965600,0.162965576171875,-0.31375542283058167,-0.8540652990341187,0.1424078494310379
1772811959234666200,0.172666259765625,-0.2719111740589142,-0.8354339599609375,0.20227259397506714
1772811959244366800,0.182366943359375,-0.2514472007751465,-0.8259655237197876,0.27404922246932983
1772811959254067500,0.1920673828125,-0.24594943225383759,-0.8128319382667542,0.34643667936325073
1772811959263768000,0.20176806640625,-0.26213735342025757,-0.8235220909118652,0.4081340432167053
1772811959273468700,0.21146875,-0.2969566285610199,-0.885219395160675,0.4566977918148041
1772811959283169300,0.221169189453125,-0.3430769443511963,-0.9902881383895874,0.4957931339740753
1772811959292870000,0.230869873046875,-0.40110909938812256,-1.0855830907821655,0.5104538798332214
1772811959302570500,0.240570556640625,-0.4667770564556122,-1.134146809577942,0.5138136148452759
1772811959312271000,0.25027099609375,-0.5312232971191406,-1.1518619060516357,0.49915286898612976
1772811959321971700,0.2599716796875,-0.5947532057762146,-1.1598031520843506,0.4716639816761017
1772811959331672300,0.26967236328125,-0.6723330616950989,-1.1210132837295532,0.44234246015548706
1772811959341373000,0.279373046875,-0.7547997832298279,-0.997618556022644,0.42768171429634094
1772811959351073500,0.289073486328125,-0.8253546953201294,-0.8229112029075623,0.43776097893714905
1772811959360774100,0.298774169921875,-0.8705586791038513,-0.6497310400009155,0.4698313772678375
1772811959370474800,0.308474853515625,-0.894076943397522,-0.5339722037315369,0.507094144821167
1772811959380175400,0.31817529296875,-0.9139300584793091,-0.4951822757720947,0.5541307330131531
1772811959389876000,0.3278759765625,-0.940197229385376,-0.47838348150253296,0.6112465858459473
1772811959399576600,0.33757666015625,-0.9719622135162354,-0.45883581042289734,0.6613374948501587
1772811959409277200,0.347277099609375,-0.9957859516143799,-0.4609738290309906,0.6894372701644897
1772811959418977800,0.356977783203125,-1.004338026046753,-0.5034289360046387,0.6790525317192078
1772811959428678400,0.366678466796875,-0.9994511604309082,-0.5648208260536194,0.6436223983764648
1772811959438379000,0.37637890625,-0.9881501197814941,-0.636292040348053,0.5892554521560669
1772811959448079600,0.38607958984375,-0.9777654409408569,-0.7190641760826111,0.5128973126411438
1772811959457780200,0.3957802734375,-0.9753220081329346,-0.7719039916992188,0.4252382516860962
1772811959467480800,0.405480712890625,-0.9789871573448181,-0.7667116522789001,0.32994332909584045
1772811959477181400,0.415181396484375,-0.9930370450019836,-0.6989056468009949,0.2251800298690796
1772811959486882000,0.424882080078125,-1.014111876487732,-0.5862011313438416,0.11552979797124863
1772811959496582700,0.434582763671875,-1.0373247861862183,-0.455781489610672,0.011988221667706966
1772811959506283300,0.444283203125,-1.0538181066513062,-0.3473529815673828,-0.072921983897686
1772811959515984000,0.45398388671875,-1.0538181066513062,-0.29451319575309753,-0.13645191490650177
1772811959525684500,0.4636845703125,-1.0416008234024048,-0.29390230774879456,-0.18196134269237518
1772811959535385000,0.473385009765625,-1.0098358392715454,-0.3058141767978668,-0.2173915058374405
1772811959545085700,0.483085693359375,-0.9661589860916138,-0.33452481031417847,-0.2680932879447937
1772811959554786300,0.492786376953125,-0.9127083420753479,-0.3785070776939392,-0.3459785282611847
1772811959564487200,0.502487060546875,-0.8549816012382507,-0.4136318266391754,-0.4311941862106323
1772811959574187500,0.5121875,-0.8042798638343811,-0.3928624093532562,-0.5142717957496643
1772811959583888100,0.52188818359375,-0.7517454624176025,-0.3113119602203369,-0.595211386680603
1772811959593588700,0.531588623046875,-0.6885209679603577,-0.22059854865074158,-0.6850084662437439
1772811959603289300,0.541289306640625,-0.6097193956375122,-0.18150319159030914,-0.7858011722564697
1772811959612990000,0.550989990234375,-0.5361102223396301,-0.18730641901493073,-0.8658244609832764
1772811959622690800,0.56069091796875,-0.4906007647514343,-0.2612210512161255,-0.9281326532363892
1772811959632391400,0.570391357421875,-0.45272716879844666,-0.4249328076839447,-0.9675334692001343
1772811959642091800,0.580091796875,-0.4136318266391754,-0.644844114780426,-0.9806670546531677
1772811959651792400,0.58979248046875,-0.3989710509777069,-0.8833868503570557,-0.9537889957427979
1772811959661493000,0.599492919921875,-0.42279478907585144,-1.0929133892059326,-0.9061415195465088
1772811959671193600,0.609193603515625,-0.4255436658859253,-1.2276091575622559,-0.8658244609832764
1772811959680894500,0.61889453125,-0.3525453209877014,-1.3183225393295288,-0.7644209265708923
1772811959690595000,0.628594970703125,-0.1943313628435135,-1.2422698736190796,-0.6526326537132263
1772811959700295700,0.638295654296875,0.020693045109510422,-0.9686024785041809,-0.6031526327133179
1772811959709996000,0.64799609375,0.303523451089859,-0.6375137567520142,-0.6327795386314392
1772811959719696600,0.657696533203125,0.622394859790802,-0.3336085379123688,-0.6385827660560608
1772811959729397200,0.667397216796875,0.8954514265060425,-0.1170569658279419,-0.5716930627822876
1772811959739098000,0.67709814453125,1.038088321685791,-0.13538290560245514,-0.47181668877601624
1772811959748798700,0.686798828125,1.028314471244812,-0.3284161686897278,-0.3291797637939453
1772811959758499300,0.696499267578125,0.9418771266937256,-0.5727620720863342,-0.13278673589229584
1772811959768199700,0.70619970703125,0.8252019882202148,-0.7181479334831238,0.1326340138912201
1772811959777900300,0.715900390625,0.6596575975418091,-0.7538834810256958,0.45761406421661377
1772811959787601000,0.725600830078125,0.478841632604599,-0.7703768610954285,0.8216894865036011
1772811959797301800,0.7353017578125,0.30718863010406494,-0.7499128580093384,1.200120210647583
1772811959807002400,0.74500244140625,0.1761581301689148,-0.7584649920463562,1.5556435585021973
1772811959816703000,0.754702880859375,0.12545634806156158,-0.8470403552055359,1.8561890125274658
1772811959826403600,0.764403564453125,0.1602756530046463,-0.9783763289451599,2.0925936698913574
1772811959836104000,0.77410400390625,0.21097742021083832,-1.2492948770523071,2.2098796367645264
1772811959845804500,0.783804443359375,0.05734493210911751,-1.959730625152588,2.021427869796753
1772811959855505400,0.79350537109375,-0.245338574051857,-2.692157506942749,1.597182273864746
1772811959865206000,0.8032060546875,-0.43226319551467896,-3.0540947914123535,1.18209969997406
1772811959874906600,0.81290673828125,-0.49426597356796265,-2.9471933841705322,0.8846085667610168
1772811959884607200,0.822607177734375,-0.5067886710166931,-2.499429702758789,0.7037925720214844
1772811959894307800,0.832307861328125,-0.5150353908538818,-1.9160537719726562,0.5648208260536194
1772811959904008200,0.84200830078125,-0.534277617931366,-1.3067160844802856,0.38095054030418396
1772811959913708800,0.851708740234375,-0.5431351661682129,-0.7340303659439087,0.11369720846414566
1772811959923409700,0.86140966796875,-0.5376373529434204,0.014889828860759735,-0.3093266487121582
1772811959933110300,0.8711103515625,-0.4658607542514801,0.7396808862686157,-0.741818904876709
1772811959942811000,0.880810791015625,-0.14057525992393494,0.9650899767875671,-1.00998854637146
1772811959952511500,0.890511474609375,0.1963166743516922,0.9363793730735779,-1.2738821506500244
1772811959962211800,0.9002119140625,0.47731447219848633,0.7830522656440735,-1.536553978919983
1772811959971912400,0.909912353515625,0.7036398649215698,0.5689441561698914,-1.750662088394165
1772811959981613300,0.91961328125,0.8624647259712219,0.39332056045532227,-1.925369381904602
1772811959991314000,0.92931396484375,0.9513455629348755,0.2781725525856018,-2.088775873184204
1772811960001014500,0.9390146484375,0.9797507524490356,0.2112828493118286,-2.292193651199341
1772811960010715100,0.948715087890625,0.9983821511268616,0.14378230273723602,-2.547229766845703
1772811960020415700,0.958415771484375,1.0496947765350342,0.08055779337882996,-2.8196754455566406
1772811960030116000,0.9681162109375,1.1431571245193481,0.0576503649353981,-3.0120978355407715
1772811960039817000,0.97781689453125,1.2628865242004395,0.15874847769737244,-3.027369499206543
1772811960049517600,0.987517578125,1.3294708728790283,0.5298488140106201,-2.909778118133545
1772811960059218200,0.99721826171875,1.3041199445724487,1.113224744796753,-2.748509645462036
1772811960068918800,1.006918701171875,1.2259292602539062,1.7662391662597656,-2.5765511989593506
1772811960078619400,1.016619384765625,1.1657590866088867,2.3300673961639404,-2.4033710956573486
1772811960088319700,1.02631982421875,1.1889718770980835,2.541426658630371,-2.2460734844207764
1772811960098020600,1.0360205078125,1.2570834159851074,2.3859615325927734,-2.1269547939300537
1772811960107721200,1.04572119140625,1.2760201692581177,1.8786382675170898,-2.0646464824676514
1772811960117421800,1.055421875,1.1642318964004517,1.0335068702697754,-2.0643410682678223
1772811960127122400,1.065122314453125,0.8969785571098328,-0.025732679292559624,-2.093968152999878
1772811960136823000,1.074822998046875,0.5344303250312805,-0.9105703234672546,-2.0820562839508057
1772811960146523400,1.0845234375,0.19295690953731537,-1.4062870740890503,-1.9775983095169067
1772811960156224300,1.094224365234375,-0.007101302966475487,-1.6396374702453613,-1.7876194715499878
1772811960165924900,1.1039248046875,-0.019013166427612305,-1.7615050077438354,-1.520060658454895
1772811960175625500,1.11362548828125,0.03657552972435951,-1.73798668384552,-1.1440733671188354
1772811960185326000,1.123326171875,0.07170025259256363,-1.6588796377182007,-0.6758455038070679
1772811960195026700,1.133026611328125,0.12392919510602951,-1.672624111175537,-0.23357942700386047
1772811960204727300,1.142727294921875,0.26076290011405945,-1.8586324453353882,0.02390008419752121
1772811960214428000,1.152427978515625,0.4996110200881958,-2.30334210395813,-0.0017562361899763346
1772811960224128500,1.16212841796875,0.7155517339706421,-2.781954526901245,-0.28703010082244873
1772811960233829000,1.1718291015625,0.7839685678482056,-2.8561747074127197,-0.6336958408355713
1772811960243529700,1.18152978515625,0.6761509776115417,-2.4413974285125732,-0.8841503858566284
1772811960253230300,1.191230224609375,0.49655669927597046,-1.8720715045928955,-1.0160971879959106
1772811960262931000,1.200930908203125,0.3462839722633362,-1.3094650506973267,-1.0429753065109253
1772811960272631600,1.210631591796875,0.24701844155788422,-0.7902299761772156,-1.0325905084609985
1772811960282332200,1.220332275390625,0.1856265366077423,-0.3067304790019989,-1.0533599853515625
1772811960292032800,1.23003271484375,0.13217586278915405,0.14622575044631958,-1.110781192779541
1772811960301733400,1.2397333984375,0.06467530876398087,0.5298488140106201,-1.1834741830825806
1772811960311434000,1.24943408203125,0.015195261687040329,0.8090140223503113,-1.230816125869751
1772811960321134600,1.259134521484375,-0.015347977168858051,0.9430988430976868,-1.24058997631073
1772811960330835000,1.2688349609375,-0.060551971197128296,0.9345467686653137,-1.224096655845642
1772811960340535800,1.278535888671875,-0.09414953738451004,0.8957568407058716,-1.2185988426208496
1772811960350236400,1.288236328125,-0.0602465383708477,0.94523686170578,-1.2638028860092163
1772811960359937000,1.29793701171875,0.04909825697541237,1.049083948135376,-1.3209186792373657
1772811960369637600,1.3076376953125,0.20028728246688843,1.1165844202041626,-1.3325251340866089
1772811960379338200,1.317338134765625,0.2690095901489258,1.1923316717147827,-1.345353364944458
1772811960389038600,1.32703857421875,0.3139081299304962,0.9974658489227295,-1.315726399421692
1772811960398739500,1.336739501953125,0.4467712342739105,0.5982657074928284,-1.156596064567566
1772811960408440000,1.346440185546875,0.7164680361747742,0.21555891633033752,-0.8786526322364807
1772811960418140700,1.356140625,1.0356448888778687,-0.09842558950185776,-0.5759690999984741
1772811960427841300,1.36584130859375,1.1394919157028198,-0.3433823585510254,-0.23999349772930145
1772811960437542000,1.3755419921875,1.0203732252120972,-0.6512582302093506,0.0910952091217041
1772811960447242200,1.3852421875,0.8035162687301636,-0.9832631945610046,0.3940841555595398
1772811960456943000,1.394943115234375,0.6333904266357422,-1.4099522829055786,0.643927812576294
1772811960466643700,1.404643798828125,0.5832995176315308,-1.9288818836212158,0.8482621312141418
1772811960476344300,1.41434423828125,0.6193405389785767,-2.460334300994873,1.0467931032180786
1772811960486045000,1.424044921875,0.6703477501869202,-2.9701008796691895,1.2312743663787842
1772811960495745500,1.43374560546875,0.677067220211029,-3.348531723022461,1.3696352243423462
1772811960505446000,1.44344580078125,0.5851321220397949,-3.4444375038146973,1.4756202697753906
1772811960515146800,1.453146728515625,0.386601060628891,-3.3005788326263428,1.5095232725143433
1772811960524847400,1.462847412109375,0.29710936546325684,-2.962770462036133,1.4826451539993286
1772811960534548000,1.4725478515625,0.41958773136138916,-2.440175771713257,1.4114794731140137
1772811960544248600,1.48224853515625,0.5930733680725098,-1.8164827823638916,1.2153918743133545
1772811960553949000,1.491948974609375,0.7253255844116211,-1.153999924659729,0.8891900181770325
1772811960563649500,1.5016494140625,0.8279508352279663,-0.5684860348701477,0.5290852785110474
1772811960573350400,1.511350341796875,0.8371137976646423,-0.21815508604049683,0.21540619432926178
1772811960583051000,1.521051025390625,0.7311288118362427,-0.1372154951095581,0.01779143698513508
1772811960592751600,1.530751708984375,0.602847158908844,-0.21326816082000732,-0.023441936820745468
1772811960602452200,1.5404521484375,0.5170207023620605,-0.38064512610435486,0.06727148592472076
1772811960612152600,1.550152587890625,0.4635699987411499,-0.5776489973068237,0.23861905932426453
1772811960621853200,1.559853271484375,0.42997244000434875,-0.6912698745727539,0.45853036642074585
1772811960631554000,1.569553955078125,0.43058329820632935,-0.7166207432746887,0.7056251764297485
1772811960641254700,1.579254638671875,0.46051567792892456,-0.6924915909767151,0.9686024785041809
1772811960650955300,1.588955322265625,0.500832736492157,-0.6430115103721619,1.1949278116226196
1772811960660655900,1.59865576171875,0.5313760042190552,-0.6094139814376831,1.2941933870315552
1772811960670356200,1.608356201171875,0.48647743463516235,-0.6201041340827942,1.2660936117172241
1772811960680056800,1.618056884765625,0.36338818073272705,-0.7303652167320251,1.1567487716674805
1772811960689757700,1.6277578125,0.2790888547897339,-0.9860121011734009,0.9276745319366455
1772811960699458300,1.637458251953125,0.38324129581451416,-1.219362497329712,0.5199222564697266
1772811960709159000,1.647158935546875,0.6862302422523499,-1.1549161672592163,-0.09552398324012756
1772811960718859300,1.656859375,1.0521382093429565,-0.7719039916992188,-0.826423704624176
1772811960728559900,1.666559814453125,1.3154209852218628,-0.256334125995636,-1.3752857446670532
1772811960738260500,1.676260498046875,1.2763255834579468,0.15691588819026947,-1.555185317993164
1772811960747961300,1.68596142578125,0.8881210088729858,0.28214317560195923,-1.2540290355682373
1772811960757662000,1.695661865234375,0.5044979453086853,0.2537379562854767,-0.5344303250312805
1772811960767362600,1.705362548828125,0.16363540291786194,0.3181841969490051,0.34490951895713806
1772811960777063000,1.71506298828125,0.03810269013047218,0.40981391072273254,1.1912627220153809
1772811960786763500,1.724763427734375,0.11537708342075348,0.5249619483947754,1.9163591861724854
1772811960796464000,1.734464111328125,0.2421315312385559,0.5124391913414001,2.6020548343658447
1772811960806164700,1.744164794921875,0.339869886636734,0.28641921281814575,3.2474334239959717
1772811960815865600,1.753865478515625,0.37316203117370605,-0.05841394513845444,3.73429274559021
1772811960825566200,1.763566162109375,0.32826346158981323,-0.42737627029418945,3.927631378173828
1772811960835266600,1.7732666015625,0.24915647506713867,-0.6955459117889404,3.790492296218872
1772811960844967200,1.78296728515625,0.20303617417812347,-0.8134428262710571,3.4010660648345947
1772811960854667800,1.792667724609375,0.15783219039440155,-0.8265764117240906,2.9511640071868896
1772811960864368400,1.802368408203125,0.10957387089729309,-0.8045852780342102,2.680856466293335
1772811960874069200,1.8120693359375,0.10743584483861923,-0.9182060956954956,2.7135376930236816
1772811960883769600,1.82176953125,0.1190422773361206,-1.3015238046646118,2.9872050285339355
1772811960893470200,1.83147021484375,0.13675735890865326,-1.894673466682434,3.3466989994049072
1772811960903170800,1.8411708984375,0.12209659814834595,-2.343353748321533,3.602956771850586
1772811960912871400,1.850871337890625,-0.07154753804206848,-2.54341197013855,3.5269041061401367
1772811960922572000,1.860572021484375,-0.40691229701042175,-2.541884660720825,3.119762897491455
1772811960932272600,1.870272705078125,-0.7612138986587524,-2.2721879482269287,2.555323839187622
1772811960941973200,1.87997314453125,-1.061453938484192,-1.8015166521072388,1.9829434156417847
1772811960951673900,1.889673828125,-1.3100758790969849,-1.2062288522720337,1.478369116783142
1772811960961374500,1.89937451171875,-1.515937328338623,-0.5458840131759644,1.0761146545410156
1772811960971075000,1.909074951171875,-1.6549090147018433,0.0029779658652842045,0.8140536546707153
1772811960980775700,1.918775634765625,-1.6946152448654175,0.3499491512775421,0.6650026440620422
1772811960990476300,1.928476318359375,-1.5712205171585083,0.6107884049415588,0.6463713049888611
1772811961000177000,1.938177001953125,-1.3491712808609009,0.7470112442970276,0.7306706309318542
1772811961009877500,1.94787744140625,-1.1307870149612427,0.640720784664154,0.8195514678955078
1772811961019578000,1.957578125,-0.9337831735610962,0.3609447181224823,0.8626174330711365
1772811961029278700,1.96727880859375,-0.7434988021850586,0.0243582334369421,0.8534544706344604
1772811961038979300,1.976979248046875,-0.5761218667030334,-0.26916229724884033,0.794200599193573
1772811961048680000,1.986679931640625,-0.4521162807941437,-0.4698313772678375,0.6836340427398682
1772811961058380500,1.996380615234375,-0.41851872205734253,-0.6097193956375122,0.5397753715515137
1772811961068081200,2.0060810546875,-0.4805215001106262,-0.7141773104667664,0.38736462593078613
1772811961077781800,2.01578173828125,-0.5675697326660156,-0.7447205185890198,0.2514472007751465
1772811961087482400,2.025482421875,-0.6228529810905457,-0.6769145131111145,0.1320231556892395
1772811961097183000,2.035182861328125,-0.6408734917640686,-0.5339722037315369,0.03611737862229347
1772811961106883600,2.044883544921875,-0.6378191709518433,-0.3287216126918793,-0.03321577236056328
1772811961116584200,2.054584228515625,-0.6268236041069031,-0.10514509677886963,-0.08483384549617767
1772811961126284800,2.064284912109375,-0.61827152967453,0.09155336022377014,-0.12759438157081604
1772811961135985400,2.0739853515625,-0.6225475668907166,0.24701844155788422,-0.17707443237304688
1772811961145686000,2.08368603515625,-0.6619483232498169,0.31848961114883423,-0.23663374781608582
1772811961155386600,2.09338671875,-0.7315869331359863,0.325514554977417,-0.29222244024276733
1772811961165087200,2.103087158203125,-0.8042798638343811,0.29649847745895386,-0.34292420744895935
1772811961174787800,2.112787841796875,-0.8662826418876648,0.2381609082221985,-0.38873907923698425
1772811961184488400,2.122488525390625,-0.895604133605957,0.1608865112066269,-0.42019861936569214
1772811961194189000,2.13218896484375,-0.8742238283157349,0.10041090101003647,-0.41897687315940857
1772811961203889700,2.1418896484375,-0.803363561630249,0.07628174126148224,-0.38354671001434326
1772811961213590300,2.15159033203125,-0.7074577808380127,0.09002619981765747,-0.3337612450122833
1772811961223291000,2.161290771484375,-0.6146063208580017,0.104076087474823,-0.2992473840713501
1772811961232991500,2.170991455078125,-0.571540355682373,0.08727730810642242,-0.26534438133239746
1772811961242692000,2.180692138671875,-0.598723828792572,0.04085158184170723,-0.19326233863830566
1772811961252392700,2.190392822265625,-0.6595048904418945,0.030161447823047638,-0.07078395783901215
1772811961262093300,2.20009326171875,-0.7157044410705566,0.07628174126148224,0.08651372790336609
1772811961271794000,2.2097939453125,-0.756632387638092,0.17279838025569916,0.2294560819864273
1772811961281494500,2.21949462890625,-0.7938951253890991,0.2534325122833252,0.3180314898490906
1772811961291195100,2.229195068359375,-0.8671988844871521,0.26595523953437805,0.3271944522857666
1772811961300895700,2.238895751953125,-0.988455593585968,0.18990258872509003,0.2761872410774231
1772811961310596400,2.248596435546875,-1.0122792720794678,0.020998476073145866,0.19585852324962616
1772811961320297000,2.258296875,-0.7673225402832031,-0.13080142438411713,0.011682788841426373
1772811961329997600,2.26799755859375,-0.2914588451385498,-0.2514472007751465,-0.4021781086921692
1772811961339698200,2.2776982421875,0.21800236403942108,-0.5492438077926636,-1.0887900590896606
1772811961349398800,2.287398681640625,0.5906298756599426,-0.9963968396186829,-1.8884121179580688
1772811961359099400,2.297099365234375,0.7934370040893555,-1.2648718357086182,-2.5237114429473877
1772811961368799700,2.3067998046875,0.8762091398239136,-1.338481068611145,-2.898477077484131
1772811961378500600,2.31650048828125,1.0289254188537598,-1.431943416595459,-3.1406848430633545
1772811961388201200,2.326201171875,1.2396737337112427,-1.8131229877471924,-3.5847835540771484
1772811961397901800,2.33590185546875,1.4079669713974,-2.1011457443237305,-4.063090801239014
1772811961407602400,2.3456025390625,1.3404663801193237,-1.3241257667541504,-4.152276992797852
1772811961417302800,2.355302734375,1.0500001907348633,0.4876991808414459,-3.7491061687469482
1772811961427003400,2.36500341796875,0.88995361328125,2.1461970806121826,-3.0069055557250977
1772811961436704300,2.374704345703125,1.031063437461853,2.9259660243988037,-2.0026438236236572
1772811961446404900,2.38440478515625,1.3542108535766602,2.6941428184509277,-0.845360517501831
1772811961456105500,2.39410546875,1.5567125082015991,1.5787036418914795,0.3079521954059601
1772811961465805800,2.403805908203125,1.472413182258606,-0.11919499188661575,1.2731186151504517
1772811961475506400,2.41350634765625,1.2118793725967407,-1.8311434984207153,1.9316308498382568
1772811961485207000,2.42320703125,0.9553161859512329,-2.9789583683013916,2.2990660667419434
1772811961494908000,2.432907958984375,0.8032108545303345,-3.4313037395477295,2.4191009998321533
1772811961504608500,2.4426083984375,0.7167734503746033,-3.321348190307617,2.2969279289245605
1772811961514308900,2.452308837890625,0.6324741244316101,-2.8299074172973633,1.9838597774505615
1772811961524009500,2.462009521484375,0.5167152285575867,-2.1738386154174805,1.5684716701507568
1772811961533710000,2.4717099609375,0.35208719968795776,-1.5275437831878662,1.134452223777771
1772811961543410700,2.48141064453125,0.16271910071372986,-0.9447787404060364,0.7321978211402893
1772811961553111300,2.491111328125,-0.014126247726380825,-0.4707476794719696,0.3775908052921295
1772811961562812000,2.50081201171875,-0.1482110619544983,-0.08254310488700867,0.0755181610584259
1772811961572512500,2.510512451171875,-0.26702427864074707,0.21891866624355316,-0.13858994841575623
1772811961582213000,2.520213134765625,-0.3488801419734955,0.38965538144111633,-0.256792277097702
1772811961591913700,2.529913818359375,-0.4041634202003479,0.4886154532432556,-0.32704174518585205
1772811961601614300,2.5396142578125,-0.44386962056159973,0.48250681161880493,-0.376827210187912
1772811961611315000,2.54931494140625,-0.4823541045188904,0.38385215401649475,-0.3795761168003082
1772811961621015600,2.559015625,-0.5165625214576721,0.2421315312385559,-0.30169084668159485
1772811961630716200,2.568716064453125,-0.5513818264007568,0.08208495378494263,-0.14103341102600098
1772811961640416800,2.578416748046875,-0.5785652995109558,-0.10850485414266586,0.08865175396203995
1772811961650117400,2.588117431640625,-0.5819250345230103,-0.3171151876449585,0.3528507649898529
1772811961659818000,2.59781787109375,-0.5474112033843994,-0.5599339008331299,0.627129077911377
1772811961669518600,2.6075185546875,-0.49273881316185,-0.8974367380142212,0.904461681842804
1772811961679219200,2.61721923828125,-0.4197404682636261,-1.3174062967300415,1.2037854194641113
1772811961688919800,2.626919921875,-0.2951240539550781,-1.8296164274215698,1.5012766122817993
1772811961698620400,2.636620361328125,-0.10911571979522705,-2.312505006790161,1.7175227403640747
1772811961708321000,2.646321044921875,0.15691588819026947,-2.6484806537628174,1.7456225156784058
1772811961718021600,2.656021728515625,0.46906778216362,-2.828991174697876,1.4328596591949463
1772811961727722200,2.66572216796875,0.7149408459663391,-2.7828707695007324,0.7505237460136414
1772811961737422800,2.6754228515625,0.7812197208404541,-2.42979097366333,-0.12851068377494812
1772811961747123500,2.68512353515625,0.6688205599784851,-1.831754446029663,-1.0515273809432983
1772811961756824000,2.694823974609375,0.4724275469779968,-1.10635244846344,-1.925063967704773
1772811961766524700,2.704524658203125,0.3249036967754364,-0.27313292026519775,-2.6180901527404785
1772811961776225300,2.714225341796875,0.3096320927143097,0.6239219903945923,-3.02187180519104
1772811961785926000,2.72392578125,0.3753000497817993,1.4843250513076782,-3.1461827754974365
1772811961795626500,2.73362646484375,0.43027788400650024,2.202702045440674,-3.0652430057525635
1772811961805327000,2.7433271484375,0.42050403356552124,2.6913938522338867,-2.8328089714050293
1772811961815076000,2.753076171875,0.3652207851409912,2.9024477005004883,-2.508439779281616
1772811961824728300,2.762728271484375,0.3349829614162445,2.8896195888519287,-2.113210439682007
1772811961834429000,2.772428955078125,0.3930151164531708,2.761948823928833,-1.650174856185913
1772811961844129500,2.782129638671875,0.5264890789985657,2.558530807495117,-1.1367429494857788
1772811961853830100,2.791830078125,0.7027235627174377,2.331899881362915,-0.6327795386314392
1772811961863530500,2.801530517578125,0.8914808034896851,2.1125993728637695,-0.1862373948097229
1772811961873231000,2.811231201171875,1.1226930618286133,1.918344497680664,0.23189954459667206
1772811961882932000,2.820931884765625,1.3404663801193237,1.6547563076019287,0.6066650748252869
1772811961892632600,2.830632568359375,1.4314852952957153,1.309312343597412,0.9194278717041016
1772811961902333000,2.8403330078125,1.3795617818832397,0.9220240116119385,1.1811834573745728
1772811961912033500,2.850033447265625,1.261664867401123,0.5380955338478088,1.3781872987747192
1772811961921734100,2.859734130859375,1.122998595237732,0.23052509129047394,1.4747039079666138
1772811961931434800,2.869434814453125,0.9840267896652222,0.08025235682725906,1.4673736095428467
1772811961941135400,2.87913525390625,0.871933102607727,0.06101011857390404,1.3723840713500977
1772811961950836000,2.8888359375,0.7952696084976196,0.10835213959217072,1.198593020439148
1772811961960536600,2.89853662109375,0.7674752473831177,0.17279838025569916,0.9673807621002197
1772811961970237200,2.9082373046875,0.8114575147628784,0.24090979993343353,0.7242565751075745
1772811961979937800,2.917937744140625,0.9165262579917908,0.3346775472164154,0.5119810700416565
1772811961989638400,2.927638427734375,1.0008255243301392,0.3649153411388397,0.32414013147354126
1772811961999339000,2.937339111328125,0.9986875653266907,0.22838707268238068,0.14882193505764008
1772811962009039600,2.94703955078125,1.00052011013031,-0.19280420243740082,-0.006337722297757864
1772811962018740200,2.956740234375,0.955010712146759,-0.7309760451316833,-0.08910989761352539
1772811962028440800,2.96644091796875,0.8704059720039368,-1.200120210647583,-0.08544471114873886
1772811962038141400,2.976141357421875,0.7680860757827759,-1.5043308734893799,-0.06925679743289948
1772811962047842000,2.985842041015625,0.6636282205581665,-1.5779401063919067,-0.022220205515623093
1772811962057542700,2.995542724609375,0.5579485893249512,-1.3528363704681396,0.15370884537696838
1772811962067243300,3.0052431640625,0.41867145895957947,-0.9304234385490417,0.4768563210964203
1772811962076944000,3.01494384765625,0.09430225193500519,-0.3849211633205414,0.9114866256713867
1772811962086644500,3.02464453125,-0.3082576394081116,0.14194969832897186,1.4035382270812988
1772811962096345000,3.034344970703125,-0.5877282619476318,0.26015204191207886,1.8161773681640625
1772811962106045700,3.044045654296875,-0.6729438900947571,-0.022067490965127945,2.0953426361083984
1772811962115746300,3.053746337890625,-0.6115520000457764,-0.48846274614334106,2.2657737731933594
1772811962125447000,3.063447021484375,-0.4811323583126068,-0.9789871573448181,2.3583197593688965
1772811962135147500,3.0731474609375,-0.32566729187965393,-1.4096468687057495,2.415741205215454
1772811962144848100,3.08284814453125,-0.1576794683933258,-1.7578397989273071,2.4539201259613037
1772811962154548700,3.092548828125,-0.0019089524867013097,-1.9972987174987793,2.49912428855896
1772811962164249300,3.102249267578125,0.09033162891864777,-2.146960735321045,2.597473382949829
1772811962173950000,3.111949951171875,0.06406444311141968,-2.1652865409851074,2.762406826019287
1772811962183650600,3.121650634765625,-0.08132137358188629,-2.010432243347168,2.957883596420288
1772811962193351200,3.13135107421875,-0.30489787459373474,-1.744706153869629,3.135950803756714
1772811962203051500,3.141051513671875,-0.5733729600906372,-1.449963927268982,3.292332172393799
1772811962212752400,3.15075244140625,-0.8442915081977844,-1.1317033767700195,3.4419939517974854
1772811962222453000,3.160452880859375,-1.1604139804840088,-0.7816778421401978,3.5815765857696533
1772811962232153300,3.1701533203125,-1.5932116508483887,-0.45853036642074585,3.6142578125
1772811962241854000,3.17985400390625,-2.1038947105407715,-0.2822958827018738,3.3970954418182373
1772811962251554600,3.189554443359375,-2.6200754642486572,-0.15004366636276245,2.873584270477295
1772811962261255200,3.199255126953125,-3.0489025115966797,0.13797907531261444,2.1512367725372314
1772811962270955800,3.208955810546875,-3.3253188133239746,0.6013200283050537,1.4078142642974854
1772811962280656400,3.218656494140625,-3.4453537464141846,1.0780999660491943,0.7532726526260376
1772811962290357000,3.22835693359375,-3.3952627182006836,1.4287363290786743,0.23403756320476532
1772811962300057600,3.2380576171875,-3.1903176307678223,1.5420517921447754,-0.1443931609392166
1772811962309758200,3.24775830078125,-2.8641159534454346,1.4009419679641724,-0.38812822103500366
1772811962319458800,3.257458740234375,-2.448422431945801,1.0429753065109253,-0.512133777141571
1772811962329159400,3.267159423828125,-1.9844706058502197,0.4876991808414459,-0.5616137981414795
1772811962338860000,3.276860107421875,-1.5067743062973022,-0.13599377870559692,-0.568027913570404
1772811962348560600,3.286560546875,-1.0761146545410156,-0.6595048904418945,-0.5487856268882751
1772811962358261200,3.29626123046875,-0.7392227649688721,-0.9627992510795593,-0.5234347581863403
1772811962367961900,3.3059619140625,-0.47502371668815613,-1.0941351652145386,-0.48036879301071167
1772811962377662500,3.315662353515625,-0.27282747626304626,-1.0849722623825073,-0.4070650041103363
1772811962387363000,3.325363037109375,-0.12408190965652466,-0.9826523661613464,-0.30749404430389404
1772811962397063700,3.335063720703125,-0.01259908638894558,-0.8528435826301575,-0.23357942700386047
1772811962406764300,3.344764404296875,0.046654798090457916,-0.7315869331359863,-0.2222784161567688
1772811962416465000,3.35446484375,0.06375901401042938,-0.5907825827598572,-0.2690095901489258
1772811962426165500,3.36416552734375,0.05948295816779137,-0.38614290952682495,-0.34811657667160034
1772811962435866000,3.3738662109375,0.048792824149131775,-0.1274416595697403,-0.4544070363044739
1772811962445566700,3.383566650390625,0.028634287416934967,0.12759438157081604,-0.6022363305091858
1772811962455267300,3.393267333984375,-0.011377356946468353,0.39942920207977295,-0.8099303245544434
1772811962464967700,3.4029677734375,-0.06818778067827225,0.6813433170318604,-1.0698533058166504
1772811962474668300,3.412668212890625,-0.11614066362380981,0.9281326532363892,-1.3542108535766602
1772811962484369200,3.422369140625,-0.1417969912290573,1.1058943271636963,-1.6269619464874268
1772811962494069500,3.432069580078125,-0.1323285847902298,1.1953860521316528,-1.8398483991622925
1772811962503770000,3.44177001953125,-0.07887791097164154,1.269606113433838,-1.8966587781906128
1772811962513470700,3.451470703125,0.03168861195445061,1.3236676454544067,-1.7247003316879272
1772811962523171300,3.46117138671875,0.22533275187015533,1.362457513809204,-1.3758965730667114
1772811962532872000,3.470871826171875,0.49258607625961304,1.4873794317245483,-0.9201914072036743
1772811962542572500,3.480572509765625,0.8740711212158203,1.6544508934020996,-0.464486300945282
1772811962552273200,3.490273193359375,1.2989275455474854,1.648647665977478,-0.1251509189605713
1772811962561973800,3.499973876953125,1.5936698913574219,1.1935534477233887,0.016875140368938446
1772811962571674400,3.50967431640625,1.6382629871368408,0.33223408460617065,-0.011530072428286076
1772811962581375000,3.519375,1.5038727521896362,-0.5681806206703186,-0.028634287416934967
1772811962591075600,3.52907568359375,1.3041199445724487,-1.1894301176071167,0.04130972921848297
1772811962600776200,3.538776123046875,1.2387573719024658,-1.366275429725647,0.09781472384929657
1772811962610476800,3.548476806640625,1.4287363290786743,-1.0189988613128662,-0.1193477064371109
1772811962620177400,3.558177490234375,1.6284891366958618,-0.5077049732208252,-0.8001564741134644
1772811962629878000,3.5678779296875,1.5542690753936768,0.15905392169952393,-1.798004150390625
1772811962639578600,3.57757861328125,1.1920262575149536,1.2448660135269165,-2.6187009811401367
1772811962649279200,3.587279296875,0.7891609072685242,2.2772276401519775,-2.887176036834717
1772811962658979800,3.596979736328125,0.6379718780517578,2.5881576538085938,-2.5484514236450195
1772811962668680400,3.606680419921875,0.7766382098197937,2.119013547897339,-1.732641577720642
1772811962678381000,3.616381103515625,1.0090723037719727,1.261359453201294,-0.565889835357666
1772811962688081700,3.62608154296875,1.1819469928741455,0.4119519293308258,0.7083740830421448
1772811962697782300,3.6357822265625,1.1614830493927002,-0.1992182731628418,1.8241186141967773
1772811962707483000,3.64548291015625,0.9577596187591553,-0.4960985481739044,2.5959463119506836
1772811962717183500,3.65518359375,0.6605738997459412,-0.446007639169693,3.0088908672332764
1772811962726884000,3.664884033203125,0.3557523787021637,-0.2856556475162506,3.1603853702545166
1772811962736584400,3.67458447265625,0.013668099418282509,-0.3128391206264496,3.1270930767059326
1772811962746285000,3.68428515625,-0.5073995590209961,-0.5745946764945984,2.9841508865356445
1772811962755985700,3.693985595703125,-0.8513164520263672,-1.1292599439620972,2.6658902168273926
1772811962765686300,3.703686279296875,-1.0440442562103271,-1.7801363468170166,2.170173406600952
1772811962775387000,3.713386962890625,-1.0651191473007202,-2.1649811267852783,1.5571706295013428
1772811962785087500,3.72308740234375,-0.9182060956954956,-2.242255449295044,0.9447787404060364
1772811962794788000,3.7327880859375,-0.6219366788864136,-2.093815326690674,0.4609738290309906
1772811962804488700,3.74248876953125,-0.27374377846717834,-1.8305326700210571,0.16592614352703094
1772811962814189300,3.752189208984375,0.12728895246982574,-1.6136757135391235,0.03367391973733902
1772811962823890000,3.761889892578125,0.4519635736942291,-1.420642375946045,0.04222602769732475
1772811962833590500,3.771590576171875,0.6291143894195557,-1.1121556758880615,0.1573740392923355
1772811962843291100,3.781291015625,0.6883682608604431,-0.745942234992981,0.3161988854408264
1772811962852991700,3.79099169921875,0.6978366374969482,-0.450589120388031,0.46860963106155396
1772811962862692400,3.8006923828125,0.73204505443573,-0.2709949016571045,0.5904771685600281
1772811962872393000,3.81039306640625,0.8117629289627075,-0.091400645673275,0.6924915909767151
1772811962882093600,3.820093505859375,0.9208022952079773,0.13553562760353088,0.7685442566871643
1772811962891794200,3.829794189453125,1.0124319791793823,0.33773186802864075,0.7798452377319336
1772811962901494800,3.839494873046875,1.0539708137512207,0.4424951672554016,0.7050142884254456
1772811962911195400,3.8491953125,1.0270928144454956,0.49777844548225403,0.552603542804718
1772811962920896000,3.85889599609375,0.9467640519142151,0.6300306916236877,0.3476584255695343
1772811962930596600,3.8685966796875,0.8236747980117798,0.7170788645744324,0.11552979797124863
1772811962940297200,3.878297119140625,0.650189220905304,0.6853139400482178,-0.10651954263448715
1772811962949997600,3.88799755859375,0.46173742413520813,0.5726093649864197,-0.28519749641418457
1772811962959698200,3.8976982421875,0.3047451674938202,0.40553784370422363,-0.37804892659187317
1772811962969399000,3.90739892578125,0.21464261412620544,0.284586638212204,-0.3603338599205017
1772811962979099400,3.917099365234375,0.1712712198495865,0.25954118371009827,-0.29558220505714417
1772811962988800000,3.926800048828125,0.13064870238304138,0.2876409590244293,-0.25037819147109985
1772811962998500600,3.93650048828125,0.08697187155485153,0.4376082420349121,-0.26534438133239746
1772811963008201200,3.946201171875,0.0784197673201561,0.8227584958076477,-0.36308276653289795
1772811963017901800,3.95590185546875,0.11323905736207962,1.2051599025726318,-0.5729147791862488
1772811963027602400,3.9656025390625,0.14897464215755463,1.5615994930267334,-0.852996289730072
1772811963037303000,3.975302978515625,0.21067199110984802,1.8126648664474487,-1.1807252168655396
1772811963047003600,3.985003662109375,0.3151298761367798,1.7549381256103516,-1.5570179224014282
1772811963056704300,3.994704345703125,0.4519635736942291,1.4269037246704102,-1.9638539552688599
1772811963066404900,4.00440478515625,0.6999746561050415,0.9553161859512329,-2.323347806930542
1772811963076105500,4.01410546875,1.011210322380066,0.3972911834716797,-2.4650683403015137
1772811963085806000,4.02380615234375,1.2317324876785278,0.01824958436191082,-2.225609540939331
1772811963095506700,4.033506591796875,1.2094359397888184,-0.05810851231217384,-1.6969059705734253
1772811963105207300,4.043207275390625,0.8224530816078186,0.27695080637931824,-1.093677043914795
1772811963114908000,4.052907958984375,0.1660788655281067,0.39881834387779236,-0.6730966567993164
1772811963124608500,4.0626083984375,-0.5046506524085999,0.11995857208967209,-0.4748710095882416
1772811963134309000,4.07230908203125,-1.0174716711044312,0.11384992301464081,-0.34261879324913025
1772811963144009700,4.082009765625,-1.244713306427002,0.4290561378002167,-0.07108938694000244
1772811963153710300,4.09171044921875,-1.1103230714797974,0.5545888543128967,0.4411207437515259
1772811963163410700,4.10141064453125,-0.7343358397483826,0.3569740951061249,1.10940682888031
1772811963173111600,4.111111572265625,-0.2590830326080322,-0.0859028622508049,1.7917428016662598
1772811963182812000,4.12081201171875,0.261984646320343,-0.6744710803031921,2.3751187324523926
1772811963192512500,4.130512451171875,0.6556869745254517,-1.1793508529663086,2.7355289459228516
1772811963202213000,4.140213134765625,0.722882091999054,-1.2239439487457275,2.8222715854644775
1772811963211913700,4.149913818359375,0.6233111619949341,-0.7728202939033508,2.7074291706085205
1772811963221614300,4.1596142578125,0.4525744318962097,-0.3271944522857666,2.441092014312744
1772811963231315000,4.16931494140625,0.25984659790992737,-0.020540328696370125,2.077322006225586
1772811963241015600,4.179015625,0.054901473224163055,0.09094249457120895,1.6552144289016724
1772811963250716200,4.188716064453125,-0.16134466230869293,-0.04894553869962692,1.2205841541290283
1772811963260416800,4.198416748046875,-0.41179922223091125,-0.33544111251831055,0.8516218662261963
1772811963270117400,4.208117431640625,-0.6955459117889404,-0.6598103046417236,0.5394699573516846
1772811963279818000,4.21781787109375,-0.9496656656265259,-0.9356157779693604,0.21754421293735504
1772811963289518600,4.2275185546875,-1.14422607421875,-1.042517066001892,-0.11751510947942734
1772811963299219200,4.23721923828125,-1.2337177991867065,-0.9350048899650574,-0.39942920207977295
1772811963308919800,4.246919921875,-1.2297471761703491,-0.663475513458252,-0.5362629294395447
1772811963318620400,4.256620361328125,-1.1375066041946411,-0.2560287117958069,-0.4156171381473541
1772811963328321000,4.266321044921875,-0.9460004568099976,0.11384992301464081,-0.12667807936668396
1772811963338021600,4.276021728515625,-0.7099012136459351,0.3362047076225281,0.22823435068130493
1772811963347722200,4.28572216796875,-0.43867728114128113,0.26687154173851013,0.5281689763069153
1772811963357422800,4.2954228515625,-0.12713623046875,0.043600473552942276,0.7215076684951782
1772811963367123200,4.305123291015625,0.1813504844903946,-0.2251800298690796,0.7951168417930603
1772811963376823800,4.31482373046875,0.4366919696331024,-0.4191296100616455,0.75571608543396
1772811963386524400,4.3245244140625,0.5881864428520203,-0.4444804787635803,0.6115520000457764
1772811963396225000,4.33422509765625,0.5994874238967896,-0.39133524894714355,0.3940841555595398
1772811963405925600,4.343925537109375,0.4993056058883667,-0.31955865025520325,0.14149154722690582
1772811963415626200,4.353626220703125,0.3038288652896881,-0.19524765014648438,-0.11171189695596695
1772811963425326800,4.363326904296875,0.06467530876398087,-0.04039343446493149,-0.3514763116836548
1772811963435027500,4.37302734375,-0.1527925580739975,0.08758273720741272,-0.5466476082801819
1772811963444728000,4.38272802734375,-0.30489787459373474,0.14194969832897186,-0.6889790892601013
1772811963454428700,4.3924287109375,-0.358348548412323,0.10987929999828339,-0.7940478324890137
1772811963464129300,4.40212939453125,-0.3006218373775482,0.0371863916516304,-0.8682679533958435
1772811963473830000,4.411829833984375,-0.16684244573116302,-0.04711294546723366,-0.926910936832428
1772811963483530500,4.421530517578125,-0.012293653562664986,-0.10392337292432785,-0.974558413028717
1772811963493231000,4.431231201171875,0.13584105670452118,-0.11033745110034943,-1.0121265649795532
1772811963502931700,4.440931640625,0.2674824297428131,-0.08223766833543777,-1.011515736579895
1772811963512632300,4.45063232421875,0.35789039731025696,-0.008933897130191326,-0.9705877900123596
1772811963522333000,4.4603330078125,0.38965538144111633,0.12667807936668396,-0.918053388595581
1772811963532033300,4.470033203125,0.36308276653289795,0.283975750207901,-0.8704059720039368
1772811963541734100,4.479734130859375,0.28519749641418457,0.43455392122268677,-0.8239802122116089
1772811963551434500,4.4894345703125,0.18868085741996765,0.5616137981414795,-0.7711403965950012
1772811963561135000,4.499135009765625,0.09705114364624023,0.6428588032722473,-0.6905062794685364
1772811963570835700,4.508835693359375,0.008781181648373604,0.6944769024848938,-0.5985711216926575
1772811963580536300,4.518536376953125,-0.08345939964056015,0.7250201106071472,-0.5365683436393738
1772811963590237000,4.52823681640625,-0.1735619604587555,0.7231875658035278,-0.5396226644515991
1772811963599937500,4.5379375,-0.22365286946296692,0.7091376781463623,-0.5988765358924866
1772811963609638100,4.54763818359375,-0.21601705253124237,0.7460949420928955,-0.6941714882850647
1772811963619338800,4.5573388671875,-0.15859577059745789,0.8175661563873291,-0.7781654000282288
1772811963629039400,4.567039306640625,-0.010461059398949146,0.94523686170578,-0.769002377986908
1772811963638740000,4.576739990234375,0.28672465682029724,1.0057125091552734,-0.6608793139457703
1772811963648440600,4.586440673828125,0.6706531643867493,0.94523686170578,-0.5692496299743652
1772811963658141200,4.59614111328125,0.9412662386894226,0.7967967391014099,-0.5799397230148315
1772811963667841800,4.605841796875,0.9104176163673401,0.6336958408355713,-0.6584358811378479
1772811963677542400,4.61554248046875,0.6013200283050537,0.37438374757766724,-0.6303361058235168
1772811963687243000,4.625242919921875,0.28214317560195923,-0.1472947746515274,-0.30291256308555603
1772811963696943600,4.634943603515625,0.3355938494205475,-0.8164971470832825,0.256334125995636
1772811963706644200,4.644644287109375,0.7473167181015015,-1.3280963897705078,0.6341540217399597
1772811963716344800,4.6543447265625,0.9977712631225586,-1.4065924882888794,0.4093557596206665
1772811963726045200,4.664045166015625,0.7946587204933167,-0.7963386178016663,-0.32307112216949463
1772811963735745800,4.673745849609375,0.34261879324913025,0.3560578227043152,-1.0417535305023193
1772811963745446400,4.6834462890625,0.040546149015426636,1.3572652339935303,-1.2839614152908325
1772811963755147000,4.69314697265625,0.01611155830323696,1.6691116094589233,-0.9363793730735779
1772811963764847600,4.70284765625,0.2900844216346741,1.253418207168579,-0.1865428388118744
1772811963774548200,4.71254833984375,0.8050433993339539,0.38843363523483276,0.7547997832298279
1772811963784248800,4.722248779296875,1.2873212099075317,-0.6020836234092712,1.710192322731018
1772811963793949400,4.731949462890625,1.4608067274093628,-1.3671917915344238,2.5629594326019287
1772811963803650000,4.741650146484375,1.2873212099075317,-1.757534384727478,3.216890335083008
1772811963813350700,4.7513505859375,0.8459713459014893,-1.8451933860778809,3.580049514770508
1772811963823051300,4.76105126953125,0.30260714888572693,-1.73798668384552,3.5962374210357666
1772811963832751900,4.770751953125,-0.1369100660085678,-1.535485029220581,3.2966082096099854
1772811963842452500,4.780452392578125,-0.3516290485858917,-1.1298707723617554,2.823798894882202
1772811963852153000,4.790153076171875,-0.4930442273616791,-0.6527853608131409,2.3198354244232178
1772811963861853700,4.799853759765625,-0.6622537970542908,-0.2749654948711395,1.8818453550338745
1772811963871554300,4.80955419921875,-0.7926734089851379,0.04451677203178406,1.5208241939544678
1772811963881254700,4.819254638671875,-0.8455132246017456,0.2693150043487549,1.211115837097168
1772811963890955300,4.828955322265625,-0.840320885181427,0.4339430630207062,0.9893718957901001
1772811963900655900,4.83865576171875,-0.774652898311615,0.5906298756599426,0.8730021119117737
1772811963910356500,4.8483564453125,-0.6604211926460266,0.6850084662437439,0.829936146736145
1772811963920057000,4.85805712890625,-0.5290852785110474,0.7005855441093445,0.8366556763648987
1772811963929757700,4.8677578125,-0.39713847637176514,0.6596575975418091,0.8690314888954163
1772811963939458300,4.877458251953125,-0.27404922246932983,0.5805506110191345,0.9081268310546875
1772811963949159000,4.887158935546875,-0.1527925580739975,0.48159050941467285,0.9307288527488708
1772811963958859500,4.896859619140625,-0.02695440873503685,0.35880669951438904,0.9252310395240784
1772811963968560000,4.90656005859375,0.10865757614374161,0.26534438133239746,0.9041562080383301
1772811963978260700,4.9162607421875,0.247629314661026,0.21952952444553375,0.8525381684303284
1772811963987961300,4.92596142578125,0.3658316433429718,0.21403174102306366,0.7636573314666748
1772811963997662000,4.935661865234375,0.4311941862106323,0.26106834411621094,0.6420952677726746
1772811964007362600,4.945362548828125,0.4336376488208771,0.33681556582450867,0.4951822757720947
1772811964017063200,4.955063232421875,0.39423686265945435,0.390571653842926,0.33452481031417847
1772811964026763800,4.964763671875,0.345062255859375,0.4116465151309967,0.1778380125761032
1772811964036464000,4.974464111328125,0.31696245074272156,0.4232529401779175,0.0449749194085598
1772811964046164700,4.984164794921875,0.3285689055919647,0.4330267608165741,-0.06192641705274582
1772811964055865300,4.993865234375,0.3746891915798187,0.4492146968841553,-0.1404225379228592
1772811964065566000,5.00356591796875,0.44005170464515686,0.46570804715156555,-0.2018144577741623
1772811964075266600,5.0132666015625,0.5060251355171204,0.48067423701286316,-0.24518585205078125
1772811964084967200,5.02296728515625,0.5576431751251221,0.47517645359039307,-0.26473352313041687
1772811964094667800,5.032667724609375,0.5878809690475464,0.46112653613090515,-0.26687154173851013
1772811964104368400,5.042368408203125,0.5817723274230957,0.45013099908828735,-0.2690095901489258
1772811964114069000,5.052069091796875,0.528932511806488,0.4886154532432556,-0.2784779667854309
1772811964123769600,5.06176953125,0.4434114694595337,0.575663685798645,-0.2876409590244293
1772811964133470200,5.07147021484375,0.3392590284347534,0.651105523109436,-0.31299182772636414
1772811964143170800,5.0811708984375,0.2369391769170761,0.7500655651092529,-0.349643737077713
1772811964152871400,5.090871337890625,0.13858994841575623,0.8896481990814209,-0.395764023065567
1772811964162572000,5.100572021484375,0.056428633630275726,1.0408371686935425,-0.48647743463516235
1772811964172272600,5.110272705078125,0.09094249457120895,1.1987457275390625,-0.6288089156150818
1772811964181973000,5.119972900390625,0.3441459536552429,1.4217114448547363,-0.8377246856689453
1772811964191673600,5.129673583984375,0.799240231513977,1.6611703634262085,-1.102229118347168
1772811964201374500,5.13937451171875,1.304730772972107,1.62909996509552,-1.3581814765930176
1772811964211074800,5.14907470703125,1.741804599761963,1.122082233428955,-1.5722895860671997
1772811964220775400,5.158775390625,2.041433811187744,0.23938263952732086,-1.3248893022537231
1772811964230476000,5.16847607421875,1.923536777496338,-0.7062360644340515,-0.6459131240844727
1772811964240176600,5.1781767578125,1.1471277475357056,-0.9783763289451599,0.09476039558649063
1772811964249877200,5.187877197265625,0.0243582334369421,-0.9029344916343689,0.41760244965553284
1772811964259577900,5.197577880859375,-0.9637155532836914,-0.49884745478630066,0.26213735342025757
1772811964269278500,5.207278564453125,-1.4227803945541382,0.2931387424468994,-0.10743584483861923
1772811964278979000,5.21697900390625,-1.2471568584442139,0.7726675868034363,-0.3355938494205475
1772811964288679700,5.2266796875,-0.6094139814376831,0.5060251355171204,-0.20456334948539734
1772811964298380300,5.23638037109375,0.04482220485806465,-0.1943313628435135,0.22182027995586395
1772811964308081000,5.246080810546875,0.5090794563293457,-0.6891318559646606,0.7807615399360657
1772811964317781500,5.255781494140625,0.8358920812606812,-0.6995165348052979,1.3613885641098022
1772811964327482000,5.265482177734375,0.9968549609184265,-0.3000109791755676,1.8051817417144775
1772811964337182500,5.275182373046875,0.928438127040863,0.18348850309848785,1.9930226802825928
1772811964346883000,5.284883056640625,0.6840922236442566,0.5457313060760498,1.957287073135376
1772811964356583700,5.294583740234375,0.4330267608165741,0.723798394203186,1.7761657238006592
1772811964366284300,5.3042841796875,0.24946190416812897,0.7723621726036072,1.488142967224121
1772811964375985000,5.31398486328125,0.15966477990150452,0.7250201106071472,1.1775182485580444
1772811964385685500,5.323685546875,0.1395062506198883,0.6285035014152527,0.8870519995689392
1772811964395386000,5.33338623046875,0.06864593178033829,0.5784125924110413,0.6714167594909668
1772811964405086700,5.343086669921875,-0.1378263682126999,0.6428588032722473,0.626518189907074
1772811964414787300,5.352787353515625,-0.45730865001678467,0.6700422763824463,0.7538834810256958
1772811964424488000,5.362488037109375,-0.8235220909118652,0.6083449721336365,1.0031163692474365
1772811964434188500,5.3721884765625,-1.209894061088562,0.5689441561698914,1.3342050313949585
1772811964443889200,5.38188916015625,-1.587103009223938,0.5438987016677856,1.6964478492736816
1772811964453589800,5.39158984375,-1.8824561834335327,0.48220139741897583,2.0339505672454834
1772811964463290400,5.401290283203125,-2.0754895210266113,0.4492146968841553,2.309145212173462
1772811964472991000,5.410990966796875,-2.164064884185791,0.3795761168003082,2.4985132217407227
1772811964482691300,5.42069140625,-2.0620503425598145,0.3099375069141388,2.5568509101867676
1772811964492392000,5.430391845703125,-1.7792199850082397,0.1911243200302124,2.457890748977661
1772811964502092500,5.440092529296875,-1.412395715713501,0.013973532244563103,2.2416446208953857
1772811964511793200,5.449793212890625,-1.0180824995040894,-0.1735619604587555,1.9145265817642212
1772811964521493800,5.45949365234375,-0.6399571895599365,-0.2303723841905594,1.5095232725143433
1772811964531194400,5.4691943359375,-0.3372737169265747,-0.18058690428733826,1.060232162475586
1772811964540895000,5.47889501953125,-0.13019055128097534,-0.08529199659824371,0.6033053398132324
1772811964550595600,5.488595703125,-0.005574141163378954,0.023136503994464874,0.18272492289543152
1772811964560296200,5.498296142578125,0.04512763395905495,0.10315979272127151,-0.18837542831897736
1772811964569996800,5.507996826171875,0.041157014667987823,0.1608865112066269,-0.511217474937439
1772811964579697400,5.517697509765625,0.0029779658652842045,0.2015090137720108,-0.7818305492401123
1772811964589398000,5.52739794921875,-0.054443322122097015,0.20517420768737793,-0.9901354312896729
1772811964599098600,5.5370986328125,-0.10453423857688904,0.17676898837089539,-1.1520146131515503
1772811964608799200,5.54679931640625,-0.11308634281158447,0.14194969832897186,-1.2763255834579468
1772811964618499600,5.55649951171875,-0.0859028622508049,0.11049016565084457,-1.3542108535766602
1772811964628200200,5.5662001953125,-0.031841326504945755,0.058566659688949585,-1.380172610282898
1772811964637900800,5.57590087890625,0.03779725730419159,0.0029779658652842045,-1.342298984527588
1772811964647601400,5.585601318359375,0.11110103130340576,-0.024510949850082397,-1.2219586372375488
1772811964657302000,5.595302001953125,0.19509494304656982,0.03321577236056328,-1.0350340604782104
1772811964667002600,5.605002685546875,0.25098907947540283,0.11720968037843704,-0.8239802122116089
1772811964676703200,5.614703125,0.26595523953437805,0.14928008615970612,-0.6349175572395325
1772811964686403800,5.62440380859375,0.26564982533454895,0.20547963678836823,-0.45074185729026794
1772811964696104400,5.6341044921875,0.2525162398815155,0.2833648920059204,-0.28733551502227783
1772811964705805000,5.64380517578125,0.2112828493118286,0.372245728969574,-0.15294526517391205
1772811964715505700,5.653505615234375,0.15935935080051422,0.4990001618862152,-0.054901473224163055
1772811964725206300,5.663206298828125,0.10193806141614914,0.6520217657089233,-0.0011453714687377214
1772811964734906600,5.67290673828125,0.0295505840331316,0.7818305492401123,0.013820815831422806
1772811964744607500,5.682607421875,-0.006185005884617567,0.8844558596611023,-0.004199695307761431
1772811964754307800,5.692307861328125,0.010613775812089443,0.9406554102897644,-0.04696023091673851
1772811964764008400,5.702008544921875,0.003283398225903511,0.9666171669960022,-0.10132719576358795
1772811964773709000,5.711708984375,-0.04192059487104416,0.9803616404533386,-0.1352301836013794
1772811964783409700,5.72140966796875,-0.04528035223484039,0.9855539798736572,-0.10132719576358795
1772811964793110300,5.7311103515625,0.007254019379615784,0.9495129585266113,-0.015195261687040329
1772811964802811000,5.740810791015625,0.06589704006910324,0.8511636853218079,-0.0023671009112149477
1772811964812511500,5.750511474609375,0.11782054603099823,0.8212313652038574,-0.1190422773361206
1772811964822212000,5.760212158203125,0.14378230273723602,0.8911753296852112,-0.34322965145111084
1772811964831912700,5.76991259765625,0.11843141168355942,0.8835395574569702,-0.6419425010681152
1772811964841613300,5.77961328125,0.22319471836090088,0.6049851775169373,-1.0255656242370605
1772811964851314000,5.78931396484375,0.631557822227478,0.1141553521156311,-1.391473650932312
1772811964861014300,5.79901416015625,1.0710750818252563,-0.3736201822757721,-1.6904919147491455
1772811964870715000,5.80871484375,1.0851249694824219,-0.23678645491600037,-1.9504148960113525
1772811964880415500,5.81841552734375,0.677067220211029,0.7812197208404541,-2.040822982788086
1772811964890116000,5.8281162109375,0.22472187876701355,1.798004150390625,-1.704541802406311
1772811964899816700,5.837816650390625,-0.02909243479371071,2.133674383163452,-0.8487202525138855
1772811964909517300,5.847517333984375,-0.09689842909574509,1.7457752227783203,0.353767067193985
1772811964919218000,5.857218017578125,0.03565923124551773,0.7564796805381775,1.6909500360488892
1772811964928918500,5.86691845703125,0.2680932879447937,-0.36018115282058716,2.941084861755371
1772811964938619100,5.876619140625,0.38354671001434326,-1.0131956338882446,3.940459728240967
1772811964948319700,5.88631982421875,0.3105483949184418,-1.1811834573745728,4.603248119354248
1772811964958020400,5.896020263671875,0.05673406645655632,-1.098105788230896,4.907153129577637
1772811964967721000,5.905720947265625,-0.23220497369766235,-0.8916335105895996,4.92181396484375
1772811964977421600,5.915421630859375,-0.507094144821167,-0.7108175158500671,4.7862019538879395
1772811964987122200,5.9251220703125,-0.8406262993812561,-0.7132610082626343,4.55224084854126
1772811964996822800,5.93482275390625,-1.1411718130111694,-0.7312815189361572,4.182362079620361
1772811965006523100,5.944523193359375,-1.293887972831726,-0.7233402729034424,3.5879905223846436
1772811965016223700,5.9542236328125,-1.2621229887008667,-0.7328086495399475,2.7669882774353027
1772811965025924400,5.96392431640625,-1.0330487489700317,-0.6689732670783997,1.802127480506897
1772811965035625000,5.973625,-0.6579777002334595,-0.4554760456085205,0.8290198445320129
1772811965045325600,5.98332568359375,-0.28473934531211853,-0.1573740392923355,0.014126247726380825
1772811965055026200,5.993026123046875,-0.004352411720901728,0.1963166743516922,-0.5637518167495728
1772811965064726800,6.002726806640625,0.20059272646903992,0.4516581594944,-0.9308815598487854
1772811965074427400,6.012427490234375,0.3563632369041443,0.5866592526435852,-1.1242202520370483
1772811965084128000,6.0221279296875,0.4730384051799774,0.6709585785865784,-1.1590396165847778
1772811965093828600,6.03182861328125,0.5564214587211609,0.6727911829948425,-1.0609958171844482
1772811965103529200,6.041529296875,0.6144536137580872,0.5649735331535339,-0.863381028175354
1772811965113229800,6.051229736328125,0.6621010899543762,0.3560578227043152,-0.586048424243927
1772811965122930200,6.06093017578125,0.6902008652687073,0.11843141168355942,-0.26687154173851013
1772811965132630800,6.070630859375,0.6837867498397827,-0.11766783148050308,0.03886627033352852
1772811965142331400,6.080331298828125,0.6269763112068176,-0.33483025431632996,0.2871828079223633
1772811965152032000,6.090031982421875,0.5225184559822083,-0.4566977918148041,0.4518108665943146
1772811965161732600,6.099732666015625,0.39851289987564087,-0.47410741448402405,0.5193114280700684
1772811965171433200,6.10943310546875,0.2882518172264099,-0.4563923478126526,0.4976257085800171
1772811965181133800,6.1191337890625,0.20914483070373535,-0.4444804787635803,0.4059959948062897
1772811965190834400,6.12883447265625,0.16455170512199402,-0.455781489610672,0.26274821162223816
1772811965200535000,6.13853515625,0.15355613827705383,-0.4860192835330963,0.0859028622508049
1772811965210235600,6.148235595703125,0.16332997381687164,-0.5339722037315369,-0.12026400119066238
1772811965219936300,6.157936279296875,0.19204062223434448,-0.5590176582336426,-0.3392590284347534
1772811965229636900,6.167636962890625,0.2369391769170761,-0.5388590693473816,-0.557337760925293
1772811965239337200,6.177337158203125,0.283975750207901,-0.46463900804519653,-0.7818305492401123
1772811965249037800,6.187037841796875,0.31757333874702454,-0.31039565801620483,-1.0173189640045166
1772811965258738400,6.196738525390625,0.3410916328430176,-0.09017891436815262,-1.2665517330169678
1772811965268439000,6.20643896484375,0.33681556582450867,0.15905392169952393,-1.5252529382705688
1772811965278139600,6.2161396484375,0.30596688389778137,0.40492698550224304,-1.7598251104354858
1772811965287840300,6.22584033203125,0.28214317560195923,0.6382773518562317,-1.9385030269622803
1772811965297540900,6.235540771484375,0.3090212345123291,0.8484148383140564,-2.052123785018921
1772811965307241500,6.245241455078125,0.4369973838329315,0.9757801294326782,-2.130009174346924
1772811965316942000,6.254942138671875,0.7570905089378357,0.890564501285553,-2.22286057472229
1772811965326642700,6.264642578125,1.363373875617981,0.55672687292099,-2.3890159130096436
1772811965336343300,6.27434326171875,2.1849870681762695,-0.1986074149608612,-2.633056163787842
1772811965346043600,6.284043701171875,2.8975608348846436,-1.2434916496276855,-2.6526038646698
1772811965355744300,6.293744140625,3.1153340339660645,-1.839695692062378,-2.1242058277130127
1772811965365444900,6.30344482421875,2.7356815338134766,-1.5168535709381104,-1.294956922531128
1772811965375145500,6.3131455078125,1.9669082164764404,-0.655228853225708,-0.7158571481704712
1772811965384846000,6.32284619140625,1.0716859102249146,-0.019624030217528343,-0.5576431751251221
1772811965394546700,6.332546630859375,0.23144139349460602,0.12056943774223328,-0.8285617232322693
1772811965404247300,6.342247314453125,-0.42310020327568054,0.391182541847229,-1.2671626806259155
1772811965413948000,6.351947998046875,-0.7703768610954285,0.899116575717926,-1.4378993511199951
1772811965423648500,6.3616484375,-0.7163153290748596,1.092455267906189,-1.0500001907348633
1772811965433349000,6.37134912109375,-0.30489787459373474,0.7781654000282288,-0.13858994841575623
1772811965443049700,6.3810498046875,0.18898628652095795,0.17463096976280212,0.9860121011734009
1772811965452750300,6.390750244140625,0.44066259264945984,-0.3794233798980713,2.0119595527648926
1772811965462450700,6.40045068359375,0.37774351239204407,-0.6698895692825317,2.703763961791992
1772811965472151600,6.410151611328125,0.11110103130340576,-0.8235220909118652,2.9890377521514893
1772811965481852000,6.419851806640625,-0.2548069655895233,-1.0083086490631104,2.9285621643066406
1772811965491552500,6.429552490234375,-0.5843685269355774,-1.219667911529541,2.622824192047119
1772811965501253000,6.439253173828125,-0.8867465853691101,-1.3708568811416626,2.1854450702667236
1772811965510953700,6.44895361328125,-1.1323142051696777,-1.4679844379425049,1.716911792755127
1772811965520654300,6.458654296875,-1.146975040435791,-1.384601354598999,1.2914445400238037
1772811965530355000,6.46835498046875,-0.9175952672958374,-1.0266345739364624,1.006170630455017
1772811965540055600,6.4780556640625,-0.5971966981887817,-0.5660426020622253,0.8684206604957581
1772811965549756200,6.487756103515625,-0.27893611788749695,-0.20196716487407684,0.7899245023727417
1772811965559456800,6.497456787109375,-0.05322159454226494,0.03352120518684387,0.7260891199111938
1772811965569157400,6.507157470703125,0.000839939049910754,0.20028728246688843,0.6891318559646606
1772811965578857700,6.516857666015625,-0.08773545175790787,0.3869064748287201,0.718758761882782
1772811965588558300,6.526558349609375,-0.26702427864074707,0.5350412130355835,0.8277981281280518
1772811965598259000,6.536259033203125,-0.48296496272087097,0.5307651162147522,0.9762382507324219
1772811965607959600,6.54595947265625,-0.6613374948501587,0.36766424775123596,1.1240675449371338
1772811965617660200,6.55566015625,-0.7361684441566467,0.12576179206371307,1.262733817100525
1772811965627360800,6.56536083984375,-0.6872992515563965,-0.08223766833543777,1.3439788818359375
1772811965637061400,6.575061279296875,-0.5516872406005859,-0.1738673895597458,1.3094650506973267
1772811965646762000,6.584761962890625,-0.3943895697593689,-0.16042836010456085,1.1570543050765991
1772811965656462600,6.594462646484375,-0.2496146261692047,-0.11919499188661575,0.9337831735610962
1772811965666163200,6.6041630859375,-0.13446660339832306,-0.11980585753917694,0.682412326335907
1772811965675863800,6.61386376953125,-0.05871937796473503,-0.16470441222190857,0.43226319551467896
1772811965685564400,6.623564453125,-0.046807512640953064,-0.17081306874752045,0.20502148568630219
1772811965695264800,6.6332646484375,-0.0965929925441742,-0.1787542998790741,0.025121813639998436
1772811965704965400,6.64296533203125,-0.147905632853508,-0.21723878383636475,-0.10468695312738419
1772811965714666000,6.652666015625,-0.16378812491893768,-0.24808746576309204,-0.19540037214756012
1772811965724366600,6.66236669921875,-0.1424078494310379,-0.24197880923748016,-0.27603453397750854
1772811965734067200,6.672067138671875,-0.08345939964056015,-0.14668390154838562,-0.36399903893470764
1772811965743767800,6.681767822265625,-0.004963276442140341,0.029856016859412193,-0.4733438491821289
1772811965753468400,6.691468505859375,0.060704685747623444,0.23144139349460602,-0.6059014797210693
1772811965763169000,6.7011689453125,0.08452841639518738,0.45501789450645447,-0.7601448893547058
1772811965772869600,6.71086962890625,0.06345357745885849,0.6792052984237671,-0.9208022952079773
1772811965782570200,6.7205703125,-0.0022143847309052944,0.863381028175354,-1.068937063217163
1772811965792270600,6.7302705078125,-0.11094831675291061,0.9996038675308228,-1.1834741830825806
1772811965801971200,6.73997119140625,-0.2294560819864273,1.0774891376495361,-1.2491421699523926
1772811965811671800,6.749671875,-0.3287216126918793,1.0848194360733032,-1.2763255834579468
1772811965821372400,6.759372314453125,-0.41179922223091125,1.085430383682251,-1.258915901184082
1772811965831073000,6.769072998046875,-0.47288569808006287,1.1055889129638672,-1.1712568998336792
1772811965840773600,6.778773681640625,-0.5153408050537109,1.1740057468414307,-1.0405317544937134
1772811965850474200,6.78847412109375,-0.5205331444740295,1.2619702816009521,-0.9061415195465088
1772811965860174800,6.7981748046875,-0.507094144821167,1.3517674207687378,-0.7848848700523376
1772811965869875500,6.80787548828125,-0.5128973126411438,1.4687479734420776,-0.6630173325538635
1772811965879576000,6.817576171875,-0.48968449234962463,1.5490766763687134,-0.5878809690475464
1772811965889276400,6.8272763671875,-0.35651594400405884,1.5237258672714233,-0.6068177819252014
1772811965898977300,6.836977294921875,-0.11797326058149338,1.3432153463363647,-0.7347939610481262
1772811965908677600,6.846677734375,0.13217586278915405,1.0426697731018066,-0.9443206191062927
1772811965918378200,6.856378173828125,0.247629314661026,0.8383355736732483,-1.1355212926864624
1772811965928078800,6.866078857421875,0.08636100590229034,0.835281252861023,-1.1559852361679077
1772811965937779500,6.875779541015625,-0.28260132670402527,0.8478039503097534,-0.8966731429100037
1772811965947480000,6.88547998046875,-0.4768563210964203,0.4699840843677521,-0.40431612730026245
1772811965957180700,6.8951806640625,-0.2135736048221588,-0.22579088807106018,0.13996438682079315
1772811965966881300,6.90488134765625,0.289168119430542,-1.061453938484192,0.45883581042289734
1772811965976582000,6.914581787109375,0.5817723274230957,-1.5938225984573364,0.3366628587245941
1772811965986282500,6.924282470703125,0.49197521805763245,-1.193095326423645,-0.12026400119066238
1772811965995983000,6.933983154296875,0.2018144577741623,-0.03886627033352852,-0.5741365551948547
1772811966005683500,6.943683349609375,0.010919207707047462,1.0157917737960815,-0.7143300175666809
1772811966015384000,6.953384033203125,0.03474293276667595,1.527085542678833,-0.42019861936569214
1772811966025084700,6.963084716796875,0.20792309939861298,1.3111449480056763,0.19280420243740082
1772811966034785300,6.972785400390625,0.42997244000434875,0.3719402849674225,0.9172898530960083
1772811966044486000,6.98248583984375,0.5924624800682068,-0.7428879141807556,1.5877139568328857
1772811966054186500,6.9921865234375,0.5243510603904724,-1.3962078094482422,2.0617449283599854
1772811966063887000,7.00188720703125,0.14714205265045166,-1.420642375946045,2.2767693996429443
1772811966073587700,7.011587646484375,-0.3589594066143036,-1.0889428853988647,2.2584433555603027
1772811966083288300,7.021288330078125,-0.7709876894950867,-0.7331140637397766,2.0764057636260986
1772811966092989000,7.030989013671875,-0.9942587614059448,-0.39683303236961365,1.7831906080245972
1772811966102689300,7.040689208984375,-1.0779472589492798,-0.01565340906381607,1.3907099962234497
1772811966112390000,7.050389892578125,-1.0904699563980103,0.3710239827632904,0.9398918151855469
1772811966122090500,7.060090576171875,-1.0440442562103271,0.7271581888198853,0.49396052956581116
1772811966131791000,7.069791015625,-0.8980475664138794,0.9626465439796448,0.09750928729772568
1772811966141491700,7.07949169921875,-0.6689732670783997,1.0322850942611694,-0.2531270980834961
1772811966151192300,7.0891923828125,-0.4105774760246277,0.9657008647918701,-0.5512291193008423
1772811966160893000,7.098892822265625,-0.16959133744239807,0.8468876481056213,-0.7592285871505737
1772811966170593500,7.108593505859375,0.023136503994464874,0.7195223569869995,-0.8450550436973572
1772811966180294100,7.118294189453125,0.15325069427490234,0.5597811937332153,-0.8139009475708008
1772811966189994800,7.127994873046875,0.24640758335590363,0.38385215401649475,-0.666987955570221
1772811966199695000,7.137695068359375,0.3392590284347534,0.22075125575065613,-0.432721346616745
1772811966209395700,7.147395751953125,0.42080947756767273,0.08177952468395233,-0.1505018174648285
1772811966219096300,7.157096435546875,0.4699840843677521,-0.0862082913517952,0.1329394429922104
1772811966228797000,7.166796875,0.4892263412475586,-0.2703840136528015,0.385532021522522
1772811966238497500,7.17649755859375,0.4898371994495392,-0.4563923478126526,0.5733729600906372
1772811966248198100,7.1861982421875,0.4941132366657257,-0.6353757381439209,0.6946296095848083
1772811966257898800,7.195898681640625,0.5035816431045532,-0.7764855027198792,0.7340303659439087
1772811966267599400,7.205599365234375,0.49747300148010254,-0.8500946760177612,0.6772199869155884
1772811966277300000,7.215300048828125,0.48586657643318176,-0.8748347163200378,0.5327504277229309
1772811966287000600,7.22500048828125,0.4635699987411499,-0.8412371873855591,0.30947935581207275
1772811966296701200,7.234701171875,0.4369973838329315,-0.7315869331359863,0.03245219215750694
1772811966306401500,7.244401611328125,0.3972911834716797,-0.5690969228744507,-0.27633994817733765
1772811966316102100,7.25410205078125,0.34750568866729736,-0.42187848687171936,-0.5750528573989868
1772811966325802800,7.263802734375,0.3004691004753113,-0.32536184787750244,-0.8420007228851318
1772811966335503400,7.27350341796875,0.2589302957057953,-0.2502254843711853,-1.067104458808899
1772811966345204000,7.283203857421875,0.22502730786800385,-0.19616395235061646,-1.2482258081436157
1772811966354904600,7.292904541015625,0.2277761995792389,-0.168675035238266,-1.3762019872665405
1772811966364605200,7.302605224609375,0.2326631247997284,-0.1421024203300476,-1.4498112201690674
1772811966374305800,7.312305908203125,0.20609050989151,-0.08132137358188629,-1.4800490140914917
1772811966384006100,7.322006103515625,0.23632831871509552,-0.004046979360282421,-1.4583632946014404
1772811966393706800,7.331706787109375,0.3667479455471039,0.11537708342075348,-1.396971344947815
1772811966403407400,7.341407470703125,0.5863538384437561,0.14378230273723602,-1.2989275455474854
1772811966413108000,7.35110791015625,0.9076687097549438,-0.13935352861881256,-1.1462113857269287
1772811966422808600,7.36080859375,1.3380229473114014,-0.6561451554298401,-0.9910517334938049
1772811966432509200,7.37050927734375,1.7433316707611084,-1.2233331203460693,-0.982805073261261
1772811966442209800,7.380209716796875,1.9213987588882446,-1.5498403310775757,-1.1880556344985962
1772811966451910400,7.389910400390625,1.8939099311828613,-1.2120320796966553,-1.5243366956710815
1772811966461611000,7.399611083984375,1.778761863708496,-0.3678169548511505,-1.8923827409744263
1772811966471311600,7.4093115234375,1.5221986770629883,0.28031057119369507,-2.278754711151123
1772811966481012200,7.41901220703125,1.158123254776001,0.3820195496082306,-2.5881576538085938
1772811966490712600,7.428712646484375,0.6908116936683655,0.32612544298171997,-2.670013666152954
1772811966500413200,7.4384130859375,0.1508072465658188,0.5219075679779053,-2.389932155609131
1772811966510113800,7.44811376953125,-0.22548545897006989,0.7668643593788147,-1.7195080518722534
1772811966519814400,7.457814453125,-0.29420775175094604,0.7906880974769592,-0.6675988435745239
1772811966529515000,7.467514892578125,-0.09384410083293915,0.4589885175228119,0.6194932460784912
1772811966539215600,7.477215576171875,0.1291215419769287,0.0057268571108579636,1.8195371627807617
1772811966548916200,7.486916259765625,0.1245400533080101,-0.307646781206131,2.6466479301452637
1772811966558616800,7.496616943359375,-0.044669486582279205,-0.5257254838943481,3.0369906425476074
1772811966568317400,7.5063173828125,-0.249920055270195,-0.6491202116012573,3.0427937507629395
1772811966578018000,7.51601806640625,-0.45333802700042725,-0.5700132250785828,2.742248296737671
1772811966587718400,7.525718505859375,-0.6106356978416443,-0.24869832396507263,2.220264434814453
1772811966597419000,7.5354189453125,-0.6848557591438293,0.16730059683322906,1.5660282373428345
1772811966607119600,7.54511962890625,-0.6622537970542908,0.5463421940803528,0.8757510185241699
1772811966616820200,7.5548203125,-0.5437459945678711,0.9317978620529175,0.22609633207321167
1772811966626520800,7.564520751953125,-0.37117671966552734,1.2839614152908325,-0.3395644724369049
1772811966636221400,7.574221435546875,-0.2795470058917999,1.4644719362258911,-0.7558687925338745
1772811966645922000,7.583922119140625,-0.34032803773880005,1.5832850933074951,-0.9770018458366394
1772811966655622700,7.59362255859375,-0.5107592940330505,1.741804599761963,-1.018235206604004
1772811966665323300,7.6033232421875,-0.720285952091217,1.964159369468689,-0.899727463722229
1772811966675024000,7.61302392578125,-0.9386700987815857,2.161468744277954,-0.6437751054763794
1772811966684724200,7.62272412109375,-1.10940682888031,2.250960350036621,-0.2949713170528412
1772811966694424800,7.6324248046875,-1.170493245124817,2.2659265995025635,0.07796161621809006
1772811966704125400,7.64212548828125,-1.1054362058639526,2.2628722190856934,0.4151589870452881
1772811966713826000,7.651825927734375,-0.9484439492225647,2.2234714031219482,0.691575288772583
1772811966723526700,7.661526611328125,-0.757243275642395,2.141004800796509,0.877278208732605
1772811966733227300,7.671227294921875,-0.570624053478241,2.013639450073242,0.9551634192466736
1772811966742928000,7.680927978515625,-0.409661203622818,1.8199952840805054,0.894076943397522
1772811966752628500,7.69062841796875,-0.28412848711013794,1.6104686260223389,0.7080686092376709
1772811966762329000,7.7003291015625,-0.24167338013648987,1.4171298742294312,0.44234246015548706
1772811966772029400,7.710029541015625,-0.28779366612434387,1.2726603746414185,0.1482110619544983
1772811966781730000,7.71972998046875,-0.3797288239002228,1.2357031106948853,-0.11323905736207962
1772811966791430700,7.7294306640625,-0.49823659658432007,1.3346631526947021,-0.3502545952796936
1772811966801131300,7.73913134765625,-0.6344594359397888,1.509981393814087,-0.5793288946151733
1772811966810832000,7.748831787109375,-0.7670170664787292,1.7115668058395386,-0.7732784748077393
1772811966820532500,7.758532470703125,-0.8910226225852966,1.9290345907211304,-0.9015600681304932
1772811966830233000,7.768233154296875,-0.9930370450019836,2.170020818710327,-0.9449314475059509
1772811966839933700,7.77793359375,-1.0669517517089844,2.362137794494629,-0.8966731429100037
1772811966849634300,7.78763427734375,-1.117958903312683,2.4562108516693115,-0.7873283624649048
1772811966859334700,7.797334716796875,-1.1375066041946411,2.5169918537139893,-0.6394990682601929
1772811966869035300,7.80703515625,-1.1365902423858643,2.5481460094451904,-0.48067423701286316
1772811966878736000,7.81673583984375,-1.1396446228027344,2.519129991531372,-0.33895358443260193
1772811966888436500,7.8264365234375,-1.152778148651123,2.471787929534912,-0.2012035846710205
1772811966898137000,7.83613720703125,-1.1659117937088013,2.407647132873535,-0.06345357745885849
1772811966907837700,7.845837646484375,-1.1790454387664795,2.342284679412842,0.1014799103140831
1772811966917538300,7.855538330078125,-1.1875975131988525,2.305938243865967,0.2716057598590851
1772811966927239000,7.865239013671875,-1.2101994752883911,2.2992186546325684,0.4053851366043091
1772811966936939500,7.874939453125,-1.2190570831298828,2.312046766281128,0.4450913369655609
1772811966946640000,7.884639892578125,-1.165300965309143,2.332205295562744,0.3840048611164093
1772811966956340500,7.894340576171875,-1.025107502937317,2.306549072265625,0.2560287117958069
1772811966966041000,7.904041015625,-0.8100830316543579,2.2463788986206055,0.10697769373655319
1772811966975741700,7.91374169921875,-0.607886791229248,2.1520001888275146,0.027259841561317444
1772811966985442300,7.9234423828125,-0.41851872205734253,1.962937593460083,0.10514509677886963
1772811966995143000,7.933142822265625,-0.11888955533504486,1.5096759796142578,0.27985242009162903
1772811967004843500,7.942843505859375,0.344451367855072,0.6233111619949341,0.44356417655944824
1772811967014544100,7.952544189453125,0.6336958408355713,-0.5852848291397095,0.5984184145927429
1772811967024244500,7.962244384765625,0.09033162891864777,-1.820453405380249,0.8442915081977844
1772811967033945000,7.971945068359375,-1.5196025371551514,-2.759352684020996,1.10940682888031
1772811967043645700,7.981645751953125,-3.686645269393921,-2.9587998390197754,1.1124610900878906
1772811967053346300,7.99134619140625,-5.6389689445495605,-1.9530110359191895,0.6143009066581726
1772811967063047000,8.001046875,-6.3509321212768555,-0.26763513684272766,-0.3658316433429718
1772811967072747500,8.01074755859375,-5.605371475219727,1.2283726930618286,-1.5933644771575928
1772811967082448100,8.0204482421875,-3.73429274559021,2.0710606575012207,-2.7582836151123047
1772811967092148700,8.030148681640625,-1.3910154104232788,2.0903029441833496,-3.4366488456726074
1772811967101849300,8.039849365234375,0.4681515097618103,1.6422336101531982,-3.2992043495178223
1772811967111550000,8.049550048828126,1.1648427248001099,0.7567850947380066,-2.2350778579711914
1772811967121250600,8.05925048828125,0.917137086391449,-0.29970553517341614,-0.23083053529262543
1772811967130951000,8.068950927734376,0.3517817556858063,-1.1069633960723877,2.2382848262786865
1772811967140651500,8.078651611328125,-0.16500984132289886,-1.8146501779556274,4.2413105964660645
1772811967150352100,8.08835205078125,-0.2645808160305023,-2.348546028137207,5.080638885498047
1772811967160052700,8.098052734375,-0.03306305781006813,-2.6930737495422363,4.764821529388428
1772811967169753300,8.10775341796875,0.35758498311042786,-2.468275547027588,3.608760118484497
1772811967179454000,8.117453857421875,0.630641520023346,-1.792659044265747,2.1066434383392334
1772811967189154600,8.127154541015624,0.6181188225746155,-0.7633519172668457,0.7587704062461853
1772811967198855200,8.136855224609375,0.3407861888408661,0.2674824297428131,-0.22838707268238068
1772811967208555500,8.146555419921874,0.000839939049910754,1.0551925897598267,-0.7723621726036072
1772811967218256100,8.156256103515625,-0.2294560819864273,1.557934284210205,-0.88995361328125
1772811967227956700,8.165956787109375,-0.3690386712551117,1.78700852394104,-0.73204505443573
1772811967237657300,8.1756572265625,-0.4252382516860962,1.8648937940597534,-0.38934993743896484
1772811967247358000,8.18535791015625,-0.3736201822757721,1.7366122007369995,-0.01000291109085083
1772811967257058600,8.19505859375,-0.23831361532211304,1.314810037612915,0.2599993348121643
1772811967266759200,8.20475927734375,0.0322994738817215,0.87254399061203,0.4753291606903076
1772811967276459800,8.214459716796876,0.3960694372653961,0.530154287815094,0.644844114780426
1772811967286160100,8.22416015625,0.7225766777992249,0.32673630118370056,0.7040980458259583
1772811967295860700,8.23386083984375,0.8713222742080688,0.26534438133239746,0.581008791923523
1772811967305561300,8.243561279296875,0.8762091398239136,0.30230170488357544,0.2764926850795746
1772811967315262000,8.253261962890624,0.8771254420280457,0.3667479455471039,-0.12331832945346832
1772811967324962600,8.262962646484375,0.9672279953956604,0.4434114694595337,-0.488004595041275
1772811967334663200,8.2726630859375,1.1605666875839233,0.5692496299743652,-0.71463543176651
1772811967344363800,8.28236376953125,1.4452297687530518,0.6837867498397827,-0.789466381072998
1772811967354064400,8.292064453125,1.7414991855621338,0.7476221323013306,-0.8780417442321777
1772811967363764700,8.3017646484375,1.9394192695617676,0.8502474427223206,-1.0408371686935425
1772811967373465300,8.31146533203125,1.9678245782852173,0.917747974395752,-1.2741875648498535
1772811967383166000,8.321166015625,1.8545091152191162,0.9916626214981079,-1.536553978919983
1772811967392866600,8.330866455078125,1.6529237031936646,1.0631338357925415,-1.7641011476516724
1772811967402567200,8.340567138671876,1.4537818431854248,1.0530545711517334,-1.907348871231079
1772811967412267800,8.350267822265625,1.3169480562210083,1.0121265649795532,-1.8991022109985352
1772811967421968400,8.359968505859374,1.176143765449524,0.9479857683181763,-1.76165771484375
1772811967431669000,8.3696689453125,1.0234276056289673,0.8911753296852112,-1.584506869316101
1772811967441369600,8.37936962890625,0.9168316721916199,0.9036980867385864,-1.4394265413284302
1772811967451070000,8.389070068359375,0.8759037256240845,0.9635628461837769,-1.3099231719970703
1772811967460770600,8.3987705078125,0.8887318968772888,0.9296598434448242,-1.197524070739746
1772811967470471200,8.40847119140625,0.9299652576446533,0.677067220211029,-1.1379647254943848
1772811967480171800,8.418171875,0.9259946346282959,0.2680932879447937,-1.0872629880905151
1772811967489872400,8.427872314453126,0.8184824585914612,-0.2816850244998932,-0.9760855436325073
1772811967499573000,8.437572998046875,0.6514109373092651,-0.9301179647445679,-0.8850666880607605
1772811967509273600,8.447273681640626,0.5179370045661926,-1.5086069107055664,-0.9085850119590759
1772811967518974200,8.45697412109375,0.4583776593208313,-1.8259512186050415,-1.103756308555603
1772811967528674800,8.4666748046875,0.4385245442390442,-1.790826439857483,-1.388724684715271
1772811967538375200,8.476375244140625,0.3756054937839508,-1.5504511594772339,-1.4791326522827148
1772811967548075800,8.48607568359375,0.17371466755867004,-1.2468513250350952,-1.1700351238250732
1772811967557776400,8.4957763671875,-0.22792892158031464,-0.932561457157135,-0.6541598439216614
1772811967567477000,8.50547705078125,-0.5669588446617126,-0.194025918841362,-0.027717988938093185
1772811967577177600,8.515177490234375,-0.7114284038543701,0.6975312232971191,0.6674461364746094
1772811967586878200,8.524878173828125,-0.5373319387435913,1.733557939529419,1.3317615985870361
1772811967596578800,8.534578857421875,-0.0703258067369461,2.9311583042144775,2.01593017578125
1772811967606279400,8.544279541015625,0.35819584131240845,3.7692646980285645,2.7049856185913086
1772811967615980000,8.55397998046875,0.5533671379089355,4.053011417388916,3.292943000793457
1772811967625680400,8.563680419921875,0.5973494052886963,3.633652687072754,3.6933648586273193
1772811967635381000,8.573381103515626,0.5918515920639038,2.7530910968780518,3.8476080894470215
1772811967645081600,8.58308154296875,0.6788998246192932,1.7500512599945068,3.7132179737091064
1772811967654782200,8.5927822265625,0.8853721618652344,0.982805073261261,3.283780097961426
1772811967664482800,8.60248291015625,1.0628283023834229,0.45135271549224854,2.4838526248931885
1772811967674183400,8.612183349609374,1.1257474422454834,0.3713294267654419,1.2807543277740479
1772811967683884000,8.621884033203125,1.20271635055542,1.3572652339935303,0.039477135986089706
1772811967693584400,8.63158447265625,1.3978877067565918,2.5625014305114746,-0.9278272390365601
1772811967703285000,8.641284912109375,1.6645301580429077,3.3563201427459717,-1.362457513809204
1772811967712985600,8.650985595703125,1.79647696018219,3.4430630207061768,-1.2030218839645386
1772811967722686200,8.660686279296876,1.8093050718307495,2.6067891120910645,-0.8395572900772095
1772811967732386800,8.67038671875,1.7451642751693726,1.305952548980713,-0.6113992929458618
1772811967742087400,8.68008740234375,1.7188971042633057,0.16638429462909698,-0.6709585785865784
1772811967751788000,8.6897880859375,1.8780274391174316,-0.21601705253124237,-1.0072396993637085
1772811967761488600,8.699488525390626,2.2329399585723877,0.12759438157081604,-1.5029563903808594
1772811967771189200,8.709189208984375,2.6522984504699707,0.7308233380317688,-1.953163743019104
1772811967780889600,8.7188896484375,3.0056838989257812,1.12055504322052,-2.1211516857147217
1772811967790590200,8.728590087890625,3.1681737899780273,1.3028981685638428,-1.8551199436187744
1772811967800290800,8.738290771484374,3.0844852924346924,1.500207543373108,-1.2182934284210205
1772811967809991400,8.747991455078125,2.7879104614257812,1.5713733434677124,-0.4482983946800232
1772811967819692000,8.757692138671874,2.4220025539398193,1.5243366956710815,0.26244276762008667
1772811967829392600,8.767392578125,2.1016039848327637,1.4036909341812134,0.7373901605606079
1772811967839093200,8.77709326171875,1.7641011476516724,1.2344813346862793,0.9078214168548584
1772811967848793600,8.786793701171876,1.3099231719970703,0.9586759209632874,0.8076395988464355
1772811967858494200,8.796494140625,0.7916043996810913,0.6129264235496521,0.47899433970451355
1772811967868194800,8.80619482421875,0.3514763116836548,0.31299182772636414,-0.03168861195445061
1772811967877895400,8.8158955078125,0.09033162891864777,0.16913318634033203,-0.6294198036193848
1772811967887596000,8.825595947265626,-0.005268708802759647,0.09644027799367905,-1.1660645008087158
1772811967897296600,8.835296630859375,-0.021151192486286163,0.08391755074262619,-1.519755244255066
1772811967906997200,8.844997314453124,-0.004046979360282421,0.191735178232193,-1.6495640277862549
1772811967916697900,8.85469775390625,0.062537282705307,0.38873907923698425,-1.4522546529769897
1772811967926398500,8.8643984375,0.16241367161273956,0.5081631541252136,-1.0041853189468384
1772811967936098800,8.874098876953125,0.23327398300170898,0.45990481972694397,-0.4947241246700287
1772811967945799400,8.88379931640625,0.27114760875701904,0.3762163519859314,-0.12392919510602951
1772811967955500000,8.8935,0.19937099516391754,0.3517817556858063,0.15004366636276245
1772811967965200600,8.90320068359375,0.05520690605044365,0.2848920524120331,0.3635408878326416
1772811967974901200,8.9129013671875,0.017944153398275375,0.10590868443250656,0.6573668718338013
1772811967984601900,8.922601806640625,-0.21510076522827148,-0.08651372790336609,0.859257698059082
1772811967994302500,8.932302490234376,-0.3061196208000183,-0.10697769373655319,0.8638391494750977
1772811968004002800,8.9420029296875,-0.18669554591178894,0.11110103130340576,0.8488729596138
1772811968013703400,8.951703369140626,-0.08773545175790787,0.08239039033651352,0.942335307598114
1772811968023404000,8.961404052734375,-0.010155626572668552,-0.08804088830947876,1.1573597192764282
1772811968033104600,8.971104736328124,0.09552398324012756,0.1657734364271164,1.1204023361206055
1772811968042805200,8.98080517578125,0.2018144577741623,0.5692496299743652,0.9273691177368164
1772811968052505900,8.990505859375,0.17890702188014984,0.49655669927597046,0.9582177400588989
1772811968062206500,9.00020654296875,0.17829616367816925,0.30688318610191345,0.8168025612831116
1772811968071907000,9.009906982421874,0.1865428388118744,0.13858994841575623,0.4609738290309906
1772811968081607700,9.019607666015625,0.25557056069374084,-0.06391172856092453,0.16378812491893768
1772811968091308000,9.02930810546875,0.40339982509613037,-0.203799769282341,0.09567669779062271
1772811968101008600,9.039008544921876,0.3951531648635864,-0.15706861019134521,0.10483966767787933
1772811968110709200,9.048709228515625,0.06772962957620621,0.25587597489356995,-0.4134790897369385
1772811968120409900,9.058409912109376,-0.3430769443511963,0.9369902014732361,-1.1456005573272705
1772811968130110500,9.0681103515625,-0.39713847637176514,1.0371720790863037,-1.4140756130218506
1772811968139811000,9.07781103515625,-0.1787542998790741,0.30260714888572693,-1.5344159603118896
1772811968149511700,9.08751171875,-0.0501672700047493,-0.05841394513845444,-1.8520656824111938
1772811968159212000,9.0972119140625,-0.11919499188661575,0.3459785282611847,-2.0896921157836914
1772811968168912600,9.10691259765625,-0.21204642951488495,0.8759037256240845,-2.0866377353668213
1772811968178613200,9.11661328125,-0.2343430072069168,1.1428515911102295,-1.9107086658477783
1772811968188313900,9.12631396484375,-0.22823435068130493,1.314504623413086,-1.703014612197876
1772811968198014500,9.136014404296875,-0.2722166180610657,1.5542690753936768,-1.4241548776626587
1772811968207715000,9.145715087890625,-0.3055087625980377,1.7729586362838745,-1.1492657661437988
1772811968217415700,9.155415771484375,-0.07521272450685501,1.7448588609695435,-0.9644791483879089
1772811968227116300,9.1651162109375,0.4131736755371094,1.2888482809066772,-0.7564796805381775
1772811968236816600,9.174816650390625,0.6779835224151611,0.8270345330238342,-0.6651554107666016
1772811968246517200,9.184517333984376,0.5603920817375183,0.395764023065567,-0.60406893491745
1772811968256217900,9.1942177734375,0.18745912611484528,-0.2713003158569336,-0.6046797633171082
1772811968265918500,9.20391845703125,-0.10483966767787933,-0.9331722855567932,-0.677067220211029
1772811968275619000,9.213619140625,-0.1689804643392563,-1.2804489135742188,-0.8126792311668396
1772811968285319700,9.223319580078124,-0.05658135190606117,-1.2257765531539917,-1.0093777179718018
1772811968295020300,9.233020263671875,0.15752676129341125,-0.9945642352104187,-1.104978084564209
1772811968304720600,9.242720703125,0.4021781086921692,-0.8131373524665833,-0.9424880146980286
1772811968314421200,9.252421142578125,0.6117047071456909,-0.7092903852462769,-0.5350412130355835
1772811968324121900,9.262121826171875,0.7686969637870789,-0.700738251209259,0.0703258067369461
1772811968333822500,9.271822509765625,0.8316160440444946,-0.7816778421401978,0.7425824999809265
1772811968343523000,9.281523193359375,0.8426116108894348,-0.9041562080383301,1.3348158597946167
1772811968353223700,9.2912236328125,0.8667407631874084,-0.9951750636100769,1.7233258485794067
1772811968362924300,9.30092431640625,0.8792635202407837,-1.0464876890182495,1.8900920152664185
1772811968372625000,9.310625,0.8218421936035156,-1.0840559005737305,1.8283946514129639
1772811968382325500,9.320325439453125,0.6697368621826172,-1.035492181777954,1.5764129161834717
1772811968392025900,9.33002587890625,0.4675406217575073,-0.8314633369445801,1.1912627220153809
1772811968401726500,9.3397265625,0.28244858980178833,-0.5458840131759644,0.7190641760826111
1772811968411427000,9.349427001953124,0.13858994841575623,-0.23800818622112274,0.2557232677936554
1772811968421127700,9.359127685546875,0.053374309092760086,0.020082179456949234,-0.13248129189014435
1772811968430828300,9.368828369140624,0.03993528336286545,0.2115882933139801,-0.372245728969574
1772811968440529000,9.37852880859375,0.06681333482265472,0.33162322640419006,-0.4629591405391693
1772811968450229500,9.3882294921875,0.1043815165758133,0.3258199989795685,-0.45654505491256714
1772811968459929900,9.397929931640626,0.1401171088218689,0.26106834411621094,-0.35300347208976746
1772811968469630500,9.40763037109375,0.19295690953731537,0.2121991515159607,-0.15202897787094116
1772811968479331000,9.4173310546875,0.26045745611190796,0.18715369701385498,0.08468113094568253
1772811968489031700,9.42703173828125,0.3084103465080261,0.19387321174144745,0.30337071418762207
1772811968498732300,9.436732177734376,0.2989419400691986,0.29100072383880615,0.44264790415763855
1772811968508433000,9.446432861328125,0.2693150043487549,0.4800633490085602,0.46799877285957336
1772811968518133500,9.456133544921874,0.29191699624061584,0.6953932046890259,0.39072439074516296
1772811968527833900,9.465833740234375,0.35361436009407043,0.8474985361099243,0.26885685324668884
1772811968537534500,9.475534423828124,0.42447465658187866,0.908890426158905,0.152487114071846
1772811968547235000,9.485235107421875,0.5051088333129883,0.983415961265564,0.06268999725580215
1772811968556935700,9.494935791015624,0.6025417447090149,1.0105993747711182,-0.02893971838057041
1772811968566636300,9.50463623046875,0.6340012550354004,0.705472469329834,-0.13339759409427643
1772811968576337000,9.5143369140625,0.6358338594436646,-0.03550651669502258,-0.3652207851409912
1772811968586037500,9.52403759765625,0.641331672668457,-0.8290198445320129,-0.7091376781463623
1772811968595738000,9.533738037109375,0.6453022956848145,-1.070311427116394,-0.9708932042121887
1772811968605438500,9.5434384765625,0.5774962902069092,-0.7407498955726624,-0.8154281377792358
1772811968615139000,9.55313916015625,0.4699840843677521,-0.3540725111961365,-0.37804892659187317
1772811968624839700,9.562839599609376,0.3667479455471039,-0.33513569831848145,-0.274812787771225
1772811968634540300,9.572540283203125,0.28550294041633606,-0.4444804787635803,-0.7088322043418884
1772811968644241000,9.582240966796874,0.29710936546325684,-0.12774710357189178,-1.426292896270752
1772811968653941500,9.59194140625,0.4571559429168701,0.5610029697418213,-2.1202352046966553
1772811968663642000,9.60164208984375,0.6944769024848938,1.1804198026657104,-2.5704426765441895
1772811968673342500,9.611342529296875,0.8175661563873291,1.4134647846221924,-2.7133851051330566
1772811968683043000,9.62104296875,0.788550078868866,1.2757147550582886,-2.4730095863342285
1772811968692743700,9.63074365234375,0.6285035014152527,0.7631992101669312,-1.8334342241287231
1772811968702444300,9.6404443359375,0.6358338594436646,0.27542364597320557,-1.1281908750534058
1772811968712145000,9.650144775390626,0.8410844206809998,0.024663666263222694,-0.5585594773292542
1772811968721845500,9.659845458984375,1.1110867261886597,-0.02848157100379467,0.009850194677710533
1772811968731546000,9.669546142578126,1.261664867401123,-0.05994110554456711,0.6103302836418152
1772811968741246500,9.67924658203125,1.224096655845642,-0.16531528532505035,1.0932189226150513
1772811968750947000,9.688947021484376,1.039310097694397,-0.2774089574813843,1.3519201278686523
1772811968760647700,9.698647705078125,0.7662535309791565,-0.3009272515773773,1.374522089958191
1772811968770348300,9.708348388671874,0.6168970465660095,-0.14057525992393494,1.1799616813659668
1772811968780049000,9.718048828125,0.6792052984237671,0.048792824149131775,0.9426407217979431
1772811968789749500,9.72774951171875,0.493196964263916,0.023441936820745468,0.7709876894950867
1772811968799450000,9.7374501953125,0.2894735336303711,-0.07979421317577362,0.7673225402832031
1772811968809150500,9.747150390625,0.16821688413619995,-0.2297615110874176,0.9594395160675049
1772811968818851000,9.75685107421875,0.12301289290189743,-0.26305365562438965,1.2022582292556763
1772811968828551700,9.7665517578125,0.1297324001789093,-0.16134466230869293,1.4068979024887085
1772811968838252300,9.776252197265626,0.16241367161273956,-0.03764454275369644,1.581605315208435
1772811968847953000,9.785952880859375,0.18409937620162964,-0.006490438245236874,1.7126357555389404
1772811968857653500,9.795653564453126,0.13920080661773682,-0.13507747650146484,1.7230204343795776
1772811968867354000,9.80535400390625,0.08025235682725906,-0.3180314898490906,1.5467859506607056
1772811968877054700,9.8150546875,0.02893971838057041,-0.37514734268188477,1.127732753753662
1772811968886755000,9.824755126953125,0.006948587018996477,-0.32352927327156067,0.544051468372345
1772811968896455700,9.83445556640625,0.00511599238961935,-0.23098324239253998,-0.05429060757160187
1772811968906156300,9.84415625,0.003283398225903511,-0.1833357959985733,-0.4828122556209564
1772811968915857000,9.85385693359375,0.012751801870763302,-0.11766783148050308,-0.6996692419052124
1772811968925557500,9.8635576171875,0.036880962550640106,-0.09873101860284805,-0.7525090575218201
1772811968935258000,9.873258056640625,0.07017309218645096,-0.09995274990797043,-0.6462185978889465
1772811968944958700,9.882958740234375,0.06436987966299057,-0.12438733875751495,-0.42019861936569214
1772811968954659000,9.8926591796875,0.018860450014472008,-0.12988512217998505,-0.11140646785497665
1772811968964359700,9.902359619140626,-0.02328922040760517,-0.12957969307899475,0.21204642951488495
1772811968974060300,9.912060302734375,-0.06360629200935364,-0.11491893976926804,0.4964039921760559
1772811968983761000,9.921760986328126,-0.09567669779062271,-0.07124210149049759,0.6879100799560547
1772811968993461500,9.93146142578125,-0.14057525992393494,-0.027870705351233482,0.792978823184967
1772811969003162000,9.941162109375,-0.2193768173456192,-0.008323032408952713,0.8424589037895203
1772811969012862700,9.95086279296875,-0.2819904685020447,0.013362666592001915,0.8271872401237488
1772811969022563000,9.96056298828125,-0.3009272515773773,0.05123628303408623,0.7547997832298279
1772811969032263700,9.970263671875,-0.2972620725631714,0.13858994841575623,0.6249909996986389
1772811969041964300,9.97996435546875,-0.3015381395816803,0.28092142939567566,0.4545597434043884
1772811969051665000,9.989664794921875,-0.2960403561592102,0.43608108162879944,0.260915607213974
1772811969061365500,9.999365478515625,-0.2856556475162506,0.6303361058235168,0.09017891436815262
1772811969071066000,10.009066162109375,-0.2658025324344635,0.8010727763175964,0.029397867619991302
1772811969080766500,10.018766357421875,-0.20135630667209625,0.7882446646690369,0.011988221667706966
1772811969090467000,10.028467041015626,-0.11980585753917694,0.65935218334198,-0.11629338562488556
1772811969100167700,10.038167724609375,-0.08040507882833481,0.5704713463783264,-0.40889760851860046
1772811969109868300,10.047868408203126,-0.13629920780658722,0.6569086909294128,-0.8200095891952515
1772811969119569000,10.05756884765625,-0.3791179656982422,1.0157917737960815,-1.2292890548706055
1772811969129269500,10.06726953125,-0.7712931632995605,1.4867684841156006,-1.3517674207687378
1772811969138970000,10.07697021484375,-1.1197915077209473,1.2790744304656982,-1.3102285861968994
1772811969148670500,10.08667041015625,-1.1023818254470825,0.6144536137580872,-1.3945279121398926
1772811969158371000,10.09637109375,-0.6240747570991516,-0.20074543356895447,-1.6226859092712402
1772811969168071700,10.10607177734375,-0.10545053333044052,-1.229136347770691,-2.2961642742156982
1772811969177772300,10.115772216796875,0.3710239827632904,-1.821675181388855,-3.3841145038604736
1772811969187473000,10.125472900390625,0.7989347577095032,-1.5006656646728516,-4.10249137878418
1772811969197173500,10.135173583984376,1.1883610486984253,-0.4466184973716736,-3.8382925987243652
1772811969206874000,10.1448740234375,1.3108394145965576,0.520380437374115,-2.5906012058258057
1772811969216574700,10.15457470703125,1.214322805404663,0.7274636030197144,-0.9980766773223877
1772811969226275000,10.164275146484375,0.965395450592041,0.3749946057796478,0.4823541045188904
1772811969235975700,10.1739755859375,0.6355284452438354,-0.013820815831422806,1.571831464767456
1772811969245676300,10.18367626953125,0.27664539217948914,-0.27374377846717834,2.105116367340088
1772811969255377000,10.193376953125,-0.013515383005142212,-0.3800342381000519,2.1096978187561035
1772811969265077500,10.203077392578125,-0.1726456582546234,-0.37697991728782654,1.7187443971633911
1772811969274778000,10.212778076171874,-0.1842520833015442,-0.34063348174095154,1.180877923965454
1772811969284478700,10.222478759765625,-0.15126539766788483,-0.28321218490600586,0.7538834810256958
1772811969294179000,10.232178955078124,-0.19005531072616577,-0.28932082653045654,0.5217548608779907
1772811969303879700,10.241879638671875,-0.2813795804977417,-0.39591673016548157,0.4713585376739502
1772811969313580300,10.251580322265625,-0.43287405371665955,-0.5562687516212463,0.5180897116661072
1772811969323281000,10.261281005859376,-0.6219366788864136,-0.6262127757072449,0.5865065455436707
1772811969332981500,10.2709814453125,-0.8262709975242615,-0.5614610910415649,0.6314051151275635
1772811969342682000,10.28068212890625,-1.032743215560913,-0.39683303236961365,0.5635991096496582
1772811969352382500,10.290382568359375,-1.2138646841049194,-0.2047160565853119,0.36537349224090576
1772811969362083000,10.3000830078125,-1.3296235799789429,-0.07276926934719086,0.11552979797124863
1772811969371783700,10.30978369140625,-1.3424516916275024,-0.01626427471637726,-0.10621411353349686
1772811969381484300,10.319484375,-1.274034857749939,-0.023594651371240616,-0.26595523953437805
1772811969391185000,10.329184814453125,-1.1692715883255005,-0.049861837178468704,-0.3349829614162445
1772811969400885500,10.338885498046874,-1.061759352684021,-0.06299543380737305,-0.3346775472164154
1772811969410586000,10.348586181640625,-0.9661589860916138,-0.08529199659824371,-0.2949713170528412
1772811969420286500,10.358286376953124,-0.8778890371322632,-0.11033745110034943,-0.22472187876701355
1772811969429987000,10.367987060546875,-0.7932842969894409,-0.10545053333044052,-0.15233440697193146
1772811969439687700,10.377687744140625,-0.711122989654541,-0.07368556410074234,-0.1037706509232521
1772811969449388300,10.38738818359375,-0.6072759628295898,-0.04711294546723366,-0.0888044685125351
1772811969459089000,10.3970888671875,-0.4609738290309906,-0.06757691502571106,-0.0191658828407526
1772811969468789500,10.40678955078125,-0.2926805913448334,-0.02390008419752121,-0.03168861195445061
1772811969478490000,10.416489990234375,-0.1576794683933258,0.22380557656288147,-0.28733551502227783
1772811969488190500,10.4261904296875,-0.12438733875751495,0.4287507236003876,-0.55672687292099
1772811969497891000,10.43589111328125,-0.15462514758110046,0.5683333277702332,-0.8013782501220703
1772811969507591700,10.445591796875,-0.16592614352703094,0.6150645017623901,-0.9608139395713806
1772811969517292300,10.455292236328125,-0.14973822236061096,0.5359575152397156,-1.0237330198287964
1772811969526993000,10.464992919921874,-0.18455752730369568,0.35850125551223755,-1.0273982286453247
1772811969536693500,10.474693603515625,-0.22884522378444672,0.19906556606292725,-0.8930079340934753
