time,seconds_elapsed,z,y,x
1772811883185481700,0.069481689453125,0,0,0
1772811883204883500,0.088883544921875,0.056914329528808594,0.004912376403808594,0.02470707893371582
1772811883214584300,0.098584228515625,0.04323005676269531,-0.03130531311035156,0.052068233489990234
1772811883224285400,0.108285400390625,0.024065017700195312,-0.0678853988647461,0.06621420383453369
1772811883233986000,0.117986083984375,0.0037403106689453125,-0.08773612976074219,0.05428504943847656
1772811883243687000,0.12768701171875,-0.009186744689941406,-0.08322954177856445,0.016741156578063965
1772811883253388000,0.137387939453125,0.017238616943359375,-0.08520936965942383,-0.0319979190826416
1772811883263088600,0.147088623046875,0.07644462585449219,-0.09469127655029297,-0.07275891304016113
1772811883272789800,0.156789794921875,0.09705257415771484,-0.11023521423339844,-0.09367191791534424
1772811883282490600,0.16649072265625,0.07805442810058594,-0.1134328842163086,-0.09177923202514648
1772811883292191500,0.17619140625,0.01679229736328125,-0.0874028205871582,-0.07919013500213623
1772811883301892400,0.185892333984375,-0.056571006774902344,-0.04878044128417969,-0.05897843837738037
1772811883311593200,0.19559326171875,-0.09001731872558594,-0.00877523422241211,-0.02249455451965332
1772811883321294000,0.205294189453125,-0.07856082916259766,0.007134437561035156,0.026103615760803223
1772811883330995000,0.214994873046875,-0.08480167388916016,-0.0036449432373046875,0.06744241714477539
1772811883340695800,0.22469580078125,-0.08473873138427734,-0.017475128173828125,0.10139346122741699
1772811883350396700,0.234396728515625,-0.014138221740722656,-0.01883077621459961,0.12523484230041504
1772811883360097500,0.24409765625,0.07123565673828125,-0.011156082153320312,0.11923861503601074
1772811883369798700,0.253798583984375,0.13141536712646484,0.0020418167114257812,0.0829613208770752
1772811883379499300,0.263499267578125,0.19121074676513672,0.01260232925415039,0.03217780590057373
1772811883389200400,0.273200439453125,0.2408437728881836,0.00685882568359375,-0.011470675468444824
1772811883398901200,0.2829013671875,0.21948719024658203,-0.004145145416259766,-0.05484914779663086
1772811883408602000,0.29260205078125,0.16317272186279297,-0.004954338073730469,-0.09130001068115234
1772811883418303000,0.302302978515625,0.1275920867919922,-0.0026292800903320312,-0.11518096923828125
1772811883428003800,0.31200390625,0.10068798065185547,0.007878780364990234,-0.1043710708618164
1772811883437704700,0.32170458984375,0.01616668701171875,0.013401031494140625,-0.06241154670715332
1772811883447405600,0.331405517578125,-0.06699275970458984,0.0032701492309570312,-0.0056803226470947266
1772811883457106400,0.3411064453125,-0.09976387023925781,-0.019208908081054688,0.036267638206481934
1772811883466807300,0.350807373046875,-0.14550209045410156,-0.02453136444091797,0.047878146171569824
1772811883476508200,0.360508056640625,-0.20908117294311523,-0.005115985870361328,0.04059040546417236
1772811883486209000,0.370208984375,-0.22904300689697266,0.022765159606933594,0.00902247428894043
1772811883495910000,0.379909912109375,-0.20499420166015625,0.05019378662109375,-0.04010796546936035
1772811883505610800,0.38961083984375,-0.20748519897460938,0.07866954803466797,-0.06511759757995605
1772811883515311900,0.399311767578125,-0.24535083770751953,0.07054519653320312,-0.04574120044708252
1772811883525012700,0.4090126953125,-0.2509946823120117,0.041184425354003906,0.0012192726135253906
1772811883534713600,0.418713623046875,-0.2386946678161621,0.01710033416748047,0.026471376419067383
1772811883544414500,0.42841455078125,-0.23895740509033203,0.007749080657958984,0.023465633392333984
1772811883554115300,0.438115234375,-0.20877361297607422,0.008125782012939453,0.007453441619873047
1772811883563816200,0.447816162109375,-0.1907801628112793,0.0028471946716308594,-0.013898491859436035
1772811883573517000,0.45751708984375,-0.19190502166748047,-0.0053119659423828125,-0.03607022762298584
1772811883583218000,0.467218017578125,-0.19029808044433594,-0.004734992980957031,-0.045632004737854004
1772811883592918800,0.476918701171875,-0.1901226043701172,-0.007326602935791016,-0.05403637886047363
1772811883602619600,0.48661962890625,-0.19391250610351562,-0.006665229797363281,-0.06679916381835938
1772811883612320500,0.496320556640625,-0.2014474868774414,0.006667613983154297,-0.06889903545379639
1772811883622021400,0.506021484375,-0.21116352081298828,0.015024185180664062,-0.04122626781463623
1772811883631722200,0.51572216796875,-0.21409940719604492,0.012150287628173828,-0.0131303071975708
1772811883641423400,0.52542333984375,-0.20504426956176758,0.009135246276855469,0.02411341667175293
1772811883651124000,0.5351240234375,-0.18400859832763672,0.003980159759521484,0.05031919479370117
1772811883660825000,0.5448251953125,-0.13756752014160156,-0.0035386085510253906,0.05732417106628418
1772811883670526000,0.55452587890625,-0.08240890502929688,-0.005783557891845703,0.04820668697357178
1772811883680226800,0.564226806640625,-0.051300048828125,-0.00103759765625,0.026308894157409668
1772811883689927700,0.573927734375,-0.03618144989013672,0.009692668914794922,-0.00888669490814209
1772811883699628500,0.583628662109375,-0.0039157867431640625,0.03209114074707031,-0.051699280738830566
1772811883709329400,0.593329345703125,0.010828971862792969,0.0515437126159668,-0.06983530521392822
1772811883719030300,0.6030302734375,0.00011730194091796875,0.03940296173095703,-0.07621490955352783
1772811883728731100,0.612731201171875,-0.004306793212890625,0.016947269439697266,-0.07088327407836914
1772811883738432000,0.622431884765625,-0.01687908172607422,0.021196842193603516,-0.08327734470367432
1772811883748132900,0.6321328125,-0.034567832946777344,0.0488581657409668,-0.09868729114532471
1772811883757834000,0.641833984375,-0.0424346923828125,0.06596231460571289,-0.11049377918243408
1772811883767534600,0.65153466796875,-0.04856300354003906,0.07235002517700195,-0.1277095079421997
1772811883777235700,0.661235595703125,-0.04455757141113281,0.07708311080932617,-0.1414281129837036
1772811883786936600,0.6709365234375,-0.015142440795898438,0.08457088470458984,-0.153106689453125
1772811883796637400,0.680637451171875,0.02213287353515625,0.08995676040649414,-0.15023183822631836
1772811883806338300,0.69033837890625,0.02734375,0.0851435661315918,-0.1295384168624878
1772811883816039200,0.7000390625,0.03383827209472656,0.0782938003540039,-0.1148691177368164
1772811883825740000,0.709739990234375,0.06309795379638672,0.07558393478393555,-0.10477054119110107
1772811883835441000,0.71944091796875,0.08932685852050781,0.06682682037353516,-0.10252726078033447
1772811883845141800,0.729141845703125,0.10993480682373047,0.046428680419921875,-0.10517609119415283
1772811883854842600,0.738842529296875,0.14628219604492188,0.02974081039428711,-0.10554993152618408
1772811883864543500,0.74854345703125,0.14904022216796875,0.015424251556396484,-0.09421432018280029
1772811883874244400,0.758244384765625,0.125335693359375,-0.004314422607421875,-0.07927703857421875
1772811883883945200,0.7679453125,0.1208181381225586,-0.020618438720703125,-0.07523643970489502
1772811883893646000,0.77764599609375,0.09998416900634766,-0.028705120086669922,-0.08461642265319824
1772811883903347200,0.78734716796875,0.061827659606933594,-0.025083541870117188,-0.09679484367370605
1772811883913047800,0.7970478515625,0.042491912841796875,-0.025927066802978516,-0.10600769519805908
1772811883922749000,0.8067490234375,0.054363250732421875,-0.03799629211425781,-0.11076140403747559
1772811883932449800,0.81644970703125,0.04395580291748047,-0.058670997619628906,-0.09961855411529541
1772811883942150700,0.826150634765625,0.02999591827392578,-0.09207963943481445,-0.07960736751556396
1772811883951851500,0.8358515625,0.03603935241699219,-0.11891698837280273,-0.07114923000335693
1772811883961552400,0.845552490234375,0.04029369354248047,-0.11618328094482422,-0.07217442989349365
1772811883971253200,0.855253173828125,0.001613616943359375,-0.0919332504272461,-0.05851244926452637
1772811883980954000,0.8649541015625,-0.05637359619140625,-0.07945919036865234,-0.024169445037841797
1772811883990655000,0.874655029296875,-0.11528968811035156,-0.053937435150146484,0.020555496215820312
1772811884000355800,0.88435595703125,-0.1685791015625,-0.011932849884033203,0.05828750133514404
1772811884010056700,0.894056640625,-0.19579696655273438,0.04497575759887695,0.056722164154052734
1772811884019757800,0.9037578125,-0.18597126007080078,0.09600830078125,0.020721435546875
1772811884029458400,0.91345849609375,-0.13763999938964844,0.12385702133178711,-0.03487968444824219
1772811884039159600,0.92315966796875,-0.1457977294921875,0.10892772674560547,-0.06625008583068848
1772811884048860400,0.9328603515625,-0.21924591064453125,0.07049036026000977,-0.048593878746032715
1772811884058561300,0.942561279296875,-0.2585268020629883,0.04892158508300781,-0.002312183380126953
1772811884068262100,0.95226220703125,-0.23417282104492188,0.06984710693359375,0.054303646087646484
1772811884077963000,0.961962890625,-0.1970510482788086,0.10212516784667969,0.10080790519714355
1772811884087663900,0.971663818359375,-0.1306142807006836,0.10531902313232422,0.13998782634735107
1772811884097364700,0.98136474609375,-0.019689559936523438,0.0924830436706543,0.16412651538848877
1772811884107065600,0.991065673828125,0.09033679962158203,0.06783056259155273,0.16736412048339844
1772811884116766500,1.000766357421875,0.19562053680419922,0.048122406005859375,0.1583850383758545
1772811884126467300,1.01046728515625,0.2576713562011719,0.04777336120605469,0.13939106464385986
1772811884136168200,1.020168212890625,0.24846172332763672,0.05388593673706055,0.12730848789215088
1772811884145869000,1.029869140625,0.2175607681274414,0.0576634407043457,0.12213015556335449
1772811884155570000,1.03956982421875,0.18340587615966797,0.07148408889770508,0.11409485340118408
1772811884165271000,1.04927099609375,0.13068580627441406,0.10536384582519531,0.10715162754058838
1772811884174972000,1.058971923828125,0.088714599609375,0.13056325912475586,0.118416428565979
1772811884184672800,1.0686728515625,0.07043838500976562,0.13524913787841797,0.14197778701782227
1772811884194373600,1.07837353515625,0.0670318603515625,0.1407451629638672,0.15278995037078857
1772811884204074500,1.088074462890625,0.09470748901367188,0.15467453002929688,0.1542673110961914
1772811884213775400,1.097775390625,0.12394237518310547,0.16815757751464844,0.15064406394958496
1772811884223476200,1.107476318359375,0.12769794464111328,0.16498184204101562,0.1451127529144287
1772811884233177000,1.117177001953125,0.12598896026611328,0.16677045822143555,0.14690172672271729
1772811884242878000,1.1268779296875,0.1540842056274414,0.17278766632080078,0.12442207336425781
1772811884252578800,1.136578857421875,0.18309497833251953,0.1607341766357422,0.07999682426452637
1772811884262279700,1.14627978515625,0.17824649810791016,0.1244344711303711,0.04431438446044922
1772811884271980500,1.15598046875,0.17878437042236328,0.09290790557861328,0.018318533897399902
1772811884281681700,1.165681640625,0.20579051971435547,0.07956743240356445,0.0015808343887329102
1772811884291382500,1.175382568359375,0.2009563446044922,0.050078392028808594,-0.01147913932800293
1772811884301083400,1.18508349609375,0.19964218139648438,-0.0021185874938964844,-0.021196365356445312
1772811884310784300,1.1947841796875,0.21792316436767578,-0.05651092529296875,-0.034638166427612305
1772811884320485000,1.204485107421875,0.24791240692138672,-0.08305549621582031,-0.06435799598693848
1772811884330186000,1.21418603515625,0.2609243392944336,-0.10254049301147461,-0.09407317638397217
1772811884339886800,1.223886962890625,0.2882356643676758,-0.1340031623840332,-0.12988221645355225
1772811884349587700,1.233587646484375,0.3530235290527344,-0.1843705177307129,-0.17428922653198242
1772811884359288600,1.24328857421875,0.41176891326904297,-0.24785423278808594,-0.23163795471191406
1772811884368989400,1.252989501953125,0.5112628936767578,-0.29958581924438477,-0.28425145149230957
1772811884378690300,1.262690185546875,0.5855588912963867,-0.2959561347961426,-0.30878758430480957
1772811884388391200,1.27239111328125,0.5792474746704102,-0.25150394439697266,-0.32465696334838867
1772811884398092300,1.28209228515625,0.5337276458740234,-0.18897151947021484,-0.3230006694793701
1772811884407793200,1.291793212890625,0.3713254928588867,-0.09379339218139648,-0.31207966804504395
1772811884417493800,1.30149365234375,0.10795879364013672,0.0535283088684082,-0.28144896030426025
1772811884427195000,1.31119482421875,-0.16118431091308594,0.1871957778930664,-0.23084640502929688
1772811884436895700,1.320895751953125,-0.4008021354675293,0.24608087539672852,-0.18628013134002686
1772811884446596600,1.3305966796875,-0.5561428070068359,0.2343282699584961,-0.16731023788452148
1772811884456297500,1.34029736328125,-0.6113243103027344,0.21379756927490234,-0.16620981693267822
1772811884465998300,1.349998291015625,-0.5441207885742188,0.20695018768310547,-0.14675986766815186
1772811884475699200,1.35969921875,-0.3840460777282715,0.17368745803833008,-0.08064281940460205
1772811884485400000,1.369400146484375,-0.2568998336791992,0.10564565658569336,0.051325201988220215
1772811884495101000,1.379100830078125,-0.21857547760009766,0.030197620391845703,0.2267838716506958
1772811884504801800,1.3888017578125,-0.2487030029296875,-0.021973609924316406,0.383404016494751
1772811884514502700,1.398502685546875,-0.33045482635498047,-0.033783912658691406,0.45322418212890625
1772811884524203800,1.408203857421875,-0.4677753448486328,-0.020720958709716797,0.41431355476379395
1772811884533904400,1.417904296875,-0.5134520530700684,0.13194847106933594,0.47201013565063477
1772811884543605500,1.42760546875,-0.5375347137451172,0.24092388153076172,0.35314249992370605
1772811884553306400,1.437306396484375,-0.7696938514709473,0.1490492820739746,0.0620722770690918
1772811884563007200,1.44700732421875,-0.840576171875,-0.0020236968994140625,-0.21094703674316406
1772811884572708000,1.4567080078125,-0.6608047485351562,0.02829599380493164,-0.3240385055541992
1772811884582409000,1.466408935546875,-0.4222068786621094,0.2303476333618164,-0.3112518787384033
1772811884592109800,1.47610986328125,-0.3112802505493164,0.3973565101623535,-0.26595354080200195
1772811884601810700,1.485810791015625,-0.3022270202636719,0.4516429901123047,-0.17782235145568848
1772811884611511600,1.495511474609375,-0.412661075592041,0.3753514289855957,-0.1366865634918213
1772811884621212400,1.50521240234375,-0.5977129936218262,0.19304370880126953,-0.15192627906799316
1772811884630913300,1.514913330078125,-0.6672229766845703,-0.06307125091552734,-0.2293717861175537
1772811884640614400,1.524614501953125,-0.6714239120483398,-0.22194147109985352,-0.42859339714050293
1772811884650315000,1.53431494140625,-0.6531987190246582,-0.22036194801330566,-0.7183957099914551
1772811884660016000,1.54401611328125,-0.6372079849243164,-0.22948217391967773,-0.9799668788909912
1772811884669717000,1.553717041015625,-0.6914525032043457,-0.3333134651184082,-1.1206505298614502
1772811884679417900,1.56341796875,-0.8799924850463867,-0.587033748626709,-1.0292729139328003
1772811884689118700,1.57311865234375,-1.8769149780273438,-0.960848331451416,-0.6430071592330933
1772811884698819600,1.582819580078125,-2.580852508544922,-1.402381181716919,-0.2721201181411743
1772811884708520400,1.5925205078125,-2.8823184967041016,-1.4713184833526611,0.21293485164642334
1772811884718221300,1.60222119140625,-3.076821804046631,-1.3308796882629395,0.310871958732605
1772811884727922200,1.611922119140625,-3.0358457565307617,-1.0724678039550781,0.1709355115890503
1772811884737623000,1.621623046875,-2.5522966384887695,-0.7476487159729004,-0.11816418170928955
1772811884747324000,1.631323974609375,-2.07393741607666,-0.5729618072509766,-0.4861365556716919
1772811884757024800,1.641024658203125,-2.112318515777588,-0.8183231353759766,-0.7507904767990112
1772811884766725600,1.6507255859375,-2.422454833984375,-0.8939812183380127,-0.5755343437194824
1772811884776426500,1.660426513671875,-2.8099193572998047,-0.9266996383666992,-0.5523854494094849
1772811884786127600,1.670127685546875,-3.3335323333740234,-1.1273510456085205,-0.8399534225463867
1772811884795828200,1.679828125,-3.5127434730529785,-1.2461721897125244,-1.2761290073394775
1772811884805529300,1.689529296875,-3.2559056282043457,-1.1694846153259277,-1.8060623407363892
1772811884815230200,1.699230224609375,-2.9717040061950684,-0.966456413269043,-2.200131416320801
1772811884824931000,1.70893115234375,-2.9911460876464844,-0.9498438835144043,-2.089623212814331
1772811884834632000,1.7186318359375,-2.881471633911133,-1.2972168922424316,-1.576501488685608
1772811884844332800,1.728332763671875,-2.601308822631836,-1.9503674507141113,-0.8587234020233154
1772811884854033700,1.73803369140625,-2.1296167373657227,-2.6510016918182373,-0.18946486711502075
1772811884863734500,1.747734619140625,-1.5308609008789062,-3.1084465980529785,0.10767823457717896
1772811884873435400,1.757435302734375,-1.022150993347168,-3.4159576892852783,0.11768826842308044
1772811884883136300,1.76713623046875,-0.8782558441162109,-3.411494255065918,-0.06517958641052246
1772811884892837000,1.776837158203125,-1.1441893577575684,-3.2403502464294434,-0.4143137037754059
1772811884902538200,1.786538330078125,-1.6700539588928223,-3.0093564987182617,-0.9157379865646362
1772811884912238800,1.79623876953125,-2.349318504333496,-2.780000686645508,-1.4871234893798828
1772811884921940000,1.80593994140625,-3.183967113494873,-2.6240625381469727,-1.8547548055648804
1772811884931640800,1.815640869140625,-4.742573261260986,-2.273627758026123,-1.729689359664917
1772811884941341700,1.825341796875,-5.201892852783203,-2.1076161861419678,-1.5486687421798706
1772811884951042600,1.83504248046875,-5.380416393280029,-2.078369379043579,-1.1081243753433228
1772811884960743400,1.844743408203125,-4.946654319763184,-1.8117783069610596,-0.7579441070556641
1772811884970444300,1.8544443359375,-3.305142402648926,-1.1912195682525635,-0.7774173617362976
1772811884980145200,1.864145263671875,-1.3087763786315918,-0.6681945323944092,-0.9264057874679565
1772811884989846000,1.873845947265625,-0.45479583740234375,-0.5747344493865967,-0.7223087549209595
1772811884999547000,1.883546875,-0.6126346588134766,-0.7572028636932373,-0.2675028443336487
1772811885009247700,1.893247802734375,-1.057915210723877,-0.9839053153991699,0.10986757278442383
1772811885018948900,1.902948974609375,-1.3042082786560059,-0.91911780834198,0.19494915008544922
1772811885028649500,1.9126494140625,-1.1998109817504883,-1.0405278205871582,0.11388134956359863
1772811885038350600,1.9223505859375,-0.9516010284423828,-1.7167549133300781,0.07204890251159668
1772811885048051500,1.932051513671875,-0.7509479522705078,-2.3621814250946045,0.17033064365386963
1772811885057752300,1.94175244140625,-0.8017253875732422,-2.2625365257263184,-0.02624136209487915
1772811885067453200,1.951453125,-1.1979455947875977,-1.4875868558883667,-0.5352107882499695
1772811885077154000,1.961154052734375,-1.7529330253601074,-0.7603551149368286,-1.0600916147232056
1772811885086855000,1.97085498046875,-1.4906549453735352,-0.5780261754989624,-0.9698726534843445
1772811885096555800,1.9805556640625,-0.9008865356445312,-0.4158133268356323,-0.6680513024330139
1772811885106256600,1.990256591796875,-0.047331809997558594,0.19437110424041748,-0.7565761208534241
1772811885115957500,1.99995751953125,1.5742645263671875,0.8754112720489502,-0.8327773809432983
1772811885125658400,2.009658447265625,4.164813041687012,1.2191725969314575,-0.40878891944885254
1772811885135359200,2.019359130859375,7.456671714782715,1.3036493062973022,0.5841176509857178
1772811885145060000,2.02906005859375,11.190004348754883,1.341447114944458,2.257450580596924
1772811885154761000,2.038760986328125,15.143533706665039,1.2754576206207275,4.939870357513428
1772811885164462000,2.048462158203125,18.950138092041016,1.062076210975647,8.437865257263184
1772811885174163000,2.058162841796875,22.051265716552734,1.1046710014343262,11.919973373413086
1772811885183863800,2.06786376953125,24.118789672851562,1.6415764093399048,14.355087280273438
1772811885193564700,2.077564697265625,24.863969802856445,2.650730848312378,15.149497985839844
1772811885203265500,2.087265625,24.63227653503418,3.496675729751587,14.813969612121582
1772811885212966400,2.09696630859375,24.07976531982422,3.8807449340820312,13.822486877441406
1772811885222667300,2.106667236328125,23.53253746032715,3.7981314659118652,12.67114543914795
1772811885232368000,2.1163681640625,22.88692283630371,3.268528461456299,11.500592231750488
1772811885242069000,2.126069091796875,21.91080093383789,2.5463194847106934,10.067601203918457
1772811885251769900,2.135769775390625,20.39995574951172,1.7979388236999512,8.401433944702148
1772811885261470700,2.145470703125,18.510461807250977,1.1722304821014404,6.530773162841797
1772811885271171600,2.155171630859375,16.26026153564453,0.8159234523773193,4.82748556137085
1772811885280872700,2.164872802734375,13.561930656433105,0.6252717971801758,3.7187371253967285
1772811885290573600,2.174573486328125,10.59349536895752,0.48517704010009766,3.136852741241455
1772811885300274400,2.1842744140625,7.417856216430664,0.3929281234741211,2.861243724822998
1772811885309975300,2.193975341796875,4.139695167541504,0.23995375633239746,2.4871087074279785
1772811885319676200,2.20367626953125,1.1279964447021484,0.1332395076751709,1.7518138885498047
1772811885329377000,2.213376953125,-1.2840499877929688,-0.007680654525756836,0.6150283813476562
1772811885339078000,2.223077880859375,-3.004220485687256,-0.2760124206542969,-0.7387115955352783
1772811885348778800,2.23277880859375,-4.138373374938965,-0.6980555057525635,-2.055295467376709
1772811885358479600,2.242479736328125,-4.934131145477295,-1.3366029262542725,-3.081235408782959
1772811885368180500,2.252180419921875,-5.600830554962158,-2.172255277633667,-3.754124641418457
1772811885377881300,2.26188134765625,-6.227594375610352,-3.0292067527770996,-4.169501304626465
1772811885387582200,2.271582275390625,-6.880739212036133,-3.8348045349121094,-4.315057754516602
1772811885397283300,2.281283447265625,-7.556642532348633,-4.56718111038208,-4.2538628578186035
1772811885406984200,2.290984130859375,-8.21200180053711,-5.152807712554932,-4.11076021194458
1772811885416684800,2.300684814453125,-8.789775848388672,-5.618215084075928,-3.9585413932800293
1772811885426386000,2.310385986328125,-9.36143684387207,-6.106297016143799,-3.685932159423828
1772811885436086800,2.320086669921875,-9.79234504699707,-6.680477142333984,-3.5022668838500977
1772811885445787600,2.32978759765625,-9.973953247070312,-6.380192279815674,-3.851968765258789
1772811885455488500,2.339488525390625,-10.045923233032227,-6.4151225090026855,-3.7892682552337646
1772811885465189400,2.349189453125,-9.959505081176758,-6.894670009613037,-3.5876829624176025
1772811885474890200,2.35889013671875,-9.876827239990234,-7.074888229370117,-3.535335063934326
1772811885484591000,2.368591064453125,-9.669951438903809,-7.124541282653809,-3.563650608062744
1772811885494292000,2.3782919921875,-9.43474006652832,-7.241514205932617,-3.57668399810791
1772811885503992800,2.387992919921875,-9.282285690307617,-7.409674167633057,-3.5548806190490723
1772811885513693700,2.397693603515625,-9.137142181396484,-7.557733535766602,-3.4967093467712402
1772811885523394800,2.407394775390625,-8.947625160217285,-7.677386283874512,-3.4155569076538086
1772811885533095400,2.417095458984375,-8.754899024963379,-7.796637535095215,-3.33351993560791
1772811885542796500,2.426796630859375,-8.572997093200684,-7.913420677185059,-3.2313919067382812
1772811885552497400,2.436497314453125,-8.413309097290039,-8.040519714355469,-3.0926566123962402
1772811885562198300,2.4461982421875,-8.258711814880371,-8.172525405883789,-2.9463675022125244
1772811885571899100,2.455899169921875,-8.092056274414062,-8.312533378601074,-2.757988929748535
1772811885581600000,2.46560009765625,-7.929784297943115,-8.494599342346191,-2.5334928035736084
1772811885591300900,2.47530078125,-7.891441822052002,-8.721555709838867,-2.3706202507019043
1772811885601001700,2.485001708984375,-7.768588066101074,-8.773242950439453,-2.3536570072174072
1772811885610702600,2.49470263671875,-7.535500526428223,-8.615215301513672,-2.4409103393554688
1772811885620403500,2.504403564453125,-7.313363075256348,-8.525911331176758,-2.4310760498046875
1772811885630104300,2.514104248046875,-7.025476455688477,-8.525339126586914,-2.362213611602783
1772811885639805400,2.523805419921875,-6.667647361755371,-8.398868560791016,-2.31418514251709
1772811885649506000,2.533506103515625,-6.28458833694458,-8.118778228759766,-2.325685739517212
1772811885659207200,2.543207275390625,-5.861125946044922,-7.691471576690674,-2.3603453636169434
1772811885668908000,2.552907958984375,-5.419739246368408,-7.0650434494018555,-2.4674572944641113
1772811885678608600,2.562608642578125,-4.875209331512451,-6.09079647064209,-2.692399740219116
1772811885688309800,2.572309814453125,-4.1262736320495605,-4.619133949279785,-2.9078280925750732
1772811885707711500,2.59171142578125,-1.5975823402404785,-0.16416025161743164,-2.6347312927246094
1772811885717412400,2.601412353515625,0.19424009323120117,2.5651021003723145,-2.3494012355804443
1772811885727113200,2.61111328125,2.4498558044433594,5.528711318969727,-2.1124610900878906
1772811885736814000,2.62081396484375,5.1592278480529785,7.590376377105713,-1.2721654176712036
1772811885746515000,2.630514892578125,7.994038105010986,8.622211456298828,-0.04347264766693115
1772811885756215800,2.6402158203125,10.95313549041748,9.178194046020508,1.4258568286895752
1772811885765916700,2.649916748046875,13.880960464477539,9.053581237792969,3.1850390434265137
1772811885775617500,2.659617431640625,16.4882869720459,8.351125717163086,4.816516876220703
1772811885785318700,2.669318603515625,18.293731689453125,7.68306303024292,5.711560249328613
1772811885795019300,2.679019287109375,19.171348571777344,7.445769309997559,5.663546562194824
1772811885804720400,2.688720458984375,19.094470977783203,7.658148765563965,4.767308235168457
1772811885814421200,2.698421142578125,18.267026901245117,8.190095901489258,3.410876750946045
1772811885824122000,2.7081220703125,16.797245025634766,8.779626846313477,2.104918956756592
1772811885833823000,2.717822998046875,14.726025581359863,9.168827056884766,1.0553277730941772
1772811885843523800,2.72752392578125,12.19621753692627,9.149245262145996,0.3649616241455078
1772811885853224700,2.737224609375,9.532306671142578,8.681057929992676,0.1170734167098999
1772811885862925600,2.746925537109375,6.840212821960449,7.933109760284424,0.2878258228302002
1772811885872626400,2.75662646484375,4.230067253112793,7.060863971710205,0.7676494121551514
1772811885882327300,2.766327392578125,1.7687101364135742,6.165213584899902,1.3208801746368408
1772811885892028200,2.776028076171875,-0.4662609100341797,5.244770526885986,1.7655253410339355
1772811885901729000,2.78572900390625,-2.308906078338623,4.27695369720459,1.9792485237121582
1772811885911430000,2.795429931640625,-3.7133655548095703,3.262092113494873,1.9690272808074951
1772811885921131000,2.805131103515625,-4.77155876159668,2.225876808166504,1.7560977935791016
1772811885930832000,2.814831787109375,-5.581966400146484,1.2241401672363281,1.3097753524780273
1772811885940532700,2.82453271484375,-6.246087551116943,0.30689001083374023,0.627095103263855
1772811885950233600,2.834233642578125,-6.812790870666504,-0.5466518402099609,-0.19904017448425293
1772811885959934500,2.8439345703125,-7.2996721267700195,-1.3463020324707031,-1.140084981918335
1772811885969635300,2.85363525390625,-7.7584614753723145,-2.091043472290039,-2.019749402999878
1772811885979336200,2.863336181640625,-8.227462768554688,-2.784522533416748,-2.7349154949188232
1772811885989037000,2.873037109375,-8.660161018371582,-3.3789474964141846,-3.2483997344970703
1772811885998738000,2.882738037109375,-9.040520668029785,-3.8751981258392334,-3.569187641143799
1772811886008438800,2.892438720703125,-9.329195022583008,-4.291414260864258,-3.791592597961426
1772811886018139600,2.9021396484375,-9.523237228393555,-4.646433353424072,-3.961940288543701
1772811886027840500,2.911840576171875,-9.655370712280273,-4.945494651794434,-4.052124500274658
1772811886037541400,2.921541259765625,-9.753933906555176,-5.22761344909668,-4.071822166442871
1772811886047242500,2.931242431640625,-9.844592094421387,-5.466794967651367,-4.055634021759033
1772811886056943400,2.940943359375,-9.93395709991455,-5.637995719909668,-4.033378601074219
1772811886066644200,2.950644287109375,-9.997406005859375,-5.7532243728637695,-3.9949846267700195
1772811886076345000,2.960344970703125,-10.002364158630371,-5.82339334487915,-3.9566330909729004
1772811886086046000,2.9700458984375,-9.931861877441406,-5.825905799865723,-3.9038774967193604
1772811886095746800,2.979746826171875,-9.765836715698242,-5.7967681884765625,-3.8538618087768555
1772811886105447700,2.98944775390625,-9.490555763244629,-5.723033905029297,-3.8116581439971924
1772811886115148500,2.9991484375,-9.105304718017578,-5.607852458953857,-3.761934757232666
1772811886124849400,3.008849365234375,-8.607632637023926,-5.440621852874756,-3.655273914337158
1772811886134550300,3.01855029296875,-8.020743370056152,-5.285643100738525,-3.3623852729797363
1772811886144251100,3.028251220703125,-7.357889175415039,-5.160005569458008,-2.871891975402832
1772811886153952000,3.037951904296875,-6.45158052444458,-4.9412760734558105,-2.21429705619812
1772811886163652900,3.04765283203125,-5.347510814666748,-4.445337772369385,-1.5106754302978516
1772811886173354000,3.05735400390625,-4.001770496368408,-3.6584014892578125,-0.9654502868652344
1772811886183054600,3.0670546875,-2.289006233215332,-2.6865367889404297,-0.3844163417816162
1772811886192755700,3.076755615234375,-0.15348339080810547,-1.6352572441101074,0.5617036819458008
1772811886202456600,3.08645654296875,2.388762950897217,-0.5454764366149902,1.9958841800689697
1772811886212157400,3.096157470703125,5.22111701965332,0.5017781257629395,4.129014015197754
1772811886221858300,3.1058583984375,8.13316535949707,1.2926015853881836,6.96431303024292
1772811886231559200,3.11555908203125,11.036120414733887,1.8446145057678223,10.138243675231934
1772811886241260000,3.125260009765625,14.050008773803711,2.5111804008483887,13.003985404968262
1772811886250961000,3.1349609375,17.131221771240234,3.34893798828125,15.154829025268555
1772811886260661800,3.144661865234375,19.954082489013672,4.041269302368164,16.53337860107422
1772811886270362600,3.154362548828125,22.11977195739746,4.644252300262451,17.066883087158203
1772811886280063500,3.1640634765625,23.41448974609375,5.2743330001831055,16.753761291503906
1772811886289764600,3.1737646484375,23.73120880126953,5.9073381423950195,15.664203643798828
1772811886299465200,3.18346533203125,23.03302764892578,6.675854682922363,13.75663948059082
1772811886309166300,3.193166259765625,21.638065338134766,7.679577827453613,11.25411605834961
1772811886318867200,3.2028671875,19.958595275878906,8.646528244018555,8.663095474243164
1772811886328568000,3.212568115234375,18.16297149658203,9.345571517944336,6.2420525550842285
1772811886338269000,3.22226904296875,16.38634490966797,9.81893539428711,4.157556533813477
1772811886347969800,3.2319697265625,14.668913841247559,9.862567901611328,2.4944746494293213
1772811886357670700,3.241670654296875,13.121480941772461,9.400802612304688,1.050123929977417
1772811886367371500,3.25137158203125,11.78884506225586,8.605802536010742,-0.3408992290496826
1772811886377072400,3.261072265625,10.402979850769043,7.647510528564453,-1.5813403129577637
1772811886386773200,3.270773193359375,8.789259910583496,6.629791259765625,-2.4011247158050537
1772811886396474000,3.28047412109375,6.92630672454834,5.552460670471191,-2.7025599479675293
1772811886406175000,3.290175048828125,4.9843292236328125,4.440849304199219,-2.4599509239196777
1772811886415875800,3.299875732421875,2.8937911987304688,3.213714122772217,-1.8985097408294678
1772811886425576700,3.30957666015625,0.706578254699707,1.9136629104614258,-1.270719051361084
1772811886435277800,3.31927783203125,-1.5539336204528809,0.6877117156982422,-0.7526001930236816
1772811886444978400,3.328978515625,-3.7924022674560547,-0.36120152473449707,-0.49410486221313477
1772811886454679600,3.338679443359375,-5.834780693054199,-1.190871238708496,-0.4742767810821533
1772811886464380400,3.34838037109375,-7.591276168823242,-1.864335060119629,-0.591789960861206
1772811886474081300,3.358081298828125,-8.983904838562012,-2.433865547180176,-0.7184535264968872
1772811886483782100,3.3677822265625,-10.002191543579102,-2.899664878845215,-0.8515529632568359
1772811886493483000,3.37748291015625,-10.647101402282715,-3.2548792362213135,-1.014665126800537
1772811886503184000,3.387183837890625,-11.013753890991211,-3.5187087059020996,-1.1735421419143677
1772811886512884700,3.396884765625,-11.21442699432373,-3.7348976135253906,-1.325613021850586
1772811886522585600,3.406585693359375,-11.229409217834473,-3.945385456085205,-1.4615274667739868
1772811886532286500,3.416286376953125,-11.126640319824219,-4.187800884246826,-1.5538966655731201
1772811886541987300,3.4259873046875,-10.949342727661133,-4.4689202308654785,-1.5447460412979126
1772811886551688400,3.4356884765625,-10.714689254760742,-4.766915321350098,-1.4060003757476807
1772811886561389000,3.44538916015625,-10.410259246826172,-5.11218786239624,-1.1845074892044067
1772811886571090200,3.455090087890625,-10.029728889465332,-5.438056468963623,-0.9512597322463989
1772811886580791000,3.464791015625,-9.659159660339355,-5.706181049346924,-0.7403415441513062
1772811886590492000,3.474491943359375,-9.293458938598633,-5.973112106323242,-0.5884535312652588
1772811886600192800,3.48419287109375,-8.989401817321777,-6.205702781677246,-0.48941051959991455
1772811886609893600,3.4938935546875,-8.709310531616211,-6.408149719238281,-0.46504366397857666
1772811886619594500,3.503594482421875,-8.413727760314941,-6.561800479888916,-0.5195411443710327
1772811886629295400,3.51329541015625,-8.125848770141602,-6.701744079589844,-0.595848798751831
1772811886638996200,3.522996337890625,-7.807918071746826,-6.878448486328125,-0.6574767231941223
1772811886648697000,3.532697021484375,-7.444499969482422,-7.070474147796631,-0.6677079200744629
1772811886658398000,3.54239794921875,-7.077502250671387,-7.241615295410156,-0.6176238059997559
1772811886668098800,3.552098876953125,-6.726189613342285,-7.367673873901367,-0.5285955667495728
1772811886677799700,3.561799560546875,-6.4307684898376465,-7.484291076660156,-0.41505008935928345
1772811886687500500,3.57150048828125,-6.229665279388428,-7.586612224578857,-0.2901143431663513
1772811886697201700,3.58120166015625,-6.145726203918457,-7.665772438049316,-0.16061118245124817
1772811886706902500,3.590902587890625,-6.074651718139648,-7.725543022155762,0.039890408515930176
1772811886716603400,3.600603271484375,-6.02128267288208,-7.785138130187988,0.3471209406852722
1772811886726304300,3.61030419921875,-5.939807891845703,-7.782746315002441,0.650226354598999
1772811886736005000,3.620005126953125,-5.792129039764404,-7.670405387878418,0.9117622375488281
1772811886745706000,3.6297060546875,-5.595400810241699,-7.370199203491211,1.1339709758758545
1772811886755406800,3.63940673828125,-5.434877872467041,-6.692387580871582,1.2465651035308838
1772811886765107700,3.649107666015625,-5.3287177085876465,-5.599879741668701,1.2490434646606445
1772811886774808600,3.65880859375,-5.030771255493164,-4.256755828857422,1.1415196657180786
1772811886784509400,3.668509521484375,-4.419548988342285,-2.5127711296081543,0.9848195910453796
1772811886794210300,3.678210205078125,-3.243472099304199,-0.5480141639709473,0.9821879863739014
1772811886803911200,3.6879111328125,-1.282477855682373,1.3615360260009766,1.1795809268951416
1772811886813612300,3.6976123046875,1.1570773124694824,3.5244264602661133,1.3303859233856201
1772811886823313200,3.707313232421875,4.125321388244629,5.607203006744385,1.4201005697250366
1772811886833013800,3.717013671875,7.520008087158203,6.656530857086182,2.1752052307128906
1772811886842715000,3.72671484375,11.076446533203125,6.70694637298584,3.667052745819092
1772811886852415700,3.736415771484375,14.623502731323242,6.3767876625061035,5.241370677947998
1772811886862116600,3.74611669921875,17.897781372070312,6.225983142852783,6.103420734405518
1772811886871817500,3.7558173828125,20.515213012695312,6.306762218475342,5.873272895812988
1772811886881518300,3.765518310546875,22.226306915283203,6.574179172515869,4.8384246826171875
1772811886891219200,3.77521923828125,22.771671295166016,7.071252346038818,3.4313793182373047
1772811886900920000,3.784920166015625,22.043624877929688,7.645631790161133,2.109281539916992
1772811886910621000,3.794620849609375,20.21517562866211,8.15999984741211,0.9808995723724365
1772811886920321800,3.80432177734375,17.575939178466797,8.469268798828125,0.08570146560668945
1772811886930022700,3.814022705078125,14.421529769897461,8.447774887084961,-0.4463009834289551
1772811886939723800,3.823723876953125,11.110305786132812,8.014209747314453,-0.5331330299377441
1772811886949424400,3.83342431640625,7.925600051879883,7.183420181274414,-0.27665722370147705
1772811886959125500,3.84312548828125,5.120487213134766,6.091888904571533,0.08400428295135498
1772811886968826400,3.852826416015625,2.870842933654785,4.879676818847656,0.2887803316116333
1772811886978527200,3.86252734375,1.1707448959350586,3.5760040283203125,0.205308198928833
1772811886988228000,3.87222802734375,-0.09867191314697266,2.304482936859131,-0.14824950695037842
1772811886997929000,3.881928955078125,-1.1100497245788574,1.1344223022460938,-0.6871370077133179
1772811887007629800,3.8916298828125,-1.9994802474975586,0.08089160919189453,-1.2784209251403809
1772811887017330700,3.90133056640625,-2.8729982376098633,-0.8487071990966797,-1.802717685699463
1772811887027031600,3.911031494140625,-3.85302734375,-1.6267428398132324,-2.167886734008789
1772811887036732400,3.920732421875,-4.947992324829102,-2.255256175994873,-2.362653970718384
1772811887046433300,3.930433349609375,-6.111256122589111,-2.7380971908569336,-2.4673447608947754
1772811887056134100,3.940134033203125,-7.285158157348633,-3.1045963764190674,-2.5228967666625977
1772811887065835000,3.9498349609375,-8.362688064575195,-3.3783655166625977,-2.5434067249298096
1772811887075536000,3.959535888671875,-9.247066497802734,-3.568166732788086,-2.5104260444641113
1772811887085237000,3.969237060546875,-9.900657653808594,-3.727851390838623,-2.3935768604278564
1772811887094937600,3.9789375,-10.238746643066406,-3.908339023590088,-2.179720401763916
1772811887104638700,3.988638671875,-10.30285930633545,-4.110101222991943,-1.9182305335998535
1772811887114339600,3.998339599609375,-10.186720848083496,-4.279219150543213,-1.6429661512374878
1772811887124040400,4.00804052734375,-9.974625587463379,-4.45369815826416,-1.351941466331482
1772811887133741300,4.0177412109375,-9.734428405761719,-4.645752429962158,-1.0768601894378662
1772811887143442200,4.027442138671875,-9.499832153320312,-4.804505825042725,-0.8356620073318481
1772811887153143000,4.03714306640625,-9.316237449645996,-4.9266557693481445,-0.599850058555603
1772811887162844000,4.046843994140625,-9.20079231262207,-5.021951675415039,-0.28343042731285095
1772811887172544800,4.056544677734375,-9.188722610473633,-5.128918170928955,0.18894070386886597
1772811887182245600,4.06624560546875,-9.27668571472168,-5.2347917556762695,0.7835270762443542
1772811887191946500,4.075946533203125,-9.417580604553223,-5.284446716308594,1.3664026260375977
1772811887201647400,4.0856474609375,-9.543937683105469,-5.2773518562316895,1.8200033903121948
1772811887211348200,4.09534814453125,-9.539606094360352,-5.162021636962891,2.1523072719573975
1772811887221049000,4.105049072265625,-9.31368350982666,-4.929783821105957,2.3828542232513428
1772811887230750200,4.114750244140625,-8.912178039550781,-4.601614952087402,2.5362043380737305
1772811887240451000,4.124451171875,-8.274659156799316,-4.18306827545166,2.6487655639648438
1772811887250152000,4.13415185546875,-7.422035217285156,-3.648444414138794,2.759340763092041
1772811887259852800,4.143852783203125,-6.419051647186279,-2.9109621047973633,2.8377819061279297
1772811887269553700,4.1535537109375,-5.1742048263549805,-1.9909000396728516,2.905500888824463
1772811887279254500,4.163254638671875,-3.8094701766967773,-1.0479607582092285,3.0154590606689453
1772811887288955400,4.172955322265625,-2.1725592613220215,-0.025401592254638672,3.1579461097717285
1772811887298656300,4.18265625,0.0005445480346679688,0.9553089141845703,3.3246970176696777
1772811887308357000,4.192357177734375,2.5537729263305664,2.044130802154541,3.385962963104248
1772811887318058000,4.20205810546875,5.464784622192383,3.2399115562438965,3.425978422164917
1772811887327758800,4.2117587890625,8.984496116638184,3.923692226409912,3.8148796558380127
1772811887337459700,4.221459716796875,13.22191047668457,4.121199131011963,4.62950325012207
1772811887347160600,4.23116064453125,18.31201171875,4.326732635498047,5.411586761474609
1772811887356861700,4.24086181640625,24.064807891845703,4.505582809448242,5.83568811416626
1772811887366562300,4.250562255859375,29.49334716796875,4.642032623291016,5.691452980041504
1772811887376263400,4.260263427734375,33.53960037231445,4.809006690979004,4.933864593505859
1772811887385964300,4.26996435546875,35.72186279296875,5.184439659118652,3.742607593536377
1772811887395665200,4.2796650390625,35.94533157348633,5.722678184509277,2.423490047454834
1772811887405366000,4.289365966796875,34.561370849609375,6.287389278411865,1.2895910739898682
1772811887415067000,4.29906689453125,32.03486633300781,6.68281888961792,0.639671802520752
1772811887424767700,4.308767822265625,28.599103927612305,6.715514183044434,0.5135998725891113
1772811887434468600,4.318468505859375,24.623188018798828,6.3629913330078125,0.5303497314453125
1772811887444169500,4.32816943359375,20.402332305908203,5.645894527435303,0.4861447811126709
1772811887453870300,4.337870361328125,16.044734954833984,4.685921669006348,0.36480164527893066
1772811887463571200,4.3475712890625,11.588525772094727,3.5341672897338867,0.146378755569458
1772811887473272300,4.357272216796875,7.240606307983398,2.1939187049865723,-0.11648523807525635
1772811887482973000,4.366972900390625,3.1329545974731445,0.7059001922607422,-0.40999484062194824
1772811887492674000,4.376674072265625,-0.7008447647094727,-0.8742122650146484,-0.6860598921775818
1772811887502375000,4.386375,-4.167944431304932,-2.444080352783203,-0.918300986289978
1772811887512075500,4.396075439453125,-7.180202484130859,-3.845236301422119,-1.148679494857788
1772811887521776600,4.405776611328125,-9.596813201904297,-5.0901570320129395,-1.3443303108215332
1772811887531477500,4.4154775390625,-11.333434104919434,-6.2615647315979,-1.5487064123153687
1772811887541178400,4.425178466796875,-12.364259719848633,-7.256521224975586,-1.7950820922851562
1772811887550879200,4.434879150390625,-12.865909576416016,-7.954949378967285,-2.111229419708252
1772811887560580000,4.444580078125,-13.047428131103516,-8.433919906616211,-2.3754756450653076
1772811887570281000,4.454281005859375,-13.039122581481934,-8.79860782623291,-2.457554340362549
1772811887579981800,4.46398193359375,-12.92697811126709,-9.007375717163086,-2.319765090942383
1772811887589682700,4.4736826171875,-12.72639274597168,-9.029557228088379,-2.00982403755188
1772811887599383600,4.483383544921875,-12.460275650024414,-8.926311492919922,-1.6135611534118652
1772811887609084400,4.49308447265625,-12.111711502075195,-8.811013221740723,-1.1709656715393066
1772811887618785500,4.50278564453125,-11.654325485229492,-8.686516761779785,-0.75250244140625
1772811887628486100,4.512486083984375,-11.099772453308105,-8.572806358337402,-0.40839076042175293
1772811887638187300,4.522187255859375,-10.464818954467773,-8.50505256652832,-0.13344275951385498
1772811887647888100,4.53188818359375,-9.815299987792969,-8.449207305908203,0.0763312578201294
1772811887657589000,4.541589111328125,-9.164463996887207,-8.39448070526123,0.2147948145866394
1772811887667289900,4.551289794921875,-8.525594711303711,-8.384934425354004,0.28887939453125
1772811887676990700,4.56099072265625,-7.9356794357299805,-8.417157173156738,0.2573584318161011
1772811887686691600,4.570691650390625,-7.4119672775268555,-8.436138153076172,0.14361023902893066
1772811887696392400,4.580392333984375,-6.985637187957764,-8.467740058898926,0.0022329390048980713
1772811887706093300,4.59009326171875,-6.674556732177734,-8.511885643005371,-0.08806601166725159
1772811887715794200,4.599794189453125,-6.442560195922852,-8.540176391601562,-0.11517807841300964
1772811887725495000,4.6094951171875,-6.270854949951172,-8.533364295959473,-0.057771772146224976
1772811887735196000,4.61919580078125,-6.168936729431152,-8.501358985900879,0.08188003301620483
1772811887744896800,4.628896728515625,-6.128188610076904,-8.474409103393555,0.28914874792099
1772811887754597600,4.63859765625,-6.1267900466918945,-8.49095344543457,0.5685436129570007
1772811887764298800,4.648298828125,-6.151215076446533,-8.500871658325195,0.8586951494216919
1772811887773999600,4.65799951171875,-6.12858247756958,-8.45964527130127,1.1180603504180908
1772811887783700200,4.6677001953125,-6.027541160583496,-8.325688362121582,1.2940642833709717
1772811887793401300,4.6774013671875,-5.848496437072754,-8.061933517456055,1.3632268905639648
1772811887803102200,4.687102294921875,-5.571305274963379,-7.690455913543701,1.35428786277771
1772811887812803000,4.696802978515625,-5.243121147155762,-7.1184234619140625,1.28209388256073
1772811887822504000,4.70650390625,-4.8887786865234375,-6.224196910858154,1.136230230331421
1772811887832204800,4.716204833984375,-4.401954650878906,-5.050752639770508,0.9501281976699829
1772811887841905700,4.72590576171875,-3.6674389839172363,-3.713679790496826,0.7961102724075317
1772811887851606500,4.7356064453125,-2.6684188842773438,-2.2179765701293945,0.8086531758308411
1772811887861307400,4.745307373046875,-1.2492260932922363,-0.488985538482666,1.0659434795379639
1772811887871008300,4.75500830078125,0.5782508850097656,1.4472622871398926,1.4965612888336182
1772811887880709000,4.764709228515625,2.60526704788208,3.657198429107666,1.8916723728179932
1772811887890410200,4.77441015625,4.782227039337158,5.580935478210449,2.3839821815490723
1772811887900110800,4.78411083984375,7.2612690925598145,6.741921424865723,3.238051176071167
1772811887909812000,4.79381201171875,10.534906387329102,7.473822116851807,4.137241840362549
1772811887919512800,4.803512939453125,14.481715202331543,7.9889044761657715,4.712317943572998
1772811887929213400,4.81321337890625,18.45973014831543,8.259332656860352,4.933620452880859
1772811887938914600,4.82291455078125,21.73328399658203,8.746755599975586,4.9952521324157715
1772811887948615400,4.832615478515625,23.788726806640625,9.498235702514648,4.9177069664001465
1772811887958316300,4.84231640625,24.795557022094727,10.16813850402832,4.438445568084717
1772811887968017200,4.85201708984375,24.844593048095703,10.788081169128418,3.603097438812256
1772811887977718000,4.861718017578125,23.581401824951172,11.25760555267334,2.6434524059295654
1772811887987419000,4.8714189453125,20.907499313354492,11.616064071655273,1.7680408954620361
1772811887997119700,4.88111962890625,16.97350311279297,11.719245910644531,1.1366045475006104
1772811888006820600,4.890820556640625,12.370101928710938,11.059768676757812,0.8416948318481445
1772811888016521500,4.900521484375,7.880435466766357,10.603950500488281,0.44585251808166504
1772811888026222300,4.910222412109375,3.3274216651916504,9.938583374023438,0.18781113624572754
1772811888035923500,4.91992333984375,-0.5524139404296875,8.335155487060547,0.21849846839904785
1772811888045624000,4.9296240234375,-3.913778781890869,6.493115425109863,0.11055397987365723
1772811888055325200,4.9393251953125,-6.646599769592285,4.721045970916748,-0.3281283378601074
1772811888065026000,4.949026123046875,-8.613044738769531,2.9031171798706055,-1.0388240814208984
1772811888074727000,4.958726806640625,-9.690893173217773,1.0712275505065918,-1.9529716968536377
1772811888084427800,4.968427734375,-9.82247543334961,-0.4891061782836914,-3.1123392581939697
1772811888094128600,4.978128662109375,-9.270703315734863,-1.60133957862854,-4.399109840393066
1772811888103829500,4.98782958984375,-8.484241485595703,-2.451850414276123,-5.50587272644043
1772811888113530400,4.9975302734375,-7.744598388671875,-3.2946054935455322,-6.099168300628662
1772811888123231200,5.007231201171875,-7.138003826141357,-4.208476543426514,-6.093554496765137
1772811888132932000,5.01693212890625,-6.528013229370117,-4.6954803466796875,-5.955593109130859
1772811888142633000,5.026633056640625,-6.1851067543029785,-4.6705732345581055,-5.605639934539795
1772811888152333800,5.036333740234375,-6.101909160614014,-4.6472954750061035,-5.054647922515869
1772811888162034700,5.04603466796875,-6.165995121002197,-4.775245189666748,-4.386907577514648
1772811888171735600,5.055735595703125,-6.377796173095703,-4.804197788238525,-3.816056489944458
1772811888181436400,5.0654365234375,-6.683404922485352,-4.614282131195068,-3.4739887714385986
1772811888191137500,5.075137451171875,-7.0207672119140625,-4.318681716918945,-3.31890869140625
1772811888200838100,5.084838134765625,-7.3241472244262695,-4.054925918579102,-3.247138738632202
1772811888210539300,5.094539306640625,-7.548985481262207,-3.847336530685425,-3.243429660797119
1772811888220240100,5.104240234375,-7.679567337036133,-3.7039382457733154,-3.2579731941223145
1772811888229941000,5.11394091796875,-7.687394618988037,-3.662156343460083,-3.281707525253296
1772811888239641900,5.123641845703125,-7.516686916351318,-3.7010040283203125,-3.282559633255005
1772811888249342700,5.1333427734375,-7.220398902893066,-3.8000950813293457,-3.2290139198303223
1772811888259043600,5.143043701171875,-6.806686878204346,-3.952707529067993,-3.1253395080566406
1772811888268744400,5.152744384765625,-6.259720325469971,-4.137810707092285,-2.9180240631103516
1772811888278445300,5.1624453125,-5.662800312042236,-4.31282377243042,-2.7090392112731934
1772811888288146200,5.172146240234375,-5.132674217224121,-4.398407459259033,-2.567662000656128
1772811888297847000,5.181846923828125,-4.715695858001709,-4.371543884277344,-2.4825491905212402
1772811888307548000,5.1915478515625,-4.34566068649292,-4.243834018707275,-2.405634880065918
1772811888317248800,5.201248779296875,-4.010767936706543,-3.976623296737671,-2.2327194213867188
1772811888326949600,5.21094970703125,-3.634331226348877,-3.5787668228149414,-1.8489973545074463
1772811888336650800,5.220650634765625,-3.11598539352417,-3.0534324645996094,-1.230363368988037
1772811888346351400,5.230351318359375,-2.3673524856567383,-2.2561254501342773,-0.39708685874938965
1772811888356052500,5.240052490234375,-1.0848312377929688,-1.12180757522583,0.8018872737884521
1772811888365753300,5.24975341796875,0.921360969543457,0.3361530303955078,2.35931658744812
1772811888375454200,5.2594541015625,3.576918125152588,2.0556373596191406,4.269794464111328
1772811888385155000,5.269155029296875,6.655529499053955,3.8634700775146484,6.170980453491211
1772811888394856000,5.27885595703125,9.634819984436035,6.03556489944458,7.279860496520996
1772811888404556800,5.288556884765625,12.600811958312988,7.653807640075684,7.837255001068115
1772811888414257700,5.298257568359375,16.778663635253906,7.94852352142334,8.286114692687988
1772811888423958500,5.30795849609375,23.130918502807617,6.997923851013184,9.089301109313965
1772811888433659400,5.317659423828125,30.524991989135742,5.809005260467529,8.816821098327637
1772811888443360300,5.3273603515625,36.207725524902344,4.81044864654541,7.4740753173828125
1772811888453061000,5.33706103515625,39.69439697265625,3.69978404045105,5.428280353546143
1772811888462762000,5.346761962890625,40.245025634765625,2.8078794479370117,3.4836740493774414
1772811888472462800,5.356462890625,37.23395919799805,2.5016746520996094,2.1909332275390625
1772811888482164000,5.3661640625,31.125579833984375,3.049856185913086,1.4477267265319824
1772811888491864600,5.375864501953125,23.222919464111328,3.94521427154541,1.2346386909484863
1772811888501565700,5.385565673828125,14.743538856506348,4.711225509643555,1.5052297115325928
1772811888511266600,5.3952666015625,6.969215393066406,4.9001054763793945,1.6538379192352295
1772811888520967400,5.404967529296875,0.5984869003295898,4.58642578125,1.1749475002288818
1772811888530668300,5.414668212890625,-4.290498733520508,3.728267192840576,0.26545262336730957
1772811888540369200,5.424369140625,-7.934679985046387,2.761335849761963,-0.8283191919326782
1772811888550070000,5.434070068359375,-10.388014793395996,1.6584763526916504,-1.8897842168807983
1772811888559771000,5.44377099609375,-11.609798431396484,0.1958789825439453,-2.763463020324707
1772811888569471700,5.4534716796875,-11.536706924438477,-1.2075996398925781,-3.42594575881958
1772811888579173000,5.463173095703125,-10.965319633483887,-2.5555503368377686,-3.5482842922210693
1772811888588874000,5.4728740234375,-10.29160213470459,-3.868468761444092,-3.1436920166015625
1772811888598574800,5.482574951171875,-10.149151802062988,-4.669424533843994,-2.6823129653930664
1772811888608276000,5.49227587890625,-10.546526908874512,-4.896455764770508,-2.4237005710601807
1772811888617976800,5.501976806640625,-11.2921142578125,-4.915395259857178,-2.382192611694336
1772811888627677700,5.511677734375,-11.984234809875488,-4.67084264755249,-2.403252124786377
1772811888637378600,5.521378662109375,-12.306930541992188,-4.374534606933594,-2.4146759510040283
1772811888647079400,5.531079345703125,-12.155622482299805,-4.1744489669799805,-2.256746292114258
1772811888656780300,5.5407802734375,-11.64523696899414,-4.066034317016602,-1.9521151781082153
1772811888666481200,5.550481201171875,-10.907108306884766,-4.060367584228516,-1.643226146697998
1772811888676182000,5.56018212890625,-10.040132522583008,-4.165433883666992,-1.4029754400253296
1772811888685883000,5.5698828125,-9.14234447479248,-4.325223922729492,-1.2285759449005127
1772811888695583700,5.579583740234375,-8.321584701538086,-4.447718143463135,-1.1130478382110596
1772811888705284600,5.58928466796875,-7.643862724304199,-4.524316310882568,-1.0365272760391235
1772811888714985500,5.5989853515625,-7.15701961517334,-4.564650535583496,-0.9956157207489014
1772811888724686300,5.608686279296875,-6.852441787719727,-4.545341968536377,-1.0249943733215332
1772811888734387500,5.618387451171875,-6.70703649520874,-4.517509460449219,-1.0724059343338013
1772811888744088000,5.628088134765625,-6.678664207458496,-4.501356601715088,-1.0911372900009155
1772811888753789200,5.6377890625,-6.72751522064209,-4.515315532684326,-1.0758090019226074
1772811888763490000,5.647489990234375,-6.816521644592285,-4.586063385009766,-1.0238628387451172
1772811888773190700,5.657190673828125,-6.860270023345947,-4.705441474914551,-0.9546376466751099
1772811888782891800,5.666891845703125,-6.809568405151367,-4.829226493835449,-0.9090844392776489
1772811888792592600,5.676592529296875,-6.652897834777832,-4.970428466796875,-0.8883883953094482
1772811888802293500,5.68629345703125,-6.373013019561768,-5.09070348739624,-0.8719830513000488
1772811888811994400,5.695994384765625,-6.052382946014404,-5.132734775543213,-0.8741168975830078
1772811888821695200,5.7056953125,-5.770074844360352,-5.163123607635498,-0.8296116590499878
1772811888831396000,5.71539599609375,-5.526758193969727,-5.140732765197754,-0.7385576963424683
1772811888841097000,5.725096923828125,-5.3584489822387695,-5.023108959197998,-0.6600414514541626
1772811888850797800,5.7347978515625,-5.287175178527832,-4.830814361572266,-0.6124899983406067
1772811888860498700,5.744498779296875,-5.2772135734558105,-4.612427711486816,-0.5411151647567749
1772811888870199600,5.754199462890625,-5.301521301269531,-4.360885143280029,-0.3658500909805298
1772811888879900400,5.763900390625,-5.3054938316345215,-4.07791805267334,-0.10873806476593018
1772811888889601300,5.773601318359375,-5.175867080688477,-3.747551441192627,0.18476539850234985
1772811888899302100,5.78330224609375,-4.794186115264893,-3.286303758621216,0.5458922386169434
1772811888909003300,5.793003173828125,-4.185998916625977,-2.586529493331909,0.983450174331665
1772811888918704000,5.8027041015625,-3.371324062347412,-1.5824551582336426,1.5023548603057861
1772811888928405000,5.812405029296875,-2.269225597381592,-0.2893490791320801,2.0344395637512207
1772811888938105900,5.82210595703125,-0.5194392204284668,1.2780604362487793,2.503030300140381
1772811888947806700,5.831806640625,2.136874198913574,3.08660888671875,2.789977550506592
1772811888957507600,5.841507568359375,5.640563011169434,4.842960834503174,2.890920877456665
1772811888967208400,5.85120849609375,9.596864700317383,6.659740447998047,2.3949203491210938
1772811888976909300,5.860909423828125,13.719931602478027,8.028414726257324,1.821846842765808
1772811888986610200,5.870610107421875,17.600135803222656,7.601314067840576,2.201941967010498
1772811888996311000,5.88031103515625,21.18356704711914,7.12399959564209,2.5567119121551514
1772811889006012000,5.890011962890625,24.033239364624023,6.677326202392578,2.955838203430176
1772811889015712800,5.899712646484375,25.70629119873047,6.154819965362549,3.0728375911712646
1772811889025413600,5.90941357421875,25.93903350830078,6.223613262176514,2.3094701766967773
1772811889035114800,5.91911474609375,24.524911880493164,6.7302680015563965,1.062018632888794
1772811889044815400,5.9288154296875,21.687541961669922,7.3909502029418945,0.014799341559410095
1772811889054516500,5.9385166015625,18.04796600341797,7.98051643371582,-0.43883708119392395
1772811889064217300,5.94821728515625,14.059256553649902,8.303854942321777,-0.2663470506668091
1772811889073918200,5.957918212890625,10.083063125610352,8.210302352905273,0.09356057643890381
1772811889083619000,5.967619140625,6.54953670501709,7.557171821594238,0.4130837321281433
1772811889093320000,5.97731982421875,3.5798540115356445,6.395317077636719,0.6859755516052246
1772811889103020800,5.987020751953125,1.2650165557861328,4.909307479858398,0.8682180643081665
1772811889112721700,5.9967216796875,-0.4136667251586914,3.2972822189331055,0.8547961711883545
1772811889122422500,6.006422607421875,-1.4834365844726562,1.744184970855713,0.6094560027122498
1772811889132123400,6.016123291015625,-2.248763084411621,0.39038801193237305,0.18217934668064117
1772811889141824300,6.02582421875,-2.972804069519043,-0.7959389686584473,-0.26863807439804077
1772811889151525000,6.035525146484375,-3.8478565216064453,-1.7422473430633545,-0.6382666826248169
1772811889161226000,6.04522607421875,-4.948779106140137,-2.447263240814209,-0.8959766626358032
1772811889170926800,6.0549267578125,-6.213472366333008,-2.972888469696045,-0.9216451048851013
1772811889180627700,6.064627685546875,-7.4740424156188965,-3.3481411933898926,-1.1452282667160034
1772811889190328600,6.07432861328125,-8.48574447631836,-3.6838746070861816,-1.2775822877883911
1772811889200029400,6.084029541015625,-9.2559232711792,-3.983738660812378,-1.5042126178741455
1772811889209730600,6.09373046875,-9.74912166595459,-4.282864093780518,-1.65433931350708
1772811889219431200,6.10343115234375,-10.035391807556152,-4.5414910316467285,-1.7077409029006958
1772811889229132300,6.11313232421875,-10.215749740600586,-4.7962799072265625,-1.677879810333252
1772811889238833200,6.122833251953125,-10.341011047363281,-5.030660152435303,-1.573395013809204
1772811889248534000,6.132533935546875,-10.420225143432617,-5.197465419769287,-1.427899718284607
1772811889258235000,6.14223486328125,-10.49578857421875,-5.311934947967529,-1.2446906566619873
1772811889267935700,6.151935791015625,-10.565494537353516,-5.380274772644043,-1.0460962057113647
1772811889277636600,6.16163671875,-10.614219665527344,-5.429741859436035,-0.8345203399658203
1772811889287337500,6.17133740234375,-10.569032669067383,-5.459965705871582,-0.6288078427314758
1772811889297038300,6.181038330078125,-10.398207664489746,-5.480284690856934,-0.4417617619037628
1772811889306739200,6.1907392578125,-10.10992431640625,-5.5209856033325195,-0.30811774730682373
1772811889316440000,6.200440185546875,-9.794933319091797,-5.561320781707764,-0.24260103702545166
1772811889326141000,6.210140869140625,-9.458703994750977,-5.613949298858643,-0.22433313727378845
1772811889335841800,6.219841796875,-9.115452766418457,-5.705715656280518,-0.19744610786437988
1772811889345542700,6.229542724609375,-8.798646926879883,-5.758164405822754,-0.1511951982975006
1772811889355243500,6.239243408203125,-8.489511489868164,-5.760542869567871,-0.08219929039478302
1772811889364944600,6.248944580078125,-8.160616874694824,-5.678900718688965,-0.002910904586315155
1772811889374645200,6.258645263671875,-7.804803848266602,-5.452648639678955,0.06695424765348434
1772811889384346400,6.268346435546875,-7.343332290649414,-5.054290294647217,0.10100921988487244
1772811889394047200,6.278047119140625,-6.6955695152282715,-4.446073055267334,0.1418984830379486
1772811889403748000,6.287748046875,-5.853543281555176,-3.4934494495391846,0.17982709407806396
1772811889413449000,6.297448974609375,-4.603959083557129,-2.067404270172119,0.33935320377349854
1772811889423149800,6.30714990234375,-2.7166695594787598,-0.2814817428588867,0.7841992974281311
1772811889432850700,6.3168505859375,0.08867454528808594,1.5471763610839844,1.5652128458023071
1772811889442551600,6.326551513671875,3.89823055267334,2.996100902557373,2.6486001014709473
1772811889452252400,6.33625244140625,8.274950981140137,4.021475315093994,3.5231893062591553
1772811889461953300,6.345953369140625,12.339792251586914,5.187318325042725,3.0735514163970947
1772811889471654100,6.355654052734375,15.796481132507324,6.5019073486328125,1.0598032474517822
1772811889481355000,6.36535498046875,19.066539764404297,7.698698043823242,-1.4485957622528076
1772811889491055900,6.375055908203125,22.316246032714844,8.606317520141602,-3.382436513900757
1772811889500756700,6.3847568359375,25.616878509521484,9.14263916015625,-4.216777801513672
1772811889510457900,6.394457763671875,28.473800659179688,9.43006420135498,-4.151806831359863
1772811889520158500,6.404158447265625,30.163049697875977,9.62028694152832,-3.587935447692871
1772811889529859300,6.413859375,30.41712188720703,9.869884490966797,-2.899047613143921
1772811889539560400,6.423560546875,29.119951248168945,10.301419258117676,-2.181471109390259
1772811889549261300,6.43326123046875,26.390682220458984,10.725143432617188,-1.3515812158584595
1772811889558962200,6.442962158203125,22.625722885131836,10.840826034545898,-0.5527582168579102
1772811889568663000,6.4526630859375,18.348634719848633,10.521577835083008,-0.0654374361038208
1772811889578364000,6.462364013671875,14.139659881591797,9.760052680969238,0.04624035954475403
1772811889588064800,6.472064697265625,10.261543273925781,8.496353149414062,-0.07357552647590637
1772811889597765600,6.481765625,6.7536163330078125,6.834409713745117,-0.4117026627063751
1772811889607466500,6.491466552734375,3.610330581665039,5.043132305145264,-0.9947047233581543
1772811889617167400,6.50116748046875,0.7387661933898926,3.162433624267578,-1.6393728256225586
1772811889626868200,6.5108681640625,-1.929673671722412,1.2096362113952637,-2.151093006134033
1772811889636569000,6.520569091796875,-4.275691032409668,-0.7376413345336914,-2.485151767730713
1772811889646270000,6.53027001953125,-6.212404727935791,-2.6151223182678223,-2.5893986225128174
1772811889655970800,6.539970703125,-7.7397565841674805,-4.33979606628418,-2.4259214401245117
1772811889665672000,6.549671875,-8.884708404541016,-5.9292097091674805,-1.9929306507110596
1772811889675372500,6.55937255859375,-9.61941146850586,-7.192698001861572,-1.423728585243225
1772811889685073700,6.56907373046875,-9.861963272094727,-8.268733978271484,-0.9777060747146606
1772811889694774500,6.5787744140625,-9.893932342529297,-9.082375526428223,-0.4369843006134033
1772811889704475100,6.58847509765625,-9.949441909790039,-9.41180419921875,0.01763784885406494
1772811889714176300,6.59817626953125,-10.137527465820312,-9.565916061401367,0.5782175064086914
1772811889723877000,6.607877197265625,-10.513988494873047,-9.548507690429688,1.2316900491714478
1772811889733578000,6.617577880859375,-11.042081832885742,-9.399062156677246,1.9237089157104492
1772811889743278800,6.62727880859375,-11.651430130004883,-9.164203643798828,2.4991888999938965
1772811889752979700,6.636979736328125,-12.255084037780762,-8.718005180358887,2.8251953125
1772811889762680600,6.6466806640625,-12.754646301269531,-8.199711799621582,2.942533016204834
1772811889772381400,6.65638134765625,-12.934782028198242,-7.764496803283691,2.9109723567962646
1772811889782082300,6.666082275390625,-12.684795379638672,-7.346346855163574,2.726552724838257
1772811889791783200,6.675783203125,-12.179289817810059,-6.968996047973633,2.48718523979187
1772811889801484000,6.685484130859375,-11.423016548156738,-6.747836589813232,2.1919569969177246
1772811889811185000,6.695184814453125,-10.501375198364258,-6.604575157165527,1.850707769393921
1772811889820885800,6.7048857421875,-9.511959075927734,-6.4633283615112305,1.4861786365509033
1772811889830586600,6.714586669921875,-8.52015209197998,-6.31744909286499,1.1454932689666748
1772811889840287700,6.724287841796875,-7.639159202575684,-6.165673732757568,0.9229013919830322
1772811889849988400,6.73398828125,-6.964775085449219,-6.043577194213867,0.8617607951164246
1772811889859689500,6.743689453125,-6.523909091949463,-5.9370832443237305,0.9426242113113403
1772811889869390300,6.753390380859375,-6.292632102966309,-5.82000732421875,1.083855390548706
1772811889879091200,6.76309130859375,-6.219226360321045,-5.699819564819336,1.2254034280776978
1772811889888792000,6.7727919921875,-6.253485202789307,-5.574734210968018,1.3572148084640503
1772811889898493000,6.782492919921875,-6.336169242858887,-5.444272994995117,1.441765308380127
1772811889908193800,6.79219384765625,-6.3622541427612305,-5.298479080200195,1.4718623161315918
1772811889917894700,6.801894775390625,-6.289304256439209,-5.133782863616943,1.5116316080093384
1772811889927595500,6.811595458984375,-6.14315128326416,-4.981490612030029,1.5892865657806396
1772811889937296400,6.82129638671875,-5.918653964996338,-4.83935546875,1.68604576587677
1772811889946997200,6.830997314453125,-5.596136093139648,-4.709041595458984,1.7646006345748901
1772811889956698000,6.840697998046875,-5.19818639755249,-4.590390205383301,1.8539446592330933
1772811889966399000,6.85039892578125,-4.735954761505127,-4.474855422973633,1.9594730138778687
1772811889976099800,6.860099853515625,-4.208540439605713,-4.311831474304199,2.071928024291992
1772811889985800700,6.86980078125,-3.5394418239593506,-4.01322078704834,2.244950294494629
1772811889995501800,6.879501708984375,-2.706921100616455,-3.495358467102051,2.410114049911499
1772811890005202400,6.889202392578125,-1.7606463432312012,-2.712071180343628,2.4803125858306885
1772811890014903600,6.898903564453125,0.01601552963256836,-1.4001259803771973,2.519932270050049
1772811890024604400,6.9086044921875,3.2630133628845215,0.8910989761352539,2.0775015354156494
1772811890034305000,6.918304931640625,6.944567680358887,3.2247400283813477,1.75804603099823
1772811890044006100,6.928006103515625,10.176135063171387,4.520793437957764,2.0086257457733154
1772811890053707000,6.93770703125,13.074402809143066,5.688500881195068,2.0830283164978027
1772811890063407900,6.947407958984375,15.683712005615234,6.253140926361084,2.169296979904175
1772811890073108700,6.957108642578125,17.322826385498047,6.299327850341797,2.0539400577545166
1772811890082809600,6.9668095703125,18.10576057434082,6.79495096206665,1.5732598304748535
1772811890092510500,6.976510498046875,18.248897552490234,7.318920612335205,0.8487812876701355
1772811890102211300,6.98621142578125,18.233558654785156,7.9969048500061035,-0.08621972799301147
1772811890111912200,6.995912109375,17.972190856933594,8.765552520751953,-1.0429455041885376
1772811890121613000,7.005613037109375,17.42356300354004,9.778493881225586,-1.8069729804992676
1772811890131314000,7.01531396484375,16.606430053710938,10.734611511230469,-2.151845932006836
1772811890141014800,7.025014892578125,15.461057662963867,11.213258743286133,-1.942562460899353
1772811890150715600,7.034715576171875,13.83387279510498,11.15267562866211,-1.463008999824524
1772811890160416500,7.04441650390625,11.9542875289917,10.81110954284668,-1.235475778579712
1772811890170117600,7.05411767578125,10.053668975830078,10.26839542388916,-1.4407873153686523
1772811890179818500,7.063818603515625,8.348483085632324,9.44620132446289,-1.9042803049087524
1772811890189519000,7.07351904296875,6.814422607421875,8.294183731079102,-2.489731550216675
1772811890199220200,7.08322021484375,5.567665100097656,6.892963409423828,-3.085034132003784
1772811890208921000,7.092921142578125,4.43293571472168,5.367404937744141,-3.4027576446533203
1772811890218622000,7.1026220703125,3.1546125411987305,3.8610949516296387,-3.377340793609619
1772811890228322800,7.11232275390625,1.62298583984375,2.533726215362549,-3.0396299362182617
1772811890238023700,7.122023681640625,-0.13724040985107422,1.3941683769226074,-2.443344831466675
1772811890247724500,7.131724609375,-2.0608839988708496,0.3737001419067383,-1.7082879543304443
1772811890257425400,7.14142529296875,-4.0283203125,-0.5461211204528809,-0.9376962184906006
1772811890267126300,7.151126220703125,-5.8067121505737305,-1.4374947547912598,-0.2814733684062958
1772811890276827100,7.1608271484375,-7.199620723724365,-2.358668804168701,0.13087935745716095
1772811890286528000,7.170528076171875,-8.110342025756836,-3.26118540763855,0.22834862768650055
1772811890296228900,7.180228759765625,-8.595001220703125,-3.9820051193237305,-0.12650614976882935
1772811890305929700,7.1899296875,-8.828779220581055,-4.364205837249756,-0.5211321115493774
1772811890315630600,7.199630615234375,-8.882173538208008,-4.694843769073486,-0.7871568202972412
1772811890325331700,7.209331787109375,-8.910446166992188,-5.071852684020996,-0.8004047274589539
1772811890335032300,7.2190322265625,-9.040197372436523,-5.370786190032959,-0.5259566903114319
1772811890344733200,7.228733154296875,-9.25303840637207,-5.609065532684326,-0.15121066570281982
1772811890354434300,7.238434326171875,-9.562089920043945,-5.75026273727417,0.2026536762714386
1772811890364135200,7.24813525390625,-9.980570793151855,-5.746114730834961,0.4295896887779236
1772811890373836000,7.2578359375,-10.400390625,-5.640760898590088,0.4872596859931946
1772811890383537000,7.267536865234375,-10.708745956420898,-5.51023006439209,0.4412544369697571
1772811890393237800,7.27723779296875,-10.865739822387695,-5.381119251251221,0.34769925475120544
1772811890402938600,7.286938720703125,-10.813560485839844,-5.253541946411133,0.23378103971481323
1772811890412639500,7.296639404296875,-10.5862455368042,-5.165229320526123,0.1492338478565216
1772811890422340400,7.30634033203125,-10.245866775512695,-5.154486179351807,0.12276457250118256
1772811890432041200,7.316041259765625,-9.867230415344238,-5.193488597869873,0.14278730750083923
1772811890441742000,7.3257421875,-9.458110809326172,-5.226390838623047,0.13177387416362762
1772811890451443000,7.33544287109375,-9.035229682922363,-5.24083137512207,0.10483554005622864
1772811890461143800,7.345143798828125,-8.646406173706055,-5.242422580718994,0.09121892601251602
1772811890470844700,7.3548447265625,-8.288745880126953,-5.184566497802734,0.04916660487651825
1772811890480545500,7.364545654296875,-7.894322395324707,-5.037997722625732,0.007004857063293457
1772811890490246400,7.374246337890625,-7.418168544769287,-4.775586128234863,0.001604422926902771
1772811890499947300,7.383947265625,-6.849145412445068,-4.357259273529053,-0.001865774393081665
1772811890509648400,7.3936484375,-6.142567157745361,-3.682802200317383,0.025477170944213867
1772811890519349000,7.403348876953125,-5.174709320068359,-2.717101573944092,0.11899030208587646
1772811890529050000,7.413050048828125,-3.8140134811401367,-1.4044394493103027,0.20923757553100586
1772811890538751000,7.4227509765625,-1.536043643951416,0.1447000503540039,0.09250552952289581
1772811890548451600,7.43245166015625,2.162583351135254,1.5646214485168457,0.02735777199268341
1772811890558152700,7.442152587890625,6.936334609985352,2.6004743576049805,0.3116315007209778
1772811890567853600,7.451853515625,12.117210388183594,3.8299832344055176,0.9485758543014526
1772811890577554400,7.461554443359375,16.84341812133789,5.149257659912109,1.64255952835083
1772811890587255300,7.47125537109375,20.396554946899414,5.781229019165039,2.9765119552612305
1772811890596956200,7.4809560546875,22.943572998046875,6.065440654754639,4.603673458099365
1772811890606657000,7.490656982421875,24.729637145996094,6.486698627471924,5.7086992263793945
1772811890616358000,7.50035791015625,25.94524383544922,6.753114223480225,6.216545104980469
1772811890626058800,7.510058837890625,26.743492126464844,6.981635570526123,5.962188243865967
1772811890635759600,7.519759521484375,26.99768829345703,7.167246341705322,5.138422966003418
1772811890645460500,7.52946044921875,26.523548126220703,7.414780139923096,3.7562813758850098
1772811890655161300,7.539161376953125,25.203384399414062,7.587492942810059,2.1866087913513184
1772811890664862200,7.5488623046875,23.012475967407227,7.688190937042236,0.7490441799163818
1772811890674563000,7.55856298828125,20.118717193603516,7.533939361572266,-0.26122260093688965
1772811890684264200,7.56826416015625,16.72018051147461,7.085849285125732,-0.7541012763977051
1772811890693965000,7.577965087890625,13.106935501098633,6.391402244567871,-0.8858926892280579
1772811890703665700,7.587665771484375,9.602151870727539,5.481598377227783,-0.950003981590271
1772811890713366800,7.59736669921875,6.225888252258301,4.511618137359619,-0.9331568479537964
1772811890723067600,7.607067626953125,2.9357376098632812,3.534343719482422,-0.7086817026138306
1772811890732768500,7.6167685546875,-0.2229452133178711,2.62357234954834,-0.26094257831573486
1772811890742469400,7.626469482421875,-3.03668212890625,1.909691333770752,0.3867807388305664
1772811890752170200,7.636170166015625,-5.3325090408325195,1.290722370147705,1.138946533203125
1772811890761871000,7.64587109375,-6.926083087921143,0.8381671905517578,1.830095887184143
1772811890771572000,7.655572021484375,-7.810942649841309,0.6200361251831055,2.2501771450042725
1772811890781272800,7.66527294921875,-8.128430366516113,0.43852901458740234,2.516749858856201
1772811890790973700,7.6749736328125,-8.177302360534668,0.18433284759521484,2.737464666366577
1772811890800674600,7.684674560546875,-8.209939002990723,-0.16191816329956055,2.7999050617218018
1772811890810375400,7.69437548828125,-8.343363761901855,-0.7569675445556641,2.656040668487549
1772811890820076300,7.704076171875,-8.554451942443848,-1.5792584419250488,2.2879579067230225
1772811890829777200,7.713777099609375,-8.831625938415527,-2.4789505004882812,1.709446907043457
1772811890839478000,7.72347802734375,-9.258333206176758,-3.292935609817505,1.022680401802063
1772811890849179000,7.733178955078125,-9.773661613464355,-4.018974304199219,0.36873000860214233
1772811890858879700,7.742879638671875,-10.366698265075684,-4.635756015777588,-0.10300903022289276
1772811890868580900,7.752580810546875,-10.948858261108398,-5.217850685119629,-0.3905000686645508
1772811890878281700,7.76228173828125,-11.363380432128906,-5.793473243713379,-0.5690677165985107
1772811890887982600,7.771982666015625,-11.399495124816895,-6.345240116119385,-0.7389545440673828
1772811890897683500,7.781683349609375,-11.239778518676758,-6.8347272872924805,-0.9838992953300476
1772811890907384300,7.79138427734375,-10.859453201293945,-7.287087440490723,-1.2385447025299072
1772811890917085200,7.801085205078125,-10.331072807312012,-7.658543586730957,-1.4774389266967773
1772811890926786000,7.8107861328125,-9.727663040161133,-7.890519618988037,-1.6679483652114868
1772811890936487000,7.82048681640625,-9.068696975708008,-8.036561965942383,-1.702317237854004
1772811890946187800,7.830187744140625,-8.408663749694824,-8.13768482208252,-1.5207300186157227
1772811890955888600,7.839888671875,-7.859961032867432,-8.081748962402344,-1.2448863983154297
1772811890965589500,7.849589599609375,-7.480039596557617,-7.912746429443359,-0.9430709481239319
1772811890975290400,7.859290283203125,-7.245815277099609,-7.7454047203063965,-0.6837997436523438
1772811890984991200,7.8689912109375,-6.916485786437988,-7.1551008224487305,-0.29174095392227173
1772811890994692000,7.878692138671875,-6.99567985534668,-6.868696212768555,-0.35829636454582214
1772811891004393000,7.88839306640625,-7.053720951080322,-6.551509857177734,-0.2928513288497925
1772811891014093800,7.89809375,-6.914951324462891,-6.30504035949707,-0.06790201365947723
1772811891023795000,7.907794921875,-6.4865946769714355,-6.014388561248779,0.056918516755104065
1772811891033495600,7.91749560546875,-5.860960960388184,-5.584587097167969,0.1386764496564865
1772811891043196400,7.927196533203125,-5.354711055755615,-5.1713547706604,0.4173924922943115
1772811891052897500,7.9368974609375,-4.994912147521973,-4.7459611892700195,0.889631986618042
1772811891062598100,7.94659814453125,-4.564046382904053,-4.267620086669922,1.2542724609375
1772811891072299300,7.95629931640625,-4.149542331695557,-3.883439540863037,1.3679004907608032
1772811891082000100,7.966000244140625,-3.7016000747680664,-3.4392104148864746,1.3360986709594727
1772811891091701000,7.975700927734375,-3.1408114433288574,-2.637038230895996,0.783846914768219
1772811891101401900,7.98540185546875,-2.4240455627441406,-1.3710598945617676,0.05402497947216034
1772811891111102700,7.995102783203125,-1.486135482788086,0.22571992874145508,-0.716509997844696
1772811891120803600,8.004803466796876,0.0529637336730957,2.290581703186035,-1.1825953722000122
1772811891130504400,8.01450439453125,2.241635799407959,5.000675201416016,-0.8937279582023621
1772811891140205300,8.024205322265624,4.83338737487793,7.0367207527160645,0.7634540796279907
1772811891149906200,8.03390625,7.83193826675415,8.294036865234375,2.4122703075408936
1772811891159607000,8.04360693359375,10.701690673828125,9.56466007232666,2.128457546234131
1772811891169308000,8.053307861328125,13.77830982208252,10.210792541503906,0.32693809270858765
1772811891179008800,8.0630087890625,16.20883560180664,8.37388801574707,0.5848415493965149
1772811891188709600,8.072709716796876,17.492393493652344,6.481563568115234,1.5863122940063477
1772811891198410500,8.082410400390625,18.820810317993164,6.027469158172607,1.860259771347046
1772811891208111600,8.092111572265624,20.419769287109375,5.5361762046813965,1.8676371574401855
1772811891217812200,8.101812255859375,21.94205093383789,5.961972236633301,2.2626774311065674
1772811891227513000,8.11151318359375,23.27444839477539,6.186213970184326,3.341383695602417
1772811891237214200,8.121214111328126,24.129154205322266,6.024633884429932,3.944281816482544
1772811891246914800,8.130914794921875,23.621414184570312,6.502523422241211,3.7997539043426514
1772811891256616000,8.140615966796876,20.339515686035156,7.356879234313965,3.0859785079956055
1772811891266316800,8.15031689453125,16.184043884277344,7.75705623626709,1.6847206354141235
1772811891276017700,8.160017578125,12.460822105407715,7.119956016540527,-0.09954240918159485
1772811891285718500,8.169718505859375,9.123477935791016,5.462124824523926,-0.7975612282752991
1772811891295419400,8.17941943359375,5.3934125900268555,3.415975332260132,-0.8202714920043945
1772811891305120300,8.189120361328126,2.2508201599121094,1.454434871673584,-1.004032015800476
1772811891314821000,8.198821044921875,-0.40936851501464844,0.23712444305419922,-1.1507840156555176
1772811891324522000,8.20852197265625,-2.628744125366211,-0.803459644317627,-0.9406003355979919
1772811891334222800,8.218222900390625,-4.337591171264648,-1.844099998474121,-0.4082332253456116
1772811891343923700,8.227923828125,-5.644647598266602,-2.9946401119232178,-0.13763529062271118
1772811891353624600,8.23762451171875,-6.725817680358887,-3.860321521759033,-0.7366101741790771
1772811891363325400,8.247325439453125,-7.046777725219727,-4.007411003112793,-1.654226303100586
1772811891373026300,8.2570263671875,-7.6355695724487305,-3.7980854511260986,-2.1510181427001953
1772811891382727200,8.26672705078125,-8.253138542175293,-3.955392599105835,-2.3264293670654297
1772811891392428300,8.27642822265625,-8.559895515441895,-4.129538059234619,-2.5372114181518555
1772811891402129000,8.28612890625,-8.725302696228027,-4.2203288078308105,-2.5292134284973145
1772811891411829800,8.295829833984374,-9.136979103088379,-4.286694049835205,-2.6106271743774414
1772811891421531000,8.30553076171875,-9.676424980163574,-4.204162120819092,-2.7773659229278564
1772811891431231500,8.3152314453125,-10.316590309143066,-4.2746500968933105,-2.6586410999298096
1772811891440932600,8.3249326171875,-10.790505409240723,-4.184944152832031,-2.208732843399048
1772811891450633500,8.334633544921875,-11.347508430480957,-4.634531021118164,-1.9156997203826904
1772811891460334300,8.344334228515624,-11.582677841186523,-4.7558112144470215,-1.7421348094940186
1772811891470035200,8.35403515625,-11.593254089355469,-5.166311264038086,-1.405279278755188
1772811891479736000,8.363736083984374,-11.417387962341309,-5.261484622955322,-1.1462770700454712
1772811891489437000,8.37343701171875,-11.07768726348877,-5.309002876281738,-1.056709885597229
1772811891499137800,8.3831376953125,-10.715381622314453,-5.268287181854248,-0.9850648641586304
1772811891508838700,8.392838623046876,-10.135629653930664,-5.133145332336426,-0.8686672449111938
1772811891518539500,8.40253955078125,-9.587080955505371,-4.860214710235596,-0.5048769116401672
1772811891528240400,8.412240478515624,-9.221511840820312,-4.54394006729126,-0.03035295009613037
1772811891537941200,8.421941162109375,-8.808095932006836,-4.405341148376465,0.4226391315460205
1772811891547642000,8.43164208984375,-8.349128723144531,-4.357786655426025,0.8151087164878845
1772811891557343000,8.441343017578125,-8.020394325256348,-4.3405609130859375,0.8508666157722473
1772811891567043800,8.4510439453125,-7.755885124206543,-4.244704723358154,0.8269624710083008
1772811891576745000,8.460744873046876,-7.27617073059082,-4.072406768798828,0.58527010679245
1772811891586445600,8.470445556640625,-6.041979789733887,-3.7947018146514893,0.172174870967865
1772811891596146400,8.480146484375,-4.445046901702881,-3.3350508213043213,-0.23987412452697754
1772811891605847600,8.48984765625,-2.646806240081787,-2.504624843597412,-0.7923538088798523
1772811891615548200,8.499548095703124,-1.2316861152648926,-1.6288349628448486,-1.3024590015411377
1772811891625249300,8.509249267578125,0.4260091781616211,-0.3997969627380371,-1.6158909797668457
1772811891634950100,8.5189501953125,2.4732866287231445,0.8960528373718262,-0.8817111849784851
1772811891644650800,8.528650634765626,5.284483909606934,2.597288131713867,1.1270136833190918
1772811891654352000,8.538351806640625,8.619826316833496,5.015162467956543,3.951413154602051
1772811891664052700,8.548052734375,12.776602745056152,8.422157287597656,4.814891815185547
1772811891673753600,8.557753662109375,17.74531364440918,12.525237083435059,3.256317138671875
1772811891683454500,8.567454345703124,22.954307556152344,12.622495651245117,3.0897231101989746
1772811891693155300,8.5771552734375,28.024568557739258,12.080527305603027,4.389226913452148
1772811891702856200,8.586856201171875,31.73261070251465,10.635565757751465,5.111763954162598
1772811891712557000,8.59655712890625,34.37384033203125,9.425859451293945,2.8457345962524414
1772811891722258000,8.6062578125,35.76258850097656,9.145386695861816,-0.387983500957489
1772811891731958800,8.615958740234374,34.521392822265625,9.393830299377441,-3.274934768676758
1772811891741659600,8.62565966796875,31.399646759033203,9.860279083251953,-5.044636249542236
1772811891751360500,8.635360595703125,26.613235473632812,9.713678359985352,-5.264418601989746
1772811891761061400,8.645061279296876,21.370784759521484,7.915431499481201,-4.042213439941406
1772811891770762200,8.65476220703125,17.288734436035156,5.160866737365723,-2.944546699523926
1772811891780463000,8.664463134765626,12.730242729187012,2.3703227043151855,-1.7348473072052002
1772811891790164200,8.674164306640625,7.465361595153809,-1.118131160736084,-0.3111555576324463
1772811891799864800,8.68386474609375,1.0705451965332031,-2.405937671661377,0.3103262186050415
1772811891809566000,8.69356591796875,-4.229621410369873,-3.609527349472046,1.1201910972595215
1772811891819266800,8.703266845703125,-7.736698627471924,-4.215796947479248,1.3426103591918945
1772811891828967400,8.712967529296876,-9.741989135742188,-4.697394371032715,0.8157944083213806
1772811891838668500,8.72266845703125,-10.552444458007812,-5.375062465667725,0.18105238676071167
1772811891848369400,8.732369384765626,-10.663749694824219,-6.509880542755127,-0.3160620331764221
1772811891858070300,8.7420703125,-10.858461380004883,-7.272630214691162,-0.7720161080360413
1772811891867771100,8.751771240234374,-11.184046745300293,-7.722515106201172,-1.308725357055664
1772811891877472000,8.761471923828125,-11.495601654052734,-7.786997318267822,-2.196082592010498
1772811891887172900,8.7711728515625,-11.836341857910156,-7.408585548400879,-2.9761383533477783
1772811891896873700,8.780873779296876,-12.117106437683105,-7.0262322425842285,-3.184800863265991
1772811891906574600,8.79057470703125,-11.901846885681152,-7.005945682525635,-3.000960111618042
1772811891916275500,8.800275390625,-10.968422889709473,-7.110738277435303,-2.582001209259033
1772811891925976300,8.809976318359375,-10.05929946899414,-7.350044250488281,-1.9212732315063477
1772811891935677200,8.81967724609375,-9.397004127502441,-7.539611339569092,-1.0791982412338257
1772811891945378000,8.8293779296875,-8.770276069641113,-7.632481098175049,-0.4640797972679138
1772811891955079000,8.839078857421875,-8.305694580078125,-7.740514755249023,-0.10441488027572632
1772811891964779800,8.84877978515625,-7.903284072875977,-7.54090690612793,0.03418171405792236
1772811891974480600,8.858480712890625,-7.463590145111084,-7.348106861114502,0.025697767734527588
1772811891984181500,8.868181396484376,-6.92857027053833,-7.343024253845215,-0.21231922507286072
1772811891993882400,8.87788232421875,-6.407214164733887,-7.417929649353027,-0.4917391538619995
1772811892003583500,8.88758349609375,-6.022375583648682,-7.454616546630859,-0.7012521028518677
1772811892013284000,8.8972841796875,-5.961423873901367,-7.462157249450684,-0.8052090406417847
1772811892022985000,8.90698486328125,-6.345931529998779,-7.426321983337402,-0.8231759071350098
1772811892032686000,8.91668603515625,-6.751413822174072,-7.399084091186523,-0.6250107288360596
1772811892042386700,8.92638671875,-6.969921112060547,-7.489355087280273,-0.4403502941131592
1772811892052087800,8.936087890625,-7.027066230773926,-7.454705238342285,-0.4471687078475952
1772811892061788700,8.94578857421875,-7.245373725891113,-7.187005043029785,-0.30811044573783875
1772811892071489500,8.955489501953124,-7.410032749176025,-6.75916051864624,-0.07322591543197632
1772811892081190400,8.9651904296875,-7.686479091644287,-6.421637535095215,0.1488216519355774
1772811892090891300,8.974891357421875,-7.88940954208374,-5.9631547927856445,0.21502196788787842
1772811892100592000,8.984592041015626,-8.052261352539062,-5.640987873077393,0.2986071705818176
1772811892110293000,8.99429296875,-7.938723564147949,-5.376400470733643,0.33115333318710327
1772811892119993900,9.003993896484374,-7.593812465667725,-5.143150329589844,0.32649707794189453
1772811892129694700,9.01369482421875,-7.0675153732299805,-4.698430061340332,0.26178640127182007
1772811892139395600,9.0233955078125,-6.525525093078613,-4.422736644744873,0.3512731194496155
1772811892149096400,9.033096435546875,-5.853015899658203,-4.056447982788086,0.18176883459091187
1772811892158797300,9.04279736328125,-4.891207695007324,-3.2146353721618652,-0.3697959780693054
1772811892168498200,9.052498291015626,-3.9707536697387695,-2.0222740173339844,-1.1549417972564697
1772811892178199000,9.062198974609375,-2.9077303409576416,-0.9695868492126465,-2.268345355987549
1772811892187900000,9.07189990234375,-1.8868045806884766,0.31568288803100586,-2.94612979888916
1772811892197600800,9.081600830078125,-1.3043994903564453,2.2620458602905273,-2.2644643783569336
1772811892207301600,9.091301513671874,-0.7288646697998047,3.9401721954345703,-0.1935935616493225
1772811892217002800,9.101002685546876,0.8390135765075684,5.495217800140381,1.7636981010437012
1772811892226703400,9.110703369140625,2.9579811096191406,8.176946640014648,1.9118846654891968
1772811892236404200,9.120404296875,5.916391849517822,10.63818645477295,-0.08310723304748535
1772811892246105300,9.130105224609375,7.6481146812438965,10.56341552734375,-0.48148515820503235
1772811892255806200,9.13980615234375,8.803071975708008,8.101537704467773,3.496382713317871
1772811892265507000,9.149507080078125,10.341729164123535,5.296807289123535,7.604646682739258
1772811892275208000,9.1592080078125,13.53915023803711,3.22255802154541,8.344449996948242
1772811892284908800,9.16890869140625,17.388431549072266,2.3093318939208984,6.333695411682129
1772811892294609700,9.178609619140625,19.939104080200195,2.432039260864258,3.3569495677948
1772811892304310500,9.188310546875,20.282001495361328,3.112194061279297,0.6118646860122681
1772811892314011400,9.198011474609375,18.138057708740234,4.434895038604736,-1.0390740633010864
1772811892323712300,9.207712158203124,14.750503540039062,5.9765424728393555,-1.7177914381027222
1772811892333413000,9.2174130859375,11.341421127319336,7.603795051574707,-1.711217999458313
1772811892343114000,9.227114013671875,8.516130447387695,8.800936698913574,-1.177343726158142
1772811892352814800,9.23681494140625,6.140992164611816,9.199546813964844,-0.31794214248657227
1772811892362515700,9.246515625,4.310979843139648,8.899125099182129,0.5051804780960083
1772811892372216600,9.256216552734376,3.0014219284057617,7.574502944946289,1.2638027667999268
1772811892381917400,9.26591748046875,2.4957456588745117,5.877022743225098,2.2843923568725586
1772811892391618300,9.275618408203124,2.6746206283569336,4.836482524871826,2.5945820808410645
1772811892401319200,9.285319091796875,3.238774299621582,3.4825215339660645,2.361565113067627
1772811892411020000,9.29502001953125,3.7084760665893555,2.150402545928955,1.6283899545669556
1772811892420721000,9.304720947265626,3.5242385864257812,0.9983644485473633,0.5525943040847778
1772811892430421800,9.314421875,2.695218086242676,-0.0317683219909668,-0.28280162811279297
1772811892440122600,9.32412255859375,1.5060911178588867,-1.1531283855438232,-0.7748796939849854
1772811892449823500,9.333823486328125,0.32765865325927734,-2.0172104835510254,-1.1748805046081543
1772811892459524600,9.343524658203124,-0.7705140113830566,-2.6115713119506836,-1.6154773235321045
1772811892469225500,9.3532255859375,-1.8354301452636719,-3.1283586025238037,-2.009187698364258
1772811892478926000,9.362926025390625,-2.8424301147460938,-3.4096169471740723,-2.408402681350708
1772811892488627200,9.372627197265626,-3.861326217651367,-3.5695319175720215,-2.7187414169311523
1772811892498328000,9.382328125,-5.00045108795166,-3.549525737762451,-2.816922187805176
1772811892508029000,9.39202880859375,-6.027846813201904,-3.2704524993896484,-2.6847856044769287
1772811892517729800,9.401729736328125,-7.00042724609375,-3.0131752490997314,-2.355327606201172
1772811892527430700,9.4114306640625,-7.368122100830078,-2.834407329559326,-2.2051379680633545
1772811892537131500,9.421131591796875,-7.412934303283691,-2.667677402496338,-2.1815690994262695
1772811892546832400,9.430832275390625,-7.196774959564209,-2.3074698448181152,-2.0753118991851807
1772811892556533200,9.440533203125,-7.056708812713623,-1.9029779434204102,-1.7574825286865234
1772811892566234000,9.450234130859375,-6.203007221221924,-1.4339489936828613,-1.6951930522918701
1772811892575935000,9.45993505859375,-5.2862982749938965,-1.1033315658569336,-1.6601967811584473
1772811892585635800,9.4696357421875,-4.190383434295654,-0.9268131256103516,-1.4769268035888672
1772811892595336700,9.479336669921874,-3.223200798034668,-0.8119311332702637,-1.1556005477905273
1772811892605037600,9.48903759765625,-2.253054141998291,-0.9332542419433594,-0.845426619052887
1772811892614738400,9.498738525390625,-1.247927188873291,-1.132868766784668,-0.7723249793052673
1772811892624439300,9.508439208984376,-0.3070087432861328,-1.346064567565918,-0.5780603885650635
1772811892634140200,9.51814013671875,0.37924671173095703,-1.4949970245361328,0.03418409824371338
