time,seconds_elapsed,z,y,x
1772811883185481700,0.069481689453125,0.06559160351753235,-0.10453423857688904,-0.0057268571108579636
1772811883204883500,0.088883544921875,0.008170315995812416,-0.16928590834140778,0.04344775900244713
1772811883214584300,0.098584228515625,-0.013209951110184193,-0.152487114071846,0.07826705276966095
1772811883224285400,0.108285400390625,-0.02176205813884735,-0.13813179731369019,0.1066722646355629
1772811883233986000,0.117986083984375,-0.01259908638894558,-0.12591449916362762,0.1417969912290573
1772811883243687000,0.12768701171875,0.0005345066892914474,-0.13538290560245514,0.17722713947296143
1772811883253388000,0.137387939453125,0.012140937149524689,-0.16623157262802124,0.2196822464466095
1772811883263088600,0.147088623046875,0.021914774551987648,-0.19219332933425903,0.26244276762008667
1772811883272789800,0.156789794921875,0.02893971838057041,-0.19555309414863586,0.2819904685020447
1772811883282490600,0.16649072265625,0.04329504072666168,-0.18547381460666656,0.26244276762008667
1772811883292191500,0.17619140625,0.060704685747623444,-0.15095995366573334,0.2092975378036499
1772811883301892400,0.185892333984375,0.07628174126148224,-0.10728313028812408,0.13416117429733276
1772811883311593200,0.19559326171875,0.08269581943750381,-0.06940951198339462,0.05780307948589325
1772811883321294000,0.205294189453125,0.072921983897686,-0.013209951110184193,0.0022143847309052944
1772811883330995000,0.214994873046875,0.0576503649353981,0.06986765563488007,-0.025274530053138733
1772811883340695800,0.22469580078125,0.04634936526417732,0.12881611287593842,-0.033826638013124466
1772811883350396700,0.234396728515625,0.04085158184170723,0.14683662354946136,-0.023747367784380913
1772811883360097500,0.24409765625,0.036880962550640106,0.15111267566680908,0.008017600513994694
1772811883369798700,0.253798583984375,0.034437503665685654,0.13156500458717346,0.05047270283102989
1772811883379499300,0.263499267578125,0.030161447823047638,0.07719803601503372,0.09323323518037796
1772811883389200400,0.273200439453125,0.027717988938093185,0.032910339534282684,0.1372154951095581
1772811883398901200,0.2829013671875,0.03474293276667595,0.01611155830323696,0.1781434416770935
1772811883408602000,0.29260205078125,0.04787652567028999,-0.01259908638894558,0.19769111275672913
1772811883418303000,0.302302978515625,0.04940368980169296,-0.059635672718286514,0.18669554591178894
1772811883428003800,0.31200390625,0.045738499611616135,-0.06910407543182373,0.16959133744239807
1772811883437704700,0.32170458984375,0.039018988609313965,-0.03520108386874199,0.15615230798721313
1772811883447405600,0.331405517578125,0.02588539570569992,-0.010461059398949146,0.13538290560245514
1772811883457106400,0.3411064453125,0.010613775812089443,0.008781181648373604,0.10881029069423676
1772811883466807300,0.350807373046875,0.008781181648373604,0.05215258151292801,0.0910952091217041
1772811883476508200,0.360508056640625,0.024052800610661507,0.07628174126148224,0.06879864633083344
1772811883486209000,0.370208984375,0.03993528336286545,0.03810269013047218,0.03733910992741585
1772811883495910000,0.379909912109375,0.048792824149131775,-0.016569707542657852,0.00007635809743078426
1772811883505610800,0.38961083984375,0.05215258151292801,-0.021151192486286163,-0.0243582334369421
1772811883515311900,0.399311767578125,0.04787652567028999,0.000839939049910754,-0.04085158184170723
1772811883525012700,0.4090126953125,0.04146244749426842,0.015195261687040329,-0.04696023091673851
1772811883534713600,0.418713623046875,0.0371863916516304,0.034437503665685654,-0.04329504072666168
1772811883544414500,0.42841455078125,0.03871355578303337,0.03993528336286545,-0.029856016859412193
1772811883554115300,0.438115234375,0.04146244749426842,0.02283107116818428,-0.017333287745714188
1772811883563816200,0.447816162109375,0.04298960790038109,0.009697478264570236,-0.004810560029000044
1772811883573517000,0.45751708984375,0.04298960790038109,-0.0077121676877141,0.004046979360282421
1772811883583218000,0.467218017578125,0.03810269013047218,-0.03581194952130318,0.00038179047987796366
1772811883592918800,0.476918701171875,0.02893971838057041,-0.059635672718286514,-0.017333287745714188
1772811883602619600,0.48661962890625,0.025274530053138733,-0.07521272450685501,-0.04298960790038109
1772811883612320500,0.496320556640625,0.028634287416934967,-0.07460185885429382,-0.07200568914413452
1772811883622021400,0.506021484375,0.02649625949561596,-0.05413788929581642,-0.10193806141614914
1772811883631722200,0.51572216796875,0.021609341725707054,-0.013209951110184193,-0.1245400533080101
1772811883641423400,0.52542333984375,0.018860450014472008,0.03565923124551773,-0.13645191490650177
1772811883651124000,0.5351240234375,0.016416991129517555,0.0680350661277771,-0.13767364621162415
1772811883660825000,0.5448251953125,0.01030834298580885,0.06498073786497116,-0.1346193253993988
1772811883670526000,0.55452587890625,-0.0006872228696011007,0.04818195849657059,-0.12240202724933624
1772811883680226800,0.564226806640625,-0.004657844081521034,0.0295505840331316,-0.10499238222837448
1772811883689927700,0.573927734375,0.0023671009112149477,-0.007101302966475487,-0.0939968153834343
1772811883699628500,0.583628662109375,0.017944153398275375,-0.043753188103437424,-0.08391755074262619
1772811883709329400,0.593329345703125,0.025274530053138733,-0.04894553869962692,-0.06772962957620621
1772811883719030300,0.6030302734375,0.0191658828407526,-0.04130972921848297,-0.057039499282836914
1772811883728731100,0.612731201171875,0.010613775812089443,-0.03306305781006813,-0.055512335151433945
1772811883738432000,0.622431884765625,0.012140937149524689,-0.016569707542657852,-0.061620984226465225
1772811883748132900,0.6321328125,0.021609341725707054,-0.006490438245236874,-0.0784197673201561
1772811883757834000,0.641833984375,0.028328854590654373,-0.004352411720901728,-0.10132719576358795
1772811883767534600,0.65153466796875,0.0319940410554409,0.001450803829357028,-0.1193477064371109
1772811883777235700,0.661235595703125,0.03627009689807892,-0.00007635809743078426,-0.13064870238304138
1772811883786936600,0.6709365234375,0.03627009689807892,-0.007101302966475487,-0.13675735890865326
1772811883796637400,0.680637451171875,0.032910339534282684,0.009086613543331623,-0.1407279670238495
1772811883806338300,0.69033837890625,0.029245151206851006,0.03993528336286545,-0.14592032134532928
1772811883816039200,0.7000390625,0.0322994738817215,0.05948295816779137,-0.1495855152606964
1772811883825740000,0.709739990234375,0.037491824477910995,0.06742420047521591,-0.14194969832897186
1772811883835441000,0.71944091796875,0.03962985426187515,0.07567087560892105,-0.1245400533080101
1772811883845141800,0.729141845703125,0.033826638013124466,0.07017309218645096,-0.10774127393960953
1772811883854842600,0.738842529296875,0.02893971838057041,0.06559160351753235,-0.08941533416509628
1772811883864543500,0.74854345703125,0.025579962879419327,0.07780890166759491,-0.07017309218645096
1772811883874244400,0.758244384765625,0.023136503994464874,0.07964149862527847,-0.05734493210911751
1772811883883945200,0.7679453125,0.021609341725707054,0.0628427118062973,-0.05154171586036682
1772811883893646000,0.77764599609375,0.0243582334369421,0.05917752534151077,-0.04848739132285118
1772811883903347200,0.78734716796875,0.03474293276667595,0.0576503649353981,-0.04848739132285118
1772811883913047800,0.7970478515625,0.044211339205503464,0.03840812295675278,-0.05459604039788246
1772811883922749000,0.8067490234375,0.054901473224163055,0.03962985426187515,-0.048792824149131775
1772811883932449800,0.81644970703125,0.06406444311141968,0.06681333482265472,-0.028634287416934967
1772811883942150700,0.826150634765625,0.06650790572166443,0.07872519642114639,-0.012446369975805283
1772811883951851500,0.8358515625,0.0631481483578682,0.06864593178033829,-0.013362666592001915
1772811883961552400,0.845552490234375,0.06528617441654205,0.07078395783901215,-0.025274530053138733
1772811883971253200,0.855253173828125,0.07231111824512482,0.09705114364624023,-0.04696023091673851
1772811883980954000,0.8649541015625,0.0784197673201561,0.12728895246982574,-0.0836121141910553
1772811883990655000,0.874655029296875,0.08086322247982025,0.14836378395557404,-0.13339759409427643
1772811884000355800,0.88435595703125,0.08697187155485153,0.14714205265045166,-0.1856265366077423
1772811884010056700,0.894056640625,0.09521854668855667,0.10865757614374161,-0.23663374781608582
1772811884019757800,0.9037578125,0.09582941234111786,0.029245151206851006,-0.2787834107875824
1772811884029458400,0.91345849609375,0.0836121141910553,-0.04069886729121208,-0.30566146969795227
1772811884039159600,0.92315966796875,0.06986765563488007,-0.03672824427485466,-0.31726789474487305
1772811884048860400,0.9328603515625,0.06375901401042938,0.007864884100854397,-0.32734715938568115
1772811884058561300,0.942561279296875,0.07353284955024719,0.036880962550640106,-0.3410916328430176
1772811884068262100,0.95226220703125,0.08941533416509628,0.06711876392364502,-0.34170249104499817
1772811884077963000,0.961962890625,0.0939968153834343,0.10224349051713943,-0.32673630118370056
1772811884087663900,0.971663818359375,0.08422297984361649,0.10285435616970062,-0.2903898358345032
1772811884097364700,0.98136474609375,0.06772962957620621,0.07506000995635986,-0.2329685539007187
1772811884107065600,0.991065673828125,0.048792824149131775,0.028328854590654373,-0.1654679924249649
1772811884116766500,1.000766357421875,0.03474293276667595,-0.02909243479371071,-0.10041090101003647
1772811884126467300,1.01046728515625,0.0295505840331316,-0.05627591907978058,-0.0423787422478199
1772811884136168200,1.020168212890625,0.0322994738817215,-0.060551971197128296,-0.0057268571108579636
1772811884145869000,1.029869140625,0.04085158184170723,-0.0602465383708477,0.005574141163378954
1772811884155570000,1.03956982421875,0.053374309092760086,-0.04589121788740158,-0.00603228947147727
1772811884165271000,1.04927099609375,0.06498073786497116,-0.01259908638894558,-0.027107125148177147
1772811884174972000,1.058971923828125,0.061620984226465225,0.020693045109510422,-0.05734493210911751
1772811884184672800,1.0686728515625,0.048792824149131775,0.05215258151292801,-0.08269581943750381
1772811884194373600,1.07837353515625,0.035964664071798325,0.06711876392364502,-0.10560324788093567
1772811884204074500,1.088074462890625,0.02802342176437378,0.06589704006910324,-0.12209659814834595
1772811884213775400,1.097775390625,0.01977674663066864,0.07139482349157333,-0.13217586278915405
1772811884223476200,1.107476318359375,0.008781181648373604,0.08483384549617767,-0.1446985900402069
1772811884233177000,1.117177001953125,0.004505127668380737,0.08452841639518738,-0.1608865112066269
1772811884242878000,1.1268779296875,-0.0025198173243552446,0.057039499282836914,-0.16821688413619995
1772811884252578800,1.136578857421875,-0.021151192486286163,0.047265663743019104,-0.15966477990150452
1772811884262279700,1.14627978515625,-0.03550651669502258,0.05123628303408623,-0.1446985900402069
1772811884271980500,1.15598046875,-0.030925029888749123,0.03504836559295654,-0.1242346242070198
1772811884281681700,1.165681640625,-0.01565340906381607,0.035964664071798325,-0.08391755074262619
1772811884291382500,1.175382568359375,-0.004046979360282421,0.05520690605044365,-0.029245151206851006
1772811884301083400,1.18508349609375,0.00022907429956831038,0.0524580143392086,0.024205517023801804
1772811884310784300,1.1947841796875,0.003894262947142124,0.03535379841923714,0.07612902671098709
1772811884320485000,1.204485107421875,0.009697478264570236,0.03810269013047218,0.13477204740047455
1772811884330186000,1.21418603515625,0.013668099418282509,0.0781143307685852,0.19799654185771942
1772811884339886800,1.223886962890625,0.020693045109510422,0.10254892706871033,0.2764926850795746
1772811884349587700,1.233587646484375,0.023747367784380913,0.10713040828704834,0.38644832372665405
1772811884359288600,1.24328857421875,-0.0058795735239982605,0.08177952468395233,0.4951822757720947
1772811884368989400,1.252989501953125,-0.046196650713682175,0.0035888305865228176,0.5635991096496582
1772811884378690300,1.262690185546875,-0.07399099320173264,-0.08437569439411163,0.5962803959846497
1772811884388391200,1.27239111328125,-0.09231694042682648,-0.1986074149608612,0.5758163928985596
1772811884398092300,1.28209228515625,-0.10514509677886963,-0.32994332909584045,0.4609738290309906
1772811884407793200,1.291793212890625,-0.08498656004667282,-0.3794233798980713,0.29848378896713257
1772811884417493800,1.30149365234375,-0.018402300775051117,-0.3421606421470642,0.12438733875751495
1772811884427195000,1.31119482421875,0.0680350661277771,-0.24136795103549957,-0.03627009689807892
1772811884436895700,1.320895751953125,0.1395062506198883,-0.1320231556892395,-0.1758527010679245
1772811884446596600,1.3305966796875,0.1810450553894043,-0.03611737862229347,-0.28550294041633606
1772811884456297500,1.34029736328125,0.19234605133533478,0.05978839099407196,-0.35239261388778687
1772811884465998300,1.349998291015625,0.17432554066181183,0.14653119444847107,-0.38263043761253357
1772811884475699200,1.35969921875,0.13889537751674652,0.2577085793018341,-0.3811032772064209
1772811884485400000,1.369400146484375,0.1251509189605713,0.43974629044532776,-0.34811657667160034
1772811884495101000,1.379100830078125,0.15783219039440155,0.6617956161499023,-0.3084103465080261
1772811884504801800,1.3888017578125,0.22472187876701355,0.8685733675956726,-0.29222244024276733
1772811884514502700,1.398502685546875,0.345062255859375,1.0313688516616821,-0.33284494280815125
1772811884524203800,1.408203857421875,0.49166980385780334,1.195691466331482,-0.4623482823371887
1772811884533904400,1.417904296875,0.630641520023346,1.3102285861968994,-0.6205622553825378
1772811884543605500,1.42760546875,0.6822596192359924,1.5408300161361694,-0.7454841136932373
1772811884553306400,1.437306396484375,0.651105523109436,1.7738749980926514,-0.8615484237670898
1772811884563007200,1.44700732421875,0.6037634611129761,1.7802890539169312,-0.9824996590614319
1772811884572708000,1.4567080078125,0.6520217657089233,1.5664863586425781,-1.0530545711517334
1772811884582409000,1.466408935546875,0.7641154527664185,1.2537236213684082,-1.0884846448898315
1772811884592109800,1.47610986328125,0.8563560843467712,0.919275164604187,-1.1098649501800537
1772811884601810700,1.485810791015625,0.8954514265060425,0.5011382102966309,-1.0866520404815674
1772811884611511600,1.495511474609375,0.8551343083381653,0.12301289290189743,-1.0060179233551025
1772811884621212400,1.50521240234375,0.7561742663383484,-0.28962627053260803,-0.8890373110771179
1772811884630913300,1.514913330078125,0.6340012550354004,-0.7489965558052063,-0.732655942440033
1772811884640614400,1.524614501953125,0.5353466272354126,-1.1695770025253296,-0.5313760042190552
1772811884650315000,1.53431494140625,0.4650971591472626,-1.5599195957183838,-0.2989419400691986
1772811884660016000,1.54401611328125,0.38843363523483276,-1.9316308498382568,-0.02130390889942646
1772811884669717000,1.553717041015625,0.2732856273651123,-2.289597511291504,0.32902705669403076
1772811884679417900,1.56341796875,0.12667807936668396,-2.057468891143799,0.6503419280052185
1772811884689118700,1.57311865234375,-0.052916161715984344,-0.581008791923523,0.5816196203231812
1772811884698819600,1.582819580078125,-0.010155626572668552,-0.09812015295028687,0.6314051151275635
1772811884708520400,1.5925205078125,0.20578506588935852,0.2842811942100525,0.6588940024375916
1772811884718221300,1.60222119140625,0.4021781086921692,0.5753582715988159,0.6805797219276428
1772811884727922200,1.611922119140625,0.3548360764980316,0.519769549369812,0.7535780668258667
1772811884737623000,1.621623046875,0.1453094631433487,0.08697187155485153,0.8323796391487122
1772811884747324000,1.631323974609375,0.23083053529262543,-0.14607304334640503,0.6769145131111145
1772811884757024800,1.641024658203125,0.5994874238967896,-0.07948877662420273,0.39225155115127563
1772811884766725600,1.6507255859375,0.982805073261261,0.09674570709466934,0.10728313028812408
1772811884776426500,1.660426513671875,1.2757147550582886,0.24488042294979095,-0.1300378441810608
1772811884786127600,1.670127685546875,1.4644719362258911,0.2112828493118286,-0.3707185685634613
1772811884795828200,1.679828125,1.585728645324707,-0.1983019858598709,-0.6239219903945923
1772811884805529300,1.689529296875,1.7002657651901245,-0.6986002326011658,-0.7888554930686951
1772811884815230200,1.699230224609375,1.853592872619629,-0.8229112029075623,-0.7073050737380981
1772811884824931000,1.70893115234375,1.9702680110931396,-0.699821949005127,-0.43088874220848083
1772811884834632000,1.7186318359375,1.9901211261749268,-0.5831468105316162,-0.04696023091673851
1772811884844332800,1.728332763671875,1.853592872619629,-0.6872992515563965,0.2963457703590393
1772811884854033700,1.73803369140625,1.5619049072265625,-1.2187515497207642,0.45394888520240784
1772811884863734500,1.747734619140625,1.263192057609558,-2.049833059310913,0.38156139850616455
1772811884873435400,1.757435302734375,1.0264818668365479,-2.9166502952575684,0.21051926910877228
1772811884883136300,1.76713623046875,0.8478039503097534,-3.58890700340271,0.04436405375599861
1772811884892837000,1.776837158203125,0.733572244644165,-4.085234642028809,-0.15111267566680908
1772811884902538200,1.786538330078125,0.7066941857337952,-4.418461322784424,-0.37896522879600525
1772811884912238800,1.79623876953125,0.7595340013504028,-4.4370927810668945,-0.6098721027374268
1772811884921940000,1.80593994140625,0.9143882393836975,-3.122511625289917,-1.0784053802490234
1772811884931640800,1.815640869140625,1.1428515911102295,-1.227914571762085,-1.6837724447250366
1772811884941341700,1.825341796875,1.473634958267212,0.18715369701385498,-1.8865795135498047
1772811884951042600,1.83504248046875,1.823354959487915,1.5664863586425781,-2.007530689239502
1772811884960743400,1.844743408203125,2.1406991481781006,2.3270130157470703,-2.1910955905914307
1772811884970444300,1.8544443359375,2.3972625732421875,1.984012484550476,-2.3911538124084473
1772811884980145200,1.864145263671875,2.5289037227630615,1.324278473854065,-2.4397175312042236
1772811884989846000,1.873845947265625,2.5478405952453613,1.0496947765350342,-2.3282346725463867
1772811884999547000,1.883546875,2.5004985332489014,1.0136537551879883,-2.1440589427948
1772811885009247700,1.893247802734375,2.4259731769561768,0.9977712631225586,-1.9479714632034302
1772811885018948900,1.902948974609375,2.351142168045044,0.8792635202407837,-1.7833433151245117
1772811885028649500,1.9126494140625,2.265010356903076,0.6358338594436646,-1.6758311986923218
1772811885038350600,1.9223505859375,2.2207224369049072,0.546953022480011,-1.5970295667648315
1772811885048051500,1.932051513671875,2.3080761432647705,0.640415370464325,-1.4714969396591187
1772811885057752300,1.94175244140625,2.4482696056365967,0.8007673621177673,-1.2369247674942017
1772811885067453200,1.951453125,2.4119231700897217,1.031063437461853,-0.9137773513793945
1772811885077154000,1.961154052734375,2.0536510944366455,0.9266055226325989,-0.6504946351051331
1772811885086855000,1.97085498046875,1.5814526081085205,0.08452841639518738,-0.6135373115539551
1772811885096555800,1.9805556640625,1.2500584125518799,-0.9288962483406067,-0.61201012134552
1772811885106256600,1.990256591796875,1.01304292678833,-2.118860960006714,-0.6089558005332947
1772811885115957500,1.99995751953125,0.7708349823951721,-3.5708863735198975,-0.7042507529258728
1772811885125658400,2.009658447265625,0.7369319796562195,-4.6945719718933105,-0.7876337766647339
1772811885135359200,2.019359130859375,1.0093777179718018,-4.821326732635498,-0.7271581888198853
1772811885145060000,2.02906005859375,1.3203078508377075,-4.039419651031494,-0.49808385968208313
1772811885154761000,2.038760986328125,1.3319143056869507,-2.814941167831421,-0.09216422587633133
1772811885164462000,2.048462158203125,0.7305179238319397,-1.5196025371551514,0.42737627029418945
1772811885174163000,2.058162841796875,-0.1265253722667694,-0.5495492219924927,0.8146645426750183
1772811885183863800,2.06786376953125,-0.664391815662384,-0.022983787581324577,0.812221109867096
1772811885193564700,2.077564697265625,-0.7080686092376709,0.4156171381473541,0.5092321634292603
1772811885203265500,2.087265625,-0.39255696535110474,0.7280744314193726,0.20838125050067902
1772811885212966400,2.09696630859375,-0.06482802331447601,0.7763327956199646,0.2505309283733368
1772811885222667300,2.106667236328125,0.0680350661277771,0.44616037607192993,0.7364738583564758
1772811885232368000,2.1163681640625,0.03504836559295654,-0.21510076522827148,1.485088586807251
1772811885242069000,2.126069091796875,-0.00923932995647192,-1.0018945932388306,2.197967767715454
1772811885251769900,2.135769775390625,0.11873684078454971,-1.7621158361434937,2.7211735248565674
1772811885261470700,2.145470703125,0.46051567792892456,-2.320446252822876,3.0815837383270264
1772811885271171600,2.155171630859375,0.8746820092201233,-2.4050509929656982,3.2391867637634277
1772811885280872700,2.164872802734375,1.1196388006210327,-2.0394484996795654,3.2028403282165527
1772811885290573600,2.174573486328125,1.0692424774169922,-1.4450769424438477,2.9978952407836914
1772811885300274400,2.1842744140625,0.7598394155502319,-0.6598103046417236,2.5461606979370117
1772811885309975300,2.193975341796875,0.3499491512775421,0.19998185336589813,1.9316308498382568
1772811885319676200,2.20367626953125,-0.022067490965127945,0.9687551856040955,1.3946806192398071
1772811885329377000,2.213376953125,-0.2758817970752716,1.4672207832336426,1.0608429908752441
1772811885339078000,2.223077880859375,-0.3788125216960907,1.6428444385528564,0.977154552936554
1772811885348778800,2.23277880859375,-0.3534616231918335,1.5527418851852417,1.1286489963531494
1772811885358479600,2.242479736328125,-0.25938844680786133,1.3200024366378784,1.4246129989624023
1772811885368180500,2.252180419921875,-0.13110685348510742,1.046640396118164,1.785634160041809
1772811885377881300,2.26188134765625,-0.01779143698513508,0.7864120602607727,2.1344377994537354
1772811885387582200,2.271582275390625,0.026190826669335365,0.5820778012275696,2.409632444381714
1772811885397283300,2.281283447265625,-0.01718057133257389,0.43058329820632935,2.5956408977508545
1772811885406984200,2.290984130859375,-0.12163844704627991,0.29680392146110535,2.6817727088928223
1772811885416684800,2.300684814453125,-0.25938844680786133,0.20975568890571594,2.6713881492614746
1772811885426386000,2.310385986328125,-0.4753291606903076,0.11629338562488556,2.4759113788604736
1772811885436086800,2.320086669921875,-0.5547415614128113,0.21281002461910248,2.295400857925415
1772811885445787600,2.32978759765625,-0.5165625214576721,0.4134790897369385,2.2358415126800537
1772811885455488500,2.339488525390625,-0.6365974545478821,0.48036879301071167,2.108476161956787
1772811885465189400,2.349189453125,-0.7786235213279724,0.5591703653335571,1.9377394914627075
1772811885474890200,2.35889013671875,-0.894076943397522,0.6346121430397034,1.8253402709960938
1772811885484591000,2.368591064453125,-0.9973130822181702,0.6376664638519287,1.7272964715957642
1772811885494292000,2.3782919921875,-1.0959677696228027,0.6294198036193848,1.6084833145141602
1772811885503992800,2.387992919921875,-1.1897355318069458,0.6474403142929077,1.4856995344161987
1772811885513693700,2.397693603515625,-1.2550981044769287,0.6449968218803406,1.3791035413742065
1772811885523394800,2.407394775390625,-1.282281517982483,0.639804482460022,1.30213463306427
1772811885533095400,2.417095458984375,-1.285335898399353,0.631557822227478,1.239215612411499
1772811885542796500,2.426796630859375,-1.3015238046646118,0.5958222150802612,1.1741584539413452
1772811885552497400,2.436497314453125,-1.348254919052124,0.5286270976066589,1.1103230714797974
1772811885562198300,2.4461982421875,-1.4279727935791016,0.4217257797718048,1.0446550846099854
1772811885571899100,2.455899169921875,-1.5333470106124878,0.28519749641418457,0.9835686683654785
1772811885581600000,2.46560009765625,-1.6414700746536255,0.21891866624355316,0.9163735508918762
1772811885591300900,2.47530078125,-1.7141629457473755,0.22869250178337097,0.7948114275932312
1772811885601001700,2.485001708984375,-1.6894229650497437,0.2317468225955963,0.6653081178665161
1772811885610702600,2.49470263671875,-1.6017638444900513,0.2583194375038147,0.5932260751724243
1772811885620403500,2.504403564453125,-1.5367066860198975,0.2735910713672638,0.5486329197883606
1772811885630104300,2.514104248046875,-1.469817042350769,0.24060437083244324,0.5196168422698975
1772811885639805400,2.523805419921875,-1.3638319969177246,0.1960112303495407,0.5559632778167725
1772811885649506000,2.533506103515625,-1.2144755125045776,0.1495855152606964,0.6408734917640686
1772811885659207200,2.543207275390625,-1.0202205181121826,0.07964149862527847,0.7031817436218262
1772811885668908000,2.552907958984375,-0.7786235213279724,-0.026648975908756256,0.6805797219276428
1772811885678608600,2.562608642578125,-0.4878518879413605,-0.20685409009456635,0.5406916737556458
1772811885688309800,2.572309814453125,-0.10575596243143082,-0.45791950821876526,0.2612210512161255
1772811885707711500,2.59171142578125,0.4889208972454071,-1.0189988613128662,-0.8499419689178467
1772811885717412400,2.601412353515625,0.4479929506778717,-1.02419114112854,-1.5591559410095215
1772811885727113200,2.61111328125,0.29374960064888,-0.9750165343284607,-2.27325701713562
1772811885736814000,2.62081396484375,0.28153231739997864,-1.0669517517089844,-3.1379361152648926
1772811885746515000,2.630514892578125,0.4678460657596588,-1.2972477674484253,-4.239630699157715
1772811885756215800,2.6402158203125,0.6721803545951843,-1.2926661968231201,-5.137601852416992
1772811885765916700,2.649916748046875,0.8685733675956726,-0.47441285848617554,-5.343157768249512
1772811885775617500,2.659617431640625,1.1825578212738037,1.0811543464660645,-4.74664831161499
1772811885785318700,2.669318603515625,1.6214642524719238,2.6092326641082764,-3.6009714603424072
1772811885795019300,2.679019287109375,2.0258567333221436,3.368537425994873,-2.3199880123138428
1772811885804720400,2.688720458984375,2.278449296951294,3.0655484199523926,-1.195691466331482
1772811885814421200,2.698421142578125,2.323042392730713,1.795255184173584,-0.33681556582450867
1772811885824122000,2.7081220703125,2.255847215652466,0.06223184987902641,0.2914588451385498
1772811885833823000,2.717822998046875,2.1660501956939697,-1.4759256839752197,0.6958513259887695
1772811885843523800,2.72752392578125,2.0875539779663086,-2.4313182830810547,0.8821650743484497
1772811885853224700,2.737224609375,2.012723207473755,-2.6463425159454346,0.8815542459487915
1772811885862925600,2.746925537109375,1.9186499118804932,-2.16437029838562,0.6848557591438293
1772811885872626400,2.75662646484375,1.7750966548919678,-1.2593741416931152,0.2920697331428528
1772811885882327300,2.766327392578125,1.5542690753936768,-0.2041051983833313,-0.2164752036333084
1772811885892028200,2.776028076171875,1.2628865242004395,0.7323505282402039,-0.7332668304443359
1772811885901729000,2.78572900390625,0.9482911825180054,1.4186570644378662,-1.1572070121765137
1772811885911430000,2.795429931640625,0.6251437664031982,1.8563417196273804,-1.416824460029602
1772811885921131000,2.805131103515625,0.30169084668159485,2.0475423336029053,-1.454392671585083
1772811885930832000,2.814831787109375,0.01824958436191082,1.9913427829742432,-1.2986221313476562
1772811885940532700,2.82453271484375,-0.15004366636276245,1.722562313079834,-1.0142645835876465
1772811885950233600,2.834233642578125,-0.15034909546375275,1.315726399421692,-0.6514109373092651
1772811885959934500,2.8439345703125,-0.02390008419752121,0.8471930623054504,-0.2537379562854767
1772811885969635300,2.85363525390625,0.15172353386878967,0.39942920207977295,0.15004366636276245
1772811885979336200,2.863336181640625,0.31604617834091187,-0.002825249684974551,0.523892879486084
1772811885989037000,2.873037109375,0.4537961781024933,-0.35498878359794617,0.8534544706344604
1772811886008438800,2.892438720703125,0.6431642770767212,-0.8647554516792297,1.4240021705627441
1772811886018139600,2.9021396484375,0.7109702229499817,-1.007086992263794,1.6717078685760498
1772811886027840500,2.911840576171875,0.760755717754364,-1.0776418447494507,1.8714605569839478
1772811886037541400,2.921541259765625,0.7827468514442444,-1.0892482995986938,1.9921064376831055
1772811886047242500,2.931242431640625,0.7720566987991333,-1.0574833154678345,2.01898455619812
1772811886056943400,2.940943359375,0.7259364128112793,-1.0003674030303955,1.9542328119277954
1772811886066644200,2.950644287109375,0.6614902019500732,-0.931950569152832,1.827478289604187
1772811886076345000,2.960344970703125,0.5982657074928284,-0.8540652990341187,1.6588796377182007
1772811886086046000,2.9700458984375,0.5512291193008423,-0.7774018049240112,1.467068076133728
1772811886095746800,2.979746826171875,0.5451204776763916,-0.7071523666381836,1.262733817100525
1772811886105447700,2.98944775390625,0.6037634611129761,-0.6399571895599365,1.0400736331939697
1772811886115148500,2.9991484375,0.7256309986114502,-0.5574904680252075,0.8088613152503967
1772811886124849400,3.008849365234375,0.8820123672485352,-0.526030957698822,0.5868119597434998
1772811886134550300,3.01855029296875,0.9598976373672485,-0.5681806206703186,0.32475098967552185
1772811886144251100,3.028251220703125,0.8966731429100037,-0.6927970051765442,0.0397825688123703
1772811886153952000,3.037951904296875,0.7552579641342163,-0.9215658903121948,-0.18715369701385498
1772811886163652900,3.04765283203125,0.5866592526435852,-1.2489893436431885,-0.38904449343681335
1772811886173354000,3.05735400390625,0.40920305252075195,-1.7202715873718262,-0.6257545948028564
1772811886183054600,3.0670546875,0.3096320927143097,-2.253861904144287,-0.9009491801261902
1772811886192755700,3.076755615234375,0.4107302129268646,-2.6264894008636475,-1.2207368612289429
1772811886202456600,3.08645654296875,0.6556869745254517,-2.6997933387756348,-1.5982513427734375
1772811886212157400,3.096157470703125,0.835586667060852,-2.314642906188965,-1.9800418615341187
1772811886221858300,3.1058583984375,0.6572141647338867,-1.471344232559204,-2.2995240688323975
1772811886231559200,3.11555908203125,0.17524182796478271,-0.506483256816864,-2.6019022464752197
1772811886241260000,3.125260009765625,-0.23861905932426453,0.16271910071372986,-2.9424593448638916
1772811886250961000,3.1349609375,-0.4466184973716736,0.5628355145454407,-3.2237625122070312
1772811886260661800,3.144661865234375,-0.5666534304618835,1.0154863595962524,-3.217653751373291
1772811886270362600,3.154362548828125,-0.7086794972419739,1.529834508895874,-2.8780131340026855
1772811886280063500,3.1640634765625,-0.7984766364097595,1.8572579622268677,-2.306854486465454
1772811886289764600,3.1737646484375,-0.7160098552703857,1.9479714632034302,-1.6617813110351562
1772811886299465200,3.18346533203125,-0.5501601099967957,1.8325179815292358,-1.0799325704574585
1772811886309166300,3.193166259765625,-0.36537349224090576,1.3911681175231934,-0.7308233380317688
1772811886318867200,3.2028671875,-0.16042836010456085,0.7604503035545349,-0.6788998246192932
1772811886328568000,3.212568115234375,0.07628174126148224,0.19784383475780487,-0.7940478324890137
1772811886338269000,3.22226904296875,0.3337612450122833,-0.08712458610534668,-0.9657008647918701
1772811886347969800,3.2319697265625,0.5521454215049744,-0.004046979360282421,-1.112002968788147
1772811886357670700,3.241670654296875,0.7183006405830383,0.36308276653289795,-1.0881792306900024
1772811886367371500,3.25137158203125,0.8829286694526672,0.8563560843467712,-0.8056542873382568
1772811886377072400,3.261072265625,1.0503056049346924,1.3221404552459717,-0.33681556582450867
1772811886386773200,3.270773193359375,1.1092541217803955,1.647120475769043,0.1983019858598709
1772811886396474000,3.28047412109375,0.9886083006858826,1.7097342014312744,0.7361684441566467
1772811886406175000,3.290175048828125,0.7415134906768799,1.5722895860671997,1.2242493629455566
1772811886415875800,3.299875732421875,0.4369973838329315,1.4385101795196533,1.5947388410568237
1772811886425576700,3.30957666015625,0.16668972373008728,1.4498112201690674,1.821675181388855
1772811886435277800,3.31927783203125,0.0011453714687377214,1.6788854598999023,1.904447317123413
1772811886444978400,3.328978515625,-0.005574141163378954,2.052123785018921,1.8885648250579834
1772811886454679600,3.338679443359375,0.11293362826108932,2.4278056621551514,1.8305326700210571
1772811886464380400,3.34838037109375,0.23449571430683136,2.6272530555725098,1.7721951007843018
1772811886474081300,3.358081298828125,0.27175846695899963,2.524322271347046,1.7492876052856445
1772811886483782100,3.3677822265625,0.2427423894405365,2.1370341777801514,1.753258228302002
1772811886493483000,3.37748291015625,0.17890702188014984,1.5539636611938477,1.7834960222244263
1772811886503184000,3.387183837890625,0.0836121141910553,0.9394336938858032,1.8262566328048706
1772811886512884700,3.396884765625,-0.01870773360133171,0.37835437059402466,1.8522183895111084
1772811886522585600,3.406585693359375,-0.09750928729772568,-0.08865175396203995,1.8445825576782227
1772811886532286500,3.416286376953125,-0.15523600578308105,-0.3995819091796875,1.8064035177230835
1772811886541987300,3.4259873046875,-0.22120940685272217,-0.5403862595558167,1.7324888706207275
1772811886551688400,3.4356884765625,-0.31986406445503235,-0.5330559015274048,1.6155083179473877
1772811886561389000,3.44538916015625,-0.43867728114128113,-0.4347066581249237,1.4820343255996704
1772811886571090200,3.455090087890625,-0.5590176582336426,-0.2645808160305023,1.346727728843689
1772811886580791000,3.464791015625,-0.6857720613479614,-0.05810851231217384,1.1879029273986816
1772811886590492000,3.474491943359375,-0.811610221862793,0.1553887277841568,0.9991456866264343
1772811886600192800,3.48419287109375,-0.8998801708221436,0.4018726646900177,0.7880918979644775
1772811886609893600,3.4938935546875,-0.9276745319366455,0.6285035014152527,0.5788707137107849
1772811886619594500,3.503594482421875,-0.9124029278755188,0.8169552683830261,0.39713847637176514
1772811886629295400,3.51329541015625,-0.8818596601486206,0.965395450592041,0.25358524918556213
1772811886638996200,3.522996337890625,-0.8424589037895203,1.0335068702697754,0.1628718227148056
1772811886648697000,3.532697021484375,-0.7960331439971924,1.0234276056289673,0.13813179731369019
1772811886658398000,3.54239794921875,-0.7578541040420532,0.9513455629348755,0.18669554591178894
1772811886668098800,3.552098876953125,-0.7236456871032715,0.8468876481056213,0.29329144954681396
1772811886677799700,3.561799560546875,-0.6705004572868347,0.7405971884727478,0.4298197329044342
1772811886687500500,3.57150048828125,-0.6048324704170227,0.6611847877502441,0.5654317140579224
1772811886697201700,3.58120166015625,-0.5400808453559875,0.6022363305091858,0.6766090989112854
1772811886706902500,3.590902587890625,-0.4957931339740753,0.5542834401130676,0.7719039916992188
1772811886716603400,3.600603271484375,-0.492127925157547,0.5411498546600342,0.8671988844871521
1772811886726304300,3.61030419921875,-0.49915286898612976,0.5243510603904724,0.9676861763000488
1772811886736005000,3.620005126953125,-0.4814378023147583,0.5048033595085144,1.0660353899002075
1772811886745706000,3.6297060546875,-0.4402044415473938,0.4849502742290497,1.1579705476760864
1772811886755406800,3.63940673828125,-0.4035525321960449,0.478841632604599,1.2798380851745605
1772811886765107700,3.649107666015625,-0.4289034307003021,0.2589302957057953,1.3519201278686523
1772811886774808600,3.65880859375,-0.4566977918148041,-0.3372737169265747,1.1616357564926147
1772811886784509400,3.668509521484375,-0.49854201078414917,-1.2590687274932861,0.5825359225273132
1772811886794210300,3.678210205078125,-0.6210203766822815,-2.367482900619507,-0.34750568866729736
1772811886803911200,3.6879111328125,-0.663780927658081,-3.0757806301116943,-1.4088832139968872
1772811886813612300,3.6976123046875,-0.543440580368042,-3.0073635578155518,-2.3279292583465576
1772811886823313200,3.707313232421875,-0.3360520005226135,-2.5287511348724365,-3.0426411628723145
1772811886833013800,3.717013671875,-0.08681915700435638,-2.0874013900756836,-3.857229232788086
1772811886842715000,3.72671484375,0.0191658828407526,-1.4661518335342407,-4.552087783813477
1772811886852415700,3.736415771484375,0.04909825697541237,-0.266107976436615,-4.552393436431885
1772811886862116600,3.74611669921875,0.20334161818027496,1.12055504322052,-3.8050003051757812
1772811886871817500,3.7558173828125,0.3801869750022888,1.8651992082595825,-2.594571828842163
1772811886881518300,3.765518310546875,0.5558105707168579,1.6294054985046387,-1.2665517330169678
1772811886891219200,3.77521923828125,0.613231897354126,0.568027913570404,-0.0781143307685852
1772811886900920000,3.784920166015625,0.49075350165367126,-0.8546761870384216,0.8354339599609375
1772811886910621000,3.794620849609375,0.2989419400691986,-2.178725481033325,1.3794090747833252
1772811886920321800,3.80432177734375,0.1547778695821762,-2.945971727371216,1.5480077266693115
1772811886930022700,3.814022705078125,0.08391755074262619,-2.9731552600860596,1.3687188625335693
1772811886939723800,3.823723876953125,0.04696023091673851,-2.362901210784912,0.903239905834198
1772811886949424400,3.83342431640625,0.003894262947142124,-1.3907099962234497,0.23861905932426453
1772811886959125500,3.84312548828125,-0.04528035223484039,-0.3782016634941101,-0.46906778216362
1772811886968826400,3.852826416015625,-0.0859028622508049,0.5200750231742859,-1.0160971879959106
1772811886978527200,3.86252734375,-0.09567669779062271,1.2277618646621704,-1.2827396392822266
1772811886988228000,3.87222802734375,-0.0654388889670372,1.6914081573486328,-1.27846360206604
1772811886997929000,3.881928955078125,-0.011988221667706966,1.8929935693740845,-1.0585522651672363
1772811887007629800,3.8916298828125,0.04176788032054901,1.823354959487915,-0.7018072605133057
1772811887017330700,3.90133056640625,0.07017309218645096,1.5735113620758057,-0.30627232789993286
1772811887027031600,3.911031494140625,0.061620984226465225,1.2289835214614868,0.03214675933122635
1772811887036732400,3.920732421875,0.029856016859412193,0.8859829902648926,0.2599993348121643
1772811887046433300,3.930433349609375,0.018860450014472008,0.6269763112068176,0.3623191714286804
1772811887056134100,3.940134033203125,0.05062541738152504,0.47548186779022217,0.34521496295928955
1772811887065835000,3.9498349609375,0.11598794907331467,0.4180605709552765,0.23861905932426453
1772811887075536000,3.959535888671875,0.19906556606292725,0.44982555508613586,0.10575596243143082
1772811887085237000,3.969237060546875,0.27114760875701904,0.49747300148010254,-0.001450803829357028
1772811887094937600,3.9789375,0.2897789776325226,0.4733438491821289,-0.03321577236056328
1772811887104638700,3.988638671875,0.25557056069374084,0.3872119188308716,0.02390008419752121
1772811887114339600,3.998339599609375,0.19417864084243774,0.2378554791212082,0.15034909546375275
1772811887124040400,4.00804052734375,0.09796743839979172,0.04848739132285118,0.3161988854408264
1772811887133741300,4.0177412109375,-0.00923932995647192,-0.15706861019134521,0.4869355857372284
1772811887143442200,4.027442138671875,-0.09689842909574509,-0.3699549734592438,0.6231584548950195
1772811887153143000,4.03714306640625,-0.15126539766788483,-0.5547415614128113,0.7068468928337097
1772811887162844000,4.046843994140625,-0.183030366897583,-0.6686678528785706,0.7349466681480408
1772811887172544800,4.056544677734375,-0.25725042819976807,-0.6860775351524353,0.6869937777519226
1772811887182245600,4.06624560546875,-0.40080365538597107,-0.5950586795806885,0.5290852785110474
1772811887191946500,4.075946533203125,-0.5819250345230103,-0.418824166059494,0.2545015513896942
1772811887201647400,4.0856474609375,-0.7462477087974548,-0.17478369176387787,-0.09002619981765747
1772811887211348200,4.09534814453125,-0.8510109782218933,0.057039499282836914,-0.4311941862106323
1772811887221049000,4.105049072265625,-0.9102649092674255,0.26167920231819153,-0.6798161268234253
1772811887230750200,4.114750244140625,-0.9609666466712952,0.4021781086921692,-0.7806088328361511
1772811887240451000,4.124451171875,-1.0189988613128662,0.3756054937839508,-0.7350993752479553
1772811887250152000,4.13415185546875,-1.098411202430725,0.17463096976280212,-0.5802451968193054
1772811887259852800,4.143852783203125,-1.163773775100708,-0.23617559671401978,-0.3807978332042694
1772811887269553700,4.1535537109375,-1.2685370445251465,-0.7511346340179443,-0.21036656200885773
1772811887279254500,4.163254638671875,-1.4527127742767334,-1.2804489135742188,-0.1660788655281067
1772811887288955400,4.172955322265625,-1.6588796377182007,-1.9450697898864746,-0.4162279963493347
1772811887298656300,4.18265625,-1.7572288513183594,-2.5482988357543945,-0.8893427848815918
1772811887308357000,4.192357177734375,-1.6478841304779053,-2.7938663959503174,-1.3865866661071777
1772811887318058000,4.20205810546875,-1.4634029865264893,-2.823798894882202,-2.005087375640869
1772811887327758800,4.2117587890625,-1.2990802526474,-2.7291147708892822,-2.7750823497772217
1772811887337459700,4.221459716796875,-1.080085277557373,-2.2135448455810547,-3.3441028594970703
1772811887347160600,4.23116064453125,-0.8870519995689392,-1.440495491027832,-3.303480386734009
1772811887356861700,4.24086181640625,-0.6750819683074951,-0.6659189462661743,-2.5237114429473877
1772811887366562300,4.250562255859375,-0.3733147382736206,-0.13355031609535217,-1.185917615890503
1772811887376263400,4.260263427734375,-0.0709366723895073,-0.0962875634431839,0.3128391206264496
1772811887385964300,4.26996435546875,0.18379394710063934,-0.6283507943153381,1.476841926574707
1772811887395665200,4.2796650390625,0.38293585181236267,-1.3916263580322266,2.1625375747680664
1772811887405366000,4.289365966796875,0.5164098143577576,-1.9169700145721436,2.533027172088623
1772811887415067000,4.29906689453125,0.5054142475128174,-1.8341978788375854,2.69185209274292
1772811887424767700,4.308767822265625,0.4021781086921692,-1.1753802299499512,2.6683337688446045
1772811887434468600,4.318468505859375,0.2934441566467285,-0.2914588451385498,2.5308890342712402
1772811887444169500,4.32816943359375,0.21555891633033752,0.5805506110191345,2.357403516769409
1772811887453870300,4.337870361328125,0.17188207805156708,1.4101049900054932,2.2410337924957275
1772811887463571200,4.3475712890625,0.11537708342075348,2.0368523597717285,2.1869723796844482
1772811887473272300,4.357272216796875,0.0029779658652842045,2.370689868927002,2.146960735321045
1772811887482973000,4.366972900390625,-0.12347104400396347,2.5011096000671387,2.1014511585235596
1772811887492674000,4.376674072265625,-0.1787542998790741,2.524627685546875,2.013792037963867
1772811887502375000,4.386375,-0.18058690428733826,2.502331256866455,1.8708497285842896
1772811887512075500,4.396075439453125,-0.17447824776172638,2.412228584289551,1.6857577562332153
1772811887521776600,4.405776611328125,-0.16684244573116302,2.255847215652466,1.5137993097305298
1772811887531477500,4.4154775390625,-0.1014799103140831,2.016082763671875,1.4343868494033813
1772811887541178400,4.425178466796875,0.05215258151292801,1.6773582696914673,1.506163477897644
1772811887550879200,4.434879150390625,0.2677878439426422,1.24058997631073,1.6765947341918945
1772811887560580000,4.444580078125,0.4525744318962097,0.7192169427871704,1.8357250690460205
1772811887570281000,4.454281005859375,0.5561160445213318,0.1804341822862625,1.8980332612991333
1772811887579981800,4.46398193359375,0.5805506110191345,-0.26885685324668884,1.827172875404358
1772811887589682700,4.4736826171875,0.5335140228271484,-0.5596284866333008,1.6298636198043823
1772811887599383600,4.483383544921875,0.4467712342739105,-0.6518690586090088,1.328401803970337
1772811887609084400,4.49308447265625,0.3569740951061249,-0.5626828074455261,0.969518780708313
1772811887618785500,4.50278564453125,0.2796997129917145,-0.3494910001754761,0.6017781496047974
1772811887628486100,4.512486083984375,0.1969275325536728,-0.08559742569923401,0.270689457654953
1772811887638187300,4.522187255859375,0.10285435616970062,0.17340923845767975,-0.004810560029000044
1772811887647888100,4.53188818359375,-0.010155626572668552,0.38140869140625,-0.2012035846710205
1772811887657589000,4.541589111328125,-0.1329394429922104,0.5020545125007629,-0.30688318610191345
1772811887667289900,4.551289794921875,-0.2514472007751465,0.5307651162147522,-0.3386481702327728
1772811887676990700,4.56099072265625,-0.3415497839450836,0.48678287863731384,-0.30718863010406494
1772811887686691600,4.570691650390625,-0.38247770071029663,0.3920988440513611,-0.23480114340782166
1772811887696392400,4.580392333984375,-0.38247770071029663,0.2775616943836212,-0.14805835485458374
1772811887706093300,4.59009326171875,-0.3696495592594147,0.1556941568851471,-0.07994692772626877
1772811887715794200,4.599794189453125,-0.3592648506164551,0.03535379841923714,-0.02649625949561596
1772811887725495000,4.6094951171875,-0.3522399067878723,-0.033979352563619614,0.005268708802759647
1772811887735196000,4.61919580078125,-0.3470475673675537,-0.008628465235233307,0.004352411720901728
1772811887744896800,4.628896728515625,-0.33055421710014343,0.1190422773361206,-0.02741255611181259
1772811887754597600,4.63859765625,-0.3082576394081116,0.325514554977417,-0.0732274129986763
1772811887764298800,4.648298828125,-0.31436628103256226,0.5353466272354126,-0.11782054603099823
1772811887773999600,4.65799951171875,-0.358348548412323,0.6740128993988037,-0.1498909443616867
1772811887783700200,4.6677001953125,-0.3983601927757263,0.7039452791213989,-0.17982332408428192
1772811887793401300,4.6774013671875,-0.40721774101257324,0.6202568411827087,-0.21372631192207336
1772811887803102200,4.687102294921875,-0.367511510848999,0.47151124477386475,-0.24426954984664917
1772811887812803000,4.696802978515625,-0.2505309283733368,0.3304014801979065,-0.24060437083244324
1772811887822504000,4.70650390625,-0.09353867173194885,0.1193477064371109,-0.2274707704782486
1772811887832204800,4.716204833984375,0.0035888305865228176,-0.3027598559856415,-0.3001636862754822
1772811887841905700,4.72590576171875,-0.0025198173243552446,-0.9078214168548584,-0.5497019290924072
1772811887851606500,4.7356064453125,-0.10728313028812408,-1.549229383468628,-0.9999092817306519
1772811887861307400,4.745307373046875,-0.2810741662979126,-2.0376157760620117,-1.585423231124878
1772811887871008300,4.75500830078125,-0.38644832372665405,-2.083125352859497,-2.127871036529541
1772811887880709000,4.764709228515625,-0.3226129710674286,-1.7312670946121216,-2.6037347316741943
1772811887890410200,4.77441015625,-0.2196822464466095,-1.3708568811416626,-3.17031192779541
1772811887900110800,4.78411083984375,-0.15554144978523254,-1.5553381443023682,-4.025827884674072
1772811887909812000,4.79381201171875,0.03535379841923714,-2.1591780185699463,-4.9732794761657715
1772811887919512800,4.803512939453125,0.5591703653335571,-2.1909430027008057,-5.2582478523254395
1772811887929213400,4.81321337890625,1.3551270961761475,-1.359555959701538,-4.531013011932373
1772811887938914600,4.82291455078125,2.292804479598999,-0.20746494829654694,-3.002629518508911
1772811887948615400,4.832615478515625,2.9785003662109375,0.5093848705291748,-1.029841661453247
1772811887958316300,4.84231640625,3.234452724456787,0.19387321174144745,0.8894954919815063
1772811887968017200,4.85201708984375,3.125107765197754,-1.1014655828475952,2.2627193927764893
1772811887977718000,4.861718017578125,2.73445987701416,-2.6774966716766357,2.965519428253174
1772811887987419000,4.8714189453125,2.1910955905914307,-3.8561601638793945,3.0681447982788086
1772811887997119700,4.88111962890625,1.6727768182754517,-4.256276607513428,2.6738314628601074
1772811888006820600,4.890820556640625,1.2888482809066772,-3.885481834411621,1.9129993915557861
1772811888016521500,4.900521484375,1.0472513437271118,-2.561432361602783,1.1390337944030762
1772811888026222300,4.910222412109375,0.7173843383789062,-0.8876628875732422,0.3977493345737457
1772811888035923500,4.91992333984375,0.2473238706588745,0.6269763112068176,-0.34872743487358093
1772811888045624000,4.9296240234375,-0.25327980518341064,1.7634903192520142,-1.0848194360733032
1772811888055325200,4.9393251953125,-0.7715985774993896,2.373438835144043,-1.767155408859253
1772811888065026000,4.949026123046875,-1.2065342664718628,2.4534621238708496,-2.281503677368164
1772811888074727000,4.958726806640625,-1.3638319969177246,2.0844995975494385,-2.5014150142669678
1772811888084427800,4.968427734375,-1.1546107530593872,1.3835324048995972,-2.3447279930114746
1772811888094128600,4.978128662109375,-0.6882155537605286,0.5060251355171204,-1.8499276638031006
1772811888103829500,4.98782958984375,-0.17569997906684875,-0.3720930218696594,-1.1715623140335083
1772811888113530400,4.9975302734375,0.20547963678836823,-1.2150864601135254,-0.48128509521484375
1772811888123231200,5.007231201171875,0.4119519293308258,-1.8919246196746826,0.1527925580739975
1772811888132932000,5.01693212890625,0.5735256671905518,-2.28440523147583,0.7917571067810059
1772811888142633000,5.026633056640625,0.6868410706520081,-2.346102476119995,1.3806307315826416
1772811888152333800,5.036333740234375,0.6788998246192932,-2.2019383907318115,1.7422627210617065
1772811888162034700,5.04603466796875,0.5723039507865906,-1.9276602268218994,1.7874666452407837
1772811888171735600,5.055735595703125,0.4336376488208771,-1.580383539199829,1.5855759382247925
1772811888181436400,5.0654365234375,0.2903898358345032,-1.234939455986023,1.2410482168197632
1772811888191137500,5.075137451171875,0.14714205265045166,-0.9017127752304077,0.8180242776870728
1772811888200838100,5.084838134765625,0.024663666263222694,-0.5871174335479736,0.3568213880062103
1772811888210539300,5.094539306640625,-0.07215840369462967,-0.28870996832847595,-0.093691386282444
1772811888220240100,5.104240234375,-0.1530979871749878,0.0005345066892914474,-0.49197521805763245
1772811888229941000,5.11394091796875,-0.21051926910877228,0.24915647506713867,-0.8016836643218994
1772811888239641900,5.123641845703125,-0.2551124095916748,0.4369973838329315,-0.9913572072982788
1772811888249342700,5.1333427734375,-0.3274998664855957,0.5811614990234375,-1.0420589447021484
1772811888259043600,5.143043701171875,-0.42157304286956787,0.6233111619949341,-0.9791398644447327
1772811888268744400,5.152744384765625,-0.5318341255187988,0.5594757795333862,-0.8187878727912903
1772811888278445300,5.1624453125,-0.6243801712989807,0.42386379837989807,-0.5811614990234375
1772811888288146200,5.172146240234375,-0.6683624386787415,0.3001636862754822,-0.3157407343387604
1772811888297847000,5.181846923828125,-0.6619483232498169,0.17860159277915955,-0.06925679743289948
1772811888307548000,5.1915478515625,-0.6115520000457764,0.06772962957620621,0.13904809951782227
1772811888317248800,5.201248779296875,-0.5241983532905579,-0.0019089524867013097,0.28901541233062744
1772811888326949600,5.21094970703125,-0.45242172479629517,-0.05841394513845444,0.3699549734592438
1772811888336650800,5.220650634765625,-0.43256860971450806,-0.11919499188661575,0.37026041746139526
1772811888346351400,5.230351318359375,-0.4463130831718445,-0.19188790023326874,0.23678645491600037
1772811888356052500,5.240052490234375,-0.5370265245437622,-0.3589594066143036,-0.045738499611616135
1772811888365753300,5.24975341796875,-0.7691551446914673,-0.5009855031967163,-0.4956403970718384
1772811888375454200,5.2594541015625,-1.1323142051696777,-0.37117671966552734,-1.1856122016906738
1772811888385155000,5.269155029296875,-1.3534473180770874,0.4486038088798523,-2.1657447814941406
1772811888394856000,5.27885595703125,-1.0202205181121826,2.183459758758545,-3.4088544845581055
1772811888404556800,5.288556884765625,-0.194025918841362,4.248182773590088,-4.621115684509277
1772811888414257700,5.298257568359375,0.6541598439216614,5.284820079803467,-5.253055095672607
1772811888423958500,5.30795849609375,0.963868260383606,4.655934810638428,-4.974501132965088
1772811888433659400,5.317659423828125,1.2595268487930298,3.708789110183716,-3.343492031097412
1772811888443360300,5.3273603515625,1.6807180643081665,2.3636648654937744,-0.7286853194236755
1772811888453061000,5.33706103515625,2.113821268081665,0.5313760042190552,2.004323720932007
1772811888462762000,5.346761962890625,2.3783257007598877,-1.1671335697174072,4.235812664031982
1772811888472462800,5.356462890625,2.621755361557007,-1.8714605569839478,5.427915573120117
1772811888482164000,5.3661640625,2.812650442123413,-1.5177699327468872,5.278558731079102
1772811888491864600,5.375864501953125,2.7747769355773926,-0.3113119602203369,4.089816093444824
1772811888501565700,5.385565673828125,2.4504077434539795,1.1828632354736328,2.5256967544555664
1772811888511266600,5.3952666015625,1.9507203102111816,2.2634830474853516,1.1866811513900757
1772811888520967400,5.404967529296875,1.3871976137161255,2.6547420024871826,0.2856556475162506
1772811888530668300,5.414668212890625,0.7839685678482056,2.3639702796936035,-0.2577085793018341
1772811888540369200,5.424369140625,0.20914483070373535,1.4488948583602905,-0.6031526327133179
1772811888550070000,5.434070068359375,-0.10881029069423676,0.2699258625507355,-0.733572244644165
1772811888559771000,5.44377099609375,0.004505127668380737,-0.6888263821601868,-0.4583776593208313
1772811888569471700,5.4534716796875,0.391182541847229,-1.0739766359329224,0.3329976499080658
1772811888579173000,5.463173095703125,0.6947823166847229,-1.0101412534713745,1.2911391258239746
1772811888588874000,5.4728740234375,0.7589231133460999,-0.8100830316543579,2.0751841068267822
1772811888598574800,5.482574951171875,0.7317396402359009,-0.6619483232498169,2.474689483642578
1772811888608276000,5.49227587890625,0.6361393332481384,-0.655228853225708,2.4258203506469727
1772811888617976800,5.501976806640625,0.5597811937332153,-0.6772199869155884,2.0009639263153076
1772811888627677700,5.511677734375,0.5432878732681274,-0.6506473422050476,1.3962078094482422
1772811888637378600,5.521378662109375,0.5127446055412292,-0.5379427671432495,0.792978823184967
1772811888647079400,5.531079345703125,0.44616037607192993,-0.3281107544898987,0.3119228184223175
1772811888656780300,5.5407802734375,0.3468948304653168,-0.024816380813717842,-0.030466880649328232
1772811888666481200,5.550481201171875,0.23877176642417908,0.2738964855670929,-0.26534438133239746
1772811888676182000,5.56018212890625,0.13095413148403168,0.511217474937439,-0.3795761168003082
1772811888685883000,5.5698828125,0.02588539570569992,0.677067220211029,-0.3649153411388397
1772811888695583700,5.579583740234375,-0.09170607477426529,0.76991868019104,-0.27603453397750854
1772811888705284600,5.58928466796875,-0.23342670500278473,0.7799979448318481,-0.1660788655281067
1772811888714985500,5.5989853515625,-0.3882809281349182,0.7179951667785645,-0.072921983897686
1772811888724686300,5.608686279296875,-0.5333613157272339,0.5994874238967896,-0.030161447823047638
1772811888734387500,5.618387451171875,-0.6570614576339722,0.4889208972454071,-0.0295505840331316
1772811888744088000,5.628088134765625,-0.7419716119766235,0.40431612730026245,-0.06436987966299057
1772811888753789200,5.6377890625,-0.7963386178016663,0.37835437059402466,-0.1443931609392166
1772811888763490000,5.647489990234375,-0.8384882807731628,0.39454227685928345,-0.25984659790992737
1772811888773190700,5.657190673828125,-0.8461240530014038,0.44646579027175903,-0.3771326541900635
1772811888782891800,5.666891845703125,-0.8088613152503967,0.537790060043335,-0.4525744318962097
1772811888792592600,5.676592529296875,-0.7486911416053772,0.6422479748725891,-0.4333322048187256
1772811888802293500,5.68629345703125,-0.672638475894928,0.7277690172195435,-0.30718863010406494
1772811888811994400,5.695994384765625,-0.6146063208580017,0.7870228886604309,-0.11140646785497665
1772811888821695200,5.7056953125,-0.6097193956375122,0.7919098138809204,0.11430807411670685
1772811888831396000,5.71539599609375,-0.6219366788864136,0.7256309986114502,0.33024877309799194
1772811888841097000,5.725096923828125,-0.6109411120414734,0.6361393332481384,0.5098429918289185
1772811888850797800,5.7347978515625,-0.589560866355896,0.5298488140106201,0.6463713049888611
1772811888860498700,5.744498779296875,-0.5785652995109558,0.4290561378002167,0.729143500328064
1772811888870199600,5.754199462890625,-0.56298828125,0.36338818073272705,0.7358629703521729
1772811888879900400,5.763900390625,-0.5272526741027832,0.33773186802864075,0.6723330616950989
1772811888889601300,5.773601318359375,-0.48510298132896423,0.30230170488357544,0.5849793553352356
1772811888899302100,5.78330224609375,-0.4661661982536316,0.28703010082244873,0.5397753715515137
1772811888909003300,5.793003173828125,-0.4658607542514801,0.34658941626548767,0.5794816017150879
1772811888918704000,5.8027041015625,-0.5083158612251282,0.44524407386779785,0.6381246447563171
1772811888928405000,5.812405029296875,-0.6674461364746094,0.4318050444126129,0.5468003153800964
1772811888938105900,5.82210595703125,-0.9710459113121033,0.055512335151433945,0.19982914626598358
1772811888947806700,5.831806640625,-1.3143519163131714,-0.6857720613479614,-0.4687623679637909
1772811888957507600,5.841507568359375,-1.5165481567382812,-1.2795326709747314,-1.2644137144088745
1772811888967208400,5.85120849609375,-1.4301108121871948,-1.0956623554229736,-1.6798018217086792
1772811888976909300,5.860909423828125,-1.2147809267044067,-0.5739838480949402,-1.7247003316879272
1772811888986610200,5.870610107421875,-0.9127083420753479,-0.10697769373655319,-1.8746676445007324
1772811888996311000,5.88031103515625,-0.6986002326011658,0.49777844548225403,-1.6898810863494873
1772811889006012000,5.890011962890625,-0.6332377195358276,1.2482258081436157,-0.8765146136283875
1772811889015712800,5.899712646484375,-0.48479756712913513,1.4464514255523682,0.12621992826461792
1772811889025413600,5.90941357421875,-0.15859577059745789,0.9153045415878296,0.8959095478057861
1772811889035114800,5.91911474609375,0.20395247638225555,0.14317142963409424,1.3262637853622437
1772811889044815400,5.9288154296875,0.428139865398407,-0.5785652995109558,1.4197261333465576
1772811889054516500,5.9385166015625,0.4369973838329315,-1.063286542892456,1.180572509765625
1772811889064217300,5.94821728515625,0.31635159254074097,-1.0666462182998657,0.6949350237846375
1772811889073918200,5.957918212890625,0.20914483070373535,-0.6570614576339722,0.070631243288517
1772811889083619000,5.967619140625,0.191735178232193,-0.039477135986089706,-0.5701659321784973
1772811889093320000,5.97731982421875,0.2067013680934906,0.5857429504394531,-1.0918444395065308
1772811889103020800,5.987020751953125,0.19540037214756012,1.039615511894226,-1.370398759841919
1772811889112721700,5.9967216796875,0.15935935080051422,1.169424295425415,-1.3517674207687378
1772811889122422500,6.006422607421875,0.145614892244339,1.047556757926941,-1.0194569826126099
1772811889132123400,6.016123291015625,0.18898628652095795,0.8282563090324402,-0.49136435985565186
1772811889141824300,6.02582421875,0.22044582664966583,0.5973494052886963,0.03581194952130318
1772811889151525000,6.035525146484375,0.20761767029762268,0.395764023065567,0.4203513264656067
1772811889161226000,6.04522607421875,0.1398116797208786,0.2320522516965866,0.6298779249191284
1772811889170926800,6.0549267578125,0.039018988609313965,0.13095413148403168,0.7050142884254456
1772811889180627700,6.064627685546875,0.030466880649328232,0.042684175074100494,0.6674461364746094
1772811889190328600,6.07432861328125,0.053985174745321274,-0.05810851231217384,0.6094139814376831
1772811889200029400,6.084029541015625,0.13095413148403168,-0.13080142438411713,0.609108567237854
1772811889209730600,6.09373046875,0.21586434543132782,-0.25847217440605164,0.6585885882377625
1772811889219431200,6.10343115234375,0.24946190416812897,-0.3885863721370697,0.7483857274055481
1772811889229132300,6.11313232421875,0.23968806862831116,-0.5345830321311951,0.8045852780342102
1772811889238833200,6.122833251953125,0.1969275325536728,-0.6610320210456848,0.8030580878257751
1772811889248534000,6.132533935546875,0.13309216499328613,-0.729143500328064,0.7465531229972839
1772811889258235000,6.14223486328125,0.04482220485806465,-0.7044034600257874,0.6204095482826233
1772811889267935700,6.151935791015625,-0.0345902182161808,-0.560850203037262,0.4160752594470978
1772811889277636600,6.16163671875,-0.09262236952781677,-0.3232238292694092,0.17447824776172638
1772811889287337500,6.17133740234375,-0.1628718227148056,-0.08743002265691757,-0.06039925664663315
1772811889297038300,6.181038330078125,-0.2618319094181061,0.0884990319609642,-0.23938263952732086
1772811889306739200,6.1907392578125,-0.36506807804107666,0.19906556606292725,-0.3505600392818451
1772811889316440000,6.200440185546875,-0.4457022249698639,0.2729802131652832,-0.4180605709552765
1772811889326141000,6.210140869140625,-0.5046506524085999,0.29069527983665466,-0.4583776593208313
1772811889335841800,6.219841796875,-0.5681806206703186,0.30169084668159485,-0.474260151386261
1772811889345542700,6.229542724609375,-0.6283507943153381,0.31604617834091187,-0.4681515097618103
1772811889355243500,6.239243408203125,-0.6821069121360779,0.31787875294685364,-0.4467712342739105
1772811889364944600,6.248944580078125,-0.7175370454788208,0.32612544298171997,-0.4018726646900177
1772811889374645200,6.258645263671875,-0.7181479334831238,0.30291256308555603,-0.3554469347000122
1772811889384346400,6.268346435546875,-0.6995165348052979,0.1660788655281067,-0.3304014801979065
1772811889394047200,6.278047119140625,-0.7074577808380127,-0.0397825688123703,-0.30657777190208435
1772811889403748000,6.287748046875,-0.7297543287277222,-0.27343833446502686,-0.30230170488357544
1772811889413449000,6.297448974609375,-0.7960331439971924,-0.5752055644989014,-0.34292420744895935
1772811889423149800,6.30714990234375,-1.0419062376022339,-0.9646318554878235,-0.4437169134616852
1772811889432850700,6.3168505859375,-1.5180753469467163,-1.3794090747833252,-0.546953022480011
1772811889442551600,6.326551513671875,-2.04433536529541,-1.4258347749710083,-0.5768854022026062
1772811889452252400,6.33625244140625,-2.225762128829956,-0.5507709383964539,-0.5729147791862488
1772811889461953300,6.345953369140625,-1.708665132522583,1.064355492591858,-0.6077340841293335
1772811889471654100,6.355654052734375,-0.7483857274055481,2.130314588546753,-0.6917279958724976
1772811889481355000,6.36535498046875,0.04634936526417732,1.724089503288269,-0.7891609072685242
1772811889491055900,6.375055908203125,0.5200750231742859,0.4495201110839844,-0.7112756967544556
1772811889500756700,6.3847568359375,0.8178715705871582,-0.7239511013031006,-0.20242531597614288
1772811889510457900,6.394457763671875,1.1138355731964111,-1.1216241121292114,0.7080686092376709
1772811889520158500,6.404158447265625,1.3841432332992554,-0.9741002321243286,1.7343214750289917
1772811889529859300,6.413859375,1.6199370622634888,-0.8617011308670044,2.6344306468963623
1772811889539560400,6.423560546875,1.6507856845855713,-0.8797216415405273,3.2605671882629395
1772811889549261300,6.43326123046875,1.3691771030426025,-0.8952987194061279,3.424278974533081
1772811889558962200,6.442962158203125,0.928438127040863,-0.607886791229248,3.1182355880737305
1772811889568663000,6.4526630859375,0.4983893036842346,0.03107774630188942,2.522336959838867
1772811889578364000,6.462364013671875,0.114460788667202,0.8594104051589966,1.8687117099761963
1772811889588064800,6.472064697265625,-0.1631772518157959,1.785481333732605,1.2844195365905762
1772811889597765600,6.481765625,-0.2853502035140991,2.5820491313934326,0.811610221862793
1772811889607466500,6.491466552734375,-0.2856556475162506,3.0460009574890137,0.42615455389022827
1772811889617167400,6.50116748046875,-0.2346484363079071,3.1596217155456543,0.081015944480896
1772811889626868200,6.5108681640625,-0.17631085216999054,2.8978662490844727,-0.2271653413772583
1772811889636569000,6.520569091796875,-0.11400263756513596,2.332205295562744,-0.47517645359039307
1772811889646270000,6.53027001953125,0.03535379841923714,1.7124830484390259,-0.641331672668457
1772811889655970800,6.539970703125,0.30199626088142395,1.3038145303726196,-0.6981421113014221
1772811889665672000,6.549671875,0.6318632364273071,1.1984403133392334,-0.6373610496520996
1772811889675372500,6.55937255859375,1.0249547958374023,1.2525018453598022,-0.386601060628891
1772811889685073700,6.56907373046875,1.4400373697280884,1.2650245428085327,0.02390008419752121
1772811889694774500,6.5787744140625,1.7940335273742676,1.1642318964004517,0.5785652995109558
1772811889704475100,6.58847509765625,1.9849287271499634,0.8878155946731567,1.1283435821533203
1772811889714176300,6.59817626953125,1.9507203102111816,0.4168388545513153,1.4627920389175415
1772811889723877000,6.607877197265625,1.7247003316879272,-0.08681915700435638,1.5586978197097778
1772811889733578000,6.617577880859375,1.3282490968704224,-0.5272526741027832,1.3998730182647705
1772811889743278800,6.62727880859375,0.9214131832122803,-0.7954223155975342,0.9930370450019836
1772811889752979700,6.636979736328125,0.6068177819252014,-0.7902299761772156,0.39652758836746216
1772811889762680600,6.6466806640625,0.38996079564094543,-0.5388590693473816,-0.29588761925697327
1772811889772381400,6.65638134765625,0.2732856273651123,-0.15859577059745789,-0.9351575970649719
1772811889782082300,6.666082275390625,0.2424369603395462,0.2735910713672638,-1.4036909341812134
1772811889791783200,6.675783203125,0.21922409534454346,0.632168710231781,-1.7094286680221558
1772811889801484000,6.685484130859375,0.19448406994342804,0.8142064213752747,-1.8578689098358154
1772811889811185000,6.695184814453125,0.22105668485164642,0.8044325709342957,-1.84381902217865
1772811889820885800,6.7048857421875,0.2925278842449188,0.6156753301620483,-1.67644202709198
1772811889830586600,6.714586669921875,0.36308276653289795,0.3044397234916687,-1.3920844793319702
1772811889840287700,6.724287841796875,0.39820748567581177,-0.04650207981467247,-1.0625228881835938
1772811889849988400,6.73398828125,0.3804923892021179,-0.35987570881843567,-0.7363211512565613
1772811889859689500,6.743689453125,0.33315038681030273,-0.5950586795806885,-0.45532333850860596
1772811889869390300,6.753390380859375,0.29161158204078674,-0.729143500328064,-0.25618141889572144
1772811889879091200,6.76309130859375,0.2772562503814697,-0.7645736336708069,-0.15294526517391205
1772811889888792000,6.7727919921875,0.31207555532455444,-0.7050142884254456,-0.1251509189605713
1772811889898493000,6.782492919921875,0.3765217661857605,-0.5984184145927429,-0.15325069427490234
1772811889908193800,6.79219384765625,0.42936158180236816,-0.5028180480003357,-0.2021198868751526
1772811889917894700,6.801894775390625,0.4470766484737396,-0.4237110912799835,-0.23388485610485077
1772811889927595500,6.811595458984375,0.4211149215698242,-0.35010188817977905,-0.22960880398750305
1772811889937296400,6.82129638671875,0.35789039731025696,-0.29817837476730347,-0.1911243200302124
1772811889946997200,6.830997314453125,0.2635118067264557,-0.2722166180610657,-0.114460788667202
1772811889956698000,6.840697998046875,0.14928008615970612,-0.2560287117958069,-0.008170315995812416
1772811889966399000,6.85039892578125,0.05520690605044365,-0.21571162343025208,0.09537126123905182
1772811889976099800,6.860099853515625,0.01763872057199478,-0.07979421317577362,0.17661628127098083
1772811889985800700,6.86980078125,-0.03886627033352852,0.1407279670238495,0.24289511144161224
1772811889995501800,6.879501708984375,-0.1628718227148056,0.391182541847229,0.31925320625305176
1772811890005202400,6.889202392578125,-0.3433823585510254,0.4846448302268982,0.2294560819864273
1772811890014903600,6.898903564453125,-0.42829257249832153,-0.21479532122612,-0.11018473654985428
1772811890024604400,6.9086044921875,-0.4872410297393799,-1.1949278116226196,-0.48036879301071167
1772811890034305000,6.918304931640625,-0.5849793553352356,-1.3537527322769165,-0.8178715705871582
1772811890044006100,6.928006103515625,-0.7465531229972839,-0.3479638397693634,-1.019762396812439
1772811890053707000,6.93770703125,-0.7621301412582397,0.6960040330886841,-0.9754747152328491
1772811890063407900,6.947407958984375,-0.6390409469604492,1.0835977792739868,-0.8139009475708008
1772811890073108700,6.957108642578125,-0.5892554521560669,0.8930079340934753,-0.9195805788040161
1772811890082809600,6.9668095703125,-0.5694023370742798,0.6453022956848145,-1.100701928138733
1772811890092510500,6.976510498046875,-0.45914125442504883,0.4314996004104614,-1.0521382093429565
1772811890102211300,6.98621142578125,-0.19158247113227844,0.05154171586036682,-0.7912989854812622
1772811890111912200,6.995912109375,0.1043815165758133,-0.4304305911064148,-0.4831176698207855
1772811890121613000,7.005613037109375,0.30749404430389404,-0.8937715291976929,-0.15935935080051422
1772811890131314000,7.01531396484375,0.3401753306388855,-1.3048834800720215,0.11980585753917694
1772811890141014800,7.025014892578125,0.26656612753868103,-1.4230858087539673,0.2141844630241394
1772811890150715600,7.034715576171875,0.16241367161273956,-1.1872920989990234,0.0654388889670372
1772811890160416500,7.04441650390625,0.14286600053310394,-0.7554106712341309,-0.21922409534454346
1772811890170117600,7.05411767578125,0.18745912611484528,-0.3323867917060852,-0.5041925311088562
1772811890179818500,7.063818603515625,0.26534438133239746,-0.004046979360282421,-0.6385827660560608
1772811890189519000,7.07351904296875,0.4061487317085266,0.1495855152606964,-0.6141481995582581
1772811890199220200,7.08322021484375,0.549091100692749,0.0680350661277771,-0.4159225523471832
1772811890208921000,7.092921142578125,0.639804482460022,-0.04558578506112099,-0.07903063297271729
1772811890218622000,7.1026220703125,0.6642391085624695,-0.0602465383708477,0.2398407906293869
1772811890228322800,7.11232275390625,0.5872701406478882,0.03565923124551773,0.4136318266391754
1772811890238023700,7.122023681640625,0.3875173330307007,0.23846633732318878,0.3833940029144287
1772811890247724500,7.131724609375,0.12209659814834595,0.5600866675376892,0.15095995366573334
1772811890257425400,7.14142529296875,-0.15126539766788483,0.9586759209632874,-0.2063959389925003
1772811890267126300,7.151126220703125,-0.3592648506164551,1.345658779144287,-0.5655844211578369
1772811890276827100,7.1608271484375,-0.43715012073516846,1.5851176977157593,-0.8184824585914612
1772811890286528000,7.170528076171875,-0.3528507649898529,1.6199370622634888,-0.8771254420280457
1772811890296228900,7.180228759765625,-0.03825540840625763,1.4901282787322998,-0.7283799052238464
1772811890305929700,7.1899296875,0.29649847745895386,1.09520423412323,-0.432110458612442
1772811890315630600,7.199630615234375,0.49228066205978394,0.5066359639167786,-0.050319984555244446
1772811890325331700,7.209331787109375,0.549091100692749,-0.08559742569923401,0.3271944522857666
1772811890335032300,7.2190322265625,0.49258607625961304,-0.5333613157272339,0.6564505696296692
1772811890344733200,7.228733154296875,0.3615556061267853,-0.8189405798912048,0.8843031525611877
1772811890354434300,7.238434326171875,0.22808164358139038,-0.8833868503570557,0.9588286280632019
1772811890364135200,7.24813525390625,0.14378230273723602,-0.7725148797035217,0.8745293021202087
1772811890373836000,7.2578359375,0.10713040828704834,-0.5978075265884399,0.662864625453949
1772811890383537000,7.267536865234375,0.08605557680130005,-0.41668614745140076,0.3794233798980713
1772811890393237800,7.27723779296875,0.06528617441654205,-0.2508363425731659,0.09537126123905182
1772811890402938600,7.286938720703125,0.04298960790038109,-0.10422880202531815,-0.1446985900402069
1772811890412639500,7.296639404296875,0.01672242395579815,0.050319984555244446,-0.31635159254074097
1772811890422340400,7.30634033203125,-0.022067490965127945,0.22960880398750305,-0.41011935472488403
1772811890432041200,7.316041259765625,-0.06879864633083344,0.395764023065567,-0.44554948806762695
1772811890441742000,7.3257421875,-0.11430807411670685,0.4898371994495392,-0.44554948806762695
1772811890451443000,7.33544287109375,-0.15034909546375275,0.5237401723861694,-0.42050403356552124
1772811890461143800,7.345143798828125,-0.15584687888622284,0.5231293439865112,-0.3704131245613098
1772811890470844700,7.3548447265625,-0.09842558950185776,0.4699840843677521,-0.30779948830604553
1772811890480545500,7.364545654296875,0.0295505840331316,0.34720027446746826,-0.2424369603395462
1772811890490246400,7.374246337890625,0.21067199110984802,0.19234605133533478,-0.17799071967601776
1772811890499947300,7.383947265625,0.3972911834716797,0.0680350661277771,-0.12576179206371307
1772811890509648400,7.3936484375,0.5591703653335571,-0.008017600513994694,-0.13675735890865326
1772811890519349000,7.403348876953125,0.649578332901001,-0.0709366723895073,-0.28061601519584656
1772811890529050000,7.413050048828125,0.6364447474479675,-0.2569449841976166,-0.5619192123413086
1772811890538751000,7.4227509765625,0.4843394160270691,-0.9725731015205383,-0.8704059720039368
1772811890548451600,7.43245166015625,0.34170249104499817,-2.1988842487335205,-1.0399209260940552
1772811890558152700,7.442152587890625,0.2690095901489258,-3.420919179916382,-0.9394336938858032
1772811890567853600,7.451853515625,0.03138317912817001,-3.9392378330230713,-0.47212210297584534
1772811890577554400,7.461554443359375,-0.18119776248931885,-3.388237953186035,0.01718057133257389
1772811890587255300,7.47125537109375,-0.24289511144161224,-2.2443935871124268,0.11064288020133972
1772811890596956200,7.4809560546875,-0.1995237022638321,-0.9582177400588989,-0.27175846695899963
1772811890606657000,7.490656982421875,-0.18150319159030914,0.14744748175144196,-0.7738893032073975
1772811890616358000,7.50035791015625,-0.16012293100357056,0.9702823162078857,-0.9220240116119385
1772811890626058800,7.510058837890625,-0.09048434346914291,1.4152973890304565,-0.5521454215049744
1772811890635759600,7.519759521484375,0.0023671009112149477,1.324278473854065,0.23922991752624512
1772811890645460500,7.52946044921875,0.093691386282444,0.6627119183540344,1.1054362058639526
1772811890655161300,7.539161376953125,0.21097742021083832,-0.31955865025520325,1.726991057395935
1772811890664862200,7.5488623046875,0.3817141354084015,-1.1943169832229614,1.996077060699463
1772811890674563000,7.55856298828125,0.5781071782112122,-1.607872486114502,1.9481241703033447
1772811890684264200,7.56826416015625,0.7937424182891846,-1.459737777709961,1.6561307907104492
1772811890693965000,7.577965087890625,1.0780999660491943,-0.857730507850647,1.2303580045700073
1772811890703665700,7.587665771484375,1.3783400058746338,0.006337722297757864,0.7673225402832031
1772811890713366800,7.59736669921875,1.6339869499206543,1.0176243782043457,0.24900375306606293
1772811890723067600,7.607067626953125,1.7063744068145752,1.9736276865005493,-0.3044397234916687
1772811890732768500,7.6167685546875,1.5359431505203247,2.6901721954345703,-0.8478039503097534
1772811890742469400,7.626469482421875,1.1263582706451416,3.0453898906707764,-1.3129774332046509
1772811890752170200,7.636170166015625,0.603458046913147,3.004767417907715,-1.5588505268096924
1772811890761871000,7.64587109375,0.1395062506198883,2.5683045387268066,-1.4965423345565796
1772811890771572000,7.655572021484375,-0.17203480005264282,1.9769874811172485,-1.1911100149154663
1772811890781272800,7.66527294921875,-0.3415497839450836,1.545106053352356,-0.732655942440033
1772811890790973700,7.6749736328125,-0.3696495592594147,1.3416881561279297,-0.1242346242070198
1772811890800674600,7.684674560546875,-0.33910632133483887,1.166675329208374,0.560850203037262
1772811890810375400,7.69437548828125,-0.3742310404777527,0.825812816619873,1.2315797805786133
1772811890820076300,7.704076171875,-0.5187005400657654,0.24579671025276184,1.8247294425964355
1772811890829777200,7.713777099609375,-0.6420952677726746,-0.39744389057159424,2.1955244541168213
1772811890839478000,7.72347802734375,-0.7126501202583313,-0.8888846039772034,2.342742681503296
1772811890849179000,7.733178955078125,-0.7471640110015869,-1.0861939191818237,2.290513753890991
1772811890858879700,7.742879638671875,-0.7682388424873352,-0.9661589860916138,2.057774305343628
1772811890868580900,7.752580810546875,-0.7871756553649902,-0.6252964735031128,1.6695698499679565
1772811890878281700,7.76228173828125,-0.792062520980835,-0.3626246154308319,1.2318851947784424
1772811890887982600,7.771982666015625,-0.7175370454788208,-0.16562071442604065,0.7902299761772156
1772811890897683500,7.781683349609375,-0.6100248694419861,0.06192641705274582,0.39744389057159424
1772811890907384300,7.79138427734375,-0.47807803750038147,0.22899793088436127,0.091400645673275
1772811890917085200,7.801085205078125,-0.3012326955795288,0.37377288937568665,-0.12056943774223328
1772811890926786000,7.8107861328125,-0.11217004805803299,0.4232529401779175,-0.22960880398750305
1772811890936487000,7.82048681640625,-0.026648975908756256,0.30596688389778137,-0.2375500351190567
1772811890946187800,7.830187744140625,-0.07735075056552887,0.12545634806156158,-0.14836378395557404
1772811890955888600,7.839888671875,-0.13416117429733276,-0.004963276442140341,0.0034361144062131643
1772811890965589500,7.849589599609375,-0.16195552051067352,-0.09903645515441895,0.14851650595664978
1772811890975290400,7.859290283203125,-0.15615230798721313,-0.19066616892814636,0.229150652885437
1772811890984991200,7.8689912109375,-0.10209077596664429,-0.2819904685020447,0.23342670500278473
1772811890994692000,7.878692138671875,-0.00679587060585618,-0.3155880272388458,0.17631085216999054
1772811891004393000,7.88839306640625,0.09491311758756638,-0.2813795804977417,0.05810851231217384
1772811891014093800,7.89809375,0.17371466755867004,-0.19463679194450378,-0.07658717036247253
1772811891023795000,7.907794921875,0.2644280791282654,-0.10270164161920547,-0.16485713422298431
1772811891033495600,7.91749560546875,0.3762163519859314,-0.03428478538990021,-0.18257221579551697
1772811891043196400,7.927196533203125,0.44554948806762695,0.03504836559295654,-0.13248129189014435
1772811891052897500,7.9368974609375,0.44493862986564636,0.12637265026569366,-0.03535379841923714
1772811891062598100,7.94659814453125,0.3920988440513611,0.23021966218948364,0.10606139898300171
1772811891072299300,7.95629931640625,0.320933073759079,0.2992473840713501,0.266107976436615
1772811891082000100,7.966000244140625,0.23968806862831116,0.279394268989563,0.3940841555595398
1772811891091701000,7.975700927734375,0.10835213959217072,0.1966221034526825,0.5104538798332214
1772811891101401900,7.98540185546875,-0.01779143698513508,0.037491824477910995,0.5880337357521057
1772811891111102700,7.995102783203125,-0.0009926552884280682,-0.2248746007680893,0.4447859227657318
1772811891120803600,8.004803466796876,0.14714205265045166,-0.534277617931366,-0.024663666263222694
1772811891130504400,8.01450439453125,0.3038288652896881,-0.61827152967453,-0.7134137153625488
1772811891140205300,8.024205322265624,0.3151298761367798,-0.3424660563468933,-1.4733295440673828
1772811891149906200,8.03390625,0.11262819170951843,0.2943604588508606,-2.069228172302246
1772811891159607000,8.04360693359375,-0.24778202176094055,0.9751692414283752,-2.3419792652130127
1772811891169308000,8.053307861328125,-0.5489383339881897,0.9143882393836975,-2.445826292037964
1772811891179008800,8.0630087890625,-0.6002510190010071,0.020387612283229828,-2.8752641677856445
1772811891188709600,8.072709716796876,-0.533666729927063,-0.6756927967071533,-3.592113971710205
1772811891198410500,8.082410400390625,-0.3064250349998474,-0.5574904680252075,-4.068588733673096
1772811891208111600,8.092111572265624,0.1547778695821762,0.14347685873508453,-4.085692882537842
1772811891217812200,8.101812255859375,0.6144536137580872,0.7882446646690369,-3.633958101272583
1772811891227513000,8.11151318359375,0.6746237874031067,0.8441387414932251,-2.84838604927063
1772811891237214200,8.121214111328126,0.32215481996536255,0.18868085741996765,-1.8096106052398682
1772811891246914800,8.130914794921875,-0.012293653562664986,-0.7153990268707275,-0.6486620306968689
1772811891256616000,8.140615966796876,-0.15584687888622284,-1.3164899349212646,0.27893611788749695
1772811891266316800,8.15031689453125,-0.049861837178468704,-1.5840487480163574,0.8919389247894287
1772811891276017700,8.160017578125,0.06742420047521591,-1.670791506767273,1.3598613739013672
1772811891285718500,8.169718505859375,0.14592032134532928,-1.5596141815185547,1.6414700746536255
1772811891295419400,8.17941943359375,0.2885572612285614,-1.1182643175125122,1.7010293006896973
1772811891305120300,8.189120361328126,0.48036879301071167,-0.5464949011802673,1.5904628038406372
1772811891314821000,8.198821044921875,0.5976548194885254,-0.06849320977926254,1.3262637853622437
1772811891324522000,8.20852197265625,0.5277107954025269,0.1706603467464447,0.9304234385490417
1772811891334222800,8.218222900390625,0.33253952860832214,0.2372446060180664,0.47288569808006287
1772811891343923700,8.227923828125,0.08300124853849411,0.320933073759079,0.11522436887025833
1772811891353624600,8.23762451171875,-0.13355031609535217,0.3404807448387146,-0.09827287495136261
1772811891363325400,8.247325439453125,-0.2709949016571045,0.19234605133533478,-0.19570580124855042
1772811891373026300,8.2570263671875,-0.30947935581207275,0.1712712198495865,-0.1758527010679245
1772811891382727200,8.26672705078125,-0.26427537202835083,0.2778671085834503,-0.05215258151292801
1772811891392428300,8.27642822265625,-0.1738673895597458,0.3340666890144348,0.1931096315383911
1772811891402129000,8.28612890625,-0.049250971525907516,0.28244858980178833,0.5248091816902161
1772811891411829800,8.295829833984374,0.16455170512199402,0.1810450553894043,0.8274927139282227
1772811891421531000,8.30553076171875,0.4079813063144684,0.030466880649328232,1.0492366552352905
1772811891431231500,8.3152314453125,0.5637518167495728,-0.15431971848011017,1.1824051141738892
1772811891440932600,8.3249326171875,0.6648499369621277,-0.29817837476730347,1.216613531112671
1772811891450633500,8.334633544921875,0.7680860757827759,-0.275270938873291,1.1515564918518066
1772811891460334300,8.344334228515624,0.7790816426277161,-0.2294560819864273,0.9936479330062866
1772811891470035200,8.35403515625,0.6801216006278992,-0.2496146261692047,0.7596867084503174
1772811891479736000,8.363736083984374,0.5237401723861694,-0.3006218373775482,0.5144245028495789
1772811891489437000,8.37343701171875,0.34750568866729736,-0.349185585975647,0.28504478931427
1772811891499137800,8.3831376953125,0.17676898837089539,-0.3427715003490448,0.09414953738451004
1772811891508838700,8.392838623046876,0.022220205515623093,-0.30489787459373474,-0.029856016859412193
1772811891518539500,8.40253955078125,-0.09231694042682648,-0.20044000446796417,-0.08452841639518738
1772811891528240400,8.412240478515624,-0.19097159802913666,-0.055970486253499985,-0.11018473654985428
1772811891537941200,8.421941162109375,-0.3134499788284302,0.08208495378494263,-0.13675735890865326
1772811891547642000,8.43164208984375,-0.43317949771881104,0.19723296165466309,-0.1651625633239746
1772811891557343000,8.441343017578125,-0.5397753715515137,0.31604617834091187,-0.20059272646903992
1772811891567043800,8.4510439453125,-0.6155226230621338,0.42569640278816223,-0.29374960064888
1772811891576745000,8.460744873046876,-0.6143009066581726,0.42080947756767273,-0.4122573733329773
1772811891586445600,8.470445556640625,-0.5477166175842285,0.26473352313041687,-0.441884309053421
1772811891596146400,8.480146484375,-0.4313468933105469,0.003283398225903511,-0.3401753306388855
1772811891605847600,8.48984765625,-0.26702427864074707,-0.21174100041389465,-0.1856265366077423
1772811891615548200,8.499548095703124,0.0023671009112149477,-0.16409355401992798,0.006185005884617567
1772811891625249300,8.509249267578125,0.34750568866729736,-0.040088001638650894,0.11522436887025833
1772811891634950100,8.5189501953125,0.5139663815498352,-0.006490438245236874,0.06360629200935364
1772811891644650800,8.528650634765626,0.3811032772064209,-0.17569997906684875,-0.14775292575359344
1772811891654352000,8.538351806640625,-0.00954476185142994,-0.3467421233654022,-0.6764563918113708
1772811891664052700,8.548052734375,-0.5773435831069946,-0.2923751473426819,-1.2005783319473267
1772811891673753600,8.557753662109375,-0.8901063203811646,-0.1323285847902298,-1.648647665977478
1772811891683454500,8.567454345703124,-0.988455593585968,-0.07826705276966095,-2.250654935836792
1772811891693155300,8.5771552734375,-1.0296889543533325,0.630946934223175,-2.7384305000305176
1772811891702856200,8.586856201171875,-0.9585232138633728,2.1129050254821777,-2.815704822540283
1772811891712557000,8.59655712890625,-0.7086794972419739,3.155956506729126,-2.4647629261016846
1772811891722258000,8.6062578125,-0.3540725111961365,3.250640630722046,-1.5976405143737793
1772811891731958800,8.615958740234374,0.08147408813238144,2.6177847385406494,-0.3615556061267853
1772811891741659600,8.62565966796875,0.5194641351699829,1.4953206777572632,0.85834139585495
1772811891751360500,8.635360595703125,0.8639918565750122,0.2008981555700302,1.8592432737350464
1772811891761061400,8.645061279296876,0.9620356559753418,-1.1976767778396606,2.6481752395629883
1772811891770762200,8.65476220703125,0.9898300170898438,-2.4166574478149414,3.2999680042266846
1772811891780463000,8.664463134765626,0.8841503858566284,-3.264537811279297,3.949317216873169
1772811891790164200,8.674164306640625,0.6648499369621277,-3.2691192626953125,4.183278560638428
1772811891799864800,8.68386474609375,0.4421897530555725,-2.3983314037323,3.85432767868042
1772811891809566000,8.69356591796875,0.2583194375038147,-1.2685370445251465,3.1008260250091553
1772811891819266800,8.703266845703125,0.14744748175144196,-0.1631772518157959,2.275242328643799
1772811891828967400,8.712967529296876,0.2012035846710205,0.7561742663383484,1.5260165929794312
1772811891838668500,8.72266845703125,0.2833648920059204,1.2274564504623413,1.0244965553283691
1772811891848369400,8.732369384765626,0.31146466732025146,1.3630683422088623,0.8323796391487122
1772811891858070300,8.7420703125,0.23877176642417908,1.3141992092132568,0.8983530402183533
1772811891867771100,8.751771240234374,0.12087486684322357,1.0799325704574585,1.0678679943084717
1772811891877472000,8.761471923828125,0.06223184987902641,0.7137191295623779,1.2120320796966553
1772811891887172900,8.7711728515625,0.11537708342075348,0.37988153100013733,1.2615121603012085
1772811891896873700,8.780873779296876,0.27542364597320557,0.15722131729125977,1.1610249280929565
1772811891906574600,8.79057470703125,0.4479929506778717,-0.03825540840625763,0.9426407217979431
1772811891916275500,8.800275390625,0.5774962902069092,-0.22579088807106018,0.7520508766174316
1772811891925976300,8.809976318359375,0.6324741244316101,-0.26855143904685974,0.6207149624824524
1772811891935677200,8.81967724609375,0.6123155951499939,-0.16684244573116302,0.4951822757720947
1772811891945378000,8.8293779296875,0.5264890789985657,0.014278964139521122,0.3525453209877014
1772811891955079000,8.839078857421875,0.39973464608192444,0.20486877858638763,0.21051926910877228
1772811891964779800,8.84877978515625,0.25037819147109985,0.33192864060401917,0.08895718306303024
1772811891974480600,8.858480712890625,0.10682497918605804,0.35758498311042786,-0.002672533504664898
1772811891984181500,8.868181396484376,-0.0058795735239982605,0.2876409590244293,-0.014889828860759735
1772811891993882400,8.87788232421875,-0.0703258067369461,0.17921245098114014,0.06299543380737305
1772811892003583500,8.88758349609375,-0.09231694042682648,0.043600473552942276,0.19738568365573883
1772811892013284000,8.8972841796875,-0.07673988491296768,-0.07673988491296768,0.3281107544898987
1772811892022985000,8.90698486328125,-0.049250971525907516,-0.15706861019134521,0.3940841555595398
1772811892032686000,8.91668603515625,-0.04344775900244713,-0.2196822464466095,0.3989710509777069
1772811892042386700,8.92638671875,-0.04833467677235603,-0.25786128640174866,0.39072439074516296
1772811892052087800,8.936087890625,-0.028787001967430115,-0.24289511144161224,0.38644832372665405
1772811892061788700,8.94578857421875,0.003894262947142124,-0.1937204897403717,0.3684278130531311
1772811892071489500,8.955489501953124,0.036880962550640106,-0.1372154951095581,0.32597270607948303
1772811892081190400,8.9651904296875,0.05917752534151077,-0.06971494108438492,0.256334125995636
1772811892090891300,8.974891357421875,0.07689260691404343,0.014278964139521122,0.17050762474536896
1772811892100592000,8.984592041015626,0.0732274129986763,0.11140646785497665,0.06971494108438492
1772811892110293000,8.99429296875,0.03810269013047218,0.21006113290786743,-0.0295505840331316
1772811892119993900,9.003993896484374,0.005421424750238657,0.33773186802864075,-0.09124792367219925
1772811892129694700,9.01369482421875,-0.022678354755043983,0.46601346135139465,-0.12392919510602951
1772811892139395600,9.0233955078125,-0.06604975461959839,0.5521454215049744,-0.13309216499328613
1772811892149096400,9.033096435546875,-0.09506583213806152,0.5292379856109619,-0.09063705801963806
1772811892158797300,9.04279736328125,-0.09201150387525558,0.4174497127532959,0.04833467677235603
1772811892168498200,9.052498291015626,-0.057497646659612656,0.29191699624061584,0.2566395699977875
1772811892178199000,9.062198974609375,0.0527634471654892,0.060093823820352554,0.418824166059494
1772811892187900000,9.07189990234375,0.2170860767364502,-0.22365286946296692,0.4133263826370239
1772811892197600800,9.081600830078125,0.3148244321346283,-0.4264599680900574,0.17692171037197113
1772811892207301600,9.091301513671874,0.24610215425491333,-0.5006800293922424,-0.284586638212204
1772811892217002800,9.101002685546876,0.02496909722685814,-0.5049561262130737,-0.7769436240196228
1772811892226703400,9.110703369140625,-0.22334744036197662,-0.6005564332008362,-1.08573579788208
1772811892236404200,9.120404296875,-0.23587016761302948,-1.1060470342636108,-1.5145628452301025
1772811892246105300,9.130105224609375,0.04482220485806465,-1.644524335861206,-2.2961642742156982
1772811892255806200,9.13980615234375,0.26503896713256836,-1.6772055625915527,-3.4427576065063477
1772811892265507000,9.149507080078125,0.3502545952796936,-0.7077631950378418,-4.363636016845703
1772811892275208000,9.1592080078125,0.4021781086921692,0.7967967391014099,-4.463207244873047
1772811892284908800,9.16890869140625,0.4116465151309967,1.7259221076965332,-3.792477607727051
1772811892294609700,9.178609619140625,0.4855611324310303,1.658116102218628,-2.720409870147705
1772811892304310500,9.188310546875,0.6566032767295837,0.88995361328125,-1.5765656232833862
1772811892314011400,9.198011474609375,0.7659480571746826,-0.0807105079293251,-0.632168710231781
1772811892323712300,9.207712158203124,0.7671698331832886,-0.9127083420753479,-0.03504836559295654
1772811892333413000,9.2174130859375,0.7253255844116211,-1.4936407804489136,0.28779366612434387
1772811892343114000,9.227114013671875,0.695698618888855,-1.8250348567962646,0.41271552443504333
1772811892352814800,9.23681494140625,0.7082213759422302,-1.877874732017517,0.38186684250831604
1772811892362515700,9.246515625,0.7118865251541138,-1.6845359802246094,0.2096029818058014
1772811892372216600,9.256216552734376,0.6278926134109497,-1.3183225393295288,-0.07108938694000244
1772811892381917400,9.26591748046875,0.4837285578250885,-0.8336013555526733,-0.3365101218223572
1772811892391618300,9.275618408203124,0.34658941626548767,-0.30459246039390564,-0.4623482823371887
1772811892401319200,9.285319091796875,0.20059272646903992,0.03993528336286545,-0.42386379837989807
1772811892411020000,9.29502001953125,0.08177952468395233,0.1963166743516922,-0.22655446827411652
1772811892420721000,9.304720947265626,0.003894262947142124,0.23083053529262543,0.02695440873503685
1772811892430421800,9.314421875,-0.060551971197128296,0.19845469295978546,0.2596938908100128
1772811892440122600,9.32412255859375,-0.14882193505764008,0.12056943774223328,0.4496728479862213
1772811892449823500,9.333823486328125,-0.23312127590179443,0.06101011857390404,0.6158280372619629
1772811892459524600,9.343524658203124,-0.3027598559856415,0.0371863916516304,0.7734311819076538
1772811892469225500,9.3532255859375,-0.3378845751285553,0.04909825697541237,0.9331722855567932
1772811892478926000,9.362926025390625,-0.3271944522857666,0.04604393243789673,1.098411202430725
1772811892488627200,9.372627197265626,-0.2771035432815552,0.008781181648373604,1.2343286275863647
1772811892498328000,9.382328125,-0.19646938145160675,-0.016875140368938446,1.300912857055664
1772811892508029000,9.39202880859375,-0.0965929925441742,-0.019013166427612305,1.2581523656845093
1772811892517729800,9.401729736328125,-0.0022143847309052944,-0.009850194677710533,1.1194860935211182
1772811892527430700,9.4114306640625,0.07108938694000244,-0.04528035223484039,0.9511927962303162
1772811892537131500,9.421131591796875,0.1404225379228592,-0.08681915700435638,0.8317687511444092
1772811892546832400,9.430832275390625,0.16943861544132233,-0.015042545273900032,0.636292040348053
1772811892556533200,9.440533203125,0.16424626111984253,0.0985783040523529,0.43898269534111023
1772811892566234000,9.450234130859375,0.1761581301689148,0.16302454471588135,0.24167338013648987
1772811892575935000,9.45993505859375,0.20334161818027496,0.20242531597614288,0.044669486582279205
1772811892585635800,9.4696357421875,0.23938263952732086,0.2326631247997284,-0.1443931609392166
1772811892595336700,9.479336669921874,0.26503896713256836,0.25068363547325134,-0.35361436009407043
1772811892605037600,9.48903759765625,0.2738964855670929,0.25984659790992737,-0.5900190472602844
1772811892614738400,9.498738525390625,0.27145302295684814,0.23938263952732086,-0.8233693838119507
1772811892624439300,9.508439208984376,0.2632063627243042,0.25557056069374084,-1.0548871755599976
1772811892634140200,9.51814013671875,0.30627232789993286,0.37988153100013733,-1.3041199445724487
