time,seconds_elapsed,z,y,x
1772811910309092900,0.1160927734375,-1.4337760210037231,-1.7874666452407837,-0.6358338594436646
1772811910328494600,0.13549462890625,-0.7346412539482117,-1.3180171251296997,-1.8169409036636353
1772811910338195500,0.145195556640625,-0.41760244965553284,-1.3522255420684814,-2.340757369995117
1772811910347896300,0.154896240234375,-0.18608468770980835,-1.5165481567382812,-2.8111233711242676
1772811910357597200,0.16459716796875,0.05154171586036682,-1.533957839012146,-3.1635923385620117
1772811910367298000,0.174298095703125,0.34384050965309143,-1.042211651802063,-3.2744643688201904
1772811910376999000,0.1839990234375,0.7186060547828674,-0.08040507882833481,-3.0505824089050293
1772811910386699500,0.193699462890625,1.1886664628982544,0.7854957580566406,-2.565861225128174
1772811910396400400,0.203400390625,1.7528001070022583,1.3267219066619873,-1.937892198562622
1772811910406101200,0.213101318359375,2.3474769592285156,1.6645301580429077,-1.3282490968704224
1772811910415802000,0.222802001953125,2.772944211959839,1.6428444385528564,-0.8670461773872375
1772811910425503000,0.2325029296875,2.9192464351654053,1.5557962656021118,-0.538706362247467
1772811910435203600,0.24220361328125,2.8187592029571533,1.48371422290802,-0.31115925312042236
1772811910444904400,0.251904541015625,2.5673882961273193,1.2424225807189941,-0.14775292575359344
1772811910454605300,0.261605224609375,2.2692863941192627,0.9302706718444824,0.008323032408952713
1772811910464306200,0.27130615234375,1.9916481971740723,0.714024543762207,0.15370884537696838
1772811910474007000,0.281007080078125,1.7653228044509888,0.8563560843467712,0.09170607477426529
1772811910483708000,0.2907080078125,1.585423231124878,0.8701004981994629,0.059635672718286514
1772811910493408800,0.30040869140625,1.4693589210510254,1.112002968788147,0.11461350321769714
1772811910503109600,0.310109619140625,1.3829214572906494,1.521282434463501,0.1986074149608612
1772811910512810200,0.319810302734375,1.3374121189117432,1.961410403251648,0.27374377846717834
1772811910522511000,0.329510986328125,1.3309979438781738,2.429332971572876,0.3366628587245941
1772811910532212000,0.3392119140625,1.3071743249893188,2.6791765689849854,0.37697991728782654
1772811910541912800,0.348912841796875,1.260137677192688,2.6794819831848145,0.40752315521240234
1772811910551613700,0.35861376953125,1.251891016960144,2.5121049880981445,0.45944666862487793
1772811910561314300,0.368314208984375,1.297705888748169,2.25126576423645,0.49915286898612976
1772811910571015200,0.37801513671875,1.3679553270339966,1.8401538133621216,0.5694023370742798
1772811910580716000,0.387716064453125,1.425071120262146,1.5536582469940186,0.6766090989112854
1772811910590417000,0.3974169921875,1.4672207832336426,1.4055235385894775,0.7954223155975342
1772811910600117800,0.40711767578125,1.4797435998916626,1.2842668294906616,0.8876628875732422
1772811910609818400,0.416818359375,1.454392671585083,1.2653300762176514,0.9460004568099976
1772811910619519200,0.426519287109375,1.3939170837402344,1.289764642715454,0.9585232138633728
1772811910629220000,0.43622021484375,1.3459641933441162,1.3459641933441162,0.9255365133285522
1772811910638921000,0.4459208984375,1.378645420074463,1.528612732887268,0.866893470287323
1772811910648621800,0.455621826171875,1.4953206777572632,1.7454698085784912,0.7511346340179443
1772811910658322700,0.46532275390625,1.6068034172058105,1.9088760614395142,0.5602393746376038
1772811910668023600,0.4750234375,1.6733876466751099,2.0203588008880615,0.3433823585510254
1772811910677724400,0.484724365234375,1.7195080518722534,2.0560944080352783,0.14454588294029236
1772811910687425000,0.494425048828125,1.771736979484558,2.002032995223999,-0.018860450014472008
1772811910697126000,0.5041259765625,1.8016693592071533,1.9388084411621094,-0.15233440697193146
1772811910706826800,0.51382666015625,1.79953134059906,1.7928117513656616,-0.22472187876701355
1772811910716527600,0.523527587890625,1.7677663564682007,1.5069270133972168,-0.18348850309848785
1772811910726228500,0.533228515625,1.6733876466751099,1.1703405380249023,-0.08025235682725906
1772811910735929000,0.54292919921875,1.5606831312179565,0.8007673621177673,0.029703300446271896
1772811910745630000,0.5526298828125,1.4846304655075073,0.4266127049922943,0.12041672319173813
1772811910755330800,0.562330810546875,1.465388298034668,0.11262819170951843,0.21265730261802673
1772811910765031700,0.57203173828125,1.5307507514953613,-0.0703258067369461,0.3274998664855957
1772811910774732500,0.581732666015625,1.6245185136795044,-0.07612902671098709,0.4713585376739502
1772811910784433400,0.591433349609375,1.6999603509902954,0.03871355578303337,0.6442332863807678
1772811910794134300,0.60113427734375,1.7360013723373413,0.1251509189605713,0.8360447883605957
1772811910803835000,0.6108349609375,1.7268383502960205,0.11354449391365051,1.015333652496338
1772811910813535700,0.62053564453125,1.6837724447250366,0.04146244749426842,1.1185697317123413
1772811910823236600,0.630236572265625,1.5838960409164429,-0.11552979797124863,1.10940682888031
1772811910832937500,0.6399375,1.4342341423034668,-0.34521496295928955,1.0015891790390015
1772811910842638300,0.649638427734375,1.2598322629928589,-0.6036107540130615,0.8168025612831116
1772811910852339200,0.659339111328125,1.093677043914795,-0.8470403552055359,0.5855902433395386
1772811910862040000,0.6690400390625,0.9501237869262695,-1.0272455215454102,0.3568213880062103
1772811910871740700,0.67874072265625,0.8303943276405334,-1.107879638671875,0.17142392694950104
1772811910881441500,0.688441650390625,0.724409282207489,-1.0525963306427002,0.046196650713682175
1772811910891142400,0.698142333984375,0.6614902019500732,-1.0483202934265137,0.012293653562664986
1772811910900843300,0.70784326171875,0.5881864428520203,-0.9124029278755188,-0.02802342176437378
1772811910910544000,0.7175439453125,0.5115228891372681,-0.5745946764945984,-0.12545634806156158
1772811910920244700,0.72724462890625,0.45593419671058655,-0.1989128440618515,-0.2317468225955963
1772811910929945600,0.736945556640625,0.4235583543777466,0.08025235682725906,-0.354225218296051
1772811910939646500,0.746646484375,0.4113410711288452,0.16943861544132233,-0.48525571823120117
1772811910949347300,0.756347412109375,0.4217257797718048,0.11782054603099823,-0.6184242367744446
1772811910959048200,0.766048095703125,0.441884309053421,0.11293362826108932,-0.73204505443573
1772811910968749000,0.7757490234375,0.4379136860370636,0.18806999921798706,-0.8343649506568909
1772811910978450000,0.785449951171875,0.42478010058403015,0.2320522516965866,-0.9430988430976868
1772811910988150500,0.795150634765625,0.43577566742897034,0.2164752036333084,-1.0402263402938843
1772811910997851400,0.804851318359375,0.4681515097618103,0.17432554066181183,-1.104978084564209
1772811911007552300,0.81455224609375,0.47761988639831543,0.09735657274723053,-1.1547634601593018
1772811911017253000,0.824253173828125,0.4629591405391693,-0.010766491293907166,-1.1999675035476685
1772811911026954000,0.8339541015625,0.4623482823371887,-0.11919499188661575,-1.2460877895355225
1772811911036654800,0.84365478515625,0.4846448302268982,-0.14851650595664978,-1.3108394145965576
1772811911046355500,0.85335546875,0.5090794563293457,-0.08284853398799896,-1.399720311164856
1772811911056056300,0.863056396484375,0.5154935121536255,-0.02390008419752121,-1.4718023538589478
1772811911065757200,0.872757080078125,0.5310705900192261,-0.01259908638894558,-1.5371648073196411
1772811911075458000,0.8824580078125,0.5420661568641663,-0.030925029888749123,-1.6144392490386963
1772811911085159000,0.892158935546875,0.47761988639831543,-0.09017891436815262,-1.6660573482513428
1772811911094859500,0.901859619140625,0.38446301221847534,-0.24900375306606293,-1.694462537765503
1772811911104560400,0.911560302734375,0.30657777190208435,-0.4805215001106262,-1.6981277465820312
1772811911114261200,0.92126123046875,0.2519053518772125,-0.6845503449440002,-1.6801072359085083
1772811911123962000,0.930962158203125,0.2021198868751526,-0.7902299761772156,-1.6559780836105347
1772811911133663000,0.9406630859375,0.14347685873508453,-0.8192460536956787,-1.6281837224960327
1772811911143363800,0.95036376953125,0.09766200929880142,-0.7706822752952576,-1.5918372869491577
1772811911153064400,0.960064453125,0.09460768103599548,-0.6485093235969543,-1.547855019569397
1772811911162765300,0.969765380859375,0.13706278800964355,-0.4802160859107971,-1.5191442966461182
1772811911172466200,0.979466064453125,0.2317468225955963,-0.2822958827018738,-1.5050944089889526
1772811911182167000,0.9891669921875,0.3875173330307007,-0.05994110554456711,-1.4916554689407349
1772811911191868000,0.998867919921875,0.5579485893249512,0.15386156737804413,-1.4815762042999268
1772811911201568800,1.00856884765625,0.7219657897949219,0.283975750207901,-1.4644719362258911
1772811911211269600,1.01826953125,0.8502474427223206,0.32795801758766174,-1.4107158184051514
1772811911220970200,1.02797021484375,0.9357684850692749,0.30199626088142395,-1.2958732843399048
1772811911230671000,1.037671142578125,0.9999092817306519,0.2638172209262848,-1.1367429494857788
1772811911240372000,1.0473720703125,1.0750457048416138,0.18990258872509003,-0.9455423355102539
1772811911250072800,1.05707275390625,1.1492657661437988,0.08636100590229034,-0.7415134906768799
1772811911259773700,1.066773681640625,1.1828632354736328,0.0057268571108579636,-0.5304597020149231
1772811911269474300,1.076474365234375,1.1480439901351929,-0.07399099320173264,-0.3139081299304962
1772811911279175200,1.086175048828125,1.0487784147262573,-0.1943313628435135,-0.09521854668855667
1772811911288876000,1.0958759765625,0.900338351726532,-0.36048656702041626,0.13813179731369019
1772811911298577000,1.105576904296875,0.7372374534606934,-0.5211440324783325,0.3895026445388794
1772811911308277800,1.11527783203125,0.6947823166847229,-0.5776489973068237,0.5953640937805176
1772811911317978600,1.124978515625,0.7149408459663391,-0.6118574142456055,0.7166207432746887
1772811911327679200,1.13467919921875,0.6547706723213196,-0.6289616227149963,0.8048906922340393
1772811911337380000,1.144380126953125,0.5613083839416504,-0.5965858101844788,0.8507055640220642
1772811911347081000,1.1540810546875,0.4687623679637909,-0.5364156365394592,0.8504001498222351
1772811911356781800,1.16378173828125,0.3517817556858063,-0.4612792730331421,0.8357393741607666
1772811911366482700,1.173482666015625,0.2326631247997284,-0.37148213386535645,0.8476512432098389
1772811911376183600,1.18318359375,0.14836378395557404,-0.26732969284057617,0.858646810054779
1772811911385884400,1.192884521484375,0.0985783040523529,-0.13324488699436188,0.8326850533485413
1772811911395585000,1.2025849609375,0.06467530876398087,0.016416991129517555,0.7621301412582397
1772811911405286000,1.212285888671875,0.0423787422478199,0.19967642426490784,0.663475513458252
1772811911414986800,1.22198681640625,0.02130390889942646,0.41470083594322205,0.544051468372345
1772811911424687600,1.2316875,-0.02542724646627903,0.6486620306968689,0.43898269534111023
1772811911434388500,1.241388427734375,-0.12774710357189178,0.9036980867385864,0.37178757786750793
1772811911444089000,1.251089111328125,-0.26274821162223816,1.1559852361679077,0.321391224861145
1772811911453790000,1.2607900390625,-0.4050796926021576,1.3282490968704224,0.256334125995636
1772811911463490800,1.27049072265625,-0.5409971475601196,1.4107158184051514,0.19677481055259705
1772811911473191700,1.280191650390625,-0.6106356978416443,1.4198788404464722,0.14454588294029236
1772811911482892500,1.289892578125,-0.6121628880500793,1.278158187866211,0.04069886729121208
1772811911492593200,1.29959326171875,-0.5639045238494873,0.8853721618652344,-0.21372631192207336
1772811911502294000,1.3092939453125,-0.535193920135498,0.18471023440361023,-0.6672934293746948
1772811911511995000,1.318994873046875,-0.5382482409477234,-0.5907825827598572,-1.1966077089309692
1772811911521695700,1.32869580078125,-0.6008618474006653,-1.0272455215454102,-1.5790090560913086
1772811911531396600,1.338396728515625,-0.6708058714866638,-0.8161917328834534,-1.6593377590179443
1772811911541097500,1.348097412109375,-0.6698895692825317,0.17432554066181183,-1.3361903429031372
1772811911550798300,1.35779833984375,-0.5739838480949402,1.5273910760879517,-0.6700422763824463
1772811911560499000,1.3674990234375,-0.4292088747024536,2.5252387523651123,0.13080142438411713
1772811911570199800,1.37719970703125,-0.2664133906364441,2.783939838409424,0.884913980960846
1772811911579900700,1.386900634765625,-0.07704532146453857,2.2179737091064453,1.5134938955307007
1772811911589601500,1.3966015625,0.20303617417812347,0.983415961265564,1.96553373336792
1772811911599302400,1.406302490234375,0.5946004986763,-0.45333802700042725,2.2611923217773438
1772811911609003300,1.416003173828125,0.9849430918693542,-1.8002948760986328,2.4917938709259033
1772811911618704000,1.425703857421875,1.2103521823883057,-2.884274482727051,2.6570327281951904
1772811911628404700,1.43540478515625,1.1477385759353638,-3.3619706630706787,2.6203808784484863
1772811911638105600,1.445105712890625,0.7577013969421387,-3.1490843296051025,2.26241397857666
1772811911647806500,1.454806396484375,0.15233440697193146,-2.387030601501465,1.5791617631912231
1772811911657507300,1.46450732421875,-0.5217548608779907,-1.2273037433624268,0.7453314065933228
1772811911667208000,1.4742080078125,-1.1866811513900757,0.055512335151433945,0.007406735327094793
1772811911676908800,1.48390869140625,-1.7520365715026855,1.0631338357925415,-0.4235583543777466
1772811911686609700,1.493609619140625,-2.149709463119507,1.489211916923523,-0.4681515097618103
1772811911696310500,1.503310546875,-2.3925282955169678,1.352378249168396,-0.20914483070373535
1772811911706011400,1.513011474609375,-2.5088980197906494,0.9314924478530884,0.16592614352703094
1772811911715712000,1.5227119140625,-2.4426190853118896,0.3862956166267395,0.617660641670227
1772811911725412900,1.532412841796875,-2.359541654586792,0.06772962957620621,0.9963968396186829
1772811911735113700,1.54211376953125,-2.2880704402923584,-0.06177370250225067,1.2147809267044067
1772811911744814600,1.551814697265625,-2.125274896621704,-0.017486004158854485,1.429194450378418
1772811911754515500,1.561515380859375,-1.8586324453353882,0.14866921305656433,1.7187443971633911
1772811911764216300,1.57121630859375,-1.5064688920974731,0.37285658717155457,2.0641884803771973
1772811911773917200,1.580917236328125,-1.127427339553833,0.558254063129425,2.4313182830810547
1772811911783617800,1.59061767578125,-0.8317687511444092,0.6468294262886047,2.793255567550659
1772811911793318700,1.600318603515625,-0.63568115234375,0.6734020709991455,3.0992987155914307
1772811911803019500,1.61001953125,-0.5235874652862549,0.5808560252189636,3.3219590187072754
1772811911812720400,1.619720458984375,-0.4566977918148041,0.33253952860832214,3.4731481075286865
1772811911822421200,1.629421142578125,-0.3983601927757263,-0.06971494108438492,3.5455355644226074
1772811911832122000,1.6391220703125,-0.3782016634941101,-0.5727620720863342,3.5201847553253174
1772811911841823000,1.648822998046875,-0.41210466623306274,-1.0892482995986938,3.3983170986175537
1772811911851523600,1.658523681640625,-0.5043452382087708,-1.5098286867141724,3.1649668216705322
1772811911861224400,1.668224365234375,-0.6527853608131409,-1.7670027017593384,2.8161630630493164
1772811911870925300,1.67792529296875,-0.8006146550178528,-1.840001106262207,2.3800055980682373
1772811911880626200,1.687626220703125,-0.9264528155326843,-1.7511202096939087,1.9035309553146362
1772811911890327000,1.6973271484375,-1.0489312410354614,-1.479590892791748,1.4270564317703247
1772811911900027600,1.707027587890625,-1.1561379432678223,-1.10635244846344,0.996702253818512
1772811911909728500,1.716728515625,-1.229136347770691,-0.7208967804908752,0.6604211926460266
1772811911919429400,1.726429443359375,-1.254487156867981,-0.35987570881843567,0.43745553493499756
1772811911929130200,1.736130126953125,-1.2773946523666382,-0.11369720846414566,0.3183369040489197
1772811911938831000,1.7458310546875,-1.3338996171951294,-0.038560837507247925,0.2920697331428528
1772811911948531700,1.75553173828125,-1.3729948997497559,-0.10056361556053162,0.3320813775062561
1772811911958232600,1.765232666015625,-1.3656646013259888,-0.2603047490119934,0.3849211633205414
1772811911967933400,1.774933349609375,-1.3210713863372803,-0.44722938537597656,0.41118836402893066
1772811911977634300,1.78463427734375,-1.2373830080032349,-0.5877282619476318,0.3846157491207123
1772811911987335200,1.794335205078125,-1.1216241121292114,-0.6472876071929932,0.30917394161224365
1772811911997035800,1.804035888671875,-0.9783763289451599,-0.6359865665435791,0.20838125050067902
1772811912006736600,1.813736572265625,-0.8149699568748474,-0.5461894869804382,0.11919499188661575
1772811912016437500,1.8234375,-0.6436223983764648,-0.3723984360694885,0.055970486253499985
1772811912026138400,1.833138427734375,-0.4756345748901367,-0.14637847244739532,0.02237292192876339
1772811912035839200,1.842839111328125,-0.3158934414386749,0.10224349051713943,0.019929463043808937
1772811912045540000,1.8525400390625,-0.16928590834140778,0.3197113573551178,0.05108356848359108
1772811912055240700,1.86224072265625,-0.06604975461959839,0.41500625014305115,0.12438733875751495
1772811912064941600,1.871941650390625,-0.02237292192876339,0.36888596415519714,0.2548069655895233
1772811912074642400,1.881642333984375,-0.012293653562664986,0.21922409534454346,0.43317949771881104
1772811912084343300,1.89134326171875,-0.026343543082475662,0.02893971838057041,0.6326268315315247
1772811912094044200,1.901044189453125,-0.05810851231217384,-0.14882193505764008,0.821384072303772
1772811912103745000,1.9107451171875,-0.059024810791015625,-0.22731806337833405,0.978681743144989
1772811912113446000,1.92044580078125,0.013668099418282509,-0.1781434416770935,1.1032981872558594
1772811912123146500,1.930146484375,0.13767364621162415,-0.11217004805803299,1.1472804546356201
1772811912132847400,1.939847412109375,0.26015204191207886,-0.27893611788749695,1.005865216255188
1772811912142548200,1.94954833984375,0.4675406217575073,-0.7050142884254456,0.6066650748252869
1772811912152249000,1.9592490234375,0.7528144717216492,-1.3464223146438599,0.00007635809743078426
1772811912161950000,1.968949951171875,0.9763910174369812,-2.1206934452056885,-0.6446914076805115
1772811912171650600,1.978650634765625,1.1782817840576172,-3.060508966445923,-1.304730772972107
1772811912181351400,1.988351318359375,1.4418699741363525,-4.038503646850586,-2.130009174346924
1772811912191052300,1.99805224609375,1.5655701160430908,-4.64723014831543,-3.3496005535125732
1772811912200753200,2.007753173828125,1.500207543373108,-4.594084739685059,-4.859658241271973
1772811912210454000,2.0174541015625,1.4201842546463013,-3.01408314704895,-6.253040790557861
1772811912220154600,2.027154541015625,1.3667335510253906,0.16302454471588135,-6.939042091369629
1772811912229855500,2.03685546875,1.4302635192871094,3.1596217155456543,-6.609175205230713
1772811912239556400,2.046556396484375,1.6116904020309448,4.511159896850586,-5.443339824676514
1772811912249257200,2.05625732421875,1.9959243535995483,3.717341184616089,-3.7888123989105225
1772811912258958000,2.0659580078125,2.5395939350128174,1.426598310470581,-2.018220901489258
1772811912268658700,2.07565869140625,3.1015894412994385,-1.0513746738433838,-0.47181668877601624
1772811912278359600,2.085359619140625,3.6217408180236816,-2.689103126525879,0.7037925720214844
1772811912288060400,2.095060302734375,3.87158465385437,-3.2324674129486084,1.4637084007263184
1772811912297761300,2.10476123046875,3.689546823501587,-2.7908120155334473,1.6521601676940918
1772811912307462100,2.114462158203125,3.2109344005584717,-1.7517311573028564,1.2132538557052612
1772811912317162800,2.124162841796875,2.589073896408081,-0.5718457698822021,0.3271944522857666
1772811912326863600,2.133863525390625,1.9537746906280518,0.46204283833503723,-0.6871465444564819
1772811912336564500,2.143564453125,1.3361903429031372,1.2137119770050049,-1.6095523834228516
1772811912346265300,2.153265380859375,0.8084031939506531,1.6248239278793335,-2.3141849040985107
1772811912355966200,2.16296630859375,0.4379136860370636,1.750662088394165,-2.7191882133483887
1772811912365667000,2.1726669921875,0.27511823177337646,1.6043599843978882,-2.7384305000305176
1772811912375368000,2.182367919921875,0.27511823177337646,1.2182934284210205,-2.3465607166290283
1772811912385068500,2.192068603515625,0.39881834387779236,0.7274636030197144,-1.638873815536499
1772811912394769400,2.201769287109375,0.5863538384437561,0.21097742021083832,-0.7882446646690369
1772811912404470300,2.21147021484375,0.7964913249015808,-0.20196716487407684,0.07368556410074234
1772811912414171100,2.221171142578125,1.0044907331466675,-0.4093557596206665,0.8424589037895203
1772811912423872000,2.2308720703125,1.158123254776001,-0.48479756712913513,1.4096468687057495
1772811912433572900,2.24057275390625,1.2445605993270874,-0.5419133901596069,1.7187443971633911
1772811912443273500,2.2502734375,1.2396737337112427,-0.5672643184661865,1.7636430263519287
1772811912452974300,2.259974365234375,1.1407135725021362,-0.5724566578865051,1.5657228231430054
1772811912462675200,2.26967529296875,1.021289587020874,-0.5135082006454468,1.1848485469818115
1772811912472376000,2.2793759765625,0.917747974395752,-0.3574322462081909,0.7129555344581604
1772811912482077000,2.289076904296875,0.8395572900772095,-0.12835796177387238,0.23067781329154968
1772811912491777500,2.298777587890625,0.7882446646690369,0.1712712198495865,-0.20517420768737793
1772811912501478400,2.308478515625,0.7641154527664185,0.4791470468044281,-0.5619192123413086
1772811912511179300,2.31817919921875,0.7534253597259521,0.7540361881256104,-0.7745001912117004
1772811912520880000,2.327880126953125,0.743346095085144,0.9577596187591553,-0.8380300998687744
1772811912530581000,2.3375810546875,0.7241038084030151,1.0719913244247437,-0.7766382098197937
1772811912540281600,2.347281494140625,0.6932551860809326,1.0710750818252563,-0.6269763112068176
1772811912549982500,2.356982421875,0.6562978625297546,0.9461531639099121,-0.4067595899105072
1772811912559683300,2.366683349609375,0.585437536239624,0.7372374534606934,-0.14286600053310394
1772811912569384200,2.37638427734375,0.4794524908065796,0.5258781909942627,0.11094831675291061
1772811912579085000,2.3860849609375,0.427528977394104,0.43913543224334717,0.2972620725631714
1772811912588785700,2.39578564453125,0.478841632604599,0.5219075679779053,0.39255696535110474
1772811912598486500,2.405486572265625,0.6129264235496521,0.6486620306968689,0.4050796926021576
1772811912617888300,2.42488818359375,1.0151809453964233,0.8310051560401917,0.19708025455474854
1772811912627589000,2.434589111328125,1.1963022947311401,0.5380955338478088,-0.004505127668380737
1772811912637289700,2.444289794921875,1.3120611906051636,-0.1115591824054718,-0.32673630118370056
1772811912646990600,2.453990478515625,1.342604398727417,-0.8861356973648071,-0.7069995999336243
1772811912656691500,2.46369140625,1.3083959817886353,-1.3977349996566772,-0.9858593940734863
1772811912666392300,2.473392333984375,1.2650245428085327,-1.5223513841629028,-0.9858593940734863
1772811912676093200,2.48309326171875,1.1813361644744873,-1.4294999837875366,-0.7091376781463623
1772811912685793800,2.492793701171875,0.9858593940734863,-1.097800374031067,-0.2876409590244293
1772811912695494700,2.50249462890625,0.603458046913147,-0.3568213880062103,0.14882193505764008
1772811912705195500,2.512195556640625,0.17707443237304688,0.6294198036193848,0.5837576389312744
1772811912714896400,2.521896484375,-0.06879864633083344,1.5261693000793457,1.078558087348938
1772811912724597200,2.53159716796875,-0.0550541877746582,1.7317253351211548,1.6500221490859985
1772811912734297900,2.5412978515625,0.14256057143211365,1.1306343078613281,2.214766502380371
1772811912743998700,2.550998779296875,0.4012618064880371,0.020082179456949234,2.6741368770599365
1772811912753699600,2.560699462890625,0.6834813356399536,-1.1072688102722168,2.8809146881103516
1772811912763400400,2.570400390625,0.9861648082733154,-1.8002948760986328,2.7520222663879395
1772811912773101300,2.580101318359375,1.279685378074646,-1.8839833736419678,2.3445754051208496
1772811912782802200,2.58980224609375,1.5347213745117188,-1.6142865419387817,1.7132465839385986
1772811912792502800,2.599502685546875,1.6184098720550537,-0.9460004568099976,0.9918153285980225
1772811912802203600,2.60920361328125,1.4659991264343262,-0.11827868968248367,0.49915286898612976
1772811912811904500,2.618904541015625,1.2103521823883057,0.5426769852638245,0.09995274990797043
1772811912821605400,2.62860546875,0.8893427848815918,0.9849430918693542,-0.3148244321346283
1772811912831306200,2.63830615234375,0.640415370464325,1.1342995166778564,-0.6340012550354004
1772811912841007000,2.648007080078125,0.5002219080924988,0.8957568407058716,-0.8187878727912903
1772811912850707700,2.657707763671875,0.5099957585334778,0.4470766484737396,-0.8221476078033447
1772811912860408600,2.66740869140625,0.6037634611129761,0.10865757614374161,-0.5802451968193054
1772811912870109400,2.677109375,0.6990583539009094,-0.002825249684974551,-0.1443931609392166
1772811912879810300,2.686810302734375,0.7830522656440735,0.08910989761352539,0.40141451358795166
1772811912889511200,2.69651123046875,0.8737657070159912,0.24518585205078125,0.9667698740959167
1772811912899211800,2.706211669921875,0.9800561666488647,0.308104932308197,1.4530181884765625
1772811912908912600,2.71591259765625,1.0793217420578003,0.17799071967601776,1.8033491373062134
1772811912918613500,2.725613525390625,1.1373538970947266,-0.0807105079293251,1.9927172660827637
1772811912928314400,2.735314453125,1.1758383512496948,-0.3879754841327667,2.002490997314453
1772811912938015200,2.74501513671875,1.187444806098938,-0.6598103046417236,1.8296164274215698
1772811912947716000,2.754716064453125,1.1575124263763428,-0.8051961660385132,1.459737777709961
1772811912957416700,2.764416748046875,1.1116975545883179,-0.6986002326011658,0.9316451549530029
1772811912967117600,2.77411767578125,1.0503056049346924,-0.42798712849617004,0.3009272515773773
1772811912976818400,2.783818359375,0.9073632955551147,-0.14668390154838562,-0.320933073759079
1772811912986519300,2.793519287109375,0.7091376781463623,0.0985783040523529,-0.8154281377792358
1772811912996220200,2.80322021484375,0.5161044001579285,0.27695080637931824,-1.138880968093872
1772811913005920800,2.812920654296875,0.40309441089630127,0.41989317536354065,-1.232037901878357
1772811913015621600,2.82262158203125,0.36919140815734863,0.5542834401130676,-1.083903193473816
1772811913025322500,2.832322509765625,0.3154352903366089,0.5194641351699829,-0.8502474427223206
1772811913035023400,2.8420234375,0.2473238706588745,0.35758498311042786,-0.5771908760070801
1772811913044724200,2.85172412109375,0.23327398300170898,0.21952952444553375,-0.29619306325912476
1772811913054424800,2.8614248046875,0.2690095901489258,0.17829616367816925,-0.10315979272127151
1772811913064125700,2.871125732421875,0.3395644724369049,0.2482401728630066,-0.023441936820745468
1772811913073826600,2.88082666015625,0.4330267608165741,0.4165334105491638,-0.015806125476956367
1772811913083527400,2.89052734375,0.5304597020149231,0.6358338594436646,-0.03138317912817001
1772811913093228300,2.900228271484375,0.6162862181663513,0.8548288941383362,-0.04176788032054901
1772811913102929000,2.909928955078125,0.696309506893158,1.0420589447021484,-0.015500693581998348
1772811913112629800,2.919629638671875,0.7638100385665894,1.1718677282333374,0.055970486253499985
1772811913122330600,2.92933056640625,0.8093194961547852,1.2311216592788696,0.1784488707780838
1772811913132031500,2.939031494140625,0.8084031939506531,1.2436443567276,0.32016950845718384
1772811913141732400,2.948732421875,0.7861065864562988,1.2839614152908325,0.44814568758010864
1772811913151433000,2.958432861328125,0.7604503035545349,1.324278473854065,0.5544361472129822
1772811913161133800,2.9681337890625,0.6911171674728394,1.3154209852218628,0.6543125510215759
1772811913170834700,2.977834716796875,0.5723039507865906,1.2118793725967407,0.7422770857810974
1772811913180535600,2.98753564453125,0.4733438491821289,1.1248310804367065,0.8189405798912048
1772811913190236400,2.997236328125,0.43088874220848083,1.1477385759353638,0.857730507850647
1772811913199937000,3.00693701171875,0.3853793144226074,1.194469690322876,0.8375719785690308
1772811913209638000,3.016637939453125,0.376827210187912,1.1807252168655396,0.7624356150627136
1772811913219338800,3.0263388671875,0.4528798758983612,0.9443206191062927,0.6103302836418152
1772811913229039600,3.03603955078125,0.6037634611129761,0.40431612730026245,0.331165075302124
1772811913238740500,3.045740478515625,0.7476221323013306,-0.3882809281349182,0.003741546766832471
1772811913248441000,3.055441162109375,0.8310051560401917,-1.2532655000686646,-0.13125957548618317
1772811913258142000,3.065141845703125,0.8951459527015686,-1.7150791883468628,0.054443322122097015
1772811913267842800,3.0748427734375,0.8239802122116089,-1.7434844970703125,0.3082576394081116
1772811913277543700,3.084543701171875,0.7360156774520874,-1.404149055480957,0.2450331300497055
1772811913287244500,3.09424462890625,0.6123155951499939,-0.7205913662910461,-0.34231334924697876
1772811913296945200,3.103945068359375,0.31787875294685364,0.039018988609313965,-1.2665517330169678
1772811913306646000,3.11364599609375,-0.06818778067827225,0.9321032762527466,-2.0649521350860596
1772811913316347000,3.123346923828125,-0.3061196208000183,1.8856632709503174,-2.418948173522949
1772811913326047700,3.1330478515625,-0.31009024381637573,2.3926808834075928,-2.2796709537506104
1772811913335748400,3.142748291015625,-0.09262236952781677,2.2353832721710205,-1.761963129043579
1772811913345449200,3.15244921875,0.28550294041633606,1.5521310567855835,-1.01304292678833
1772811913355150000,3.162150146484375,0.6700422763824463,0.5493965148925781,-0.2583194375038147
1772811913364851000,3.171850830078125,0.9217185974121094,-0.4444804787635803,0.3314704895019531
1772811913374551800,3.1815517578125,1.0289254188537598,-1.1265109777450562,0.756632387638092
1772811913384252400,3.19125244140625,1.0145699977874756,-1.3619993925094604,1.0580941438674927
1772811913393953300,3.200953369140625,0.918053388595581,-1.117653489112854,1.1946223974227905
1772811913403654100,3.210654052734375,0.7561742663383484,-0.5773435831069946,1.1335359811782837
1772811913413355000,3.22035498046875,0.5524508357048035,0.028328854590654373,0.9432515501976013
1772811913423056000,3.230055908203125,0.33315038681030273,0.5228238701820374,0.7004328370094299
1772811913432756500,3.239756591796875,0.13248129189014435,0.8368083834648132,0.4560869038105011
1772811913442457300,3.249457275390625,-0.008933897130191326,0.9574542045593262,0.2606101930141449
1772811913452158200,3.259158203125,-0.06666062027215958,0.8875101804733276,0.14424043893814087
1772811913461859000,3.268859130859375,-0.06146826967597008,0.6465240120887756,0.1164461001753807
1772811913471560000,3.278559814453125,-0.05169443041086197,0.3252091407775879,0.16103923320770264
1772811913481260500,3.288260498046875,-0.06635518372058868,0.021914774551987648,0.2456440031528473
1772811913490961400,3.29796142578125,-0.07826705276966095,-0.16928590834140778,0.3329976499080658
1772811913500662300,3.307662353515625,-0.07460185885429382,-0.24411684274673462,0.42218393087387085
1772811913510363100,3.317363037109375,-0.0550541877746582,-0.2859610617160797,0.5077049732208252
1772811913520064000,3.32706396484375,-0.013820815831422806,-0.3018435537815094,0.5761218667030334
1772811913529764600,3.3367646484375,0.020082179456949234,-0.29359689354896545,0.6112465858459473
1772811913539465500,3.346465576171875,0.0322994738817215,-0.25786128640174866,0.5984184145927429
1772811913549166300,3.356166259765625,0.03627009689807892,-0.1787542998790741,0.5199222564697266
1772811913558867200,3.3658671875,0.05306887626647949,-0.06940951198339462,0.3882809281349182
1772811913568568000,3.375568115234375,0.07994692772626877,0.020387612283229828,0.224569171667099
1772811913578268700,3.3852685546875,0.104076087474823,0.05581776797771454,0.04589121788740158
1772811913587969500,3.394969482421875,0.11782054603099823,0.023441936820745468,-0.12698352336883545
1772811913597670400,3.40467041015625,0.11659881472587585,-0.046807512640953064,-0.2928332984447479
1772811913607371300,3.414371337890625,0.09796743839979172,-0.11888955533504486,-0.4519635736942291
1772811913617072000,3.424072021484375,0.08208495378494263,-0.17753258347511292,-0.5869646668434143
1772811913626772700,3.433772705078125,0.08788817375898361,-0.23709189891815186,-0.6853139400482178
1772811913636473600,3.4434736328125,0.0988837331533432,-0.30978479981422424,-0.73204505443573
1772811913646174500,3.453174560546875,0.09124792367219925,-0.42218393087387085,-0.7131083011627197
1772811913655875300,3.462875244140625,0.09216422587633133,-0.47929978370666504,-0.6349175572395325
1772811913665576200,3.472576171875,0.10865757614374161,-0.4554760456085205,-0.5533671379089355
1772811913675276800,3.48227685546875,0.11018473654985428,-0.41790786385536194,-0.4938078224658966
1772811913684977700,3.491977783203125,0.07414371520280838,-0.38125598430633545,-0.44066259264945984
1772811913694678500,3.501678466796875,-0.0077121676877141,-0.3580431044101715,-0.39362600445747375
1772811913704379400,3.51137939453125,-0.07490729540586472,-0.2713003158569336,-0.3563632369041443
1772811913714080300,3.521080322265625,-0.09842558950185776,-0.09414953738451004,-0.33162322640419006
1772811913723780900,3.53078076171875,-0.11094831675291061,0.06039925664663315,-0.3181841969490051
1772811913733481700,3.540481689453125,-0.11308634281158447,0.06681333482265472,-0.30779948830604553
1772811913743182600,3.5501826171875,-0.09689842909574509,-0.15157082676887512,-0.33712100982666016
1772811913752883500,3.559883544921875,0.007864884100854397,-0.4411207437515259,-0.4797579348087311
1772811913762584300,3.569584228515625,0.27542364597320557,-0.6683624386787415,-0.7631992101669312
1772811913772285000,3.579284912109375,0.6850084662437439,-0.775263786315918,-1.1672862768173218
1772811913781985800,3.58898583984375,0.9519563913345337,-0.8754456043243408,-1.6330705881118774
1772811913791686700,3.598686767578125,0.8334486484527588,-1.0470986366271973,-1.946138858795166
1772811913801387500,3.608387451171875,0.5451204776763916,-1.1420880556106567,-1.9397248029708862
1772811913811088400,3.61808837890625,0.3288743197917938,-1.0302997827529907,-1.7366122007369995
1772811913820789000,3.6277890625,0.11720968037843704,-1.0196096897125244,-1.4803544282913208
1772811913830489900,3.63748974609375,-0.01107192412018776,-1.1610249280929565,-1.1920262575149536
1772811913840190700,3.647190673828125,-0.09292780607938766,-1.1857649087905884,-0.9104176163673401
1772811913849891600,3.6568916015625,-0.12988512217998505,-1.1799616813659668,-0.5606974959373474
1772811913859592400,3.666592529296875,0.003283398225903511,-1.2602903842926025,0.046196650713682175
1772811913869293000,3.67629296875,0.3200167715549469,-1.5028036832809448,1.0199151039123535
1772811913878994000,3.685993896484375,0.6602684855461121,-1.950567603111267,2.2550837993621826
1772811913888694800,3.69569482421875,0.7592285871505737,-2.650007724761963,3.483532667160034
1772811913898395600,3.705395751953125,0.6156753301620483,-3.3946518898010254,4.383336544036865
1772811913908096500,3.715096435546875,0.34842199087142944,-3.658850908279419,4.74832820892334
1772811913917797000,3.724797119140625,0.023136503994464874,-3.22269344329834,4.576064586639404
1772811913927498000,3.734498046875,-0.32902705669403076,-2.343048334121704,3.9810822010040283
1772811913937198800,3.74419873046875,-0.628045380115509,-1.4856995344161987,3.150305986404419
1772811913946899700,3.753899658203125,-0.9414190053939819,-0.9945642352104187,2.2859323024749756
1772811913956600600,3.7636005859375,-1.2303580045700073,-0.6912698745727539,1.5196025371551514
1772811913966301200,3.77330126953125,-1.4942516088485718,-0.30459246039390564,0.9007964730262756
1772811913976002000,3.783001953125,-1.7969350814819336,0.021609341725707054,0.48876819014549255
1772811913985703000,3.792702880859375,-2.114279270172119,0.25037819147109985,0.32963791489601135
1772811913995403800,3.80240380859375,-2.320751667022705,0.46692976355552673,0.42829257249832153
1772811914005104600,3.812104736328125,-2.3836708068847656,0.7906880974769592,0.7389172911643982
1772811914014805200,3.82180517578125,-2.3363287448883057,1.0964258909225464,1.1585813760757446
1772811914024506000,3.831506103515625,-2.2101850509643555,1.2659409046173096,1.616119146347046
1772811914034207000,3.84120703125,-2.0034074783325195,1.1645373106002808,2.024787664413452
1772811914043907800,3.850907958984375,-1.7636430263519287,0.8398627042770386,2.3134212493896484
1772811914053608700,3.860608642578125,-1.550756573677063,0.40523242950439453,2.443840980529785
1772811914063309300,3.870309326171875,-1.3561961650848389,-0.05261072888970375,2.4050509929656982
1772811914073010200,3.88001025390625,-1.1301761865615845,-0.4139372408390045,2.198273181915283
1772811914082711000,3.8897109375,-0.8827759623527527,-0.6417897939682007,1.8027383089065552
1772811914092412000,3.899411865234375,-0.6509527564048767,-0.7166207432746887,1.2386046648025513
1772811914102112800,3.90911279296875,-0.48937904834747314,-0.6821069121360779,0.5474112033843994
1772811914111813400,3.9188134765625,-0.42707082629203796,-0.6023890376091003,-0.20731224119663239
1772811914121514200,3.92851416015625,-0.4405098557472229,-0.45333802700042725,-0.8936188220977783
1772811914131215000,3.938215087890625,-0.48388126492500305,-0.24411684274673462,-1.434844970703125
1772811914140916000,3.947916015625,-0.5281689763069153,0.057039499282836914,-1.7644065618515015
1772811914150616600,3.957616455078125,-0.5651262998580933,0.45074185729026794,-1.8731404542922974
1772811914160317400,3.9673173828125,-0.6155226230621338,0.8163444399833679,-1.8303799629211426
1772811914170018300,3.977018310546875,-0.6491202116012573,1.0414481163024902,-1.6798018217086792
1772811914179719200,3.98671923828125,-0.627129077911377,1.102534532546997,-1.4550034999847412
1772811914189419800,3.996419677734375,-0.5733729600906372,1.0445023775100708,-1.223791241645813
1772811914199120600,4.00612060546875,-0.5205331444740295,0.9189696907997131,-1.0325905084609985
1772811914208821500,4.015821533203125,-0.45394888520240784,0.8090140223503113,-0.9033926725387573
1772811914218522400,4.0255224609375,-0.367511510848999,0.7552579641342163,-0.8310051560401917
1772811914228223200,4.03522314453125,-0.2804632782936096,0.7619774341583252,-0.8114575147628784
1772811914237923800,4.044923828125,-0.20532692968845367,0.7961859107017517,-0.8123738169670105
1772811914247624700,4.054624755859375,-0.12377647310495377,0.824896514415741,-0.8016836643218994
1772811914257325600,4.06432568359375,-0.03275762498378754,0.8584941029548645,-0.7717512845993042
1772811914267026400,4.0740263671875,0.047265663743019104,0.9220240116119385,-0.7357102632522583
1772811914276727000,4.08372705078125,0.1190422773361206,1.0194569826126099,-0.6847030520439148
1772811914286428000,4.093427978515625,0.18776455521583557,1.0878738164901733,-0.6071232557296753
1772811914296128800,4.103128662109375,0.22044582664966583,1.074434757232666,-0.5044979453086853
1772811914305829600,4.11282958984375,0.2021198868751526,1.0008255243301392,-0.3902662396430969
1772811914315530200,4.1225302734375,0.16638429462909698,0.9421825408935547,-0.3001636862754822
1772811914325231000,4.132231201171875,0.1450040340423584,0.9446260333061218,-0.27603453397750854
1772811914334932000,4.141931884765625,0.1453094631433487,0.9687551856040955,-0.3139081299304962
1772811914344632800,4.1516328125,0.13736821711063385,0.9870811104774475,-0.3914879560470581
1772811914354333700,4.161333740234375,0.08575014024972916,0.9886083006858826,-0.5081631541252136
1772811914364034300,4.171034423828125,0.09033162891864777,0.9931897521018982,-0.6624065041542053
1772811914373735200,4.180735107421875,0.2726747691631317,1.1184170246124268,-0.76991868019104
1772811914383436000,4.19043603515625,0.583910346031189,1.1709513664245605,-0.8172607421875
1772811914393137000,4.200136962890625,0.8410844206809998,0.964784562587738,-0.8954514265060425
1772811914402837800,4.209837646484375,0.862159252166748,0.5057196617126465,-1.0570251941680908
1772811914412538400,4.219538330078125,0.5216021537780762,-0.17142392694950104,-1.3505456447601318
1772811914422239200,4.2292392578125,0.004199695307761431,-0.6836340427398682,-1.658116102218628
1772811914431940000,4.238940185546875,-0.24625486135482788,-0.8186351656913757,-1.8914663791656494
1772811914441641000,4.248640869140625,0.02649625949561596,-0.7700713872909546,-2.1956770420074463
1772811914451341800,4.258341796875,0.5799397230148315,-0.7599921226501465,-2.6733734607696533
1772811914461042400,4.26804248046875,0.9137773513793945,-0.8030580878257751,-3.150153398513794
1772811914470743300,4.277743408203125,0.9183588624000549,-0.3632354736328125,-3.13885235786438
1772811914480444200,4.287444091796875,0.8032108545303345,0.43027788400650024,-2.513021230697632
1772811914490145000,4.29714501953125,0.7909935116767883,0.723798394203186,-1.5221986770629883
1772811914499846000,4.306845947265625,0.9858593940734863,0.30627232789993286,-0.48647743463516235
1772811914509546500,4.31654638671875,1.281212568283081,-0.4347066581249237,0.39805474877357483
1772811914519247400,4.326247314453125,1.4944043159484863,-1.2163081169128418,1.0828341245651245
1772811914528948200,4.3359482421875,1.5356377363204956,-1.8968114852905273,1.5825215578079224
1772811914538649000,4.345649169921875,1.4314852952957153,-2.172006130218506,1.958508849143982
1772811914548350000,4.355349853515625,1.251585602760315,-1.950262188911438,2.169257164001465
1772811914558050600,4.365050537109375,1.0231221914291382,-1.4298053979873657,2.139324903488159
1772811914567751400,4.37475146484375,0.7638100385665894,-0.8565087914466858,1.858327031135559
1772811914577452300,4.384452392578125,0.4883100390434265,-0.29848378896713257,1.3619993925094604
1772811914587153200,4.394153076171875,0.20761767029762268,0.2271653413772583,0.7184533476829529
1772811914596854000,4.40385400390625,-0.060551971197128296,0.6889790892601013,0.0012980876490473747
1772811914606554600,4.4135546875,-0.2972620725631714,1.037782907485962,-0.6969203352928162
1772811914616255500,4.42325537109375,-0.45272716879844666,1.2372303009033203,-1.2674680948257446
1772811914625956400,4.432956298828125,-0.46036297082901,1.2558616399765015,-1.592753529548645
1772811914635657200,4.4426572265625,-0.3534616231918335,1.092455267906189,-1.6440662145614624
1772811914645357800,4.45235791015625,-0.2401462197303772,0.7980184555053711,-1.4482840299606323
1772811914655058700,4.46205859375,-0.1430187225341797,0.4290561378002167,-1.0335068702697754
1772811914664759600,4.471759521484375,-0.05566505342721939,0.11720968037843704,-0.47090038657188416
1772811914674460400,4.48146044921875,0.0023671009112149477,-0.06788235157728195,0.09567669779062271
1772811914684161000,4.4911611328125,0.0475710928440094,-0.1989128440618515,0.5437459945678711
1772811914693862000,4.50086181640625,0.12087486684322357,-0.28932082653045654,0.8323796391487122
1772811914703562800,4.510562744140625,0.19723296165466309,-0.3516290485858917,0.9533308744430542
1772811914713263600,4.520263671875,0.2528216540813446,-0.4105774760246277,0.9179006814956665
1772811914722964200,4.529964111328125,0.28703010082244873,-0.45303258299827576,0.7541889548301697
1772811914732665000,4.5396650390625,0.3145190179347992,-0.46402814984321594,0.49273881316185
1772811914742366000,4.549365966796875,0.31757333874702454,-0.4203513264656067,0.15523600578308105
1772811914752066800,4.55906689453125,0.303523451089859,-0.32383468747138977,-0.2277761995792389
1772811914761767400,4.568767333984375,0.29130613803863525,-0.19280420243740082,-0.5946004986763
1772811914771468300,4.57846826171875,0.2693150043487549,-0.046196650713682175,-0.8749874234199524
1772811914781169200,4.588169189453125,0.2479347437620163,0.0836121141910553,-1.0383937358856201
1772811914790870000,4.5978701171875,0.22563818097114563,0.17310380935668945,-1.1071161031723022
1772811914800571000,4.60757080078125,0.19204062223434448,0.2176969349384308,-1.1074215173721313
1772811914810271500,4.617271484375,0.1553887277841568,0.2528216540813446,-1.0704641342163086
1772811914819972400,4.626972412109375,0.13187043368816376,0.3093266487121582,-1.0313688516616821
1772811914829673200,4.636673095703125,0.12240202724933624,0.39484772086143494,-1.0075451135635376
1772811914839374000,4.6463740234375,0.10041090101003647,0.47761988639831543,-0.9974658489227295
1772811914849075000,4.656074951171875,0.04909825697541237,0.5603920817375183,-0.9699769020080566
1772811914858775600,4.665775634765625,-0.008628465235233307,0.6370556354522705,-0.9006437659263611
1772811914868476400,4.675476318359375,-0.05871937796473503,0.7271581888198853,-0.7928261160850525
1772811914878177300,4.68517724609375,-0.10606139898300171,0.834059476852417,-0.6617956161499023
1772811914887878100,4.694878173828125,-0.17081306874752045,0.8969785571098328,-0.48036879301071167
1772811914897579000,4.7045791015625,-0.21846051514148712,0.8838449716567993,-0.21433718502521515
1772811914907279600,4.714279541015625,-0.19280420243740082,0.6895899772644043,0.07368556410074234
1772811914916980500,4.72398046875,-0.08681915700435638,0.19723296165466309,0.23831361532211304
1772811914926681300,4.733681396484375,0.10651954263448715,-0.5687914490699768,0.2300669401884079
1772811914936382200,4.74338232421875,0.32826346158981323,-1.4579051733016968,0.003741546766832471
1772811914946082800,4.753082763671875,0.408592164516449,-2.1032838821411133,-0.34292420744895935
1772811914955783700,4.76278369140625,0.16974404454231262,-2.096564292907715,-0.5585594773292542
1772811914965484500,4.772484619140625,-0.31497713923454285,-1.6765947341918945,-0.6804270148277283
1772811914975185400,4.782185302734375,-0.8088613152503967,-1.2239439487457275,-0.871016800403595
1772811914984886000,4.791885986328125,-1.173547625541687,-0.7709876894950867,-1.1431571245193481
1772811914994587000,4.8015869140625,-1.4579051733016968,-0.1781434416770935,-1.4159082174301147
1772811915004287700,4.811287841796875,-1.6875903606414795,0.5576431751251221,-1.517006278038025
1772811915013988600,4.820988525390625,-1.754480004310608,1.1953860521316528,-1.1587340831756592
1772811915023689200,4.830689208984375,-1.5562543869018555,1.3975822925567627,-0.2216675579547882
1772811915033390000,4.84039013671875,-1.2599849700927734,1.064355492591858,1.0486257076263428
1772811915043091000,4.850091064453125,-1.0162498950958252,0.4217257797718048,2.343048334121704
1772811915052791800,4.859791748046875,-0.7709876894950867,-0.25816673040390015,3.4334418773651123
1772811915062492400,4.869492431640625,-0.5373319387435913,-0.7044034600257874,4.092259407043457
1772811915072193300,4.879193359375,-0.4658607542514801,-0.8360447883605957,4.040030479431152
1772811915081894100,4.88889404296875,-0.45242172479629517,-0.7242565751075745,3.206200122833252
1772811915091595000,4.898594970703125,-0.4182133078575134,-0.27985242009162903,1.9081125259399414
1772811915101295900,4.9082958984375,-0.28351762890815735,0.2848920524120331,0.5138136148452759
1772811915110996500,4.91799658203125,-0.25205808877944946,0.7271581888198853,-0.6367501616477966
1772811915120697300,4.927697265625,-0.23831361532211304,0.9198859930038452,-1.2189042568206787
1772811915130398200,4.937398193359375,0.10651954263448715,0.9522618055343628,-1.151403784751892
1772811915140099000,4.94709912109375,0.5790234804153442,0.7155517339706421,-0.7045561671257019
1772811915149800000,4.956800048828125,0.7943533062934875,0.08208495378494263,-0.10835213959217072
1772811915159500500,4.96650048828125,0.6233111619949341,-0.5755109786987305,0.5040398240089417
1772811915169201400,4.976201416015625,0.22655446827411652,-0.8244383931159973,0.9670752882957458
1772811915178902300,4.98590234375,-0.13507747650146484,-0.616744339466095,1.1579705476760864
1772811915188603100,4.99560302734375,-0.33574655652046204,-0.19982914626598358,1.0803906917572021
1772811915198304000,5.005303955078125,-0.409050315618515,0.21403174102306366,0.8149699568748474
1772811915208004600,5.015004638671875,-0.37545275688171387,0.4901426136493683,0.4667770564556122
1772811915217705500,5.02470556640625,-0.2199876755475998,0.6245328783988953,0.1170569658279419
1772811915227406300,5.03440625,0.023136503994464874,0.5955168008804321,-0.17340923845767975
1772811915237107000,5.04410693359375,0.28703010082244873,0.3514763116836548,-0.42050403356552124
1772811915246807800,5.053807861328125,0.520991325378418,0.03962985426187515,-0.6483566164970398
1772811915256508700,5.0635087890625,0.6788998246192932,-0.18639011681079865,-0.8169552683830261
1772811915266209500,5.07320947265625,0.7409026026725769,-0.38522660732269287,-0.8957568407058716
1772811915275910100,5.08291015625,0.7170788645744324,-0.5049561262130737,-0.8676570653915405
1772811915285611000,5.092611083984375,0.6254491806030273,-0.543440580368042,-0.7531198859214783
1772811915295312000,5.102311767578125,0.4846448302268982,-0.5565741658210754,-0.5894081592559814
1772811915305012700,5.1120126953125,0.3181841969490051,-0.5651262998580933,-0.3960694372653961
1772811915314713600,5.121713623046875,0.1807396113872528,-0.6081922650337219,-0.2118937224149704
1772811915324414200,5.131414306640625,0.09094249457120895,-0.6989056468009949,-0.07383827865123749
1772811915334115000,5.141114990234375,0.0295505840331316,-0.7679333686828613,0.0031306820455938578
1772811915343816000,5.15081591796875,0.02588539570569992,-0.7386118769645691,0.006490438245236874
1772811915353516800,5.160516845703125,0.08269581943750381,-0.5666534304618835,-0.08055779337882996
1772811915363217700,5.1702177734375,0.17310380935668945,-0.2774089574813843,-0.24610215425491333
1772811915372918300,5.179918212890625,0.26687154173851013,0.01611155830323696,-0.4382191300392151
1772811915382619100,5.189619140625,0.35208719968795776,0.24426954984664917,-0.5912407636642456
1772811915392320000,5.199320068359375,0.44524407386779785,0.38415759801864624,-0.6761509776115417
1772811915402020900,5.209020751953125,0.549091100692749,0.4534907341003418,-0.6978366374969482
1772811915411721700,5.2187216796875,0.6300306916236877,0.4522690176963806,-0.639804482460022
1772811915421422300,5.22842236328125,0.6523272395133972,0.40492698550224304,-0.478841632604599
1772811915431123200,5.238123291015625,0.6016254425048828,0.3310123383998871,-0.2317468225955963
1772811915440824000,5.247823974609375,0.5060251355171204,0.25007277727127075,0.05047270283102989
1772811915450524700,5.257524658203125,0.37896522879600525,0.17218750715255737,0.31986406445503235
1772811915460225500,5.2672255859375,0.24671301245689392,0.17524182796478271,0.5397753715515137
1772811915469926400,5.276926513671875,0.14744748175144196,0.25526511669158936,0.672638475894928
1772811915479627300,5.286627197265625,0.03474293276667595,0.34658941626548767,0.7050142884254456
1772811915489327900,5.296327880859375,-0.1323285847902298,0.36858054995536804,0.6417897939682007
1772811915499028700,5.30602880859375,-0.27893611788749695,0.32826346158981323,0.4902953505516052
1772811915508729600,5.3157294921875,-0.3363574147224426,0.3041343092918396,0.3418551981449127
1772811915518430500,5.325430419921875,-0.26732969284057617,0.2592357397079468,0.3070359230041504
1772811915528131000,5.335131103515625,-0.00923932995647192,0.018555017188191414,0.34002259373664856
1772811915537832000,5.34483203125,0.2940550446510315,-0.45791950821876526,0.2975675165653229
1772811915547532800,5.35453271484375,0.3365101218223572,-1.1946223974227905,0.11552979797124863
1772811915557233700,5.364233642578125,0.05581776797771454,-1.7685298919677734,-0.15202897787094116
1772811915566934500,5.3739345703125,-0.29848378896713257,-1.3949860334396362,-0.3658316433429718
1772811915576635100,5.38363525390625,-0.4960985481739044,-0.44875654578208923,-0.6077340841293335
1772811915586336000,5.3933359375,-0.4001927971839905,0.20486877858638763,-0.9467640519142151
1772811915596036900,5.403036865234375,-0.11247547715902328,0.4467712342739105,-1.195996880531311
1772811915605737700,5.41273779296875,-0.03214675933122635,0.4128682315349579,-1.2179880142211914
1772811915615438600,5.4224384765625,-0.1726456582546234,0.5225184559822083,-0.9727258086204529
1772811915625139200,5.43213916015625,-0.2502254843711853,0.7836631536483765,-0.5353466272354126
1772811915634840000,5.441840087890625,-0.13568833470344543,0.7989347577095032,-0.10529781877994537
1772811915644541000,5.451541015625,0.13309216499328613,0.4950295388698578,0.24411684274673462
1772811915654241500,5.461241455078125,0.4431060254573822,0.0035888305865228176,0.5272526741027832
1772811915663942400,5.4709423828125,0.6898953914642334,-0.6033053398132324,0.7535780668258667
1772811915673643300,5.480643310546875,0.8077923059463501,-1.234939455986023,0.8989638686180115
1772811915683344100,5.49034423828125,0.7748056054115295,-1.6390265226364136,0.9469167590141296
1772811915693044700,5.500044677734375,0.6462185978889465,-1.7095814943313599,0.8711695075035095
1772811915702745600,5.50974560546875,0.4635699987411499,-1.4838669300079346,0.663475513458252
1772811915712446500,5.519446533203125,0.2323576956987381,-0.9902881383895874,0.42310020327568054
1772811915722147300,5.529147216796875,0.037491824477910995,-0.312228262424469,0.2722166180610657
1772811915731848000,5.538847900390625,-0.07368556410074234,0.35239261388778687,0.2651916742324829
1772811915741548800,5.548548828125,-0.10819942504167557,0.7900772094726562,0.38217228651046753
1772811915751249700,5.558249755859375,-0.09170607477426529,0.927521824836731,0.5852848291397095
1772811915760950500,5.567950439453125,-0.046807512640953064,0.8539125919342041,0.792978823184967
1772811915770651400,5.5776513671875,0.0029779658652842045,0.6651554107666016,0.9350048899650574
1772811915780352000,5.58735205078125,0.050930850207805634,0.48036879301071167,0.969518780708313
1772811915790052900,5.597052978515625,0.09918916970491409,0.354225218296051,0.8812488317489624
1772811915799753700,5.606753662109375,0.13309216499328613,0.32704174518585205,0.7028762698173523
1772811915809454600,5.61645458984375,0.1764635592699051,0.40462157130241394,0.5205331444740295
1772811915819155200,5.6261552734375,0.24976733326911926,0.519769549369812,0.40660688281059265
1772811915828856000,5.63585595703125,0.3346775472164154,0.5723039507865906,0.38064512610435486
1772811915838557000,5.645556884765625,0.40981391072273254,0.5212967395782471,0.41638070344924927
1772811915848257800,5.6552578125,0.47609272599220276,0.4070650041103363,0.47838348150253296
1772811915857958400,5.66495849609375,0.5093848705291748,0.22533275187015533,0.5296961069107056
1772811915867659300,5.6746591796875,0.4797579348087311,-0.019624030217528343,0.5361102223396301
1772811915877360000,5.684360107421875,0.40462157130241394,-0.3268890082836151,0.48388126492500305
1772811915887061000,5.69406103515625,0.3099375069141388,-0.6335431337356567,0.39683303236961365
1772811915896761600,5.70376171875,0.22563818097114563,-0.7865647673606873,0.28260132670402527
1772811915906462500,5.71346240234375,0.15752676129341125,-0.6943241953849792,0.12957969307899475
1772811915916163300,5.723163330078125,0.08483384549617767,-0.3928624093532562,-0.05429060757160187
1772811915925864200,5.7328642578125,0.002061668550595641,0.010613775812089443,-0.26045745611190796
1772811915935565000,5.74256494140625,-0.05810851231217384,0.4162279963493347,-0.4574613571166992
1772811915945265700,5.752265625,-0.09934188425540924,0.7363211512565613,-0.5912407636642456
1772811915954966500,5.761966552734375,-0.14943279325962067,0.9311869740486145,-0.6391936540603638
1772811915964667400,5.77166748046875,-0.21632249653339386,0.9849430918693542,-0.6172025203704834
1772811915974368300,5.7813681640625,-0.2954294681549072,0.9513455629348755,-0.5509236454963684
1772811915984068900,5.79106884765625,-0.35559967160224915,0.9061415195465088,-0.46021026372909546
1772811915993769700,5.800769775390625,-0.39194610714912415,0.9165262579917908,-0.3664425015449524
1772811916003470600,5.810470703125,-0.38675376772880554,1.0170135498046875,-0.26962044835090637
1772811916013171200,5.820171142578125,-0.3229183852672577,1.1984403133392334,-0.16852232813835144
1772811916022872000,5.8298720703125,-0.23648102581501007,1.3795617818832397,-0.04634936526417732
1772811916032573000,5.839572998046875,-0.17234022915363312,1.4018583297729492,0.0602465383708477
1772811916042273800,5.849273681640625,-0.15951207280158997,1.1804198026657104,0.12347104400396347
1772811916051974400,5.858974365234375,-0.1726456582546234,0.8426116108894348,0.17569997906684875
1772811916061675300,5.86867529296875,-0.20502148568630219,0.5817723274230957,0.27252206206321716
1772811916071376100,5.878376220703125,-0.2957349121570587,0.4986947476863861,0.40110909938812256
1772811916081077000,5.888076904296875,-0.43745553493499756,0.6175079345703125,0.4863247275352478
1772811916090777900,5.89777783203125,-0.5504655241966248,0.9470694661140442,0.4670824706554413
1772811916100478500,5.907478515625,-0.6332377195358276,1.2399791479110718,0.27893611788749695
1772811916110179300,5.917179443359375,-0.7312815189361572,1.2097413539886475,-0.046654798090457916
1772811916119880200,5.926880126953125,-0.708984911441803,1.0942878723144531,-0.3548360764980316
1772811916129581000,5.9365810546875,-0.5825359225273132,0.8792635202407837,-0.6046797633171082
1772811916139281700,5.94628173828125,-0.47960519790649414,0.4440223276615143,-0.8276454210281372
1772811916148982500,5.955982421875,-0.3378845751285553,-0.06788235157728195,-0.9883028268814087
1772811916158683400,5.965683349609375,-0.09903645515441895,-0.4502837061882019,-1.067104458808899
1772811916168384300,5.97538427734375,0.2213621288537979,-0.7257837057113647,-1.0707695484161377
1772811916178084900,5.9850849609375,0.5946004986763,-0.9527199864387512,-0.9983821511268616
1772811916187785700,5.99478564453125,0.8279508352279663,-1.1060470342636108,-0.8056542873382568
1772811916197486600,6.004486572265625,0.8163444399833679,-1.163468360900879,-0.500832736492157
1772811916207187500,6.0141875,0.6987529397010803,-1.0626755952835083,-0.17310380935668945
1772811916216888000,6.02388818359375,0.6141481995582581,-0.8189405798912048,0.11339177191257477
1772811916226589000,6.0335888671875,0.5481747984886169,-0.5501601099967957,0.37636905908584595
1772811916236289800,6.043289794921875,0.4284452795982361,-0.29848378896713257,0.5648208260536194
1772811916245990700,6.05299072265625,0.24701844155788422,-0.05688678100705147,0.5978075265884399
1772811916255691500,6.06269140625,0.05917752534151077,0.16791145503520966,0.451200008392334
1772811916265392000,6.07239208984375,-0.0654388889670372,0.289168119430542,0.15920662879943848
1772811916275093000,6.082093017578125,-0.12957969307899475,0.29680392146110535,-0.20028728246688843
1772811916284793900,6.0917939453125,-0.16623157262802124,0.2897789776325226,-0.5481747984886169
1772811916294494500,6.101494384765625,-0.17967060208320618,0.3285689055919647,-0.8105412125587463
1772811916304195300,6.1111953125,-0.12041672319173813,0.3927097022533417,-0.8804852366447449
1772811916313896200,6.120896240234375,0.009697478264570236,0.4779253304004669,-0.6886736750602722
1772811916323596800,6.1305966796875,0.13706278800964355,0.5103011727333069,-0.26534438133239746
1772811916333297700,6.140297607421875,0.24701844155788422,0.3453676700592041,0.28809911012649536
1772811916342998500,6.14999853515625,0.3545306324958801,-0.0602465383708477,0.8580359220504761
1772811916352699400,6.159699462890625,0.432721346616745,-0.6026944518089294,1.311908483505249
1772811916362400300,6.169400146484375,0.4531853199005127,-1.1781290769577026,1.5504511594772339
1772811916372100900,6.179100830078125,0.43424850702285767,-1.6304744482040405,1.5275437831878662
1772811916381801700,6.1888017578125,0.3924042582511902,-1.8558835983276367,1.247462272644043
1772811916391502600,6.198502685546875,0.308104932308197,-1.8879539966583252,0.7624356150627136
1772811916401203500,6.208203369140625,0.17188207805156708,-1.7407355308532715,0.18119776248931885
1772811916410904300,6.217904296875,0.01763872057199478,-1.3555853366851807,-0.37407833337783813
1772811916420605000,6.22760498046875,-0.10270164161920547,-0.7938951253890991,-0.8575778007507324
1772811916430305800,6.237305908203125,-0.19799654185771942,-0.29451319575309753,-1.253418207168579
1772811916440006700,6.247006591796875,-0.2764926850795746,0.030161447823047638,-1.5221986770629883
1772811916449707300,6.256707275390625,-0.326583594083786,0.20242531597614288,-1.6623921394348145
1772811916459408100,6.266408203125,-0.33421939611434937,0.2574031352996826,-1.7182862758636475
1772811916469109000,6.27610888671875,-0.31497713923454285,0.24701844155788422,-1.721340537071228
1772811916478809900,6.285809814453125,-0.2874882221221924,0.20028728246688843,-1.6819398403167725
1772811916488510500,6.295510498046875,-0.19799654185771942,0.1446985900402069,-1.5970295667648315
1772811916498211300,6.30521142578125,-0.05322159454226494,0.10315979272127151,-1.4714969396591187
1772811916507912200,6.314912109375,0.08758273720741272,0.11812597513198853,-1.324583888053894
1772811916517613000,6.324613037109375,0.22014039754867554,0.22838707268238068,-1.1373538970947266
1772811916527314000,6.33431396484375,0.36308276653289795,0.4266127049922943,-0.8740711212158203
1772811916537014500,6.3440146484375,0.48678287863731384,0.6327795386314392,-0.5384009480476379
1772811916546715400,6.35371533203125,0.5353466272354126,0.7934370040893555,-0.19295690953731537
1772811916556416300,6.363416259765625,0.5310705900192261,0.871016800403595,0.14576761424541473
1772811916566116900,6.373116943359375,0.5228238701820374,0.9580650329589844,0.45791950821876526
1772811916575817700,6.382817626953125,0.44157886505126953,1.0976476669311523,0.7086794972419739
1772811916585518600,6.3925185546875,0.1804341822862625,1.2100467681884766,0.9084323048591614
1772811916595219200,6.40221923828125,-0.20074543356895447,1.2625811100006104,1.0916917324066162
1772811916604920000,6.411920166015625,-0.5348884463310242,1.2448660135269165,1.209588646888733
1772811916614621000,6.421620849609375,-0.7034871578216553,1.0790163278579712,1.1378120183944702
1772811916624321800,6.43132177734375,-0.6992111206054688,0.6727911829948425,0.7993929386138916
1772811916634022700,6.441022705078125,-0.590171754360199,0.057955797761678696,0.25297439098358154
1772811916643723300,6.45072314453125,-0.58039790391922,-0.7135664224624634,-0.3105483949184418
1772811916653424000,6.460424072265625,-0.774042010307312,-1.3167953491210938,-0.5863538384437561
1772811916663125000,6.470125,-0.9908990263938904,-1.7801363468170166,-0.3875173330307007
1772811916672825900,6.479825927734375,-1.004338026046753,-2.1542909145355225,0.1326340138912201
1772811916682526700,6.489526611328125,-0.9246202111244202,-2.2156829833984375,0.5828413367271423
1772811916692227300,6.499227294921875,-0.8803325295448303,-1.932241678237915,0.5840631127357483
1772811916701928200,6.50892822265625,-0.8730021119117737,-1.0220531225204468,0.2923751473426819
1772811916711629000,6.518629150390625,-0.904461681842804,0.4113410711288452,0.05994110554456711
1772811916721329700,6.52832958984375,-0.8357393741607666,1.464166522026062,0.03581194952130318
1772811916731030500,6.538030517578125,-0.5577958822250366,1.6177990436553955,0.22884522378444672
1772811916740731400,6.5477314453125,-0.13843722641468048,1.1071161031723022,0.6320159435272217
1772811916750432000,6.557431884765625,0.3032180070877075,0.21800236403942108,1.1185697317123413
1772811916760132900,6.5671328125,0.6010146141052246,-0.774652898311615,1.497305989265442
1772811916769833700,6.576833740234375,0.6504946351051331,-1.4814234972000122,1.6433025598526
1772811916779534600,6.58653466796875,0.48678287863731384,-1.635972261428833,1.4374412298202515
1772811916789235500,6.5962353515625,0.19265148043632507,-1.3109921216964722,0.822300374507904
1772811916798936000,6.60593603515625,-0.1787542998790741,-0.7471640110015869,-0.08147408813238144
1772811916808637000,6.615636962890625,-0.6005564332008362,-0.14362958073616028,-1.0429753065109253
1772811916818337800,6.625337890625,-0.941724419593811,0.3917934000492096,-1.8584797382354736
1772811916828038700,6.63503857421875,-1.1100176572799683,0.8025999665260315,-2.3667192459106445
1772811916837739300,6.6447392578125,-1.0443496704101562,0.9876919984817505,-2.4079525470733643
1772811916847440100,6.654440185546875,-0.7178424596786499,0.9485966563224792,-1.927812933921814
1772811916857141000,6.66414111328125,-0.25877758860588074,0.7225766777992249,-1.0417535305023193
1772811916866841600,6.673841552734375,0.10865757614374161,0.3878227770328522,-0.0017562361899763346
1772811916876542500,6.68354248046875,0.3591121435165405,0.10346522182226181,0.9237039089202881
1772811916886243300,6.693243408203125,0.537790060043335,-0.08956804871559143,1.5852704048156738
1772811916895944200,6.702944091796875,0.630946934223175,-0.19708025455474854,1.9462915658950806
1772811916905645000,6.71264501953125,0.6480512022972107,-0.27893611788749695,2.029674530029297
1772811916915345700,6.722345703125,0.649578332901001,-0.31864234805107117,1.8656574487686157
1772811916925046500,6.732046630859375,0.6526326537132263,-0.3006218373775482,1.4924190044403076
1772811916934747400,6.741747314453125,0.6272817850112915,-0.24442227184772491,0.9579123258590698
1772811916944448000,6.751447998046875,0.5610029697418213,-0.16012293100357056,0.32566729187965393
1772811916954148900,6.76114892578125,0.42569640278816223,-0.06757691502571106,-0.39881834387779236
1772811916963849700,6.770849609375,0.2534325122833252,0.06559160351753235,-1.1181116104125977
1772811916973550300,6.78055029296875,0.12331832945346832,0.2848920524120331,-1.6397901773452759
1772811916983251200,6.790251220703125,0.04298960790038109,0.5405389666557312,-1.9046000242233276
1772811916992952000,6.7999521484375,-0.09445496648550034,0.6883682608604431,-1.9806526899337769
1772811917002653000,6.80965283203125,-0.25297439098358154,0.715246319770813,-1.8630611896514893
1772811917012353800,6.819353759765625,-0.3785070776939392,0.6630173325538635,-1.5701515674591064
1772811917022054400,6.829054443359375,-0.47502371668815613,0.4944186806678772,-1.197218656539917
1772811917031755300,6.83875537109375,-0.5330559015274048,0.25098907947540283,-0.8395572900772095
1772811917041456000,6.8484560546875,-0.5241983532905579,0.021609341725707054,-0.557337760925293
1772811917051157000,6.858156982421875,-0.46372273564338684,-0.13080142438411713,-0.3823249936103821
1772811917060857600,6.867857666015625,-0.3940841555595398,-0.2092975378036499,-0.31238096952438354
1772811917070558500,6.877558349609375,-0.32047492265701294,-0.23128867149353027,-0.3093266487121582
1772811917080259300,6.88725927734375,-0.2202931046485901,-0.1836412250995636,-0.3291797637939453
1772811917089960000,6.8969599609375,-0.07490729540586472,-0.0755181610584259,-0.34658941626548767
1772811917099660800,6.906660888671875,0.08941533416509628,0.04634936526417732,-0.32826346158981323
1772811917109361700,6.916361572265625,0.20975568890571594,0.16394083201885223,-0.24060437083244324
1772811917119062500,6.9260625,0.3093266487121582,0.29374960064888,-0.10041090101003647
1772811917128763400,6.935763427734375,0.33345580101013184,0.3609447181224823,0.02542724646627903
1772811917138464000,6.945464111328125,0.23602287471294403,0.37804892659187317,0.08987347781658173
1772811917148164900,6.955164794921875,0.0524580143392086,0.27664539217948914,0.08437569439411163
1772811917157865700,6.96486572265625,-0.0654388889670372,0.05429060757160187,-0.02741255611181259
1772811917167566300,6.97456640625,-0.011988221667706966,-0.2398407906293869,-0.3154352903366089
1772811917177267200,6.98426708984375,0.10254892706871033,-0.5684860348701477,-0.7442623972892761
1772811917186968000,6.993968017578125,-0.030314164236187935,-1.0660353899002075,-1.1013128757476807
1772811917196668700,7.003668701171875,-0.4545597434043884,-1.5180753469467163,-1.131550669670105
1772811917206369500,7.01336962890625,-0.9704350829124451,-1.6210060119628906,-0.965395450592041
1772811917216070400,7.0230703125,-1.4371356964111328,-1.2321906089782715,-0.983415961265564
1772811917225771300,7.032771240234375,-1.6814817190170288,-0.3027598559856415,-1.3389391899108887
1772811917235472100,7.04247216796875,-1.7144683599472046,1.0805433988571167,-1.8096106052398682
1772811917245172700,7.0521728515625,-1.5758020877838135,2.5206570625305176,-1.8603123426437378
1772811917254873600,7.06187353515625,-1.2318851947784424,2.918330192565918,-1.258915901184082
1772811917264574500,7.071574462890625,-0.7633519172668457,1.668195366859436,-0.22655446827411652
1772811917274275300,7.081275390625,-0.2713003158569336,-0.6347648501396179,0.8867465853691101
1772811917283976000,7.090975830078125,0.1343138962984085,-2.5559346675872803,1.745316982269287
1772811917293676800,7.1006767578125,0.29191699624061584,-3.2410194873809814,2.269744396209717
1772811917303377700,7.110377685546875,0.19570580124855042,-2.5030946731567383,2.4077999591827393
1772811917313078300,7.120078369140625,-0.08773545175790787,-1.0028108358383179,2.033339738845825
1772811917322779100,7.129779052734375,-0.353767067193985,0.44157886505126953,1.4582105875015259
1772811917332480000,7.13947998046875,-0.5489383339881897,1.5066215991973877,1.0587049722671509
1772811917342180900,7.149180908203125,-0.6527853608131409,2.0875539779663086,0.931950569152832
1772811917351881700,7.1588818359375,-0.6533962488174438,2.281809091567993,1.0174716711044312
1772811917361582300,7.168582275390625,-0.5678751468658447,2.1788783073425293,1.1671335697174072
1772811917371283200,7.178283203125,-0.4670824706554413,1.8096106052398682,1.341230034828186
1772811917380984000,7.187984130859375,-0.38736462593078613,1.3221404552459717,1.550756573677063
1772811917390684700,7.1976845703125,-0.35010188817977905,0.87254399061203,1.7208824157714844
1772811917400385500,7.207385498046875,-0.26702427864074707,0.6208676695823669,1.7990731000900269
1772811917410086400,7.21708642578125,-0.057497646659612656,0.567111611366272,1.7896047830581665
1772811917419787000,7.226787109375,0.21555891633033752,0.5545888543128967,1.7178281545639038
1772811917429487900,7.23648779296875,0.44646579027175903,0.34811657667160034,1.596571445465088
1772811917439188700,7.246188720703125,0.5622246861457825,-0.10392337292432785,1.3821579217910767
1772811917448889600,7.2558896484375,0.5558105707168579,-0.5944477915763855,1.042517066001892
1772811917458590500,7.265590576171875,0.5170207023620605,-0.8458186388015747,0.5535198450088501
1772811917468291000,7.275291015625,0.5164098143577576,-0.7639627456665039,-0.015500693581998348
1772811917477992000,7.284991943359375,0.48647743463516235,-0.4502837061882019,-0.4928915202617645
1772811917487692800,7.29469287109375,0.40401068329811096,-0.11583523452281952,-0.7821359634399414
1772811917497393400,7.304393310546875,0.28061601519584656,0.09491311758756638,-0.8450550436973572
1772811917507094300,7.31409423828125,0.16210824251174927,0.17218750715255737,-0.7183006405830383
1772811917516795100,7.323795166015625,0.11049016565084457,0.19020801782608032,-0.4996110200881958
1772811917526496000,7.33349609375,0.1508072465658188,0.22655446827411652,-0.26106834411621094
1772811917536196600,7.343196533203125,0.23571744561195374,0.2677878439426422,-0.053374309092760086
1772811917545897500,7.3528974609375,0.29619306325912476,0.2589302957057953,0.13813179731369019
1772811917555598300,7.362598388671875,0.30627232789993286,0.24610215425491333,0.32414013147354126
1772811917565299200,7.37229931640625,0.24671301245689392,0.2885572612285614,0.5073995590209961
1772811917574999800,7.381999755859375,0.12392919510602951,0.3664425015449524,0.6723330616950989
1772811917584700700,7.39170068359375,-0.016875140368938446,0.4495201110839844,0.7960331439971924
1772811917594401500,7.401401611328125,-0.13904809951782227,0.5182424187660217,0.8647554516792297
1772811917604102100,7.41110205078125,-0.24930918216705322,0.5784125924110413,0.8681151866912842
1772811917613803000,7.420802978515625,-0.36140286922454834,0.6184242367744446,0.8155808448791504
1772811917623504000,7.43050390625,-0.5052615404129028,0.6230056881904602,0.7526617646217346
1772811917633204700,7.440204833984375,-0.7242565751075745,0.6147590279579163,0.720285952091217
1772811917642905300,7.4499052734375,-0.9542471170425415,0.5674170255661011,0.7147881388664246
1772811917652606200,7.459606201171875,-1.117653489112854,0.47028952836990356,0.7514400482177734
1772811917662307000,7.46930712890625,-1.2288308143615723,0.3151298761367798,0.885830283164978
1772811917672008000,7.479008056640625,-1.3317615985870361,0.21983496844768524,1.1561379432678223
1772811917681708500,7.48870849609375,-1.4172827005386353,0.21922409534454346,1.5122721195220947
1772811917691409400,7.498409423828125,-1.4789799451828003,0.11079560220241547,1.8977278470993042
1772811917701110300,7.5081103515625,-1.5599195957183838,-0.2502254843711853,2.3051745891571045
1772811917710811000,7.517810791015625,-1.653076410293579,-0.8861356973648071,2.7553820610046387
1772811917720511700,7.52751171875,-1.7892992496490479,-1.7022510766983032,3.035463333129883
1772811917730212600,7.537212646484375,-2.032423496246338,-2.387641429901123,3.0116398334503174
1772811917739913500,7.54691357421875,-2.2938735485076904,-2.593808174133301,2.7404158115386963
1772811917749614300,7.5566142578125,-2.5910592079162598,-2.152763843536377,2.30334210395813
1772811917759315000,7.56631494140625,-2.9917867183685303,-1.1894301176071167,1.8085415363311768
1772811917769015800,7.576015869140625,-3.34578275680542,-0.05352702736854553,1.5360958576202393
1772811917778716700,7.585716552734375,-3.6133415699005127,0.7421243786811829,1.4701224565505981
1772811917788417300,7.595417236328125,-3.5684430599212646,0.900338351726532,1.2621229887008667
1772811917798118100,7.6051181640625,-3.105102062225342,0.45043641328811646,0.8644500374794006
1772811917807819000,7.614819091796875,-2.2764639854431152,-0.28382304310798645,0.6775254011154175
1772811917817519600,7.62451953125,-1.4423280954360962,-1.0562615394592285,1.0229694843292236
1772811917827220500,7.634220458984375,-0.9579123258590698,-1.7340160608291626,1.828700065612793
1772811917836921300,7.64392138671875,-0.820162296295166,-2.0870959758758545,2.69826602935791
1772811917846622200,7.653622314453125,-0.8641445636749268,-2.0785436630249023,3.1411430835723877
1772811917856323000,7.663322998046875,-0.9542471170425415,-1.7608940601348877,2.9612433910369873
1772811917866023700,7.673023681640625,-1.053512692451477,-1.2034800052642822,2.2911248207092285
1772811917875724500,7.682724609375,-1.1097122430801392,-0.5077049732208252,1.4346922636032104
1772811917885425200,7.692425048828125,-1.0819178819656372,0.14347685873508453,0.6931024789810181
1772811917895126000,7.7021259765625,-0.9902881383895874,0.502970814704895,0.2196822464466095
1772811917904827000,7.711826904296875,-0.8980475664138794,0.4739547073841095,0.051389001309871674
1772811917914527700,7.72152783203125,-0.8177188634872437,0.11323905736207962,0.17600540816783905
1772811917924228400,7.731228271484375,-0.7163153290748596,-0.3742310404777527,0.4450913369655609
1772811917933929200,7.74092919921875,-0.6048324704170227,-0.7410553097724915,0.6485093235969543
1772811917943630000,7.750630126953125,-0.4979311525821686,-0.9105703234672546,0.6714167594909668
1772811917953331000,7.7603310546875,-0.44325876235961914,-0.9072105288505554,0.5220603346824646
1772811917963031600,7.770031494140625,-0.43195775151252747,-0.784426748752594,0.2816850244998932
1772811917972732400,7.779732421875,-0.4395935535430908,-0.5593230724334717,0.030314164236187935
1772811917982433300,7.789433349609375,-0.45333802700042725,-0.30367615818977356,-0.18776455521583557
1772811917992134000,7.7991337890625,-0.4597521126270294,-0.12835796177387238,-0.3355938494205475
1772811918001834800,7.808834716796875,-0.4084394574165344,-0.05688678100705147,-0.390571653842926
1772811918011535600,7.81853564453125,-0.30398157238960266,-0.05871937796473503,-0.3753000497817993
1772811918021236500,7.828236572265625,-0.2294560819864273,-0.10056361556053162,-0.3395644724369049
1772811918030937300,7.837937255859375,-0.19463679194450378,-0.12408190965652466,-0.33803731203079224
1772811918040638000,7.847637939453125,-0.21082471311092377,-0.08956804871559143,-0.4162279963493347
1772811918050338800,7.8573388671875,-0.2746600806713104,-0.005268708802759647,-0.5713876485824585
1772811918060039400,7.867039306640625,-0.35071274638175964,0.150196373462677,-0.7683915495872498
1772811918069740300,7.876740234375,-0.4038579761981964,0.325514554977417,-0.955010712146759
1772811918079441200,7.886441162109375,-0.41149377822875977,0.5164098143577576,-1.059163212776184
1772811918089142000,7.89614208984375,-0.4197404682636261,0.6453022956848145,-1.065882682800293
1772811918098842600,7.905842529296875,-0.46433359384536743,0.6617956161499023,-1.0191515684127808
1772811918108543500,7.91554345703125,-0.5073995590209961,0.6147590279579163,-0.9534835815429688
1772811918118244400,7.925244384765625,-0.5266417860984802,0.567111611366272,-0.8881210088729858
1772811918127945200,7.9349453125,-0.5150353908538818,0.5356520414352417,-0.8389464020729065
1772811918137645800,7.944645751953125,-0.49823659658432007,0.47212210297584534,-0.8193987607955933
1772811918147346700,7.9543466796875,-0.4918225109577179,0.3701077103614807,-0.8096249103546143
1772811918157047600,7.964047607421875,-0.4658607542514801,0.33192864060401917,-0.8065705895423889
1772811918166748200,7.973748046875,-0.44753479957580566,0.3725511431694031,-0.8197041749954224
1772811918176449000,7.983448974609375,-0.4301251769065857,0.4525744318962097,-0.825812816619873
1772811918186150000,7.99314990234375,-0.33024877309799194,0.5103011727333069,-0.7980184555053711
1772811918195850800,8.002850830078126,-0.22090397775173187,0.4739547073841095,-0.7503710389137268
1772811918205551600,8.012551513671875,-0.19005531072616577,0.2934441566467285,-0.6737074851989746
1772811918215252200,8.022252197265624,-0.23342670500278473,-0.0703258067369461,-0.5414552688598633
1772811918224953000,8.031953125,-0.3632354736328125,-0.5272526741027832,-0.3365101218223572
1772811918234653700,8.04165380859375,-0.5645154118537903,-0.8730021119117737,-0.16332997381687164
1772811918244354600,8.0513544921875,-0.7670170664787292,-0.8442915081977844,-0.17310380935668945
1772811918254055400,8.061055419921875,-0.8192460536956787,-0.17050762474536896,-0.3609447181224823
1772811918263756300,8.07075634765625,-0.6738601922988892,0.7183006405830383,-0.6905062794685364
1772811918273457000,8.080456787109375,-0.38583746552467346,1.1953860521316528,-1.0530545711517334
1772811918283157800,8.09015771484375,0.012751801870763302,1.0722967386245728,-1.250363826751709
1772811918292858600,8.099858642578125,0.4993056058883667,0.5503128170967102,-1.1339941024780273
1772811918302559500,8.1095595703125,1.0154863595962524,-0.1421024203300476,-0.7002801299095154
1772811918312260000,8.119260009765625,1.3865866661071777,-0.794200599193573,-0.1407279670238495
1772811918321961000,8.1289609375,1.5243366956710815,-1.2126429080963135,0.4802160859107971
1772811918331661800,8.138661865234376,1.4568361043930054,-1.3268746137619019,1.1582759618759155
1772811918341362400,8.148362548828125,1.1465167999267578,-1.0974949598312378,1.719966173171997
1772811918351063300,8.158063232421876,0.770529568195343,-0.33024877309799194,1.9832488298416138
1772811918360764200,8.16776416015625,0.5329031348228455,0.722882091999054,1.8442771434783936
1772811918370465000,8.177465087890624,0.42539095878601074,1.6822452545166016,1.4023164510726929
1772811918380165600,8.18716552734375,0.4437169134616852,2.2793655395507812,0.9276745319366455
1772811918389866500,8.196866455078125,0.567111611366272,2.387794017791748,0.672027587890625
1772811918399567400,8.2065673828125,0.6614902019500732,2.194149971008301,0.7380009889602661
1772811918409268000,8.21626806640625,0.6795107126235962,1.9186499118804932,1.0480148792266846
1772811918418968800,8.22596875,0.613231897354126,1.751883864402771,1.4258347749710083
1772811918428669700,8.235669677734375,0.5249619483947754,1.851454734802246,1.7401247024536133
1772811918438370600,8.24537060546875,0.4489092528820038,2.119013547897339,1.8601596355438232
1772811918448071200,8.2550712890625,0.4220311939716339,2.29555344581604,1.7260748147964478
1772811918457772000,8.26477197265625,0.46601346135139465,2.265010356903076,1.4582105875015259
1772811918467473000,8.274472900390625,0.4990001618862152,2.0029492378234863,1.198593020439148
1772811918477173500,8.284173583984375,0.48678287863731384,1.5615994930267334,1.032743215560913
1772811918486874400,8.293874267578126,0.4938078224658966,1.1242202520370483,0.9487493634223938
1772811918496575200,8.3035751953125,0.5408443808555603,0.7943533062934875,0.9078214168548584
1772811918506276000,8.313276123046874,0.5961276888847351,0.5044979453086853,0.8394045829772949
1772811918515976700,8.322976806640625,0.6581304669380188,0.22411102056503296,0.7080686092376709
1772811918525677600,8.332677490234374,0.7091376781463623,-0.028176138177514076,0.5110647678375244
1772811918535378400,8.34237841796875,0.6764563918113708,-0.3678169548511505,0.245338574051857
1772811918545079300,8.352079345703125,0.5368737578392029,-0.626518189907074,-0.10682497918605804
1772811918554780000,8.36177978515625,0.3407861888408661,-0.6588940024375916,-0.4953349828720093
1772811918564480800,8.371480712890625,0.18226677179336548,-0.6872992515563965,-0.7888554930686951
1772811918574181400,8.381181396484376,0.048792824149131775,-0.7028762698173523,-0.9033926725387573
1772811918583882200,8.39088232421875,-0.12988512217998505,-0.719369649887085,-0.8224530816078186
1772811918593583000,8.4005830078125,-0.3278053104877472,-0.9017127752304077,-0.6675988435745239
1772811918603284000,8.410283935546875,-0.6191878318786621,-1.1008546352386475,-0.4935023784637451
1772811918612984800,8.41998486328125,-0.8714749813079834,-1.1570543050765991,-0.3618610203266144
1772811918622685400,8.429685546875,-1.0461822748184204,-1.126205563545227,-0.3142135739326477
1772811918632386300,8.43938623046875,-1.1142936944961548,-1.0736712217330933,-0.2570977210998535
1772811918642087000,8.4490869140625,-1.0489312410354614,-0.940197229385376,-0.17921245098114014
1772811918651787800,8.458787841796875,-0.8757510185241699,-0.7205913662910461,-0.16271910071372986
1772811918661488600,8.468488525390624,-0.6665298342704773,-0.464944452047348,-0.21800236403942108
1772811918671189500,8.478189453125,-0.46036297082901,-0.28962627053260803,-0.3108538091182709
1772811918680890400,8.487890380859374,-0.297872930765152,-0.22853977978229523,-0.3917934000492096
1772811918690591000,8.497591064453125,-0.23220497369766235,-0.24442227184772491,-0.4122573733329773
1772811918700291800,8.507291748046875,-0.2248746007680893,-0.2596938908100128,-0.3249036967754364
1772811918709992700,8.51699267578125,-0.22151483595371246,-0.09292780607938766,-0.24885104596614838
1772811918719693300,8.526693359375,-0.16439898312091827,0.21036656200885773,-0.3151298761367798
1772811918729394200,8.536394287109376,-0.07002037763595581,0.6281980872154236,-0.493196964263916
1772811918739095000,8.546094970703125,-0.03611737862229347,0.7760273218154907,-0.4470766484737396
1772811918748795600,8.555795654296874,-0.04130972921848297,0.5719985365867615,-0.21616977453231812
1772811918758496500,8.56549658203125,-0.10728313028812408,0.18409937620162964,0.03153589367866516
1772811918768197400,8.575197265625,-0.20135630667209625,-0.37575820088386536,0.091400645673275
1772811918777898200,8.584898193359376,-0.2697731554508209,-0.8989638686180115,-0.1599702090024948
1772811918787598800,8.594598876953125,-0.31925320625305176,-1.1967604160308838,-0.6419425010681152
1772811918797299700,8.6042998046875,-0.3849211633205414,-1.257541537284851,-1.1657590866088867
1772811918807000600,8.61400048828125,-0.5165625214576721,-0.9438624382019043,-1.6691116094589233
1772811918816701200,8.623701171875,-0.5703186392784119,-0.28993168473243713,-1.8975750207901
1772811918826402000,8.633402099609375,-0.37087127566337585,-0.1839466542005539,-1.8981859683990479
1772811918836103000,8.64310302734375,-0.3177260458469391,-0.8736129999160767,-1.8761948347091675
1772811918845803800,8.6528037109375,-0.6903535723686218,-1.4630974531173706,-2.4782021045684814
1772811918855504400,8.66250439453125,-0.7938951253890991,-1.211115837097168,-3.575315237045288
1772811918865205200,8.672205322265626,-0.7135664224624634,-0.6475930213928223,-4.256124019622803
1772811918874905900,8.68190576171875,-0.4133263826370239,-0.40080365538597107,-4.117152214050293
1772811918884606700,8.691606689453126,-0.02542724646627903,-0.5122864842414856,-3.2775185108184814
1772811918894307600,8.7013076171875,0.11171189695596695,-0.7975603342056274,-2.1510839462280273
1772811918904008400,8.711008544921874,0.2369391769170761,-1.079779863357544,-1.187750220298767
1772811918913709300,8.720709228515625,0.38415759801864624,-1.1631629467010498,-0.4476875364780426
1772811918923410000,8.730409912109375,0.42478010058403015,-1.3436734676361084,0.03672824427485466
1772811918933110800,8.74011083984375,0.40553784370422363,-1.5196025371551514,0.3574322462081909
1772811918942811400,8.749811279296875,0.2842811942100525,-1.774333119392395,0.6378191709518433
1772811918952512300,8.75951220703125,0.09460768103599548,-1.929187297821045,0.9295071363449097
1772811918962213000,8.769213134765625,-0.13446660339832306,-1.9206352233886719,1.2578469514846802
1772811918971914000,8.7789140625,-0.31009024381637573,-1.7227150201797485,1.5638902187347412
1772811918981614800,8.78861474609375,-0.37697991728782654,-1.3406190872192383,1.745011568069458
1772811918991315500,8.7983154296875,-0.4710530936717987,-0.9530254006385803,1.756312608718872
1772811919001016300,8.808016357421875,-0.5733729600906372,-0.5975021123886108,1.6207005977630615
1772811919010717000,8.817717041015625,-0.5916988849639893,-0.3226129710674286,1.4533237218856812
1772811919020417800,8.827417724609376,-0.5635991096496582,-0.21113014221191406,1.3696352243423462
1772811919030118700,8.83711865234375,-0.5281689763069153,-0.22273656725883484,1.3809361457824707
1772811919039819500,8.846819580078124,-0.4710530936717987,-0.2697731554508209,1.420642375946045
1772811919049520000,8.85652001953125,-0.40110909938812256,-0.27771440148353577,1.4411063194274902
1772811919059221000,8.866220947265624,-0.31375542283058167,-0.2447277009487152,1.4035382270812988
1772811919068921900,8.875921875,-0.23159411549568176,-0.2404516488313675,1.3100758790969849
1772811919078622500,8.88562255859375,-0.1625663936138153,-0.30489787459373474,1.1937061548233032
1772811919088323300,8.8953232421875,-0.09170607477426529,-0.37636905908584595,1.08100163936615
1772811919098024200,8.905024169921875,-0.030314164236187935,-0.4200458824634552,0.9948696494102478
1772811919107725000,8.91472509765625,-0.013515383005142212,-0.4258491098880768,0.9783763289451599
1772811919117425700,8.92442578125,-0.03886627033352852,-0.2954294681549072,0.9808197617530823
1772811919127126500,8.93412646484375,-0.08987347781658173,-0.07307469844818115,0.9438624382019043
1772811919136827400,8.943827392578125,-0.1888335794210434,0.09705114364624023,0.903850793838501
1772811919146528000,8.953528076171875,-0.34582582116127014,0.17799071967601776,0.8531489968299866
1772811919156228900,8.963228759765625,-0.5003746151924133,0.17279838025569916,0.6952404975891113
1772811919165929700,8.9729296875,-0.6121628880500793,0.03657552972435951,0.4362338185310364
1772811919175630300,8.98263037109375,-0.6564505696296692,-0.17508912086486816,0.12011128664016724
1772811919185331200,8.992331298828125,-0.5932260751724243,-0.3730092942714691,-0.22411102056503296
1772811919195032000,9.002031982421874,-0.46799877285957336,-0.5361102223396301,-0.512133777141571
1772811919204733000,9.01173291015625,-0.3476584255695343,-0.7428879141807556,-0.6914225816726685
1772811919214433500,9.02143359375,-0.23739732801914215,-1.0031163692474365,-0.8664353489875793
1772811919224134400,9.031134521484375,-0.09414953738451004,-1.221195101737976,-1.138575553894043
1772811919233835300,9.040835205078125,0.07170025259256363,-1.30213463306427,-1.4818816184997559
1772811919243536000,9.050535888671876,0.20242531597614288,-1.1756856441497803,-1.730808973312378
1772811919253236700,9.06023681640625,0.2699258625507355,-0.886441171169281,-1.760130524635315
1772811919262937600,9.0699375,0.28061601519584656,-0.5339722037315369,-1.5783982276916504
1772811919272638500,9.079638427734375,0.27664539217948914,-0.28901541233062744,-1.2415063381195068
1772811919282339000,9.089339111328124,0.3300960659980774,-0.2297615110874176,-0.8410844206809998
1772811919292040000,9.0990400390625,0.4519635736942291,-0.2816850244998932,-0.4675406217575073
1772811919301740500,9.108740478515625,0.5851321220397949,-0.3467421233654022,-0.1599702090024948
1772811919311441400,9.11844140625,0.6798161268234253,-0.41179922223091125,0.1170569658279419
1772811919321142300,9.128142333984375,0.7518981695175171,-0.4518108665943146,0.37270388007164
1772811919330843100,9.137843017578126,0.7909935116767883,-0.3950004279613495,0.5556578636169434
1772811919340544000,9.1475439453125,0.7729730010032654,-0.2902371287345886,0.6601157784461975
1772811919350244600,9.15724462890625,0.6950877904891968,-0.19219332933425903,0.7083740830421448
1772811919359945500,9.166945556640625,0.5576431751251221,-0.06910407543182373,0.6943241953849792
1772811919369646000,9.17664599609375,0.36858054995536804,0.027717988938093185,0.6497310400009155
1772811919379347000,9.186346923828125,0.16180281341075897,0.020082179456949234,0.6424006819725037
1772811919389047800,9.1960478515625,-0.030314164236187935,-0.07154753804206848,0.7340303659439087
1772811919398748700,9.205748779296876,-0.21754421293735504,-0.17692171037197113,0.7639627456665039
1772811919408449500,9.215449462890625,-0.3586539924144745,-0.1427132785320282,0.6595048904418945
1772811919418150100,9.225150146484374,-0.4515054225921631,-0.05108356848359108,0.4160752594470978
1772811919427851000,9.23485107421875,-0.5339722037315369,0.08391755074262619,0.06788235157728195
1772811919437551600,9.244551513671874,-0.5749000906944275,0.21433718502521515,-0.23449571430683136
1772811919447252500,9.25425244140625,-0.5764272809028625,0.3001636862754822,-0.44646579027175903
1772811919456953300,9.263953369140625,-0.5345830321311951,0.3151298761367798,-0.5408443808555603
1772811919466654200,9.273654296875,-0.46311184763908386,0.2903898358345032,-0.5280162692070007
1772811919476354800,9.283354736328125,-0.39102980494499207,0.2381609082221985,-0.4470766484737396
1772811919486055700,9.2930556640625,-0.26824599504470825,0.24060437083244324,-0.3853793144226074
