time,seconds_elapsed,z,y,x
1772810184847706000,0.1127060546875,-0.18325942754745483,-0.14118611812591553,0.06177370250225067
1772810184867106600,0.1321064453125,-0.1389717310667038,0.1156061589717865,-0.053374309092760086
1772810184876806700,0.141806640625,-0.13958260416984558,0.09269873052835464,-0.053374309092760086
1772810184886507000,0.151507080078125,-0.1597411334514618,0.023365577682852745,-0.03413207083940506
1772810184896207000,0.16120703125,-0.17592905461788177,-0.04650207981467247,-0.013362666592001915
1772810184905907500,0.170907470703125,-0.1490510106086731,-0.18486295640468597,-0.023441936820745468
1772810184915607600,0.180607666015625,-0.03481929376721382,-0.3833940029144287,-0.06895136088132858
1772810184925308000,0.190307861328125,0.164322629570961,-0.5474112033843994,-0.1495855152606964
1772810184935008000,0.200008056640625,0.39278605580329895,-0.7190641760826111,-0.2515999376773834
1772810184944708400,0.209708251953125,0.6001746654510498,-0.8369610905647278,-0.36430448293685913
1772810184954408400,0.219408447265625,0.7757982611656189,-0.7074577808380127,-0.4339430630207062
1772810184964108800,0.22910888671875,0.8805615901947021,-0.3384954333305359,-0.43424850702285767
1772810184973809000,0.238808837890625,0.9272927641868591,0.187382772564888,-0.3698022663593292
1772810184983509200,0.24850927734375,0.9645555019378662,0.6809614896774292,-0.2980256676673889
1772810184993209300,0.258209228515625,0.9615011811256409,0.9359975457191467,-0.22960880398750305
1772810185002909700,0.26790966796875,0.89705491065979,0.9637919068336487,-0.05887209251523018
1772810185012609800,0.27760986328125,0.8408553600311279,0.9240856766700745,0.2862665057182312
1772810185022310100,0.28731005859375,0.7987056970596313,0.9460768103599548,0.8216894865036011
1772810185032010200,0.29701025390625,0.6530144214630127,0.9897536635398865,1.4814234972000122
1772810185041710600,0.306710693359375,0.406530499458313,0.7750346660614014,2.055330991744995
1772810185051410700,0.31641064453125,0.0925460159778595,0.0896444097161293,2.3225841522216797
1772810185061111000,0.326111083984375,-0.3744601011276245,-0.8671988844871521,2.258748769760132
1772810185070811100,0.33581103515625,-0.7922916412353516,-1.8528292179107666,1.9340742826461792
1772810185080511500,0.345511474609375,-0.8790343999862671,-2.5840344429016113,1.4267510175704956
1772810185090211800,0.3552119140625,-0.6157516837120056,-2.429485559463501,0.9383646845817566
1772810185099912000,0.364911865234375,-0.15210533142089844,-1.060537576675415,0.5565741658210754
1772810185109612000,0.374612060546875,0.13041962683200836,0.9546289443969727,0.28962627053260803
1772810185119312400,0.3843125,0.14233149588108063,2.961930513381958,0.2771035432815552
1772810185129012500,0.394012451171875,-0.014049889519810677,4.26582145690918,0.5574904680252075
1772810185138712800,0.403712890625,-0.2809978127479553,4.437474250793457,1.0651191473007202
1772810185148413200,0.4134130859375,-0.5409207344055176,3.4576473236083984,1.6289472579956055
1772810185158113300,0.42311328125,-0.5681042671203613,1.9087997674942017,2.1377975940704346
1772810185167813400,0.4328134765625,-0.37140578031539917,0.3556760251522064,2.526918411254883
1772810185177513700,0.442513671875,-0.08399390429258347,-0.7645736336708069,2.751105785369873
1772810185187213800,0.4522138671875,0.16646064817905426,-1.2679262161254883,2.8225769996643066
1772810185196914200,0.4619140625,0.34086254239082336,-1.347033143043518,2.7654612064361572
1772810185206614500,0.471614501953125,0.43310311436653137,-1.2676208019256592,2.5763986110687256
1772810185216314600,0.481314697265625,0.44348782300949097,-1.0721440315246582,2.2013275623321533
1772810185226014700,0.4910146484375,0.4098902642726898,-0.7544943690299988,1.6320016384124756
1772810185235715000,0.500715087890625,0.3637699782848358,-0.35132360458374023,0.9145409464836121
1772810185245415200,0.510415283203125,0.36224281787872314,0.08903354406356812,0.1430187225341797
1772810185255115500,0.520115478515625,0.43432486057281494,0.4744892120361328,-0.5732202529907227
1772810185264815900,0.52981591796875,0.5586358308792114,0.8135191798210144,-1.0863466262817383
1772810185274516000,0.539515869140625,0.6685914993286133,1.1027636528015137,-1.3132829666137695
1772810185284216300,0.54921630859375,0.7159335017204285,1.3739875555038452,-1.2360085248947144
1772810185293916400,0.55891650390625,0.6960803866386414,1.6238312721252441,-0.8820123672485352
1772810185303616500,0.568616455078125,0.6175842881202698,1.8296927213668823,-0.2980256676673889
1772810185313316900,0.57831689453125,0.4972439408302307,1.8269438743591309,0.40263625979423523
1772810185323017200,0.588017333984375,0.3494146466255188,1.6424627304077148,1.1292599439620972
1772810185332717300,0.59771728515625,0.19181154668331146,1.3581050634384155,1.7877721786499023
1772810185342417700,0.607417724609375,0.03634645417332649,1.0441206693649292,2.3277766704559326
1772810185352117800,0.61711767578125,-0.07910698652267456,0.7029526233673096,2.7352232933044434
1772810185361817900,0.62681787109375,-0.08918625861406326,0.3819431960582733,3.022329807281494
1772810185371518200,0.636518310546875,0.015577051788568497,0.08231402933597565,3.1762678623199463
1772810185381218600,0.646218505859375,0.18661919236183167,-0.35590508580207825,3.1649668216705322
1772810185390918700,0.655918701171875,0.4016436040401459,-0.9273691177368164,3.010417938232422
1772810185400619000,0.665618896484375,0.537255585193634,-1.3839905261993408,2.734001636505127
1772810185410319000,0.675319091796875,0.545502245426178,-1.4997494220733643,2.3720643520355225
1772810185420019200,0.685019287109375,0.40714138746261597,-1.347033143043518,1.9267438650131226
1772810185429719600,0.694719482421875,0.13927717506885529,-1.0751984119415283,1.4145337343215942
1772810185439420000,0.704419921875,-0.10506874322891235,-0.7645736336708069,0.8659771680831909
1772810185449120000,0.7141201171875,-0.23029601573944092,-0.404468834400177,0.3281107544898987
1772810185458820400,0.7238203125,-0.258395791053772,0.05787943676114082,-0.1443931609392166
1772810185468520400,0.7335205078125,-0.1893680840730667,0.5010618567466736,-0.5099957585334778
1772810185478220800,0.743220703125,-0.006108647678047419,0.7667880058288574,-0.7457895278930664
1772810185487921000,0.7529208984375,0.2156352698802948,0.8199332356452942,-0.8337540626525879
1772810185497621200,0.762621337890625,0.35216355323791504,0.6730966567993164,-0.7839685678482056
1772810185507321300,0.7723212890625,0.37262752652168274,0.34376415610313416,-0.6617956161499023
1772810185517021700,0.782021728515625,0.3179551064968109,-0.04253146052360535,-0.500832736492157
1772810185526721800,0.7917216796875,0.23365578055381775,-0.36079201102256775,-0.3551415205001831
1772810185536422100,0.801422119140625,0.13011419773101807,-0.5373319387435913,-0.2531270980834961
1772810185546122200,0.811122314453125,0.04276053607463837,-0.5315287113189697,-0.21433718502521515
1772810185555822600,0.820822509765625,0.004886918235570192,-0.3534616231918335,-0.226859912276268
1772810185565522700,0.830522705078125,0.007635809946805239,-0.08407026529312134,-0.27175846695899963
1772810185575223000,0.84022314453125,0.05253437161445618,0.18555018305778503,-0.35269805788993835
1772810185584923100,0.849923095703125,0.13744457066059113,0.3929387629032135,-0.4544070363044739
1772810185594623500,0.85962353515625,0.23304490745067596,0.48914995789527893,-0.5322923064231873
1772810185604323600,0.869323486328125,0.33567020297050476,0.4751000702381134,-0.5863538384437561
1772810185614024000,0.87902392578125,0.41325002908706665,0.3513999581336975,-0.6138427257537842
1772810185623724000,0.88872412109375,0.4379900395870209,0.08689551800489426,-0.6190351247787476
1772810185633424400,0.89842431640625,0.3631591200828552,-0.35132360458374023,-0.5884918570518494
1772810185643124500,0.90812451171875,0.22296564280986786,-0.737695574760437,-0.5704713463783264
1772810185652824800,0.917824951171875,0.1585194170475006,-0.8442915081977844,-0.5240456461906433
1772810185662525000,0.92752490234375,0.03176496922969818,-0.6390409469604492,-0.36796966195106506
1772810185672225300,0.937225341796875,-0.21960589289665222,-0.08345939964056015,-0.124845489859581
1772810185681925400,0.94692529296875,-0.36682429909706116,0.5963567495346069,0.11552979797124863
1772810185691625700,0.956625732421875,-0.26908594369888306,1.0541999340057373,0.377285361289978
1772810185701325800,0.966325927734375,-0.026572618633508682,1.3721550703048706,0.6252964735031128
1772810185711026200,0.976026123046875,0.19425499439239502,1.348331332206726,0.6463713049888611
1772810185720726300,0.985726318359375,0.24740023910999298,0.7203623056411743,0.3009272515773773
1772810185730426600,0.995426513671875,0.014660755172371864,-0.4081340432167053,-0.43455392122268677
1772810185740126700,1.005126708984375,-0.3488037884235382,-1.2025636434555054,-1.1306343078613281
1772810185749827000,1.0148271484375,-0.46425724029541016,-1.2902227640151978,-1.4119375944137573
1772810185759527200,1.024527099609375,-0.19211697578430176,-1.2059234380722046,-1.4076615571975708
1772810185769227500,1.0342275390625,0.277332603931427,-1.2731186151504517,-1.2625811100006104
1772810185778927600,1.043927734375,0.7363975048065186,-1.3342050313949585,-1.1242202520370483
1772810185788628000,1.0536279296875,1.0158681869506836,-1.2917499542236328,-1.0020473003387451
1772810185798328000,1.063328125,1.0751219987869263,-1.0825287103652954,-0.8569669127464294
1772810185808028400,1.0730283203125,1.0393863916397095,-0.7053197622299194,-0.6535489559173584
1772810185817728500,1.082728515625,0.9902117848396301,-0.2346484363079071,-0.4134790897369385
1772810185827428900,1.092428955078125,0.924849271774292,0.1363755613565445,-0.22838707268238068
1772810185837129000,1.10212890625,0.8549052476882935,0.3006981909275055,-0.1608865112066269
1772810185846829300,1.111829345703125,0.8060360550880432,0.38530296087265015,-0.20975568890571594
1772810185856529400,1.121529296875,0.7363975048065186,0.4992292523384094,-0.35361436009407043
1772810185866229800,1.131229736328125,0.6136136651039124,0.6580541133880615,-0.5881864428520203
1772810185875929900,1.140929931640625,0.46059203147888184,0.9072869420051575,-0.8875101804733276
1772810185885630200,1.150630126953125,0.29626941680908203,1.1635446548461914,-1.2149336338043213
1772810185895330300,1.160330322265625,0.12400554865598679,1.3147337436676025,-1.4644719362258911
1772810185905030700,1.17003076171875,0.010690134018659592,1.4509565830230713,-1.4644719362258911
1772810185914730800,1.179730712890625,-0.046425722539424896,1.5700751543045044,-1.2036327123641968
1772810185924431000,1.18943115234375,-0.09651663154363632,1.6131411790847778,-0.7464004158973694
1772810185934131200,1.199131103515625,-0.16646064817905426,1.5322015285491943,-0.2222784161567688
1772810185943831600,1.20883154296875,-0.26022839546203613,1.3168717622756958,0.2749654948711395
1772810185953531600,1.21853173828125,-0.35246896743774414,0.9964731931686401,0.6982948184013367
1772810185963232000,1.22823193359375,-0.41355544328689575,0.6653844714164734,1.0189988613128662
1772810185972932000,1.23793212890625,-0.4263836145401001,0.37033677101135254,1.22638738155365
1772810185982632400,1.247632568359375,-0.3998109996318817,0.09911280870437622,1.3112976551055908
1772810185992332500,1.25733251953125,-0.3637699782848358,-0.095982126891613,1.3061052560806274
1772810186002033000,1.267032958984375,-0.30115634202957153,-0.07826705276966095,1.227914571762085
1772810186011733000,1.27673291015625,-0.1957821547985077,-0.04802924394607544,1.0599267482757568
1772810186021433300,1.286433349609375,-0.11178825795650482,-0.060551971197128296,0.8296307325363159
1772810186031133400,1.296133544921875,-0.0720820426940918,-0.009621120058000088,0.5923097729682922
1772810186040833800,1.305833740234375,-0.013744457624852657,-0.08956804871559143,0.4102720618247986
1772810186050534000,1.315533935546875,0.01282816007733345,-0.16562071442604065,0.21632249653339386
1772810186060234200,1.325234130859375,-0.010079269297420979,0.06337722390890121,-0.05306887626647949
1772810186069934300,1.334934326171875,-0.009773836471140385,0.19471314549446106,-0.1556941568851471
1772810186079634700,1.344634765625,-0.029016077518463135,0.16752967238426208,-0.16180281341075897
1772810186089334800,1.354334716796875,-0.07605266571044922,0.09178243577480316,-0.14317142963409424
1772810186099035100,1.36403515625,-0.09926552325487137,0.0011453714687377214,-0.07261654734611511
1772810186108735200,1.3737353515625,-0.06872228533029556,-0.09262236952781677,0.0602465383708477
1772810186118435600,1.383435546875,0.020158538594841957,-0.22365286946296692,0.17111849784851074
1772810186128135700,1.3931357421875,0.0565049909055233,-0.26305365562438965,0.30245441198349
1772810186137836000,1.4028359375,0.007635809946805239,-0.40110909938812256,0.42768171429634094
1772810186147536100,1.4125361328125,-0.06902772188186646,-0.7725148797035217,0.526030957698822
1772810186157236500,1.422236572265625,-0.11453714966773987,-1.0987166166305542,0.5776489973068237
1772810186166936600,1.4319365234375,-0.10690133273601532,-1.3061052560806274,0.5315287113189697
1772810186176637000,1.441636962890625,-0.01588248461484909,-1.4505747556686401,0.3778962194919586
1772810186186337000,1.4513369140625,0.16310089826583862,-1.3262637853622437,0.2508363425731659
1772810186196037400,1.461037353515625,0.4410443603992462,-0.7099012136459351,0.33452481031417847
1772810186205737500,1.470737548828125,0.7434224486351013,0.22617268562316895,0.5938369035720825
1772810186215437800,1.480437744140625,0.8805615901947021,0.7441860437393188,0.5886445641517639
1772810186225138000,1.490137939453125,0.6673697829246521,0.23686282336711884,0.014126247726380825
1772810186234838300,1.49983837890625,0.26969680190086365,-0.8445969223976135,-0.8841503858566284
1772810186244538400,1.509538330078125,0.010995565913617611,-1.5290708541870117,-1.5301399230957031
1772810186254238700,1.51923876953125,0.11972949653863907,-1.6026800870895386,-1.6452878713607788
1772810186263938800,1.528938720703125,0.6041452884674072,-1.2969422340393066,-1.3584868907928467
1772810186273639200,1.53863916015625,1.1255183219909668,-0.8907172083854675,-0.797713041305542
1772810186283339300,1.54833935546875,1.4077378511428833,-0.6698895692825317,-0.06101011857390404
1772810186293039600,1.55803955078125,1.4315615892410278,-0.6503419280052185,0.6995165348052979
1772810186302739700,1.56773974609375,1.2232567071914673,-0.8552870750427246,1.2731186151504517
1772810186312440000,1.577440185546875,0.7611374855041504,-1.239215612411499,1.5394556522369385
1772810186322140200,1.58714013671875,0.23212862014770508,-1.5251002311706543,1.5397610664367676
1772810186331840500,1.596840576171875,-0.17745621502399445,-1.5648064613342285,1.2987748384475708
1772810186341540600,1.60654052734375,-0.49082985520362854,-1.3491712808609009,0.8736129999160767
1772810186351241000,1.616240966796875,-0.6478220820426941,-0.969518780708313,0.29970553517341614
1772810186360941000,1.625941162109375,-0.6356047987937927,-0.5229766368865967,-0.354225218296051
1772810186370641400,1.635641357421875,-0.46608981490135193,-0.19127702713012695,-0.9122501611709595
1772810186380341500,1.645341552734375,-0.1279761642217636,-0.05780307948589325,-1.2146282196044922
1772810186390041900,1.655041748046875,0.3851502537727356,-0.08132137358188629,-1.1996620893478394
1772810186399742000,1.664741943359375,0.9541707634925842,-0.10025817900896072,-0.8832340836524963
1772810186409442300,1.6744423828125,1.3448188304901123,0.03527744114398956,-0.3511708974838257
1772810186419142400,1.684142333984375,1.4034618139266968,0.3058905303478241,0.2300669401884079
1772810186428842800,1.6938427734375,1.1838558912277222,0.6180424690246582,0.720285952091217
1772810186438542800,1.70354296875,0.813671886920929,0.9552397727966309,1.0803906917572021
1772810186448243200,1.7132431640625,0.4199695289134979,1.3019055128097534,1.3268746137619019
1772810186457943300,1.722943359375,0.060781046748161316,1.59664785861969,1.4802017211914062
1772810186467643600,1.7326435546875,-0.24434591829776764,1.7857104539871216,1.569082498550415
1772810186477343700,1.74234375,-0.4789179861545563,1.8290818929672241,1.6423863172531128
1772810186487044000,1.752044189453125,-0.6075050234794617,1.6931644678115845,1.727907419204712
1772810186496744200,1.761744140625,-0.6288852691650391,1.4100285768508911,1.8140393495559692
1772810186506444500,1.771444580078125,-0.5558869242668152,1.0358740091323853,1.8735986948013306
1772810186516144600,1.78114453125,-0.4224129915237427,0.6366738080978394,1.85802161693573
1772810186525845000,1.790844970703125,-0.29046618938446045,0.304974228143692,1.7783037424087524
1772810186535545000,1.800545166015625,-0.2254091054201126,0.11377356201410294,1.6655992269515991
1772810186545245400,1.810245361328125,-0.22663083672523499,0.07406735420227051,1.5382338762283325
1772810186554945500,1.819945556640625,-0.24831652641296387,0.20601414144039154,1.37482750415802
1772810186564646000,1.82964599609375,-0.26450446248054504,0.4689914286136627,1.1787399053573608
1772810186574346000,1.839345947265625,-0.2834412455558777,0.6995928883552551,0.9737948179244995
1772810186584046300,1.84904638671875,-0.3127627670764923,0.8119919896125793,0.7945060133934021
1772810186593746400,1.858746337890625,-0.3497200906276703,0.7936660647392273,0.6775254011154175
1772810186603446800,1.86844677734375,-0.3952295184135437,0.634230375289917,0.6231584548950195
1772810186613147000,1.87814697265625,-0.4312705397605896,0.388051837682724,0.6411789655685425
1772810186622847200,1.88784716796875,-0.43951719999313354,0.15347976982593536,0.7132610082626343
1772810186632547300,1.89754736328125,-0.411722868680954,0.005039634648710489,0.8262709975242615
1772810186642247400,1.907247314453125,-0.37781986594200134,-0.06482802331447601,0.9487493634223938
1772810186651947800,1.91694775390625,-0.3597993552684784,-0.1066722646355629,1.033964991569519
1772810186661648100,1.926648193359375,-0.3637699782848358,-0.15462514758110046,1.0642027854919434
1772810186671348200,1.93634814453125,-0.4007273018360138,-0.22182027995586395,1.0382410287857056
1772810186681048600,1.946048583984375,-0.4612029194831848,-0.30886849761009216,0.9496656656265259
1772810186690748700,1.955748779296875,-0.5311469435691833,-0.34613126516342163,0.7975603342056274
1772810186700449000,1.965448974609375,-0.5739074349403381,-0.28382304310798645,0.6170498132705688
1772810186710149000,1.975149169921875,-0.565049946308136,-0.1735619604587555,0.4087449014186859
1772810186719849200,1.98484912109375,-0.5311469435691833,-0.033368486911058426,0.19524765014648438
1772810186729549600,1.994549560546875,-0.5015199780464172,0.1259908676147461,0.011682788841426373
1772810186739250000,2.00425,-0.5024362802505493,0.2585485279560089,-0.12698352336883545
1772810186748950000,2.013949951171875,-0.5479456782341003,0.31780239939689636,-0.2173915058374405
1772810186758650400,2.023650390625,-0.5882627964019775,0.2704603672027588,-0.24121522903442383
1772810186768350500,2.0333505859375,-0.5992583632469177,0.16508620977401733,-0.18287764489650726
1772810186778050600,2.043050537109375,-0.6096430420875549,-0.03214675933122635,-0.08513928204774857
1772810186787751000,2.0527509765625,-0.6130027770996094,-0.29329144954681396,0.019929463043808937
1772810186797451300,2.062451171875,-0.5616901516914368,-0.4722748398780823,0.14362958073616028
1772810186807151400,2.0721513671875,-0.4156934916973114,-0.48937904834747314,0.3281107544898987
1772810186816851700,2.081851806640625,-0.2993237376213074,-0.3888917863368988,0.5361102223396301
1772810186826551800,2.0915517578125,-0.2974911332130432,-0.38644832372665405,0.5788707137107849
1772810186836252000,2.101251953125,-0.3341430425643921,-0.5907825827598572,0.29359689354896545
1772810186845952300,2.1109521484375,-0.3326158821582794,-0.7697659730911255,-0.2222784161567688
1772810186855652400,2.12065234375,-0.3094030022621155,-0.5773435831069946,-0.6715694665908813
1772810186865352700,2.130352783203125,-0.19792018830776215,-0.15401428937911987,-0.8227584958076477
1772810186875053000,2.140052978515625,0.06475166976451874,-0.019929463043808937,-0.7760273218154907
1772810186884753200,2.149753173828125,0.38698282837867737,-0.2554178237915039,-0.6648499369621277
1772810186894453500,2.15945361328125,0.6725621223449707,-0.690048098564148,-0.502970814704895
1772810186904153600,2.169153564453125,0.8271108865737915,-1.1976767778396606,-0.30291256308555603
1772810186913853700,2.178853759765625,0.8405499458312988,-1.6365830898284912,-0.07903063297271729
1772810186923554000,2.188553955078125,0.7055488228797913,-1.7761657238006592,0.14515674114227295
1772810186933254100,2.198254150390625,0.4266890585422516,-1.5764129161834717,0.25877758860588074
1772810186942954500,2.20795458984375,0.15302163362503052,-1.0990221500396729,0.19646938145160675
1772810186952654800,2.21765478515625,0.0308486707508564,-0.3797288239002228,-0.02130390889942646
1772810186962355000,2.22735498046875,0.056199558079242706,0.4036289155483246,-0.35819584131240845
1772810186972055000,2.237054931640625,0.13194678723812103,1.0563379526138306,-0.7173843383789062
1772810186981755400,2.24675537109375,0.21655155718326569,1.5224277973175049,-0.9721149206161499
1772810186991455500,2.25645556640625,0.2877173125743866,1.7011057138442993,-1.0970368385314941
1772810187001155800,2.26615576171875,0.3170388340950012,1.4882192611694336,-1.1181116104125977
1772810187010856000,2.27585595703125,0.33567020297050476,0.9918916821479797,-1.0026581287384033
1772810187020556300,2.285556396484375,0.42821621894836426,0.448527455329895,-0.7259364128112793
1772810187030256400,2.29525634765625,0.536644697189331,0.017867794260382652,-0.3713294267654419
1772810187039956700,2.304956787109375,0.581848680973053,-0.2398407906293869,-0.0319940410554409
1772810187049656800,2.31465673828125,0.5732966065406799,-0.31039565801620483,0.23373213410377502
1772810187059357200,2.324357177734375,0.5332849621772766,-0.261526495218277,0.4151589870452881
1772810187069057300,2.334057373046875,0.43860089778900146,-0.1530979871749878,0.5174788236618042
1772810187078757600,2.343757568359375,0.3075704276561737,-0.003512472379952669,0.5461894869804382
1772810187088457700,2.353457763671875,0.17104214429855347,0.16355904936790466,0.5086212754249573
1772810187098158000,2.363157958984375,0.05283980444073677,0.34315329790115356,0.41760244965553284
1772810187107858200,2.372858154296875,-0.03390299528837204,0.5105302333831787,0.2914588451385498
1772810187117558500,2.38255859375,-0.09896009415388107,0.6101012229919434,0.13904809951782227
1772810187127258600,2.392258544921875,-0.16340632736682892,0.6323977708816528,-0.025579962879419327
1772810187136959000,2.401958984375,-0.21807873249053955,0.6046034097671509,-0.18776455521583557
1772810187146659000,2.4116591796875,-0.24923282861709595,0.5477929711341858,-0.32704174518585205
1772810187156359400,2.421359375,-0.26939135789871216,0.4546361267566681,-0.43485936522483826
1772810187166059500,2.4310595703125,-0.29077163338661194,0.32910341024398804,-0.5054142475128174
1772810187175760000,2.440759765625,-0.30146175622940063,0.2185368686914444,-0.5283216834068298
1772810187185460000,2.4504599609375,-0.3072649836540222,0.1614210158586502,-0.5127446055412292
1772810187195160300,2.460160400390625,-0.31154105067253113,0.15958842635154724,-0.47028952836990356
1772810187204860400,2.4698603515625,-0.2932150959968567,0.23044873774051666,-0.41531169414520264
1772810187214560800,2.479560791015625,-0.2367101013660431,0.3016144931316376,-0.36888596415519714
1772810187224260900,2.4892607421875,-0.15210533142089844,0.2955058515071869,-0.3753000497817993
1772810187233961200,2.498961181640625,-0.025961752980947495,0.2438877671957016,-0.4421897530555725
1772810187243661300,2.508661376953125,0.11911863088607788,0.15867212414741516,-0.5509236454963684
1772810187253361700,2.518361572265625,0.21135921776294708,-0.023594651371240616,-0.7085267901420593
1772810187263061800,2.528061767578125,0.21960589289665222,-0.28382304310798645,-0.8746820092201233
1772810187272762000,2.53776220703125,0.17287473380565643,-0.5009855031967163,-1.001741886138916
1772810187282462200,2.547462158203125,0.10201441496610641,-0.5916988849639893,-1.0930662155151367
1772810187292162600,2.55716259765625,0.057726722210645676,-0.5095375776290894,-1.1721731424331665
1772810187301862700,2.566862548828125,0.06811141967773438,-0.27374377846717834,-1.2311216592788696
1772810187311562800,2.576562744140625,0.10415244847536087,0.06062832847237587,-1.2592214345932007
1772810187321263000,2.58626318359375,0.1285870373249054,0.38591381907463074,-1.243338942527771
1772810187330963200,2.595963134765625,0.1081230640411377,0.6021599769592285,-1.1520146131515503
1772810187340663600,2.60566357421875,0.032681263983249664,0.6858484148979187,-0.9815833568572998
1772810187350364000,2.615364013671875,-0.08155044913291931,0.6366738080978394,-0.8114575147628784
1772810187360064000,2.62506396484375,-0.2458730787038803,0.2955058515071869,-0.7741947770118713
1772810187369764000,2.63476416015625,-0.3796524703502655,-0.08223766833543777,-0.8795689344406128
1772810187379464400,2.64446435546875,-0.33597561717033386,-0.10300707072019577,-1.0270928144454956
1772810187389164500,2.65416455078125,-0.164322629570961,0.13820815086364746,-1.299538493156433
1772810187398865000,2.663864990234375,0.06811141967773438,0.48670652508735657,-1.6617813110351562
1772810187408565000,2.67356494140625,0.3445277214050293,0.893542468547821,-1.8832197189331055
1772810187418265300,2.683265380859375,0.6206386089324951,0.9790635108947754,-1.8838306665420532
1772810187427965700,2.692965576171875,0.7727439403533936,0.5319104790687561,-1.6575052738189697
1772810187437665800,2.702665771484375,0.6508764028549194,-0.09506583213806152,-1.1587340831756592
1772810187447366000,2.712365966796875,0.3283398151397705,-0.42676541209220886,-0.41408994793891907
1772810187457066200,2.722066162109375,0.0204639695584774,-0.224569171667099,0.3895026445388794
1772810187466766300,2.731766357421875,-0.08307760953903198,0.2698495090007782,1.1032981872558594
1772810187476466700,2.741466796875,-0.051618073135614395,0.6684387922286987,1.7120249271392822
1772810187486166800,2.751166748046875,0.1081230640411377,1.0722204446792603,2.3561818599700928
1772810187495867100,2.7608671875,0.35094180703163147,1.2276854515075684,2.895575523376465
1772810187505567200,2.770567138671875,0.5112938284873962,0.9787580966949463,3.1771841049194336
1772810187515267600,2.780267578125,0.5134318470954895,0.5193877816200256,3.1710753440856934
1772810187524967700,2.7899677734375,0.39309149980545044,0.0435241162776947,2.8586180210113525
1772810187534668000,2.79966796875,0.2003636509180069,-0.23403756320476532,2.2572216987609863
1772810187544368000,2.8093681640625,0.0360410213470459,-0.13813179731369019,1.4979168176651
1772810187554068500,2.819068359375,-0.08888082206249237,0.1303432732820511,0.7218130826950073
1772810187563768600,2.8287685546875,-0.21471896767616272,0.44608399271965027,0.050778135657310486
1772810187573468700,2.83846875,-0.314289927482605,0.8184061050415039,-0.39423686265945435
1772810187583169000,2.8481689453125,-0.38789913058280945,1.2313506603240967,-0.568027913570404
1772810187592869400,2.857869384765625,-0.4211912751197815,1.6033673286437988,-0.4730384051799774
1772810187602569500,2.867569580078125,-0.4266890585422516,1.7722713947296143,-0.1758527010679245
1772810187612269800,2.877269775390625,-0.43951719999313354,1.6714787483215332,0.24808746576309204
1772810187621970000,2.886969970703125,-0.4560105502605438,1.3223695755004883,0.7337249517440796
1772810187631670300,2.896670166015625,-0.4309650957584381,0.8025236129760742,1.1952333450317383
1772810187641370400,2.906370361328125,-0.3497200906276703,0.21639885008335114,1.524183988571167
1772810187651070500,2.916070556640625,-0.2098320573568344,-0.3128391206264496,1.6298636198043823
1772810187660770800,2.925770751953125,-0.006719512399286032,-0.5913934707641602,1.5348740816116333
1772810187670471200,2.93547119140625,0.2306014597415924,-0.5269472599029541,1.2859467267990112
1772810187680171300,2.945171142578125,0.4199695289134979,-0.23709189891815186,0.931950569152832
1772810187689871600,2.95487158203125,0.4920515716075897,0.09239330142736435,0.5199222564697266
1772810187699571700,2.96457177734375,0.46486809849739075,0.3306305706501007,0.11033745110034943
1772810187709271800,2.974271728515625,0.3909534513950348,0.41676250100135803,-0.2369391769170761
1772810187718972200,2.98397216796875,0.3179551064968109,0.4042397737503052,-0.4895317554473877
1772810187728672300,2.99367236328125,0.2782489061355591,0.356286883354187,-0.6294198036193848
1772810187738372600,3.00337255859375,0.2623664140701294,0.3013090491294861,-0.6520217657089233
1772810187748072700,3.01307275390625,0.2315177470445633,0.22953243553638458,-0.5790234804153442
1772810187757773000,3.02277294921875,0.19242240488529205,0.16019928455352783,-0.43547022342681885
1772810187767473200,3.03247314453125,0.1496618688106537,0.13820815086364746,-0.2577085793018341
1772810187777173500,3.042173583984375,0.08613193035125732,0.145843967795372,-0.10774127393960953
1772810187786873600,3.05187353515625,0.008246674202382565,0.141262486577034,-0.024052800610661507
1772810187796574000,3.061573974609375,-0.06566796451807022,0.12354740500450134,0.00007635809743078426
1772810187806274000,3.071274169921875,-0.1178968995809555,0.12018764764070511,-0.013057234697043896
1772810187815974400,3.080974365234375,-0.14599667489528656,0.15867212414741516,-0.050930850207805634
1772810187825674500,3.090674560546875,-0.14049890637397766,0.23105959594249725,-0.09613484144210815
1772810187835374800,3.100374755859375,-0.12492185086011887,0.2689332067966461,-0.13553562760353088
1772810187845075000,3.110074951171875,-0.14202606678009033,0.2793179154396057,-0.15141810476779938
1772810187854775300,3.119775390625,-0.17898337543010712,0.2594648003578186,-0.14714205265045166
1772810187864475400,3.129475341796875,-0.21258094906806946,0.23044873774051666,-0.11262819170951843
1772810187874175700,3.13917578125,-0.24312418699264526,0.19165882468223572,-0.05917752534151077
1772810187883875800,3.148875732421875,-0.2669478952884674,0.1467602699995041,-0.004810560029000044
1772810187893576200,3.158576171875,-0.2828303873538971,0.13423752784729004,0.04711294546723366
1772810187903276300,3.1682763671875,-0.30604326725006104,0.15347976982593536,0.10025817900896072
1772810187912976400,3.177976318359375,-0.3546070158481598,0.1101083755493164,0.12469277530908585
1772810187922676700,3.1876767578125,-0.41935867071151733,0.05696314200758934,0.12316560745239258
1772810187932376800,3.197376953125,-0.4566214084625244,0.05238165333867073,0.11217004805803299
1772810187942077200,3.2070771484375,-0.4260781705379486,0.08628465235233307,0.1417969912290573
1772810187951777500,3.216777587890625,-0.3500255048274994,0.16661337018013,0.24167338013648987
1772810187961477600,3.2264775390625,-0.3035998046398163,0.17394374310970306,0.30306529998779297
1772810187971178000,3.236177978515625,-0.3448331654071808,-0.03764454275369644,0.15493057668209076
1772810187980878000,3.245878173828125,-0.4358520209789276,-0.3012326955795288,-0.26473352313041687
1772810187990578200,3.255578125,-0.4725039005279541,-0.2404516488313675,-0.9153045415878296
1772810188000278500,3.265278564453125,-0.4276053309440613,0.2802342176437378,-1.602527379989624
1772810188009978600,3.274978515625,-0.25045454502105713,1.0004438161849976,-2.0148611068725586
1772810188019679000,3.284678955078125,0.15485422313213348,1.401171088218689,-2.1034364700317383
1772810188029379000,3.294379150390625,0.5784889459609985,1.1152863502502441,-2.043571710586548
1772810188039079400,3.304079345703125,0.720820426940918,0.1971566081047058,-2.040822982788086
1772810188048779500,3.313779541015625,0.5513054728507996,-0.7764855027198792,-2.200258493423462
1772810188058479900,3.32347998046875,0.2568686306476593,-1.3390918970108032,-2.513021230697632
1772810188068180000,3.333179931640625,0.037262752652168274,-1.2835032939910889,-2.868849992752075
1772810188077880300,3.34288037109375,-0.03543015569448471,-0.755105197429657,-3.127551317214966
1772810188087580400,3.352580322265625,0.04459312930703163,-0.07276926934719086,-3.150764226913452
1772810188097280800,3.36228076171875,0.25381430983543396,0.3990474045276642,-2.8835108280181885
1772810188106980900,3.37198095703125,0.5174024701118469,0.43569931387901306,-2.294942617416382
1772810188116681200,3.38168115234375,0.6887500286102295,0.0639880821108818,-1.4537818431854248
1772810188126381300,3.39138134765625,0.6585122346878052,-0.4768563210964203,-0.520380437374115
1772810188136081700,3.40108154296875,0.46059203147888184,-0.9823469519615173,0.2813795804977417
1772810188145781800,3.41078173828125,0.22693626582622528,-1.2859467267990112,0.8073341846466064
1772810188155482000,3.420482177734375,0.033597562462091446,-1.2602903842926025,1.0263291597366333
1772810188165182200,3.43018212890625,-0.14599667489528656,-0.8974367380142212,0.968297004699707
1772810188174882600,3.439882568359375,-0.3231474757194519,-0.30245441198349,0.7178424596786499
1772810188184582700,3.449582763671875,-0.45875945687294006,0.32971426844596863,0.3983601927757263
1772810188194282800,3.45928271484375,-0.5485565662384033,0.8156571984291077,0.12316560745239258
1772810188203983000,3.468983154296875,-0.5656607747077942,1.1479676961898804,0.0012980876490473747
1772810188213683200,3.47868310546875,-0.4981602132320404,1.3315324783325195,0.05322159454226494
1772810188223383600,3.488383544921875,-0.3503309488296509,1.3498584032058716,0.24442227184772491
1772810188233084000,3.498083984375,-0.1585194170475006,1.1711804866790771,0.5101484656333923
1772810188242784000,3.507783935546875,0.027488915249705315,0.8599448800086975,0.8106939196586609
1772810188252484000,3.517484130859375,0.1802051067352295,0.5465712547302246,1.1087958812713623
1772810188262184400,3.527184326171875,0.28496840596199036,0.28237223625183105,1.369329810142517
1772810188271884500,3.536884521484375,0.3225366175174713,0.06582067906856537,1.5638902187347412
1772810188281585000,3.5465849609375,0.29016077518463135,-0.08223766833543777,1.6634612083435059
1772810188291285000,3.556284912109375,0.20341797173023224,-0.11217004805803299,1.6475787162780762
1772810188300985300,3.5659853515625,0.0925460159778595,0.001679878099821508,1.5150209665298462
1772810188310685400,3.575685546875,-0.010384701192378998,0.19471314549446106,1.2902227640151978
1772810188320385800,3.5853857421875,-0.06902772188186646,0.4176788032054901,1.0263291597366333
1772810188330086000,3.5950859375,-0.0665842592716217,0.6601921319961548,0.7868701815605164
1772810188339786200,3.6047861328125,-0.024740023538470268,0.8083268404006958,0.5904771685600281
1772810188349486300,3.614486328125,0.014049889519810677,0.8413135409355164,0.45883581042289734
1772810188359186700,3.624186767578125,0.015271619893610477,0.7936660647392273,0.41699156165122986
1772810188368886800,3.63388671875,-0.030543239787220955,0.641866147518158,0.44203701615333557
1772810188378587100,3.643587158203125,-0.11239911615848541,0.41615164279937744,0.4759400188922882
1772810188388287200,3.653287353515625,-0.19914191961288452,0.1776089370250702,0.4664716124534607
1772810188397987300,3.6629873046875,-0.2629773020744324,-0.031612250953912735,0.3983601927757263
1772810188407687700,3.672687744140625,-0.2910770773887634,-0.22609633207321167,0.2545015513896942
1772810188417387800,3.6823876953125,-0.2761108875274658,-0.4133263826370239,0.07887791097164154
1772810188427088100,3.692088134765625,-0.2052505612373352,-0.5391645431518555,-0.08116865903139114
1772810188436788500,3.70178857421875,-0.11698060482740402,-0.6164389252662659,-0.2589302957057953
1772810188446488600,3.711488525390625,-0.10506874322891235,-0.8003092408180237,-0.48739373683929443
1772810188456188700,3.721188720703125,-0.19333870708942413,-1.0199151039123535,-0.769002377986908
1772810188465889000,3.730888916015625,-0.2974911332130432,-1.0364084243774414,-1.1178061962127686
1772810188475589000,3.740589111328125,-0.3399462401866913,-0.9255365133285522,-1.602221965789795
1772810188485289500,3.75028955078125,-0.3692677617073059,-0.8806379437446594,-2.245462656021118
1772810188494989600,3.759989501953125,-0.29596397280693054,-0.8290198445320129,-2.915581226348877
1772810188504690000,3.76968994140625,0.008857538923621178,-0.7251728773117065,-3.4531421661376953
1772810188514390000,3.77939013671875,0.3970620930194855,-0.6133846044540405,-3.65381121635437
1772810188524090400,3.78909033203125,0.6728675365447998,-0.5303069949150085,-3.363345146179199
1772810188533790500,3.79879052734375,0.7473930716514587,-0.5663480162620544,-2.552727460861206
1772810188543490800,3.80849072265625,0.6841685771942139,-0.7554106712341309,-1.3923898935317993
1772810188553191000,3.81819091796875,0.572685718536377,-0.9954805374145508,-0.1550832986831665
1772810188562891300,3.827891357421875,0.4825831651687622,-1.172020435333252,0.8360447883605957
1772810188572591400,3.83759130859375,0.49144071340560913,-1.1613303422927856,1.3552799224853516
1772810188582291700,3.847291748046875,0.5952877402305603,-1.0003674030303955,1.358028769493103
1772810188591991800,3.85699169921875,0.6924152374267578,-0.6906589865684509,1.0199151039123535
1772810188601692000,3.86669189453125,0.7547234296798706,-0.3110065162181854,0.6436223983764648
1772810188611392300,3.876392333984375,0.7229584455490112,-0.06757691502571106,0.39561131596565247
1772810188621092400,3.88609228515625,0.4667007029056549,0.05177079141139984,0.2508363425731659
1772810188630792700,3.895792724609375,0.10506874322891235,0.29794928431510925,0.2248746007680893
1772810188640493000,3.9054931640625,-0.30451610684394836,0.4851793646812439,0.20715951919555664
1772810188650193200,3.915193115234375,-0.7727439403533936,0.5181660652160645,0.08162680268287659
1772810188659893500,3.9248935546875,-0.9159917235374451,0.661413848400116,-0.05948295816779137
1772810188669593600,3.934593505859375,-0.6505709886550903,0.9008728265762329,0.05230529606342316
1772810188679293700,3.944293701171875,-0.19792018830776215,0.9472985863685608,0.6417897939682007
1772810188688994000,3.953994140625,0.21868959069252014,0.37369653582572937,1.6949206590652466
1772810188698694100,3.963694091796875,0.40378162264823914,-0.6405680775642395,3.035768985748291
1772810188708394500,3.97339453125,0.2516762912273407,-1.3836851119995117,4.257498264312744
1772810188718094600,3.983094482421875,-0.19822561740875244,-1.1619411706924438,4.740386962890625
1772810188727795000,3.992794921875,-0.8020654320716858,0.18890993297100067,4.256276607513428
1772810188737495000,4.0024951171875,-1.3915499448776245,2.1222970485687256,2.974682331085205
1772810188747195400,4.0121953125,-1.721111536026001,3.9741334915161133,1.2847249507904053
1772810188756895500,4.0218955078125,-1.7806708812713623,4.732522010803223,-0.38934993743896484
1772810188766595800,4.031595947265625,-1.684765100479126,4.49611759185791,-1.730808973312378
1772810188776296000,4.0412958984375,-1.3646719455718994,4.026973247528076,-2.6293911933898926
1772810188785996300,4.050996337890625,-0.8631519079208374,3.9582509994506836,-3.0044620037078857
1772810188795696400,4.0606962890625,-0.26878049969673157,3.90571665763855,-3.063715934753418
1772810188805396700,4.070396728515625,0.3912588953971863,3.707796573638916,-2.7017786502838135
1772810188815096800,4.080096923828125,0.9410371780395508,2.81898832321167,-2.12176251411438
1772810188824797000,4.089796875,1.2336413860321045,1.5706861019134521,-1.3758965730667114
1772810188834497300,4.099497314453125,1.334128737449646,0.6406444311141968,-0.5533671379089355
1772810188844197400,4.109197265625,1.3558143377304077,0.3202458620071411,0.3125337064266205
1772810188853897700,4.118897705078125,1.3558143377304077,0.38927358388900757,1.0748928785324097
1772810188863597800,4.128597900390625,1.3045017719268799,0.3367392122745514,1.605123519897461
1772810188873298200,4.138298095703125,1.2159262895584106,0.07131846249103546,1.912388563156128
1772810188882998300,4.147998291015625,1.1337649822235107,-0.33971717953681946,1.986914038658142
1772810188892698600,4.15769873046875,1.0580178499221802,-0.7001274228096008,1.8079307079315186
1772810188902398700,4.167398681640625,0.9514219164848328,-0.7706822752952576,1.3934589624404907
1772810188912099000,4.17709912109375,0.7977893948554993,-0.5938369035720825,0.820162296295166
1772810188921799200,4.186799072265625,0.5968148708343506,-0.3113119602203369,0.2202931046485901
1772810188931499500,4.19649951171875,0.3433060050010681,-0.07612902671098709,-0.30657777190208435
1772810188941199600,4.20619970703125,0.1285870373249054,0.10827577859163284,-0.6376664638519287
1772810188950899700,4.215899658203125,0.000610864779446274,0.15592323243618011,-0.7308233380317688
1772810188960600000,4.22560009765625,-0.11453714966773987,0.050549060106277466,-0.6150645017623901
1772810188970300200,4.235300048828125,-0.24251331388950348,-0.16042836010456085,-0.3649153411388397
1772810188980000500,4.24500048828125,-0.34788748621940613,-0.4347066581249237,-0.05673406645655632
1772810188989700900,4.254700927734375,-0.4257727563381195,-0.7071523666381836,0.251752644777298
1772810188999401000,4.26440087890625,-0.4932733178138733,-1.0095304250717163,0.4570032060146332
1772810189009101300,4.274101318359375,-0.5519163012504578,-1.3125193119049072,0.526030957698822
1772810189018801400,4.283801513671875,-0.5910117030143738,-1.5113558769226074,0.48479756712913513
1772810189028501500,4.29350146484375,-0.6059778332710266,-1.5944334268569946,0.3476584255695343
1772810189038201900,4.303201904296875,-0.6221657991409302,-1.607872486114502,0.1472947746515274
1772810189047902000,4.31290185546875,-0.5861247777938843,-1.5189915895462036,-0.029245151206851006
1772810189057602300,4.322602294921875,-0.47525280714035034,-1.2975531816482544,-0.08788817375898361
1772810189067302400,4.332302490234375,-0.35705047845840454,-1.043738842010498,-0.042073313146829605
1772810189077002800,4.342002685546875,-0.2938259541988373,-0.8730021119117737,0.06177370250225067
1772810189086702800,4.351702880859375,-0.2663370370864868,-0.7822887301445007,0.18516838550567627
1772810189096403000,4.36140283203125,-0.24709481000900269,-0.7208967804908752,0.32963791489601135
1772810189106103300,4.371103271484375,-0.2632827162742615,-0.7215076684951782,0.4854084253311157
1772810189115803600,4.3808037109375,-0.33750277757644653,-0.7627410292625427,0.6252964735031128
1772810189125503700,4.390503662109375,-0.4318813979625702,-0.8076395988464355,0.7251728773117065
1772810189135204000,4.4002041015625,-0.5030471682548523,-0.8971312642097473,0.7422770857810974
1772810189144904200,4.409904296875,-0.509155809879303,-1.0217477083206177,0.6427060961723328
1772810189154604500,4.4196044921875,-0.4413498044013977,-1.008919596672058,0.409050315618515
1772810189164304600,4.4293046875,-0.3430005609989166,-0.8415426015853882,0.02023489587008953
1772810189174004700,4.439004638671875,-0.21380266547203064,-0.6497310400009155,-0.437302827835083
1772810189183705000,4.448705078125,-0.029626941308379173,-0.39225155115127563,-0.7210494875907898
1772810189193405200,4.4584052734375,0.07330377399921417,-0.1329394429922104,-0.8010727763175964
1772810189203105500,4.46810546875,-0.07757982611656189,-0.25389066338539124,-0.9052252173423767
1772810189212805600,4.4778056640625,-0.4324922561645508,-0.9124029278755188,-1.2375357151031494
1772810189222506000,4.487506103515625,-0.7015781998634338,-1.4942516088485718,-1.6575052738189697
1772810189232206000,4.4972060546875,-0.758083164691925,-1.2215005159378052,-1.807778000831604
1772810189241906400,4.506906494140625,-0.5513054728507996,-0.3284161686897278,-1.6294054985046387
1772810189251606500,4.5166064453125,-0.26358816027641296,0.16539163887500763,-1.3224458694458008
1772810189261307000,4.526306884765625,-0.08368847519159317,-0.049861837178468704,-1.1159735918045044
1772810189271007000,4.536007080078125,0.03756818547844887,-0.6924915909767151,-1.1306343078613281
1772810189280707300,4.545707275390625,0.1383608728647232,-1.449963927268982,-1.335579514503479
1772810189290407400,4.555407470703125,0.22296564280986786,-1.8998658657073975,-1.5359431505203247
1772810189300107800,4.565107666015625,0.30054548382759094,-2.0031020641326904,-1.6419281959533691
1772810189309807900,4.574807861328125,0.39828383922576904,-1.8164827823638916,-1.6324597597122192
1772810189319508000,4.584508056640625,0.5415316224098206,-1.4789799451828003,-1.5472440719604492
1772810189329208300,4.594208251953125,0.6725621223449707,-1.049312949180603,-1.342604398727417
1772810189338908400,4.603908447265625,0.7168498039245605,-0.6436223983764648,-0.9837213754653931
1772810189348608800,4.61360888671875,0.6148353815078735,-0.41668614745140076,-0.5075522661209106
1772810189358308900,4.623308837890625,0.41263917088508606,-0.38522660732269287,0.015958841890096664
1772810189368009200,4.63300927734375,0.19303326308727264,-0.40630143880844116,0.49365508556365967
1772810189377709300,4.642709228515625,-0.04367683082818985,-0.3888917863368988,0.8427643179893494
1772810189387409700,4.65240966796875,-0.31154105067253113,-0.312228262424469,1.0031163692474365
1772810189397109800,4.66210986328125,-0.573602020740509,-0.13416117429733276,0.9841794967651367
1772810189406810000,4.67181005859375,-0.795651376247406,0.18860450387001038,0.8607848286628723
1772810189416510200,4.68151025390625,-0.9413426518440247,0.5908589363098145,0.7025708556175232
1772810189426210600,4.69121044921875,-0.990517258644104,0.9753983616828918,0.552603542804718
1772810189435910700,4.70091064453125,-0.9596685767173767,1.2521201372146606,0.4365392327308655
1772810189445611000,4.710611083984375,-0.9043853282928467,1.2722786664962769,0.3742310404777527
1772810189455311000,4.72031103515625,-0.8442151546478271,0.9735657572746277,0.4310414493083954
1772810189465011200,4.73001123046875,-0.7232639193534851,0.5761982202529907,0.6781362891197205
1772810189474711600,4.739711669921875,-0.5604684352874756,0.23197589814662933,1.0513746738433838
1772810189484411600,4.74941162109375,-0.4059196412563324,-0.001679878099821508,1.448742151260376
1772810189494112000,4.759112060546875,-0.2809978127479553,-0.12133301794528961,1.802432894706726
1772810189503812000,4.76881201171875,-0.19303326308727264,-0.19616395235061646,2.055330991744995
1772810189513512400,4.778512451171875,-0.13133592903614044,-0.2654971182346344,2.1826961040496826
1772810189523212500,4.788212646484375,-0.1026252806186676,-0.30306529998779297,2.2046873569488525
1772810189542613000,4.807613037109375,-0.18203771114349365,-0.3995819091796875,1.9606468677520752
1772810189552313300,4.817313232421875,-0.25931209325790405,-0.4618901312351227,1.7077488899230957
1772810189562013400,4.827013427734375,-0.3222311735153198,-0.49976375699043274,1.4059816598892212
1772810189571713800,4.8367138671875,-0.33567020297050476,-0.4915170669555664,1.1039090156555176
1772810189581414000,4.846413818359375,-0.3090975880622864,-0.45914125442504883,0.8265764117240906
1772810189591114000,4.856114013671875,-0.2779434621334076,-0.4203513264656067,0.5568795800209045
1772810189600814300,4.865814453125,-0.24862197041511536,-0.36140286922454834,0.307646781206131
1772810189610514400,4.875514404296875,-0.21380266547203064,-0.28260132670402527,0.10545053333044052
1772810189620214800,4.88521484375,-0.1853974610567093,-0.22609633207321167,-0.017027854919433594
1772810189629915000,4.894914794921875,-0.21716243028640747,-0.19280420243740082,-0.050319984555244446
1772810189639615200,4.904615234375,-0.35735589265823364,-0.18547381460666656,-0.012751801870763302
1772810189649315300,4.9143154296875,-0.5384773015975952,-0.27771440148353577,0.06666062027215958
1772810189659015700,4.924015625,-0.7006618976593018,-0.46463900804519653,0.14637847244739532
1772810189668715800,4.9337158203125,-0.7904590368270874,-0.6213258504867554,0.1781434416770935
1772810189678416100,4.943416015625,-0.7599157691001892,-0.7334195375442505,0.09048434346914291
1772810189688116200,4.9531162109375,-0.6750055551528931,-0.8281035423278809,-0.22472187876701355
1772810189697816600,4.962816650390625,-0.5305360555648804,-0.877278208732605,-0.8123738169670105
1772810189707516700,4.9725166015625,-0.250149130821228,-0.7099012136459351,-1.5606831312179565
1772810189717217000,4.982217041015625,0.08460476994514465,-0.22823435068130493,-2.2353832721710205
1772810189726917000,4.991917236328125,0.26358816027641296,0.4555523991584778,-2.6098434925079346
1772810189736617200,5.0016171875,0.2981020212173462,1.098182201385498,-2.5322635173797607
1772810189746317600,5.011317626953125,0.22449280321598053,1.111926555633545,-2.1174864768981934
1772810189756017700,5.021017578125,0.01435532234609127,0.37094762921333313,-1.6446770429611206
1772810189765718000,5.030718017578125,-0.1380554437637329,-0.3901135325431824,-1.3001493215560913
1772810189775418000,5.040418212890625,-0.06200277432799339,-0.7199804782867432,-1.0982584953308105
1772810189785118500,5.050118408203125,0.10567960888147354,-0.7044034600257874,-1.0164026021957397
1772810189794818600,5.059818603515625,0.24526220560073853,-0.35101816058158875,-0.9971603751182556
1772810189804519000,5.069518798828125,0.3787361681461334,0.09361502528190613,-0.9342412948608398
1772810189814219000,5.079218994140625,0.4929678738117218,0.46654796600341797,-0.6272817850112915
1772810189823919000,5.088919189453125,0.600785493850708,0.439364492893219,-0.013973532244563103
1772810189833619500,5.098619384765625,0.7263182401657104,-0.11094831675291061,0.8085559010505676
1772810189843319800,5.10831982421875,0.8536835312843323,-0.765489935874939,1.7217987775802612
1772810189853020000,5.11802001953125,0.9037744402885437,-1.164995551109314,2.540663003921509
1772810189862720300,5.12772021484375,0.8335250020027161,-1.2371538877487183,3.1353397369384766
1772810189872420400,5.13742041015625,0.6878337264060974,-1.078863501548767,3.474369764328003
1772810189882120400,5.147120361328125,0.5558869242668152,-0.8684206604957581,3.532707452774048
1772810189891820800,5.15682080078125,0.43493571877479553,-0.6903535723686218,3.3274567127227783
1772810189901521000,5.16652099609375,0.3127627670764923,-0.5138136148452759,2.893437385559082
1772810189911221200,5.17622119140625,0.1957821547985077,-0.2697731554508209,2.3057854175567627
1772810189920921300,5.18592138671875,0.09712749719619751,0.09728021919727325,1.6588796377182007
1772810189930621700,5.19562158203125,0.01282816007733345,0.4958694875240326,1.0006728172302246
1772810189940321800,5.20532177734375,-0.04764745384454727,0.8214604258537292,0.4182133078575134
1772810189950022100,5.215022216796875,-0.10629047453403473,1.0398445129394531,0.008017600513994694
1772810189959722200,5.22472216796875,-0.20158538222312927,1.004719853401184,-0.1813504844903946
1772810189969422300,5.23442236328125,-0.35094180703163147,0.7756455540657043,-0.11384992301464081
1772810189979122700,5.244122802734375,-0.5293143391609192,0.5175551772117615,0.19158247113227844
1772810189988823000,5.253822998046875,-0.72173672914505,0.3657552897930145,0.6451495885848999
1772810189998523100,5.263523193359375,-0.9465349912643433,0.3061959743499756,1.1100176572799683
1772810190008223500,5.273223388671875,-1.1701115369796753,0.24602578580379486,1.4826451539993286
1772810190017923600,5.282923583984375,-1.322827696800232,0.11285726726055145,1.6851468086242676
1772810190027623700,5.292623779296875,-1.3744457960128784,-0.06421715766191483,1.7077488899230957
1772810190037324000,5.302323974609375,-1.3173298835754395,-0.17508912086486816,1.580383539199829
1772810190047024000,5.312024169921875,-1.1392627954483032,-0.22640176117420197,1.3671917915344238
1772810190056724500,5.321724365234375,-0.8564324378967285,-0.24747659265995026,1.1335359811782837
1772810190066424600,5.331424560546875,-0.5335903763771057,-0.24808746576309204,0.884913980960846
1772810190076125000,5.341125,-0.24495677649974823,-0.15523600578308105,0.6155226230621338
1772810190085825000,5.350824951171875,-0.009773836471140385,0.0746782198548317,0.3363574147224426
1772810190095525400,5.360525390625,0.1591302752494812,0.3315468728542328,0.07002037763595581
1772810190105225500,5.3702255859375,0.23243404924869537,0.5447386503219604,-0.15233440697193146
1772810190114925600,5.379925537109375,0.19914191961288452,0.6611084342002869,-0.2986365258693695
1772810190124626000,5.3896259765625,0.07849612087011337,0.6235402226448059,-0.3704131245613098
1772810190134326000,5.399325927734375,-0.07941242307424545,0.4277580678462982,-0.39881834387779236
1772810190144026400,5.4090263671875,-0.18600831925868988,0.14278964698314667,-0.4336376488208771
1772810190153726500,5.4187265625,-0.17653992772102356,-0.1582903414964676,-0.5249619483947754
1772810190163426800,5.4284267578125,-0.06841685622930527,-0.4001927971839905,-0.6709585785865784
1772810190173127000,5.438126953125,0.09040798991918564,-0.5660426020622253,-0.8474985361099243
1772810190182827300,5.4478271484375,0.2611446976661682,-0.6866883635520935,-1.0286198854446411
1772810190192527400,5.45752734375,0.4068359434604645,-0.7859538793563843,-1.222264051437378
1772810190202227700,5.467227783203125,0.5143481492996216,-0.8464295268058777,-1.3960551023483276
1772810190211927800,5.476927734375,0.5962040424346924,-0.8229112029075623,-1.5148682594299316
1772810190221628200,5.486628173828125,0.6487383842468262,-0.7685442566871643,-1.5689297914505005
1772810190231328300,5.496328369140625,0.6527090072631836,-0.7749583125114441,-1.557934284210205
1772810190241028600,5.506028564453125,0.6304124593734741,-0.8351284861564636,-1.4937934875488281
1772810190250728700,5.515728759765625,0.610559344291687,-0.8476512432098389,-1.3725367784500122
1772810190260428800,5.5254287109375,0.5913171172142029,-0.7963386178016663,-1.2115739583969116
1772810190270129200,5.535129150390625,0.5711585879325867,-0.7395281791687012,-1.0258710384368896
1772810190279829200,5.544829345703125,0.5543597936630249,-0.6879100799560547,-0.8267291188240051
1772810190289529600,5.554529541015625,0.5204567909240723,-0.6243801712989807,-0.6184242367744446
1772810190299229700,5.564229736328125,0.44837474822998047,-0.6115520000457764,-0.4495201110839844
1772810190308930000,5.573929931640625,0.3402516841888428,-0.6433169841766357,-0.3362047076225281
1772810190318630100,5.583630126953125,0.22907429933547974,-0.6555342674255371,-0.2928332984447479
1772810190328330200,5.593330322265625,0.14660754799842834,-0.6756927967071533,-0.3288743197917938
1772810190338030600,5.603030517578125,0.12186752259731293,-0.673249363899231,-0.4128682315349579
1772810190347730700,5.612730712890625,0.12431098520755768,-0.571234941482544,-0.5133554935455322
1772810190357431000,5.62243115234375,0.14782927930355072,-0.4237110912799835,-0.6895899772644043
1772810190367131400,5.63213134765625,0.16065743565559387,-0.3934732675552368,-1.0228166580200195
1772810190376831500,5.64183154296875,0.11545344442129135,-0.5141190886497498,-1.5619049072265625
1772810190386531800,5.65153173828125,0.06597339361906052,-0.4658607542514801,-2.317239284515381
1772810190396232000,5.66123193359375,0.11331541836261749,0.07681624591350555,-3.1208317279815674
1772810190405932000,5.67093212890625,0.2877173125743866,0.8626937866210938,-3.6189920902252197
1772810190415632400,5.68063232421875,0.49052441120147705,1.428049087524414,-3.560959815979004
1772810190425332500,5.69033251953125,0.48655378818511963,1.326951026916504,-3.239339590072632
1772810190435032800,5.70003271484375,0.22327107191085815,0.4592176079750061,-2.9476516246795654
1772810190444733000,5.70973291015625,-0.06750056147575378,-0.7184533476829529,-2.641303062438965
1772810190454433300,5.719433349609375,-0.2666424810886383,-1.7865504026412964,-2.2576799392700195
1772810190464133400,5.72913330078125,-0.30085089802742004,-2.4820199012756348,-1.8334342241287231
1772810190473833500,5.73883349609375,-0.1737910360097885,-2.591670274734497,-1.3551270961761475
1772810190483533800,5.748533935546875,-0.008246674202382565,-2.1799473762512207,-0.8673516511917114
1772810190493234000,5.75823388671875,0.1337793916463852,-1.4178935289382935,-0.34322965145111084
1772810190502934300,5.767934326171875,0.21227550506591797,-0.5287798047065735,0.2251800298690796
1772810190512634400,5.77763427734375,0.20189081132411957,0.1571449637413025,0.7615193128585815
1772810190522334700,5.787334716796875,0.11759147047996521,0.5246564745903015,1.2163081169128418
1772810190532034800,5.797034912109375,0.02626718580722809,0.5484038591384888,1.5660282373428345
1772810190541735200,5.806735107421875,-0.025045456364750862,0.3068068325519562,1.7242422103881836
1772810190551435300,5.816435302734375,-0.029626941308379173,0.037720900028944016,1.679343581199646
1772810190561135400,5.82613525390625,-0.023212861269712448,-0.06238456442952156,1.4643192291259766
1772810190570835700,5.835835693359375,-0.0616973415017128,0.04780016839504242,1.1097122430801392
1772810190580535800,5.845535888671875,-0.1536324918270111,0.3413206934928894,0.6854666471481323
1772810190599936500,5.8649365234375,-0.33750277757644653,1.0105230808258057,-0.09430225193500519
1772810190609636600,5.87463671875,-0.3689623177051544,1.2221877574920654,-0.30107998847961426
1772810190619336700,5.884336669921875,-0.32589635252952576,1.3245075941085815,-0.2986365258693695
1772810190629037000,5.894037109375,-0.22846342623233795,1.3049598932266235,-0.11018473654985428
1772810190638737200,5.903737060546875,-0.09865466505289078,1.188590168952942,0.21326816082000732
1772810190648437500,5.9134375,0.05436696484684944,0.9592103958129883,0.5822305083274841
1772810190658137600,5.9231376953125,0.18264856934547424,0.633008599281311,0.9179006814956665
1772810190667838000,5.932837890625,0.2626718580722809,0.26710063219070435,1.1845431327819824
1772810190677538000,5.9425380859375,0.3081812858581543,-0.08743002265691757,1.3616939783096313
1772810190687238400,5.95223828125,0.3451386094093323,-0.4004982113838196,1.4429389238357544
1772810190696938500,5.9619384765625,0.37232208251953125,-0.6549233794212341,1.4579051733016968
1772810190706638600,5.971638671875,0.38759371638298035,-0.8265764117240906,1.420642375946045
1772810190716339000,5.9813388671875,0.3943132162094116,-0.8995747566223145,1.3363430500030518
1772810190726039000,5.9910390625,0.38209593296051025,-0.85834139585495,1.1952333450317383
1772810190735739400,6.000739501953125,0.3289506733417511,-0.7163153290748596,0.9963968396186829
1772810190745439500,6.010439453125,0.24465134739875793,-0.5199222564697266,0.7596867084503174
1772810190755139800,6.020139892578125,0.15118902921676636,-0.3158934414386749,0.514729917049408
1772810190764840000,6.02983984375,0.04245510324835777,-0.16103923320770264,0.28321218490600586
1772810190774540000,6.0395400390625,-0.07238747924566269,-0.046196650713682175,0.09231694042682648
1772810190784240400,6.049240478515625,-0.16584978997707367,0.05482511222362518,-0.06192641705274582
1772810190793940500,6.0589404296875,-0.23182319104671478,0.13209950923919678,-0.18806999921798706
1772810190803640800,6.068640869140625,-0.27580544352531433,0.12110394239425659,-0.28244858980178833
1772810190813341000,6.0783408203125,-0.30115634202957153,-0.013515383005142212,-0.30169084668159485
1772810190823041300,6.088041259765625,-0.29596397280693054,-0.23189954459667206,-0.20792309939861298
1772810190832741400,6.097741455078125,-0.26358816027641296,-0.5009855031967163,0.01626427471637726
1772810190842441700,6.107441650390625,-0.2568686306476593,-0.8482621312141418,0.33452481031417847
1772810190852141800,6.117141845703125,-0.2935205399990082,-1.2676208019256592,0.6872992515563965
1772810190861842200,6.12684228515625,-0.3692677617073059,-1.708359718322754,0.9951750636100769
1772810190871542300,6.136542236328125,-0.42852163314819336,-2.004934549331665,1.1692715883255005
1772810190881242600,6.14624267578125,-0.39217519760131836,-2.203465700149536,1.0806961059570312
1772810190890942700,6.155942626953125,-0.3078758418560028,-2.597778797149658,0.6442332863807678
1772810190900643000,6.16564306640625,-0.3121519088745117,-3.298746109008789,-0.05306887626647949
1772810190910343200,6.17534326171875,-0.34697118401527405,-3.689088821411133,-0.8572723865509033
1772810190920043300,6.185043212890625,-0.383928507566452,-3.083110809326172,-1.5469386577606201
1772810190929743600,6.19474365234375,-0.6398808360099792,-1.718438982963562,-2.1208462715148926
1772810190939443700,6.204443603515625,-1.0711513757705688,-0.35101816058158875,-2.722853422164917
1772810190949144000,6.21414404296875,-1.369253396987915,0.7652608752250671,-3.298593521118164
1772810190958844200,6.22384423828125,-1.414151906967163,1.4253002405166626,-3.619602918624878
1772810190968544500,6.23354443359375,-1.2424989938735962,1.4320197105407715,-3.391139507293701
1772810190978244600,6.24324462890625,-0.9935715794563293,0.8113811612129211,-2.5316526889801025
1772810190987945000,6.252945068359375,-0.7168498039245605,0.1253799945116043,-1.1623992919921875
1772810190997645000,6.26264501953125,-0.41844236850738525,-0.19708025455474854,0.4444804787635803
1772810191007345200,6.27234521484375,-0.14202606678009033,-0.15431971848011017,2.080376386642456
1772810191017045500,6.28204541015625,0.19120067358016968,-0.016569707542657852,3.5067455768585205
1772810191026745600,6.29174560546875,0.5586358308792114,-0.011377356946468353,4.570566654205322
1772810191036446000,6.301446044921875,0.7141009569168091,-0.12591449916362762,5.2724504470825195
1772810191046146000,6.31114599609375,0.6780598759651184,-0.14607304334640503,5.496026992797852
1772810191055846400,6.320846435546875,0.6401863098144531,0.021227551624178886,5.1637163162231445
1772810191065546500,6.33054638671875,0.609948456287384,0.34956738352775574,4.349128246307373
1772810191075246600,6.34024658203125,0.40317076444625854,0.8636100888252258,3.2941646575927734
1772810191084947000,6.349947021484375,0.06322450190782547,1.4986040592193604,2.213850259780884
1772810191094647000,6.35964697265625,-0.2006690800189972,2.0492985248565674,1.234939455986023
1772810191104347400,6.369347412109375,-0.3185659945011139,2.3367104530334473,0.46433359384536743
1772810191114047500,6.379047607421875,-0.2715294063091278,2.2863142490386963,-0.05917752534151077
1772810191123747800,6.388747802734375,-0.13255766034126282,2.0251693725585938,-0.345062255859375
1772810191133448000,6.398447998046875,-0.01893680728971958,1.7362303733825684,-0.4217257797718048
1772810191143148300,6.408148193359375,-0.005192350596189499,1.4833323955535889,-0.3197113573551178
1772810191152848400,6.417848388671875,-0.07849612087011337,1.3510801792144775,-0.042684175074100494
1772810191162548500,6.427548583984375,-0.20922118425369263,1.3516910076141357,0.4292088747024536
1772810191172248800,6.437248779296875,-0.47372564673423767,1.46409010887146,1.0916917324066162
1772810191181949000,6.446948974609375,-0.8549052476882935,1.5248712301254272,1.8418337106704712
1772810191191649300,6.456649169921875,-1.1704169511795044,1.3590214252471924,2.588615894317627
1772810191201349600,6.466349609375,-1.3106104135513306,0.9173662066459656,3.214141368865967
1772810191211049700,6.4760498046875,-1.3103049993515015,0.30772313475608826,3.6014297008514404
1772810191220749800,6.485749755859375,-1.1722495555877686,-0.32383468747138977,3.6652650833129883
1772810191230450200,6.4954501953125,-0.9266818761825562,-0.885219395160675,3.4569602012634277
1772810191240150300,6.505150390625,-0.6365211009979248,-1.2774709463119507,3.0675337314605713
1772810191249850600,6.5148505859375,-0.3491092324256897,-1.366275429725647,2.566013813018799
1772810191259550700,6.52455078125,-0.15638138353824615,-1.1943169832229614,1.9899684190750122
1772810191269251000,6.5342509765625,-0.12003492563962936,-0.85834139585495,1.3012183904647827
1772810191278951200,6.543951171875,-0.23243404924869537,-0.5104538798332214,0.6020836234092712
1772810191288651500,6.553651611328125,-0.40225446224212646,-0.11552979797124863,0.050778135657310486
1772810191298351600,6.5633515625,-0.5009090900421143,0.23105959594249725,-0.35850125551223755
1772810191308051700,6.5730517578125,-0.5317577719688416,0.48365217447280884,-0.6159807443618774
1772810191317752000,6.582751953125,-0.518318772315979,0.6528617143630981,-0.7280744314193726
1772810191327452200,6.5924521484375,-0.462424635887146,0.698371171951294,-0.7271581888198853
1772810191337152500,6.602152587890625,-0.3750709891319275,0.6360629796981812,-0.6584358811378479
1772810191346852600,6.6118525390625,-0.2883281707763672,0.5123628377914429,-0.55672687292099
1772810191356553000,6.621552978515625,-0.21716243028640747,0.32910341024398804,-0.4586831033229828
1772810191366253000,6.631253173828125,-0.1484401375055313,0.12965604662895203,-0.37377288937568665
1772810191375953200,6.640953125,-0.07238747924566269,-0.03375028073787689,-0.3139081299304962
1772810191385653500,6.650653564453125,0.008857538923621178,-0.13355031609535217,-0.2943604588508606
1772810191395353600,6.660353515625,0.09560033679008484,-0.23281583189964294,-0.34292420744895935
1772810191405054000,6.670053955078125,0.17195843160152435,-0.3485747277736664,-0.4421897530555725
1772810191414754000,6.679754150390625,0.2406807243824005,-0.418824166059494,-0.5750528573989868
1772810191424454400,6.689454345703125,0.3072649836540222,-0.5037343502044678,-0.7448732256889343
1772810191434154500,6.699154541015625,0.33597561717033386,-0.5944477915763855,-0.9351575970649719
1772810191443854800,6.708854736328125,0.34788748621940613,-0.5852848291397095,-1.1065051555633545
1772810191453555000,6.718554931640625,0.37262752652168274,-0.4814378023147583,-1.2598322629928589
1772810191463255000,6.728255126953125,0.37843072414398193,-0.37087127566337585,-1.4052181243896484
1772810191472955400,6.737955322265625,0.3194822669029236,-0.27863070368766785,-1.5264747142791748
1772810191482655500,6.747655517578125,0.20952661335468292,-0.20044000446796417,-1.5933644771575928
1772810191492355800,6.75735595703125,0.0870482325553894,-0.1222493126988411,-1.6068034172058105
1772810191502056000,6.767055908203125,-0.022907428443431854,-0.04955640435218811,-1.5634320974349976
1772810191511756300,6.77675634765625,-0.05436696484684944,0.1104138121008873,-1.3746747970581055
1772810191521456400,6.786456298828125,0.04917461425065994,0.34987279772758484,-1.0933716297149658
1772810191531156700,6.79615673828125,0.2929096519947052,0.5215258002281189,-0.908890426158905
1772810191540856800,6.80585693359375,0.5131264328956604,0.45310893654823303,-0.9333250522613525
1772810191550557000,6.815556884765625,0.5555815100669861,0.07345648854970932,-1.1242202520370483
1772810191560257300,6.82525732421875,0.5485565662384033,-0.11858412623405457,-1.20271635055542
1772810191569957400,6.834957275390625,0.6047561168670654,0.12263110280036926,-1.1370484828948975
1772810191579657700,6.84465771484375,0.7522799968719482,0.4390590488910675,-1.2311216592788696
1772810191589357800,6.85435791015625,1.0836740732192993,0.6467530727386475,-1.5909209251403809
1772810191599058200,6.86405810546875,1.3942989110946655,0.4326449930667877,-2.105269193649292
1772810191608758300,6.87375830078125,1.4868448972702026,-0.13568833470344543,-2.5683045387268066
1772810191618458400,6.883458251953125,1.464242935180664,-0.6778308153152466,-2.7695846557617188
1772810191628158700,6.89315869140625,1.4107922315597534,-1.0739766359329224,-2.619311809539795
1772810191637858800,6.90285888671875,1.3014473915100098,-1.2712860107421875,-2.1064908504486084
1772810191647559200,6.91255908203125,1.1343759298324585,-1.1310925483703613,-1.3041199445724487
1772810191657259300,6.92225927734375,0.9550870656967163,-0.7218130826950073,-0.40004006028175354
1772810191666959600,6.931959716796875,0.804814338684082,-0.2089921087026596,0.42707082629203796
1772810191676659700,6.94165966796875,0.6954695582389832,0.22464552521705627,1.1130720376968384
1772810191686360000,6.951360107421875,0.5910117030143738,0.4634936451911926,1.6185625791549683
1772810191696060200,6.96106005859375,0.4526508152484894,0.5355756878852844,1.89284086227417
1772810191705760300,6.97076025390625,0.268169641494751,0.540768027305603,1.9203298091888428
1772810191715460600,6.980460693359375,0.05864302068948746,0.5618428587913513,1.7074434757232666
1772810191725160700,6.99016064453125,-0.16126830875873566,0.688902735710144,1.3030508756637573
1772810191734861000,6.999861083984375,-0.3811796307563782,0.9613484740257263,0.8061124086380005
1772810191744561200,7.00956103515625,-0.5665770769119263,1.3406955003738403,0.30031639337539673
1772810191754261500,7.019261474609375,-0.694247841835022,1.725540280342102,-0.1547778695821762
1772810191763961600,7.028961669921875,-0.7620537877082825,2.0300564765930176,-0.4901426136493683
1772810191773661700,7.03866162109375,-0.7464767694473267,2.170860767364502,-0.687451958656311
1772810191783362000,7.048362060546875,-0.6374374032020569,2.1250457763671875,-0.7314342260360718
1772810191793062100,7.058062255859375,-0.4764745235443115,1.9042181968688965,-0.6205622553825378
1772810191802762500,7.067762451171875,-0.314289927482605,1.530063509941101,-0.36766424775123596
1772810191812462800,7.077462890625,-0.17134757339954376,1.0459532737731934,0.0022143847309052944
1772810191822163000,7.087162841796875,-0.04550942778587341,0.5621483325958252,0.4447859227657318
1772810191831863300,7.09686328125,0.0360410213470459,0.12110394239425659,0.8992693424224854
1772810191841563400,7.1065634765625,0.06566796451807022,-0.21601705253124237,1.3506983518600464
1772810191851263500,7.116263427734375,0.06261363625526428,-0.43165233731269836,1.7514256238937378
1772810191860963800,7.1259638671875,0.04001164436340332,-0.5208385586738586,2.03486704826355
1772810191870664000,7.135663818359375,0.010995565913617611,-0.4976257085800171,2.183917999267578
1772810191880364300,7.1453642578125,0.0054977829568088055,-0.40263625979423523,2.197356939315796
1772810191890064400,7.155064453125,0.02412915788590908,-0.24656029045581818,2.086179494857788
1772810191899764700,7.1647646484375,0.05436696484684944,-0.0058795735239982605,1.886121392250061
1772810191909464800,7.17446484375,0.0977383628487587,0.22220206260681152,1.6316962242126465
1772810191919165000,7.1841650390625,0.14782927930355072,0.347123920917511,1.3558907508850098
1772810191928865300,7.193865234375,0.1902843713760376,0.3480401933193207,1.053207278251648
1772810191938565400,7.2035654296875,0.23029601573944092,0.22556181252002716,0.7239511013031006
1772810191948265700,7.213265625,0.30054548382759094,0.10186170041561127,0.4249328076839447
1772810191957965800,7.2229658203125,0.38728827238082886,0.014813470654189587,0.16470441222190857
1772810191967666200,7.232666259765625,0.4153880476951599,-0.05994110554456711,-0.08697187155485153
1772810191977366300,7.2423662109375,0.3530798554420471,-0.12316560745239258,-0.3294851779937744
1772810191987066600,7.252066650390625,0.2516762912273407,-0.13904809951782227,-0.5625301003456116
1772810191996766700,7.2617666015625,0.1383608728647232,-0.12163844704627991,-0.7861065864562988
1772810192006466800,7.271466796875,-0.000305432389723137,-0.11736239492893219,-1.0060179233551025
1772810192016167200,7.281167236328125,-0.12492185086011887,-0.047723811119794846,-1.2060761451721191
1772810192025867300,7.2908671875,-0.1844811588525772,0.14859285950660706,-1.383226990699768
1772810192035567600,7.300567626953125,-0.16646064817905426,0.3776671588420868,-1.5423572063446045
1772810192045267700,7.310267822265625,-0.11759147047996521,0.49250972270965576,-1.7170644998550415
1772810192054968000,7.319968017578125,-0.06872228533029556,0.3715584874153137,-1.9366704225540161
1772810192064668200,7.329668212890625,-0.04153880476951599,-0.014431680552661419,-2.200258493423462
1772810192074368300,7.3393681640625,0.025045456364750862,-0.6130791902542114,-2.44093918800354
1772810192084068600,7.349068603515625,0.22479823231697083,-1.3137410879135132,-2.5844924449920654
1772810192093768700,7.358768798828125,0.5256491303443909,-1.9765293598175049,-2.6293911933898926
1772810192103469000,7.368468994140625,0.7932079434394836,-2.4927101135253906,-2.5817437171936035
1772810192113169200,7.378169189453125,0.9642500281333923,-2.6429827213287354,-2.418031930923462
1772810192122869500,7.387869384765625,1.053130865097046,-2.289292097091675,-2.1327579021453857
1772810192132569600,7.397569580078125,1.0491602420806885,-1.5055526494979858,-1.7442480325698853
1772810192142270000,7.40727001953125,0.9187406301498413,-0.5550470352172852,-1.2757147550582886
1772810192151970000,7.416969970703125,0.6948586702346802,0.24297146499156952,-0.7357102632522583
1772810192161670100,7.426670166015625,0.4608974754810333,0.698676586151123,-0.14103341102600098
1772810192171370500,7.43637060546875,0.26419901847839355,0.6916516423225403,0.3882809281349182
1772810192181070600,7.446070556640625,0.15607595443725586,0.2799287736415863,0.7642682194709778
1772810192190771000,7.45577099609375,0.13683371245861053,-0.47807803750038147,0.9029344916343689
1772810192200471000,7.465470947265625,0.18814635276794434,-1.3543635606765747,0.7700713872909546
1772810192210171400,7.47517138671875,0.2605338394641876,-2.013181209564209,0.44173160195350647
1772810192219871500,7.48487158203125,0.22785256803035736,-2.0425026416778564,0.11461350321769714
1772810192229571800,7.49457177734375,-0.01954767294228077,-1.2883901596069336,0.017486004158854485
1772810192239272000,7.50427197265625,-0.2761108875274658,-0.15615230798721313,0.32016950845718384
1772810192248972000,7.513971923828125,-0.35613417625427246,0.8904881477355957,1.1478912830352783
1772810192258672400,7.52367236328125,-0.42821621894836426,1.5548036098480225,2.4694972038269043
1772810192268372500,7.53337255859375,-0.5729911923408508,1.5764893293380737,3.912665367126465
1772810192278072800,7.54307275390625,-0.7623592615127563,0.8972076177597046,4.992063522338867
1772810192287773000,7.55277294921875,-0.9352339506149292,0.060933761298656464,5.532067775726318
1772810192297473300,7.562473388671875,-0.9746347665786743,-0.4447859227657318,5.621253967285156
1772810192307173400,7.57217333984375,-0.8576541543006897,-0.6604211926460266,5.428526401519775
1772810192316873500,7.58187353515625,-0.6142245531082153,-0.6753873825073242,5.0577311515808105
1772810192326573800,7.59157373046875,-0.28038692474365234,-0.6530908346176147,4.547659397125244
1772810192336274000,7.60127392578125,0.11117739230394363,-0.7477748394012451,3.977722406387329
1772810192345974300,7.610974365234375,0.42852163314819336,-0.9026290774345398,3.399844169616699
1772810192355674400,7.62067431640625,0.5626064538955688,-1.1402554512023926,2.825936794281006
1772810192365374700,7.630374755859375,0.5424479246139526,-1.292360782623291,2.217515468597412
1772810192375074800,7.64007470703125,0.4425715208053589,-1.1604139804840088,1.561752200126648
1772810192384775200,7.649775146484375,0.3289506733417511,-0.7172316312789917,0.9175952672958374
1772810192394475300,7.659475341796875,0.25045454502105713,-0.091400645673275,0.40782859921455383
1772810192404175400,7.66917529296875,0.22204934060573578,0.5188532471656799,0.1579848974943161
1772810192413875700,7.678875732421875,0.19669845700263977,0.9585995674133301,0.22731806337833405
1772810192423575800,7.688575927734375,0.11087195575237274,1.141248106956482,0.579787015914917
1772810192433276200,7.698276123046875,-0.0769689604640007,1.0480912923812866,1.0843613147735596
1772810192442976300,7.707976318359375,-0.3194822669029236,0.7389936447143555,1.609399676322937
1772810192452676400,7.71767626953125,-0.5140427350997925,0.37980517745018005,2.06021785736084
1772810192462376700,7.727376708984375,-0.6120865345001221,0.08750637620687485,2.3696208000183105
1772810192472076800,7.737076904296875,-0.6679806113243103,-0.15584687888622284,2.4866013526916504
1772810192481777200,7.746777099609375,-0.713184654712677,-0.35590508580207825,2.3812272548675537
1772810192491477200,7.756477294921875,-0.7122683525085449,-0.49915286898612976,2.0874013900756836
1772810192501177300,7.76617724609375,-0.6753110289573669,-0.5443568825721741,1.679038166999817
1772810192510877700,7.775877685546875,-0.6661480665206909,-0.5486329197883606,1.190346360206604
1772810192520577800,7.785577880859375,-0.6533198952674866,-0.48846274614334106,0.6106356978416443
1772810192530278100,7.795278076171875,-0.6038398146629333,-0.3220020830631256,-0.013668099418282509
1772810192539978200,7.804978271484375,-0.5186241865158081,-0.02611446939408779,-0.5750528573989868
1772810192549678600,7.8146787109375,-0.41874781250953674,0.31719154119491577,-1.0292308330535889
1772810192559378700,7.824378662109375,-0.3292561173439026,0.6590467095375061,-1.352072834968567
1772810192569078800,7.834078857421875,-0.2605338394641876,0.8797979950904846,-1.5484658479690552
1772810192578779100,7.843779052734375,-0.22204934060573578,0.8752164840698242,-1.6156610250473022
1772810192588479200,7.853479248046875,-0.23212862014770508,0.6846266984939575,-1.5594614744186401
1772810192598179600,7.8631796875,-0.29413139820098877,0.3675878942012787,-1.4058289527893066
1772810192607879700,7.872879638671875,-0.37751442193984985,-0.008704823441803455,-1.2247074842453003
1772810192617580000,7.882580078125,-0.42424559593200684,-0.3413206934928894,-1.0799325704574585
1772810192627280100,7.892280029296875,-0.42088583111763,-0.5513818264007568,-1.0057125091552734
1772810192636980500,7.90198046875,-0.38270679116249084,-0.6054433584213257,-1.0133483409881592
1772810192646680600,7.9116806640625,-0.3078758418560028,-0.544051468372345,-1.0948987007141113
1772810192656380700,7.921380615234375,-0.19883649051189423,-0.43715012073516846,-1.2198206186294556
1772810192666081000,7.9310810546875,-0.08796452730894089,-0.3116174042224884,-1.3612358570098877
1772810192675781000,7.940781005859375,0.005192350596189499,-0.2089921087026596,-1.4965423345565796
1772810192685481500,7.9504814453125,0.06933315098285675,-0.15859577059745789,-1.6098577976226807
1772810192695181600,7.960181640625,0.10323614627122879,-0.12621992826461792,-1.693240761756897
1772810192704882000,7.9698818359375,0.10903936624526978,-0.10758855938911438,-1.7650173902511597
1772810192714582000,7.97958203125,0.10170898586511612,-0.10819942504167557,-1.8364886045455933
1772810192724282000,7.9892822265625,0.12095122784376144,-0.043753188103437424,-1.8981859683990479
1772810192733982500,7.998982421875,0.19211697578430176,0.05543597787618637,-1.964464783668518
1772810192743682600,8.0086826171875,0.2788597643375397,0.049021899700164795,-2.0148611068725586
1772810192753383000,8.0183828125,0.337808221578598,-0.09842558950185776,-2.02402400970459
1772810192763083000,8.0280830078125,0.39278605580329895,-0.2551124095916748,-1.963243007659912
1772810192772783400,8.037783447265625,0.45448338985443115,-0.2596938908100128,-1.8554253578186035
1772810192782483500,8.0474833984375,0.5277871489524841,-0.06299543380737305,-1.8294636011123657
1772810192792183800,8.057183837890625,0.6181951761245728,0.3663661479949951,-2.0249404907226562
1772810192801884000,8.0668837890625,0.685390293598175,0.8703296184539795,-2.4305546283721924
1772810192811584000,8.076583984375,0.6716458201408386,1.1210895776748657,-2.8190646171569824
1772810192821284400,8.086284423828126,0.6261364221572876,1.3700169324874878,-2.7738606929779053
1772810192830984400,8.095984375,0.665842592716217,1.7759366035461426,-2.2628722190856934
1772810192840684800,8.105684814453125,0.6933315396308899,1.9900447130203247,-1.6410118341445923
1772810192850385000,8.115385009765625,0.6713404059410095,1.8477132320404053,-1.251891016960144
1772810192860085200,8.125085205078125,0.6298015713691711,1.3242021799087524,-1.1843904256820679
1772810192869785300,8.134785400390625,0.5320632457733154,0.5117519497871399,-1.408577799797058
1772810192879485700,8.144485595703125,0.46944957971572876,-0.30337071418762207,-1.8664209842681885
1772810192889185800,8.154185791015625,0.527481734752655,-0.8198568820953369,-2.4216971397399902
1772810192898886000,8.163885986328125,0.6185005903244019,-1.0180824995040894,-2.9113051891326904
1772810192908586200,8.173586181640625,0.6438514590263367,-0.9264528155326843,-3.2103235721588135
1772810192918286300,8.183286376953125,0.5317577719688416,-0.5571850538253784,-3.2772130966186523
1772810192927986700,8.192986572265625,0.29626941680908203,0.13851359486579895,-3.022177219390869
1772810192937686800,8.202686767578125,0.09926552325487137,0.9692896604537964,-2.3853507041931152
1772810192947387100,8.21238720703125,0.015577051788568497,1.541059136390686,-1.4962369203567505
1772810192957087200,8.222087158203125,0.02779434807598591,1.548084020614624,-0.575663685798645
1772810192966787300,8.231787353515625,0.07757982611656189,1.0499238967895508,0.24228423833847046
1772810192976487700,8.24148779296875,0.18081597983837128,0.3584249019622803,0.903850793838501
1772810192986187800,8.251187744140625,0.33139413595199585,-0.21174100041389465,1.3320670127868652
1772810192995888000,8.26088818359375,0.46425724029541016,-0.5086212754249573,1.525405764579773
1772810193005588200,8.270588134765624,0.47983428835868835,-0.5562687516212463,1.5220459699630737
1772810193015288600,8.28028857421875,0.35735589265823364,-0.3693441152572632,1.3583341836929321
1772810193024988700,8.28998876953125,0.15821397304534912,0.014202605932950974,1.0941351652145386
1772810193034689000,8.29968896484375,-0.02779434807598591,0.48181959986686707,0.7865647673606873
1772810193044389000,8.30938916015625,-0.18570289015769958,0.9332486391067505,0.4725802540779114
1772810193054089200,8.319089111328125,-0.33047783374786377,1.3119847774505615,0.20135630667209625
1772810193063789300,8.328789306640624,-0.43951719999313354,1.5526655912399292,-0.014889828860759735
1772810193073489700,8.33848974609375,-0.48991355299949646,1.6061161756515503,-0.1657734364271164
1772810193083189800,8.348189697265624,-0.4725039005279541,1.513264775276184,-0.2421315312385559
1772810193092890000,8.35789013671875,-0.39217519760131836,1.251814603805542,-0.27633994817733765
1772810193102590200,8.367590087890624,-0.282524973154068,0.8009964227676392,-0.2897789776325226
1772810193112290600,8.37729052734375,-0.16187916696071625,0.35537058115005493,-0.21097742021083832
1772810193121990700,8.38699072265625,-0.03023780696094036,0.0487164668738842,-0.012751801870763302
1772810193131691000,8.39669091796875,0.06505709886550903,-0.1472947746515274,0.23067781329154968
1772810193141391000,8.40639111328125,0.06444623321294785,-0.2631300091743469,0.4508945643901825
1772810193151091200,8.41609130859375,-0.012522728182375431,-0.29878923296928406,0.6081922650337219
1772810193160791600,8.42579150390625,-0.11667517572641373,-0.21082471311092377,0.6607266068458557
1772810193170491600,8.43549169921875,-0.2205221801996231,-0.013209951110184193,0.590171754360199
1772810193180192000,8.44519189453125,-0.3191768527030945,0.19501857459545135,0.40233081579208374
1772810193189892000,8.45489208984375,-0.435241162776947,0.3825540542602539,0.1729510873556137
1772810193199592400,8.464592529296874,-0.5714640021324158,0.5334376692771912,-0.05520690605044365
1772810193209292500,8.47429248046875,-0.7095194458961487,0.5810851454734802,-0.2574031352996826
1772810193218992600,8.48399267578125,-0.7739656567573547,0.5346593856811523,-0.386601060628891
1772810193228693000,8.49369287109375,-0.748920202255249,0.38988444209098816,-0.42966702580451965
1772810193238393000,8.50339306640625,-0.6973021626472473,0.12996147572994232,-0.40034550428390503
1772810193248093400,8.513093505859375,-0.6356047987937927,-0.19219332933425903,-0.29222244024276733
1772810193257793500,8.52279345703125,-0.5375609993934631,-0.4340957701206207,-0.08972076326608658
1772810193267494000,8.532493896484375,-0.4224129915237427,-0.5822305083274841,0.12805253267288208
1772810193277194000,8.542194091796874,-0.35613417625427246,-0.7153990268707275,0.2774089574813843
1772810193286894300,8.551894287109375,-0.3533852696418762,-0.8574250936508179,0.3388008773326874
1772810193296594400,8.561594482421874,-0.37781986594200134,-0.9667698740959167,0.3427715003490448
1772810193306294500,8.57129443359375,-0.406530499458313,-0.9991456866264343,0.3116174042224884
1772810193315995000,8.580994873046874,-0.4309650957584381,-0.9230930209159851,0.24106250703334808
1772810193325695000,8.590695068359375,-0.430659681558609,-0.7263945937156677,0.09384410083293915
1772810193335395300,8.600395263671874,-0.36224281787872314,-0.5645154118537903,-0.19814926385879517
1772810193345095400,8.610095458984375,-0.12217295914888382,-0.599334716796875,-0.6987529397010803
1772810193354795800,8.619795654296874,0.2663370370864868,-0.7389172911643982,-1.3954442739486694
1772810193364496000,8.629495849609375,0.6707295179367065,-0.8021417856216431,-2.091219186782837
1772810193374196000,8.639196044921874,1.00762140750885,-0.5923097729682922,-2.508439779281616
1772810193383896300,8.648896240234375,1.2968659400939941,-0.27863070368766785,-2.4901139736175537
1772810193393596400,8.658596435546874,1.656665325164795,-0.16439898312091827,-1.9397248029708862
1772810193403296500,8.668296630859375,2.045786142349243,-0.21632249653339386,-0.8212313652038574
1772810193412996900,8.677996826171874,2.229351043701172,-0.5773435831069946,0.543440580368042
1772810193422697000,8.687697021484375,2.129169225692749,-1.2566251754760742,1.7419573068618774
1772810193432397300,8.697397216796874,1.9752312898635864,-1.8870376348495483,2.5595998764038086
1772810193442097400,8.707097412109375,1.8619158267974854,-2.3277766704559326,2.876333236694336
1772810193451797800,8.7167978515625,1.7403537034988403,-2.507676362991333,2.684216260910034
1772810193461497900,8.726497802734375,1.6114612817764282,-2.1484878063201904,2.128023862838745
1772810193471198000,8.736197998046874,1.489288330078125,-1.2373830080032349,1.3821579217910767
1772810193480898300,8.745898193359375,1.3561197519302368,-0.10270164161920547,0.5208385586738586
1772810193490598400,8.755598388671874,1.1267400979995728,0.929888904094696,-0.38873907923698425
1772810193500298800,8.765298828125,0.8915571570396423,1.7542508840560913,-1.1639264822006226
1772810193509998800,8.774998779296874,0.850934624671936,2.0993895530700684,-1.5881720781326294
1772810193519699200,8.78469921875,0.9929606914520264,1.8941389322280884,-1.5460224151611328
1772810193529399300,8.7943994140625,1.166751742362976,1.3040435314178467,-1.0686315298080444
1772810193539099600,8.804099609375,1.2272273302078247,0.6537780165672302,-0.2629009187221527
1772810193548799700,8.8137998046875,1.018311619758606,0.09666935354471207,0.6622537970542908
1772810193558499800,8.823499755859375,0.5302306413650513,-0.32597270607948303,1.5547271966934204
1772810193568200200,8.8332001953125,-0.1444695144891739,-0.5794816017150879,2.3470189571380615
1772810193577900300,8.842900390625,-0.9343177080154419,-0.673249363899231,3.0311872959136963
1772810193587600600,8.8526005859375,-1.729663610458374,-0.626518189907074,3.6151740550994873
1772810193597300700,8.86230078125,-2.3377795219421387,-0.5055669546127319,4.054385662078857
1772810193607001000,8.8720009765625,-2.7094907760620117,-0.40782859921455383,4.285903453826904
1772810193616701200,8.881701171875,-2.858847141265869,-0.34521496295928955,4.316446781158447
1772810193626401300,8.8914013671875,-2.740644931793213,-0.2603047490119934,4.147237300872803
1772810193636101600,8.9011015625,-2.327394723892212,-0.13843722641468048,3.756894826889038
1772810193645801700,8.9108017578125,-1.7324124574661255,-0.08559742569923401,3.164661407470703
1772810193655501800,8.920501708984375,-1.1102467775344849,-0.08987347781658173,2.4902665615081787
1772810193665202200,8.9302021484375,-0.6685914993286133,-0.1482110619544983,1.8125121593475342
1772810193674902300,8.93990234375,-0.44440412521362305,-0.2975675165653229,1.124372959136963
1772810193684602600,8.9496025390625,-0.3634645342826843,-0.4664716124534607,0.5709294676780701
1772810193694302700,8.959302734375,-0.4202749729156494,-0.7153990268707275,0.3171151876449585
1772810193704003000,8.969003173828124,-0.6035344004631042,-0.9725731015205383,0.3467421233654022
1772810193713703200,8.978703125,-0.8210022449493408,-0.9979239702224731,0.5446622967720032
1772810193723403300,8.9884033203125,-0.9621120095252991,-0.79358971118927,0.7306706309318542
1772810193733103600,8.998103515625,-0.9978476166725159,-0.4713585376739502,0.8113048076629639
1772810193742803700,9.0078037109375,-0.9257655739784241,-0.07460185885429382,0.7483857274055481
1772810193752504000,9.017504150390625,-0.7709113359451294,0.35506516695022583,0.5217548608779907
1772810193762204200,9.0272041015625,-0.562911868095398,0.7426588535308838,0.20196716487407684
1772810193771904500,9.036904541015625,-0.37323838472366333,0.9637919068336487,-0.12606722116470337
1772810193781604600,9.0466044921875,-0.2608392536640167,0.9711222648620605,-0.4122573733329773
1772810193791305000,9.056304931640625,-0.20891575515270233,0.827874481678009,-0.6205622553825378
1772810193801005000,9.066005126953126,-0.1695149689912796,0.6230056881904602,-0.7464004158973694
1772810193810705200,9.075705078125,-0.14691297709941864,0.4503600597381592,-0.825812816619873
1772810193820405500,9.085405517578126,-0.1542433500289917,0.29672756791114807,-0.8966731429100037
1772810193830105600,9.095105712890625,-0.18814635276794434,0.1156061589717865,-0.9568433165550232
1772810193839806000,9.104805908203126,-0.23487751185894012,0.016340631991624832,-0.9797507524490356
1772810193849506000,9.114506103515625,-0.2675587832927704,0.036193739622831345,-0.9611193537712097
1772810193859206400,9.124206298828126,-0.29993459582328796,0.05482511222362518,-0.9156099557876587
1772810193868906500,9.133906494140625,-0.3436114490032196,0.06215549260377884,-0.8462768197059631
1772810193878606600,9.143606689453126,-0.34727662801742554,0.06673697382211685,-0.7540361881256104
1772810193888307000,9.153306884765625,-0.32131487131118774,0.02214384824037552,-0.6914225816726685
1772810193898007000,9.163007080078126,-0.3039052188396454,-0.05566505342721939,-0.6730966567993164
1772810193907707100,9.17270703125,-0.29016077518463135,-0.13507747650146484,-0.7149408459663391
1772810193917407500,9.182407470703126,-0.277332603931427,-0.16012293100357056,-0.8276454210281372
1772810193927107600,9.192107666015625,-0.27397283911705017,-0.15462514758110046,-1.001741886138916
1772810193936808000,9.201807861328126,-0.2107483446598053,-0.06146826967597008,-1.1517091989517212
1772810193946508000,9.211508056640625,-0.04153880476951599,0.19990549981594086,-1.2146282196044922
1772810193956208400,9.22120849609375,0.17165300250053406,0.605519711971283,-1.2818233966827393
1772810193965908500,9.230908447265625,0.3274235129356384,0.8455895781517029,-1.5026509761810303
1772810193975608600,9.240608642578126,0.31093016266822815,0.7790052890777588,-1.900018572807312
1772810193985309000,9.250308837890625,0.268169641494751,0.7273872494697571,-2.1654393672943115
1772810193995009000,9.260009033203126,0.379347026348114,1.0315978527069092,-2.0563998222351074
1772810194004709400,9.26970947265625,0.5812378525733948,1.4283546209335327,-1.7219514846801758
1772810194014409500,9.279409423828126,0.7819069027900696,1.5422807931900024,-1.4632502794265747
1772810194024109800,9.28910986328125,1.018617033958435,1.2683080434799194,-1.414991855621338
1772810194033810000,9.298809814453126,1.1523964405059814,0.471129447221756,-1.5600723028182983
1772810194043510300,9.30851025390625,0.9963204264640808,-0.6891318559646606,-1.7469968795776367
1772810194053210400,9.31821044921875,0.6319395899772644,-1.7673081159591675,-1.8603123426437378
1772810194062910500,9.327910400390625,0.36193737387657166,-2.3155593872070312,-1.9598833322525024
1772810194072610800,9.33761083984375,0.2910770773887634,-2.3244168758392334,-2.12481689453125
1772810194082311000,9.347310791015625,0.28954991698265076,-1.8207588195800781,-2.2414920330047607
1772810194092011000,9.357010986328126,0.30543237924575806,-0.8458186388015747,-2.0234131813049316
1772810194101711400,9.36671142578125,0.272751122713089,0.17302745580673218,-1.3890300989151
1772810194111411500,9.376411376953126,0.19669845700263977,0.7664825916290283,-0.5011382102966309
1772810194121111800,9.38611181640625,0.13255766034126282,0.8605557680130005,0.4560869038105011
1772810194130812000,9.39581201171875,0.12522727251052856,0.5551233887672424,1.2541817426681519
1772810194140512300,9.40551220703125,0.21166464686393738,0.0847574844956398,1.7697516679763794
1772810194150212400,9.41521240234375,0.3543015718460083,-0.3284161686897278,2.0055453777313232
1772810194159912400,9.424912353515625,0.476779967546463,-0.5593230724334717,2.016235589981079
1772810194169612800,9.43461279296875,0.5042688846588135,-0.5327504277229309,1.8283946514129639
1772810194179313000,9.44431298828125,0.4514290690422058,-0.3476584255695343,1.4908918142318726
1772810194189013200,9.45401318359375,0.3451386094093323,-0.049861837178468704,1.1087958812713623
1772810194198713300,9.46371337890625,0.1853974610567093,0.3318522870540619,0.7743474841117859
1772810194208413700,9.47341357421875,0.005803215317428112,0.7053961157798767,0.5012909173965454
1772810194218113800,9.48311376953125,-0.1594357043504715,1.0160208940505981,0.297872930765152
1772810194227814000,9.49281396484375,-0.2813032269477844,1.251814603805542,0.17539454996585846
1772810194237514200,9.50251416015625,-0.3484983444213867,1.3067924976348877,0.10728313028812408
1772810194247214300,9.51221435546875,-0.3585776388645172,1.198974847793579,0.09812015295028687
1772810194256914400,9.52191455078125,-0.3222311735153198,1.014188289642334,0.17569997906684875
1772810194266614800,9.53161474609375,-0.2522871494293213,0.7652608752250671,0.32536184787750244
1772810194276315000,9.54131494140625,-0.19700388610363007,0.4644099473953247,0.47380200028419495
1772810194286015200,9.55101513671875,-0.18356487154960632,0.1406516134738922,0.5669588446617126
1772810194295715300,9.56071533203125,-0.21135921776294708,-0.13813179731369019,0.5669588446617126
1772810194305415700,9.570415771484376,-0.2816086709499359,-0.3180314898490906,0.4548651874065399
1772810194315115800,9.58011572265625,-0.3707949221134186,-0.3830885887145996,0.22365286946296692
1772810194324816000,9.58981591796875,-0.41783151030540466,-0.3155880272388458,-0.10987929999828339
1772810194334516200,9.59951611328125,-0.41233372688293457,-0.1472947746515274,-0.4855611324310303
1772810194344216300,9.60921630859375,-0.41844236850738525,0.009926552884280682,-0.8331431746482849
1772810194353916700,9.618916748046875,-0.45020735263824463,0.07070759683847427,-1.0894010066986084
1772810194363616800,9.62861669921875,-0.476779967546463,0.08811724185943604,-1.2112685441970825
1772810194373317000,9.638317138671875,-0.4889972507953644,0.08048143237829208,-1.1840850114822388
1772810194383017200,9.648017333984376,-0.5030471682548523,0.007788525894284248,-1.0402263402938843
1772810194392717600,9.657717529296875,-0.5308414697647095,-0.12530364096164703,-0.8056542873382568
1772810194402417700,9.667417724609376,-0.56382817029953,-0.3436878025531769,-0.5136609077453613
1772810194412117800,9.67711767578125,-0.601396381855011,-0.6335431337356567,-0.22411102056503296
1772810194431518200,9.696518310546875,-0.6291907429695129,-1.0959677696228027,0.17692171037197113
1772810194441218300,9.70621826171875,-0.5711585879325867,-1.0846667289733887,0.2514472007751465
1772810194450918700,9.715918701171875,-0.47555822134017944,-0.903239905834198,0.23892448842525482
1772810194460618800,9.72561865234375,-0.3799578845500946,-0.774652898311615,0.15004366636276245
1772810194470319000,9.735319091796875,-0.3087921440601349,-0.7123447060585022,-0.029245151206851006
1772810194480019200,9.745019287109375,-0.29962918162345886,-0.6918807029724121,-0.23510658740997314
1772810194489719300,9.75471923828125,-0.3552178740501404,-0.7199804782867432,-0.4220311939716339
1772810194499419600,9.764419677734375,-0.43463030457496643,-0.8030580878257751,-0.5622246861457825
1772810194509119700,9.77411962890625,-0.4520399272441864,-0.941724419593811,-0.6477457284927368
1772810194518820000,9.783820068359375,-0.3909534513950348,-1.088637351989746,-0.6724857687950134
1772810194528520200,9.793520263671875,-0.30482152104377747,-1.0904699563980103,-0.648967444896698
1772810194538220500,9.803220458984375,-0.21716243028640747,-0.8647554516792297,-0.603458046913147
1772810194547920600,9.812920654296875,-0.1389717310667038,-0.44753479957580566,-0.5176315307617188
1772810194557621000,9.82262109375,-0.06261363625526428,0.05849030241370201,-0.40523242950439453
1772810194567321000,9.832321044921875,0.054672397673130035,0.46807512640953064,-0.32704174518585205
1772810194577021200,9.842021240234375,0.20433427393436432,0.717307984828949,-0.2836703360080719
1772810194586721300,9.85172119140625,0.15577052533626556,0.8403972387313843,-0.2677878439426422
1772810194596421600,9.861421630859375,0.01802051067352295,0.6855430006980896,-0.2977202236652374
1772810194606121700,9.871121826171875,0.11026109009981155,0.32849252223968506,-0.20486877858638763
1772810194615822000,9.880822021484375,0.4679224193096161,0.03711003437638283,0.17050762474536896
1772810194625522200,9.890522216796874,0.9676098227500916,-0.16714787483215332,0.6763036847114563
1772810194635222500,9.900222412109375,1.4480549097061157,-0.23892448842525482,1.154305338859558
1772810194644922600,9.909922607421874,1.7934989929199219,-0.28993168473243713,1.5733586549758911
1772810194654623000,9.919623046875,1.8628321886062622,-0.33826637268066406,1.9328525066375732
1772810194664323000,9.929322998046874,1.6627739667892456,-0.38033968210220337,2.1793365478515625
1772810194674023200,9.939023193359375,1.4312561750411987,-0.4710530936717987,2.312505006790161
1772810194683723500,9.9487236328125,1.2605195045471191,-0.6424006819725037,2.3729805946350098
1772810194693423600,9.958423583984375,1.1102467775344849,-0.8568142056465149,2.2795183658599854
1772810194703124000,9.9681240234375,0.9181297421455383,-1.062981128692627,2.032423496246338
1772810194712824000,9.977823974609375,0.6407971382141113,-1.2123374938964844,1.6729295253753662
1772810194722524200,9.987524169921874,0.3084867000579834,-1.3140465021133423,1.211115837097168
1772810194732224500,9.997224609375,-0.04581485688686371,-1.356501579284668,0.7102066874504089
1772810194741924600,10.006924560546874,-0.4370737373828888,-1.2395210266113281,0.2716057598590851
1772810194751625000,10.016625,-0.9239329695701599,-0.8839976787567139,-0.0322994738817215
1772810194761325000,10.026324951171874,-1.4410300254821777,-0.42768171429634094,-0.21036656200885773
1772810194771025200,10.036025146484375,-1.7718132734298706,0.06001746281981468,-0.25618141889572144
1772810194780725500,10.0457255859375,-1.8252639770507812,0.6241511106491089,-0.20822852849960327
1772810194790425600,10.055425537109375,-1.6172645092010498,1.2227985858917236,-0.0939968153834343
1772810194800126000,10.0651259765625,-1.2257001399993896,1.7762420177459717,0.09842558950185776
1772810194809826000,10.074825927734375,-0.7596103549003601,2.1589488983154297,0.39683303236961365
1772810194819526400,10.0845263671875,-0.29016077518463135,2.291201114654541,0.8137482404708862
1772810194829226500,10.0942265625,0.12431098520755768,2.1467316150665283,1.3271801471710205
1772810194838926600,10.103926513671874,0.4318813979625702,1.7957897186279297,1.8696280717849731
1772810194848627000,10.113626953125,0.5891790986061096,1.3153445720672607,2.3534328937530518
1772810194858327000,10.1233271484375,0.5708531141281128,0.6659952998161316,2.6469533443450928
1772810194868027100,10.133027099609375,0.38789913058280945,-0.23831361532211304,2.6350414752960205
1772810194877727500,10.1427275390625,0.10048725455999374,-1.2093595266342163,2.3714535236358643
1772810194887427600,10.152427490234375,-0.12125665694475174,-1.7318780422210693,2.0428082942962646
1772810194897128000,10.1621279296875,-0.22663083672523499,-1.6411645412445068,1.7300454378128052
1772810194906828000,10.171828125,-0.3072649836540222,-1.086804747581482,1.4423280954360962
1772810194916528400,10.1815283203125,-0.40866854786872864,-0.3672060966491699,1.172020435333252
1772810194926228500,10.191228515625,-0.5064069032669067,0.2386954128742218,0.9157626628875732
1772810194935928600,10.200928466796874,-0.5968148708343506,0.6513345837593079,0.7028762698173523
1772810194945629000,10.21062890625,-0.6740893125534058,0.8865175247192383,0.5519927144050598
1772810194955329000,10.2203291015625,-0.7150171995162964,0.9237802624702454,0.45822495222091675
1772810194965029400,10.230029296875,-0.7324268817901611,0.7845031023025513,0.41271552443504333
1772810194974729500,10.2397294921875,-0.7425061464309692,0.5401571989059448,0.3797288239002228
1772810194984429600,10.2494296875,-0.740368127822876,0.24572035670280457,0.33085963129997253
1772810194994130000,10.2591298828125,-0.72173672914505,-0.05413788929581642,0.2541961073875427
1772810195003830000,10.268830078125,-0.6808087825775146,-0.2905425727367401,0.14393500983715057
1772810195013530400,10.2785302734375,-0.6041452884674072,-0.377285361289978,0.0016035200096666813
1772810195023230500,10.28823046875,-0.4886918365955353,-0.31467172503471375,-0.18379394710063934
1772810195032930600,10.2979306640625,-0.3549124300479889,-0.17661628127098083,-0.4027889668941498
1772810195042631000,10.307630859375,-0.24281874299049377,-0.07070759683847427,-0.6336958408355713
1772810195052331000,10.3173310546875,-0.16615521907806396,-0.06085740402340889,-0.8597158193588257
1772810195062031400,10.32703125,-0.10415244847536087,-0.152487114071846,-1.0634392499923706
1772810195071731500,10.3367314453125,-0.07422006875276566,-0.3720930218696594,-1.242117166519165
1772810195081431800,10.346431884765625,-0.09193515032529831,-0.6659189462661743,-1.4156028032302856
1772810195091132000,10.3561318359375,-0.14110976457595825,-0.9377537965774536,-1.6034437417984009
1772810195100832000,10.36583203125,-0.1997527778148651,-1.1506401300430298,-1.795255184173584
1772810195110532400,10.375532470703124,-0.21288637816905975,-1.2389100790023804,-1.9595777988433838
1772810195120232400,10.385232421875,-0.053756099194288254,-1.1268163919448853,-2.0899975299835205
1772810195129932500,10.3949326171875,0.24862197041511536,-0.6686678528785706,-2.261345148086548
1772810195139633000,10.4046328125,0.6542361974716187,-0.033979352563619614,-2.43452525138855
1772810195149333000,10.4143330078125,1.1673625707626343,0.45707955956459045,-2.5847978591918945
1772810195159033300,10.424033447265625,1.602603793144226,0.485484778881073,-2.717661142349243
1772810195168733400,10.4337333984375,1.8322888612747192,0.22953243553638458,-2.762254238128662
1772810195178433800,10.443433837890625,1.960265040397644,0.3730856776237488,-2.569221019744873
1772810195188134000,10.4531337890625,2.0387611389160156,0.8645263910293579,-2.116569995880127
1772810195197834000,10.462833984375,2.0830488204956055,1.1531599760055542,-1.5771764516830444
1772810195207534300,10.472534423828124,2.0949606895446777,0.6565269231796265,-1.2250128984451294
1772810195217234400,10.482234375,1.8866559267044067,-0.414242684841156,-1.1193333864212036
1772810195226934500,10.4919345703125,1.461493968963623,-1.3094650506973267,-1.1911100149154663
1772810195236635000,10.501634765625,0.9929606914520264,-1.8311434984207153,-1.3022873401641846
1772810195246335000,10.5113349609375,0.5943714380264282,-2.3506839275360107,-1.4931825399398804
1772810195256035300,10.521035400390625,0.34147340059280396,-2.4227659702301025,-1.9733222723007202
1772810195265735400,10.5307353515625,0.22296564280986786,-1.9410991668701172,-2.2833361625671387
1772810195275435800,10.540435791015625,0.18234314024448395,-0.8293253183364868,-2.166355609893799
1772810195285136000,10.550135986328126,0.27916520833969116,0.6837103962898254,-1.6465096473693848
1772810195294836000,10.5598359375,0.43340855836868286,2.056628942489624,-0.898200273513794
1772810195304536300,10.569536376953126,0.43860089778900146,2.746906280517578,-0.14653119444847107
1772810195314236400,10.579236328125,0.23793183267116547,2.648251533508301,0.4878518879413605
1772810195323936800,10.588936767578126,-0.04245510324835777,2.1158828735351562,0.9481384754180908
1772810195333636900,10.598636962890625,-0.26358816027641296,1.4793617725372314,1.2120320796966553
1772810195343337000,10.6083369140625,-0.3814850449562073,0.9625701904296875,1.2731186151504517
1772810195353037300,10.618037353515625,-0.4004218578338623,0.6174315810203552,1.152778148651123
1772810195362737400,10.6277373046875,-0.3393353819847107,0.45707955956459045,0.9258419275283813
1772810195372437800,10.637437744140625,-0.22785256803035736,0.49892380833625793,0.6689732670783997
1772810195382137900,10.647137939453126,-0.09896009415388107,0.6333140730857849,0.3992764949798584
1772810195391838000,10.656837890625,0.03329212963581085,0.7218894362449646,0.10331250727176666
1772810195401538300,10.666538330078126,0.13225223124027252,0.7967203855514526,-0.16363540291786194
1772810195411238400,10.67623828125,0.18723005056381226,0.8669698238372803,-0.35208719968795776
1772810195420938800,10.685938720703126,0.23518294095993042,0.9091194868087769,-0.4794524908065796
1772810195430638800,10.695638916015625,0.2770271897315979,0.8901826739311218,-0.5802451968193054
1772810195440339000,10.7053388671875,0.2974911332130432,0.7872520089149475,-0.6819541454315186
1772810195450039300,10.715039306640625,0.3124573230743408,0.623845636844635,-0.7677806615829468
1772810195459739400,10.724739501953126,0.3298669755458832,0.4488328993320465,-0.8093194961547852
1772810195469439700,10.734439697265625,0.33567020297050476,0.2735147178173065,-0.7873283624649048
1772810195479139800,10.744139892578126,0.3231474757194519,0.0639880821108818,-0.7024181485176086
1772810195488840000,10.75383984375,0.287106454372406,-0.15676318109035492,-0.5515345335006714
1772810195498540300,10.763540283203126,0.2260199636220932,-0.3009272515773773,-0.3612501621246338
1772810195508240400,10.773240478515625,0.18753549456596375,-0.3287216126918793,-0.18990258872509003
1772810195517940700,10.782940673828126,0.1585194170475006,-0.27435463666915894,-0.08300124853849411
1772810195527640800,10.792640869140625,0.09468404203653336,-0.05841394513845444,-0.01672242395579815
1772810195537341000,10.8023408203125,0.057726722210645676,0.21700970828533173,-0.022220205515623093
1772810195547041300,10.812041259765625,0.07605266571044922,0.35048365592956543,-0.13797907531261444
1772810195556741400,10.821741455078126,0.1487455666065216,0.3367392122745514,-0.2989419400691986
1772810195566441700,10.831441650390625,0.2519817352294922,0.23533566296100616,-0.44646579027175903
1772810195576141800,10.841141845703126,0.30451610684394836,-0.028557928279042244,-0.5542834401130676
1772810195585842000,10.850842041015625,0.2813032269477844,-0.38217228651046753,-0.6113992929458618
1772810195595542300,10.860542236328126,0.22846342623233795,-0.6527853608131409,-0.649578332901001
1772810195605242400,10.870242431640625,0.14019346237182617,-0.7972549200057983,-0.723798394203186
1772810195614942700,10.879942626953126,0.000610864779446274,-0.7263945937156677,-0.7891609072685242
1772810195624642800,10.889642822265625,-0.12278381735086441,-0.464944452047348,-0.7937424182891846
1772810195634343200,10.89934326171875,-0.18112140893936157,-0.21174100041389465,-0.7781654000282288
1772810195644043300,10.909043212890625,-0.32162031531333923,0.12965604662895203,-0.7329613566398621
1772810195653743400,10.918743408203126,-0.5335903763771057,0.4228711426258087,-0.7213549613952637
1772810195663443700,10.928443603515625,-0.4883863925933838,0.31444263458251953,-0.7980184555053711
1772810195673143800,10.938143798828126,-0.2464839369058609,0.22036947309970856,-0.9727258086204529
1772810195682844000,10.947843994140625,0.018325943499803543,0.20082180202007294,-1.307479739189148
1772810195692544300,10.957544189453126,0.15790854394435883,0.5542070865631104,-1.5420517921447754
1772810195702244400,10.967244384765625,0.18631376326084137,0.7765618562698364,-1.6260457038879395
1772810195711944700,10.97694482421875,0.20280711352825165,0.6027708053588867,-1.5344159603118896
1772810195721644800,10.986644775390625,0.17592905461788177,0.3669770061969757,-1.1923316717147827
1772810195731345200,10.99634521484375,0.14141519367694855,0.2759581506252289,-0.5661953091621399
1772810195741045200,11.006045166015625,0.012217295356094837,0.11804962158203125,0.23067781329154968
1772810195760445700,11.02544580078125,-0.37751442193984985,0.4405862092971802,1.6335288286209106
1772810195770145800,11.035145751953126,-0.43340855836868286,0.7311288118362427,2.0064616203308105
1772810195779846000,11.044845947265625,-0.3433060050010681,1.0279327630996704,2.21171236038208
1772810195789546200,11.054546142578126,-0.25350889563560486,1.1229221820831299,2.1848342418670654
1772810195799246300,11.064246337890625,-0.23518294095993042,0.9268345832824707,2.0027966499328613
1772810195808946700,11.07394677734375,-0.2868010103702545,0.5746710300445557,1.6772055625915527
1772810195818646800,11.083646728515625,-0.38240134716033936,0.2545779049396515,1.1872920989990234
1772810195828347100,11.09334716796875,-0.4046979248523712,0.11468986421823502,0.5953640937805176
1772810195838047200,11.103047119140625,-0.2211330533027649,0.2286161482334137,0.02328922040760517
1772810195847747300,11.112747314453125,0.11759147047996521,0.46654796600341797,-0.42966702580451965
1772810195857447400,11.122447509765625,0.5522217750549316,0.5673406720161438,-0.61201012134552
1772810195867147800,11.132147705078125,0.9208786487579346,0.4341721534729004,-0.47609272599220276
1772810195876847900,11.141847900390625,1.1242966651916504,0.0746782198548317,-0.14897464215755463
1772810195886548200,11.15154833984375,1.2415826320648193,-0.4295142889022827,0.2612210512161255
1772810195896248300,11.161248291015625,1.3087778091430664,-0.9340885877609253,0.5843685269355774
1772810195905948700,11.17094873046875,1.2977821826934814,-1.4649300575256348,0.7819832563400269
1772810195915648800,11.180648681640625,1.286786675453186,-1.6433025598526,0.8189405798912048
1772810195925349000,11.19034912109375,1.1505638360977173,-1.2480731010437012,0.5452731847763062
1772810195935049200,11.20004931640625,0.9401208758354187,-0.8244383931159973,0.091400645673275
1772810195944749300,11.209749267578125,0.8545998334884644,-0.18119776248931885,-0.3862956166267395
1772810195954449400,11.219449462890625,0.8640682101249695,0.5909352898597717,-0.7027235627174377
1772810195964149800,11.229149658203125,0.8686497211456299,0.7365502119064331,-0.7042507529258728
1772810195973849900,11.238849853515624,0.8329141139984131,0.33429574966430664,-0.48586657643318176
1772810195983550200,11.24855029296875,0.7538071274757385,-0.22243113815784454,-0.10010546445846558
1772810195993250300,11.258250244140624,0.5971203446388245,-0.7248674035072327,0.32414013147354126
1772810196002950700,11.26795068359375,0.41233372688293457,-1.1228457689285278,0.5840631127357483
1772810196012650800,11.277650634765624,0.210442915558815,-1.2080614566802979,0.6326268315315247
1772810196022351000,11.28735107421875,0.17287473380565643,-0.6023890376091003,0.5522981286048889
1772810196032051200,11.29705126953125,0.16798780858516693,0.10705405473709106,0.42187848687171936
1772810196041751300,11.306751220703125,0.08582650125026703,0.4964803457260132,0.3018435537815094
1772810196051451400,11.316451416015624,-0.02107483521103859,0.5554288029670715,0.2508363425731659
1772810196061151700,11.32615185546875,-0.21777328848838806,0.37094762921333313,0.18669554591178894
1772810196070851800,11.335851806640624,-0.43951719999313354,0.26129740476608276,0.03000873140990734
1772810196080552200,11.34555224609375,-0.5308414697647095,0.4949531853199005,-0.1453094631433487
1772810196090252300,11.355252197265624,-0.4938841760158539,0.8947641849517822,-0.298331081867218
1772810196099952600,11.36495263671875,-0.4068359434604645,1.1543817520141602,-0.4376082420349121
1772810196109652700,11.37465283203125,-0.3689623177051544,1.167820692062378,-0.5625301003456116
1772810196119353000,11.38435302734375,-0.4166097939014435,0.9854776263237,-0.6239219903945923
1772810196129053200,11.39405322265625,-0.5390881896018982,0.7866411209106445,-0.6477457284927368
1772810196138753300,11.403753173828125,-0.7098248600959778,0.5374082922935486,-0.6740128993988037
1772810196148453400,11.413453369140624,-0.8753692507743835,0.2799287736415863,-0.7845794558525085
1772810196158153700,11.42315380859375,-1.0042617321014404,0.1314886510372162,-0.9128610491752625
1772810196167853800,11.432853759765624,-1.074511170387268,0.03375028073787689,-1.0405317544937134
1772810196177554200,11.44255419921875,-1.0754274129867554,0.02519817277789116,-1.1208604574203491
1772810196187254300,11.452254150390624,-1.046105980873108,0.017256930470466614,-1.1074215173721313
1772810196196954600,11.46195458984375,-0.96180659532547,-0.004428769461810589,-1.011210322380066
1772810196206654700,11.47165478515625,-0.8323032855987549,0.08261945843696594,-0.8481093645095825
1772810196216354800,11.481354736328125,-0.7794634699821472,0.14950916171073914,-0.7088322043418884
1772810196226055200,11.49105517578125,-0.749531090259552,0.14370593428611755,-0.6743183732032776
1772810196235755300,11.50075537109375,-0.8121446967124939,0.2952004075050354,-0.6303361058235168
1772810196245455400,11.510455322265624,-0.8949168920516968,0.233503058552742,-0.6052906513214111
1772810196255155700,11.52015576171875,-0.9193515181541443,-0.11217004805803299,-0.6431642770767212
1772810196264855800,11.529855712890624,-0.8335250020027161,-0.5755109786987305,-0.7292962074279785
1772810196274556200,11.53955615234375,-0.5635227560997009,-0.9481384754180908,-0.7497601509094238
1772810196284256300,11.54925634765625,-0.13530655205249786,-0.9643264412879944,-0.6410261988639832
1772810196293956600,11.55895654296875,0.22999058663845062,-0.7273108959197998,-0.5051088333129883
1772810196303656700,11.56865673828125,0.34238970279693604,-0.5660426020622253,-0.5521454215049744
1772810196313356800,11.578356689453125,0.23976442217826843,-0.3479638397693634,-0.7158571481704712
1772810196323057200,11.58805712890625,0.17165300250053406,0.24999640882015228,-0.6459131240844727
1772810196332757200,11.59775732421875,0.17318016290664673,0.6015490889549255,-0.4541015923023224
1772810196342457300,11.607457275390624,0.012522728182375431,0.6296488642692566,-0.46570804715156555
1772810196352157700,11.61715771484375,-0.06750056147575378,0.5988765358924866,-0.641331672668457
1772810196361857800,11.62685791015625,0.04062250629067421,0.4586067199707031,-0.9840267896652222
1772810196371558100,11.63655810546875,0.1646280586719513,0.09330959618091583,-1.4782164096832275
1772810196381258200,11.64625830078125,0.2672533392906189,-0.5865065455436707,-2.0221915245056152
1772810196390958300,11.655958251953125,0.406530499458313,-1.272507667541504,-2.536234140396118
1772810196400658700,11.66565869140625,0.537255585193634,-1.6032909154891968,-2.935128927230835
1772810196410358800,11.67535888671875,0.6606502532958984,-1.568777084350586,-3.1828346252441406
1772810196420059000,11.685058837890624,0.6432406306266785,-1.1362848281860352,-3.270799160003662
1772810196429759200,11.69475927734375,0.4364628791809082,-0.6424006819725037,-3.1269404888153076
1772810196439459300,11.704459228515624,0.20127993822097778,-0.050549060106277466,-2.538983106613159
1772810196449159700,11.71415966796875,0.012522728182375431,0.34468045830726624,-1.6761366128921509
1772810196458859800,11.72385986328125,-0.17287473380565643,0.33765551447868347,-0.8221476078033447
1772810196468560100,11.73356005859375,-0.32131487131118774,0.11285726726055145,-0.15722131729125977
1772810196478260200,11.74326025390625,-0.35735589265823364,-0.026038112118840218,0.22640176117420197
1772810196487960300,11.752960205078125,-0.29596397280693054,0.060933761298656464,0.28840452432632446
1772810196497660700,11.76266064453125,-0.21166464686393738,0.23594652116298676,0.09934188425540924
1772810196507360800,11.77236083984375,-0.1795942485332489,0.3611738085746765,-0.2008981555700302
1772810196517060900,11.782060791015626,-0.23762640357017517,0.3312414288520813,-0.4840339720249176
1772810196526761200,11.79176123046875,-0.2767217457294464,0.25671592354774475,-0.6376664638519287
1772810196536461300,11.80146142578125,-0.3072649836540222,0.2851211428642273,-0.6187296509742737
1772810196546161700,11.81116162109375,-0.26878049969673157,0.19440771639347076,-0.42508551478385925
1772810196555861800,11.82086181640625,-0.11728604137897491,0.12140937149524689,-0.10835213959217072
1772810196565561900,11.830561767578125,-0.016187917441129684,0.11713331937789917,0.18119776248931885
1772810196575262200,11.84026220703125,-0.006414080038666725,0.2386954128742218,0.34643667936325073
1772810196584962300,11.84996240234375,-0.037262752652168274,0.43203410506248474,0.3977493345737457
1772810196594662700,11.85966259765625,-0.0720820426940918,0.5694786906242371,0.33513569831848145
1772810196604362800,11.86936279296875,-0.06872228533029556,0.5749764442443848,0.1839466542005539
1772810196614062800,11.879062744140626,-0.02412915788590908,0.4689914286136627,-0.020998476073145866
1772810196623763200,11.88876318359375,0.026878049597144127,0.3068068325519562,-0.2638172209262848
