time,seconds_elapsed,z,y,x
1772812220682732500,0.090732666015625,0,0,0
1772812220692433200,0.10043310546875,0.033447265625,0.02557241916656494,-0.007804989814758301
1772812220702133500,0.110133544921875,0.04220008850097656,0.0693587064743042,-0.021101176738739014
1772812220711834000,0.119834228515625,0.11864852905273438,0.07391625642776489,0.004381120204925537
1772812220721534700,0.12953466796875,0.12066459655761719,0.04205092787742615,0.046674251556396484
1772812220731235300,0.1392353515625,0.1173543930053711,0.012970685958862305,0.04865062236785889
1772812220740936000,0.14893603515625,0.11579513549804688,-0.04054462909698486,0.06484532356262207
1772812220750636500,0.158636474609375,0.1284036636352539,-0.05281102657318115,0.03224062919616699
1772812220760337200,0.168337158203125,0.1427631378173828,-0.010127931833267212,0.0067868828773498535
1772812220770037800,0.178037841796875,0.1230010986328125,-0.0014355778694152832,-0.008158087730407715
1772812220779738400,0.18773828125,0.12256050109863281,-0.02255842089653015,0.010344505310058594
1772812220789439000,0.19743896484375,0.0584259033203125,-0.06486962735652924,0.020493149757385254
1772812220799139600,0.2071396484375,0.07367706298828125,-0.020236998796463013,0.028631210327148438
1772812220808840200,0.216840087890625,0.05616283416748047,0.04575309157371521,0.026587069034576416
1772812220818540800,0.226540771484375,-0.00006866455078125,0.022363245487213135,0.06481468677520752
1772812220828241400,0.236241455078125,-0.06522655487060547,0.006919920444488525,0.1201169490814209
1772812220837942000,0.24594189453125,-0.07287883758544922,-0.004851698875427246,0.122020423412323
1772812220847642600,0.255642578125,-0.10417747497558594,0.015145748853683472,0.08321881294250488
1772812220857343200,0.26534326171875,-0.07743644714355469,0.02626320719718933,-0.007355332374572754
1772812220867043800,0.2750439453125,-0.016950607299804688,0.047290101647377014,-0.09641093015670776
1772812220876744400,0.284744384765625,0.03275871276855469,0.03944878280162811,-0.14158213138580322
1772812220886445000,0.294445068359375,0.07128429412841797,0.009390711784362793,-0.12004542350769043
1772812220896145700,0.304145751953125,0.0694732666015625,-0.0008287280797958374,-0.0890842080116272
1772812220905846300,0.31384619140625,0.06328678131103516,-0.010022908449172974,-0.04113656282424927
1772812220915547000,0.323546875,0.025238990783691406,-0.015872225165367126,0.01363140344619751
1772812220925247500,0.33324755859375,0.019782066345214844,-0.008045196533203125,0.03621643781661987
1772812220934948000,0.342947998046875,0.00647735595703125,0.00028592348098754883,0.047911226749420166
1772812220944648700,0.352648681640625,-0.02715587615966797,-0.02556978166103363,0.09220969676971436
1772812220954349300,0.362349365234375,-0.041210174560546875,-0.007841378450393677,0.11460453271865845
1772812220964050000,0.3720498046875,-0.07683372497558594,0.01070353388786316,0.11105060577392578
1772812220973750500,0.38175048828125,-0.12418746948242188,0.005050212144851685,0.07111048698425293
1772812220983451100,0.391451171875,-0.20730018615722656,-0.006898701190948486,0.003288865089416504
1772812220993151700,0.40115185546875,-0.2276935577392578,-0.010366678237915039,-0.06162571907043457
1772812221002852400,0.410852294921875,-0.20468521118164062,0.003667861223220825,-0.07587552070617676
1772812221012553000,0.420552978515625,-0.18833065032958984,0.00946807861328125,-0.08191722631454468
1772812221022253600,0.430253662109375,-0.10861968994140625,-0.034214287996292114,-0.05877572298049927
1772812221031954200,0.4399541015625,-0.04049968719482422,-0.022244811058044434,-0.021772384643554688
1772812221041654800,0.44965478515625,0.03857707977294922,0.0039003193378448486,-0.0002891421318054199
1772812221051355400,0.45935546875,0.11445426940917969,0.045794516801834106,0.008465170860290527
1772812221061055700,0.4690556640625,0.16049766540527344,0.024462208151817322,0.015235960483551025
1772812221070756600,0.478756591796875,0.20317649841308594,0.04495346546173096,0.0036788582801818848
1772812221080457200,0.488457275390625,0.21348094940185547,0.04925818741321564,-0.008972346782684326
1772812221090157800,0.49815771484375,0.17348670959472656,0.056620776653289795,-0.029915452003479004
1772812221099858200,0.507858154296875,0.1252145767211914,0.0688886046409607,-0.03696256875991821
1772812221109558800,0.517558837890625,0.04416465759277344,0.06424908339977264,-0.008831620216369629
1772812221119259400,0.52725927734375,-0.05153369903564453,0.06719745695590973,0.02262204885482788
1772812221128960300,0.536960205078125,-0.09955120086669922,0.07995305955410004,0.019041836261749268
1772812221138660900,0.546660888671875,-0.09741401672363281,0.08457210659980774,0.031636059284210205
1772812221148361200,0.556361328125,-0.09069442749023438,0.06914342939853668,0.034581780433654785
1772812221158061800,0.566061767578125,-0.036055564880371094,0.0450642853975296,0.02427572011947632
1772812221167762400,0.575762451171875,0.015167236328125,0.030321940779685974,0.02001810073852539
1772812221177463000,0.585463134765625,0.04188823699951172,0.011355042457580566,0.03309929370880127
1772812221187163600,0.59516357421875,0.07398223876953125,-0.023888438940048218,0.02989131212234497
1772812221196864300,0.6048642578125,0.10552787780761719,-0.024490341544151306,0.01862800121307373
1772812221206564900,0.61456494140625,0.08950614929199219,-0.03096647560596466,0.00830930471420288
1772812221216265500,0.624265380859375,0.10430908203125,-0.02565687894821167,-0.009317874908447266
1772812221225966000,0.633966064453125,0.08722305297851562,-0.03453417122364044,-0.04828542470932007
1772812221235666700,0.643666748046875,0.07410907745361328,-0.02602103352546692,-0.07486104965209961
1772812221245367300,0.6533671875,-0.0069427490234375,-0.03372274339199066,-0.06263691186904907
1772812221255068000,0.66306787109375,-0.09960174560546875,-0.029635876417160034,-0.07426440715789795
1772812221264768500,0.6727685546875,-0.13655471801757812,-0.030722111463546753,-0.08309686183929443
1772812221274469000,0.68246923828125,-0.1328563690185547,-0.0038173794746398926,-0.09506851434707642
1772812221284169700,0.692169677734375,-0.11633968353271484,0.01107904314994812,-0.051231980323791504
1772812221293870300,0.701870361328125,-0.07075214385986328,-0.0000027120113372802734,0.023140788078308105
1772812221303571000,0.711571044921875,-0.028289794921875,-0.0010402947664260864,0.1142316460609436
1772812221313271600,0.721271484375,0.004034996032714844,0.0063894689083099365,0.15129470825195312
1772812221322972200,0.73097216796875,-0.024259567260742188,0.028880566358566284,0.14421898126602173
1772812221332672800,0.7406728515625,-0.04977130889892578,0.001690879464149475,0.13649719953536987
1772812221342373400,0.750373291015625,-0.034865379333496094,0.0006709694862365723,0.08784681558609009
1772812221352074000,0.760073974609375,-0.054413795471191406,-0.02966943383216858,0.058563411235809326
1772812221361774600,0.769774658203125,-0.04662513732910156,-0.08232355117797852,0.04804122447967529
1772812221371475200,0.77947509765625,-0.035404205322265625,-0.06888066232204437,0.03988754749298096
1772812221381175800,0.78917578125,-0.02782440185546875,0.008060693740844727,-0.012536346912384033
1772812221390876400,0.79887646484375,-0.06502723693847656,0.060441553592681885,-0.030828237533569336
1772812221400577000,0.808576904296875,-0.10517024993896484,0.055852010846138,-0.06889152526855469
1772812221410277600,0.818277587890625,-0.10932540893554688,0.05897122621536255,-0.05878472328186035
1772812221419978200,0.827978271484375,-0.10516548156738281,0.016123846173286438,-0.05158424377441406
1772812221429678800,0.837678955078125,-0.0999002456665039,-0.02172267436981201,-0.01406848430633545
1772812221439379500,0.84737939453125,-0.04650402069091797,-0.0389699786901474,0.011257290840148926
1772812221449080000,0.857080078125,0.043625831604003906,-0.0579802542924881,0.05430257320404053
1772812221458780700,0.86678076171875,0.08991527557373047,-0.05357840657234192,0.05451059341430664
1772812221468481300,0.876481201171875,0.16258716583251953,0.009491026401519775,0.055166006088256836
1772812221478182000,0.886181884765625,0.1905069351196289,0.019257158041000366,0.0786558985710144
1772812221487882500,0.895882568359375,0.15790271759033203,0.00010026991367340088,0.08161038160324097
1772812221497583000,0.9055830078125,0.13996601104736328,-0.005775958299636841,0.06469744443893433
1772812221507283700,0.91528369140625,0.08707523345947266,-0.015993699431419373,0.006692826747894287
1772812221516984300,0.924984375,-0.014292716979980469,-0.004996463656425476,-0.048517704010009766
1772812221526685000,0.934684814453125,-0.09038352966308594,0.012542754411697388,-0.08829772472381592
1772812221536385500,0.944385498046875,-0.16051959991455078,0.021272212266921997,-0.06535983085632324
1772812221546086100,0.954086181640625,-0.19660377502441406,0.020283222198486328,-0.05331003665924072
1772812221555786800,0.963786865234375,-0.1521739959716797,0.024233952164649963,-0.0032421350479125977
1772812221565487000,0.973487060546875,-0.10153961181640625,0.021466761827468872,0.04122418165206909
1772812221575188000,0.98318798828125,-0.02940654754638672,0.0007253885269165039,0.06986826658248901
1772812221584888600,0.992888671875,0.04038047790527344,0.008770167827606201,0.061432063579559326
1772812221594589200,1.002589111328125,0.08315181732177734,-0.011261999607086182,0.011869966983795166
1772812221604289800,1.012289794921875,0.06640625,-0.0259285569190979,-0.01451951265335083
1772812221613990100,1.021990234375,0.06646251678466797,-0.010016143321990967,-0.03742802143096924
1772812221623690800,1.031690673828125,0.05123329162597656,0.02173180878162384,-0.042314231395721436
1772812221633391600,1.0413916015625,0.01860523223876953,0.031545817852020264,-0.041130006313323975
1772812221643092200,1.05109228515625,0.0006189346313476562,0.025647103786468506,-0.020859122276306152
1772812221652792800,1.060792724609375,-0.04416847229003906,-0.005928799510002136,-0.005198776721954346
1772812221662493200,1.0704931640625,-0.08121204376220703,-0.01192040741443634,-0.022170543670654297
1772812221672193800,1.08019384765625,-0.11534595489501953,-0.020543619990348816,-0.04193758964538574
1772812221681894400,1.089894287109375,-0.12538909912109375,-0.036069050431251526,-0.04749166965484619
1772812221691595300,1.09959521484375,-0.10702133178710938,-0.02228674292564392,-0.03910332918167114
1772812221701295900,1.1092958984375,-0.10072517395019531,0.010734915733337402,-0.029825687408447266
1772812221710996200,1.118996337890625,-0.0827951431274414,0.003454849123954773,0.0007014870643615723
1772812221730397400,1.1383974609375,-0.08987045288085938,0.05621352791786194,0.004110574722290039
1772812221740098000,1.14809814453125,-0.06508827209472656,0.06301017105579376,-0.026341617107391357
1772812221749798700,1.157798583984375,-0.018346786499023438,0.05574844777584076,-0.06712114810943604
1772812221759499300,1.167499267578125,0.08307170867919922,0.06938886642456055,-0.11120456457138062
1772812221769199900,1.177199951171875,0.15230083465576172,0.07496270537376404,-0.1306251883506775
1772812221778900500,1.186900390625,0.17442798614501953,0.05552658438682556,-0.07692241668701172
1772812221788601000,1.19660107421875,0.1866931915283203,0.02223159372806549,-0.007367849349975586
1772812221798301700,1.2063017578125,0.1881847381591797,-0.022388741374015808,0.03194749355316162
1772812221808002300,1.216002197265625,0.14266681671142578,-0.015260934829711914,0.03143125772476196
1772812221817703000,1.225702880859375,0.07323837280273438,0.01317298412322998,0.030751168727874756
1772812221827403500,1.235403564453125,-0.011479377746582031,0.04135632514953613,0.006262421607971191
1772812221846804700,1.2548046875,-0.1539440155029297,0.0499299019575119,-0.044455647468566895
1772812221856505300,1.26450537109375,-0.1913900375366211,0.035590946674346924,-0.01933121681213379
1772812221866206000,1.2742060546875,-0.1446847915649414,0.0006864368915557861,0.006207168102264404
1772812221875906600,1.283906494140625,-0.10108470916748047,-0.036142244935035706,0.0025690197944641113
1772812221885607200,1.293607177734375,-0.06057453155517578,-0.04798939824104309,0.07305121421813965
1772812221895307800,1.303307861328125,-0.025487899780273438,-0.025557368993759155,0.13227540254592896
1772812221905008400,1.31300830078125,0.039574623107910156,-0.04777465760707855,0.15572911500930786
1772812221914709000,1.322708984375,0.11767101287841797,-0.03304429352283478,0.1660953164100647
1772812221924409600,1.33240966796875,0.17917442321777344,0.0008783936500549316,0.1601731777191162
1772812221934110200,1.342110107421875,0.2009134292602539,-0.021034955978393555,0.1456815004348755
1772812221943810800,1.351810791015625,0.21310997009277344,-0.09953518211841583,0.11541903018951416
1772812221953511400,1.361511474609375,0.1321725845336914,0.009384378790855408,0.12458187341690063
1772812221963212000,1.3712119140625,0.019501686096191406,0.04719224572181702,0.10099714994430542
1772812221972912600,1.38091259765625,-0.02195453643798828,-0.045451030135154724,0.11962372064590454
1772812221982613200,1.39061328125,-0.09099292755126953,-0.06821686029434204,0.11717671155929565
1772812221992313900,1.40031396484375,-0.10463809967041016,-0.03945210576057434,0.05801135301589966
1772812222002014500,1.410014404296875,-0.11327648162841797,-0.01881660521030426,-0.00015991926193237305
1772812222011715000,1.419715087890625,-0.15248870849609375,-0.032629236578941345,0.03667736053466797
1772812222021415700,1.429415771484375,-0.14403820037841797,-0.06433980166912079,0.04857206344604492
1772812222031116300,1.4391162109375,-0.06388568878173828,-0.039454683661460876,0.06867796182632446
1772812222040817000,1.44881689453125,-0.035681724548339844,-0.006459027528762817,0.0768921971321106
1772812222050517500,1.458517578125,0.00020694732666015625,-0.014060169458389282,0.11288636922836304
1772812222060218000,1.468218017578125,0.03661155700683594,-0.009719356894493103,0.13387984037399292
1772812222069918700,1.477918701171875,0.08308124542236328,0.022437050938606262,0.10574561357498169
1772812222079619300,1.487619384765625,0.07828712463378906,0.003660067915916443,0.043160319328308105
1772812222089320000,1.49731982421875,0.055853843688964844,-0.014339819550514221,-0.009244799613952637
1772812222099020500,1.5070205078125,0.04661846160888672,0.005710378289222717,-0.02519172430038452
1772812222108721200,1.51672119140625,0.06936454772949219,0.0077451616525650024,-0.07770955562591553
1772812222118421800,1.526421875,0.027136802673339844,0.011691436171531677,-0.1150771975517273
1772812222128122400,1.536122314453125,-0.06260395050048828,0.008236885070800781,-0.1545584797859192
1772812222137823000,1.545822998046875,-0.15915393829345703,0.019632071256637573,-0.19073837995529175
1772812222147523600,1.555523681640625,-0.20469093322753906,0.0030737072229385376,-0.20692801475524902
1772812222157224200,1.56522412109375,-0.12592697143554688,-0.023300230503082275,-0.1916142702102661
1772812222166924800,1.5749248046875,-0.06970596313476562,0.010689258575439453,-0.1477499008178711
1772812222176625400,1.58462548828125,0.03622627258300781,0.00789402425289154,-0.09678643941879272
1772812222186326000,1.594325927734375,0.06282424926757812,0.024255558848381042,-0.06964433193206787
1772812222196026400,1.6040263671875,0.04542350769042969,0.062381863594055176,-0.03788691759109497
1772812222205727200,1.613727294921875,0.0035161972045898438,0.06711992621421814,-0.03043586015701294
1772812222215427800,1.623427734375,-0.016546249389648438,0.03672243654727936,-0.007577359676361084
1772812222225128400,1.63312841796875,0.0014162063598632812,-0.030434802174568176,-0.030353546142578125
1772812222234829000,1.6428291015625,0.05074024200439453,-0.0714564323425293,0.0015175342559814453
1772812222244529400,1.652529296875,0.1109323501586914,-0.02918122708797455,0.01886463165283203
1772812222254230000,1.66222998046875,0.17140960693359375,-0.04859150946140289,0.02587723731994629
1772812222263931000,1.671930908203125,0.11221790313720703,-0.041731297969818115,0.0007595419883728027
1772812222273631500,1.681631591796875,0.07758045196533203,0.009736180305480957,-0.043141186237335205
1772812222283332000,1.69133203125,-0.042420387268066406,0.03899279236793518,-0.0659300684928894
1772812222293032400,1.701032470703125,-0.10509681701660156,0.014257639646530151,-0.05499410629272461
1772812222302733000,1.710733154296875,-0.15494155883789062,0.02326175570487976,-0.036685049533843994
1772812222312433700,1.72043359375,-0.1334075927734375,0.005591392517089844,-0.02106553316116333
1772812222322134500,1.730134521484375,-0.10416316986083984,0.0031019747257232666,0.007612764835357666
1772812222331835100,1.739835205078125,-0.05545234680175781,-0.028990283608436584,-0.009522616863250732
1772812222341535700,1.74953564453125,0.0031461715698242188,-0.006905451416969299,0.0008147954940795898
1772812222351236000,1.759236083984375,0.03257274627685547,0.014331325888633728,-0.01401662826538086
1772812222360936700,1.768936767578125,0.044945716857910156,-0.014771133661270142,0.01606196165084839
1772812222370637300,1.77863720703125,0.08999061584472656,-0.058670029044151306,-0.007471621036529541
1772812222380338200,1.788338134765625,0.1308002471923828,-0.05385023355484009,-0.00128251314163208
1772812222390038800,1.798038818359375,0.14986419677734375,-0.007214069366455078,-0.01826620101928711
1772812222399739100,1.8077392578125,0.12749290466308594,-0.01332312822341919,0.0036576390266418457
1772812222409439700,1.817439697265625,0.009012222290039062,-0.05264410376548767,0.03136402368545532
1772812222419140400,1.827140380859375,-0.0745401382446289,-0.016385048627853394,-0.006422996520996094
1772812222428841000,1.836841064453125,-0.12850379943847656,0.045870065689086914,-0.020190119743347168
1772812222438541800,1.846541748046875,-0.1617412567138672,0.02913382649421692,-0.012455999851226807
1772812222448242200,1.8562421875,-0.16980552673339844,-0.011399030685424805,-0.046871721744537354
1772812222457942800,1.86594287109375,-0.12232780456542969,0.012212127447128296,-0.10580140352249146
1772812222467643400,1.875643310546875,-0.10371685028076172,0.030996650457382202,-0.13414233922958374
1772812222477344000,1.885343994140625,-0.0525054931640625,-0.007509976625442505,-0.08542215824127197
1772812222487044600,1.895044677734375,-0.030527114868164062,-0.06236445903778076,0.007762789726257324
1772812222496745200,1.9047451171875,0.04172229766845703,-0.04467478394508362,0.03806060552597046
1772812222506445800,1.91444580078125,0.13057804107666016,0.018799126148223877,0.011103689670562744
1772812222516146400,1.924146484375,0.11907672882080078,0.02040839195251465,0.024235188961029053
1772812222525847000,1.933846923828125,0.1217355728149414,0.004445552825927734,0.06377643346786499
1772812222535547600,1.943547607421875,0.1596546173095703,-0.021314531564712524,0.07958489656448364
1772812222545248300,1.953248291015625,0.18528461456298828,-0.05474601686000824,0.07584488391876221
1772812222554948900,1.962948974609375,0.1387166976928711,-0.06094387173652649,0.04686170816421509
1772812222564649500,1.9726494140625,0.0681924819946289,0.006943196058273315,-0.01300579309463501
1772812222574350000,1.98235009765625,-0.03521156311035156,0.0496576726436615,-0.06213003396987915
1772812222584050700,1.99205078125,-0.12381458282470703,0.020598530769348145,-0.0936812162399292
1772812222593751300,2.001751220703125,-0.18747520446777344,-0.0051462650299072266,-0.0755491852760315
1772812222603452000,2.011451904296875,-0.21265029907226562,0.0010478496551513672,-0.036023616790771484
1772812222613152500,2.021152587890625,-0.1774301528930664,-0.0015121400356292725,-0.005391418933868408
1772812222622853000,2.03085302734375,-0.1426830291748047,0.03526845574378967,0.01510244607925415
1772812222632553700,2.0405537109375,-0.16487693786621094,0.06279483437538147,0.00048726797103881836
1772812222642254300,2.05025439453125,-0.12800025939941406,0.05620196461677551,-0.02173745632171631
1772812222651955000,2.059954833984375,-0.052033424377441406,0.03310015797615051,-0.0030185580253601074
1772812222661655600,2.069655517578125,0.1637735366821289,-0.0051260292530059814,0.029930531978607178
1772812222671356200,2.079356201171875,0.3232841491699219,-0.06217440962791443,0.049699246883392334
1772812222681056800,2.089056884765625,0.34871959686279297,-0.06205624341964722,0.051651597023010254
1772812222690757400,2.09875732421875,0.27269744873046875,-0.01962447166442871,0.021102845668792725
1772812222700458000,2.1084580078125,0.0919179916381836,-0.002111375331878662,-0.03692972660064697
1772812222710158600,2.11815869140625,-0.06832695007324219,-0.012246131896972656,-0.03445160388946533
1772812222719859200,2.127859130859375,-0.1376352310180664,-0.038638949394226074,-0.029624223709106445
1772812222729559800,2.137559814453125,-0.1481008529663086,-0.026393860578536987,-0.010640382766723633
1772812222739260400,2.147260498046875,-0.11255359649658203,-0.020413219928741455,0.04934275150299072
1772812222748961000,2.1569609375,-0.09067153930664062,-0.04240018129348755,0.09549164772033691
1772812222758661600,2.16666162109375,-0.053924560546875,-0.0040579140186309814,0.1192483901977539
1772812222768362200,2.1763623046875,-0.046009063720703125,0.021912097930908203,0.11888176202774048
1772812222778062800,2.186062744140625,-0.0770101547241211,0.01601502299308777,0.08152621984481812
1772812222787763500,2.195763427734375,-0.12635421752929688,0.029268652200698853,0.05409473180770874
1772812222797464000,2.205464111328125,-0.13261985778808594,0.007431596517562866,0.0217401385307312
1772812222807164700,2.21516455078125,-0.07533073425292969,-0.009605854749679565,0.024578094482421875
1772812222816865300,2.224865234375,0.002155303955078125,-0.012558192014694214,0.0030595064163208008
1772812222826566000,2.23456591796875,0.06078910827636719,-0.011885464191436768,-0.031550586223602295
1772812222836266500,2.2442666015625,0.07383251190185547,-0.01192137598991394,-0.07694745063781738
1772812222845967000,2.253967041015625,0.08665275573730469,0.0015619993209838867,-0.07074272632598877
1772812222865368300,2.273368408203125,0.0954885482788086,0.013455510139465332,-0.07789260149002075
1772812222875069000,2.28306884765625,0.07880687713623047,0.008271783590316772,-0.07319885492324829
1772812222884769500,2.29276953125,0.05759143829345703,-0.018855392932891846,-0.05344158411026001
1772812222894470100,2.30247021484375,0.075408935546875,-0.03355476260185242,-0.00507664680480957
1772812222904170800,2.312170654296875,0.13422012329101562,-0.04563918709754944,0.04669320583343506
1772812222913871400,2.321871337890625,0.17347049713134766,-0.03271663188934326,0.09220832586288452
1772812222923572000,2.331572021484375,0.06028556823730469,-0.013773947954177856,0.10567110776901245
1772812222933272600,2.3412724609375,-0.048811912536621094,0.010163486003875732,0.12387877702713013
1772812222942973200,2.35097314453125,-0.11855411529541016,0.05082675814628601,0.10709613561630249
1772812222952673800,2.360673828125,-0.13664913177490234,0.05700555443763733,0.06412440538406372
1772812222962374400,2.37037451171875,-0.1428089141845703,0.04431498050689697,-0.0006856918334960938
1772812222972075000,2.380074951171875,-0.11354446411132812,0.013943463563919067,-0.049743831157684326
1772812222981775600,2.389775634765625,-0.056377410888671875,-0.016053438186645508,-0.09485667943954468
1772812222991476200,2.399476318359375,-0.038870811462402344,-0.04460039734840393,-0.11687624454498291
1772812223001176600,2.409176513671875,-0.0675048828125,-0.03563493490219116,-0.12963604927062988
1772812223010877400,2.41887744140625,-0.08859062194824219,-0.006256371736526489,-0.10761916637420654
1772812223020578000,2.428578125,-0.0529327392578125,0.010927468538284302,-0.03611123561859131
1772812223030278700,2.438278564453125,-0.030961990356445312,-0.019045114517211914,0.04753720760345459
1772812223039979300,2.447979248046875,0.050627708435058594,-0.04030126333236694,0.09388840198516846
1772812223049679600,2.4576796875,0.08973979949951172,-0.03897710144519806,0.0981016755104065
1772812223059380200,2.467380126953125,0.115264892578125,-0.049006879329681396,0.08004486560821533
1772812223069081000,2.4770810546875,0.12026023864746094,-0.035023897886276245,0.06722676753997803
1772812223078781700,2.48678173828125,0.1439676284790039,-0.023967653512954712,0.05186259746551514
1772812223088482300,2.496482421875,0.16271018981933594,-0.021962493658065796,0.03352314233779907
1772812223098183000,2.506182861328125,0.1224813461303711,-0.016125738620758057,0.01988840103149414
1772812223107883300,2.51588330078125,0.05590057373046875,0.02518126368522644,-0.028075873851776123
1772812223117584000,2.525583984375,-0.021419525146484375,0.04887518286705017,-0.03340780735015869
1772812223127284700,2.53528466796875,-0.08919811248779297,0.024719059467315674,-0.06849217414855957
1772812223136985300,2.5449853515625,-0.10755348205566406,0.012882351875305176,-0.05698847770690918
1772812223146686000,2.55468603515625,-0.13746166229248047,0.02931419014930725,-0.049719929695129395
1772812223156386300,2.56438623046875,-0.1434488296508789,0.015472471714019775,0.006598174571990967
1772812223166087000,2.5740869140625,-0.10694122314453125,-0.004713386297225952,-0.011568069458007812
1772812223175787500,2.58378759765625,-0.1051015853881836,0.017505735158920288,-0.025635600090026855
1772812223185488400,2.59348828125,-0.0774984359741211,0.033417195081710815,-0.00242006778717041
1772812223195189000,2.60318896484375,-0.05406665802001953,-0.007317453622817993,0.032916903495788574
1772812223204889300,2.612889404296875,0.01837158203125,-0.054359808564186096,0.04583936929702759
1772812223214590000,2.62258984375,0.07444953918457031,-0.013571500778198242,0.02096402645111084
1772812223224290600,2.63229052734375,0.09203910827636719,-0.0011152923107147217,0.005095243453979492
1772812223233991200,2.6419912109375,0.04931926727294922,0.011458516120910645,0.003679811954498291
1772812223243692000,2.651692138671875,0.03081798553466797,0.04181280732154846,0.008301496505737305
1772812223253392600,2.661392578125,0.05619525909423828,0.01391872763633728,-0.0016639232635498047
1772812223263093000,2.671093017578125,0.08819389343261719,-0.009590893983840942,0.011283814907073975
1772812223272793600,2.680793701171875,0.11260128021240234,-0.018870174884796143,0.03270775079727173
1772812223282494200,2.690494140625,0.11078548431396484,-0.01167038083076477,0.013498783111572266
1772812223292194800,2.70019482421875,0.09614372253417969,0.013554215431213379,0.0009794235229492188
1772812223301895700,2.709895751953125,0.07818984985351562,0.004056155681610107,0.00902259349822998
1772812223311596000,2.719595947265625,0.03812408447265625,0.014204919338226318,0.0012736916542053223
1772812223321296600,2.729296630859375,0.039969444274902344,0.01677188277244568,-0.03633713722229004
1772812223330997200,2.738997314453125,0.010099411010742188,0.012453794479370117,-0.04835021495819092
1772812223340697900,2.74869775390625,-0.056992530822753906,-0.026802480220794678,-0.038288652896881104
1772812223350398500,2.7583984375,-0.0677642822265625,-0.05400747060775757,-0.022958457469940186
1772812223360099000,2.76809912109375,-0.06427383422851562,-0.052286356687545776,-0.022898554801940918
1772812223369799700,2.777799560546875,-0.07721805572509766,-0.027764111757278442,-0.03577280044555664
1772812223379500300,2.787500244140625,-0.09220027923583984,0.011494606733322144,-0.03453761339187622
1772812223389201000,2.797200927734375,-0.13288116455078125,0.04022252559661865,-0.00977236032485962
1772812223398901500,2.806901611328125,-0.11891555786132812,0.017134159803390503,0.04386496543884277
1772812223408602000,2.81660205078125,-0.08408737182617188,-0.02869376540184021,0.05143934488296509
1772812223418302700,2.826302734375,-0.01685333251953125,-0.016808271408081055,0.05866795778274536
1772812223428003300,2.83600341796875,0.025798797607421875,-0.0004401206970214844,0.06309843063354492
1772812223437704000,2.845703857421875,-0.004058837890625,-0.06029513478279114,0.08687490224838257
1772812223447404500,2.855404541015625,-0.027585983276367188,-0.03903499245643616,0.07896959781646729
1772812223457105200,2.865105224609375,-0.01904582977294922,-0.012381374835968018,0.03768265247344971
1772812223466805800,2.8748056640625,-0.02601337432861328,0.010307878255844116,-0.024911224842071533
1772812223476506400,2.88450634765625,0.036614418029785156,0.02329564094543457,-0.07543379068374634
1772812223486207000,2.89420703125,0.10068321228027344,0.022325456142425537,-0.12154549360275269
1772812223495907600,2.903907470703125,0.14498138427734375,-0.005079686641693115,-0.11229431629180908
1772812223505608200,2.913608154296875,0.12625503540039062,-0.05386000871658325,-0.05858814716339111
1772812223515308800,2.923308837890625,0.11840152740478516,-0.06194165349006653,-0.037986695766448975
1772812223525009400,2.933009521484375,0.07297611236572266,-0.06114944815635681,-0.01572483777999878
1772812223534710000,2.9427099609375,0.01888751983642578,-0.039529621601104736,0.018136680126190186
1772812223544410600,2.95241064453125,-0.04721355438232422,0.0035843849182128906,0.02034628391265869
1772812223554111200,2.962111328125,-0.10050201416015625,0.01902329921722412,0.03442317247390747
1772812223563811800,2.971811767578125,-0.1624469757080078,0.016855359077453613,0.04093438386917114
1772812223573512400,2.981512451171875,-0.17866039276123047,0.021136075258255005,0.02915889024734497
1772812223583213000,2.991213134765625,-0.14982223510742188,0.0436021089553833,0.011458277702331543
1772812223592913700,3.00091357421875,-0.1144418716430664,0.0606214702129364,0.0008161664009094238
1772812223602614300,3.0106142578125,-0.0762338638305664,0.026540040969848633,0.026544928550720215
1772812223612315000,3.02031494140625,0.016557693481445312,-0.00036022067070007324,0.062224745750427246
1772812223622015500,3.030015380859375,0.10315132141113281,0.019762247800827026,0.058474838733673096
1772812223631716000,3.039716064453125,0.1484384536743164,0.02146926522254944,0.026814281940460205
1772812223641416700,3.049416748046875,0.1529989242553711,0.02412143349647522,-0.011237800121307373
1772812223651117300,3.059117431640625,0.13504505157470703,0.018295854330062866,-0.015537142753601074
1772812223660818000,3.06881787109375,0.14330101013183594,-0.006342828273773193,-0.024351119995117188
1772812223670518500,3.0785185546875,0.1397571563720703,-0.004520237445831299,-0.057286083698272705
1772812223680219100,3.08821923828125,0.0845479965209961,0.009759515523910522,-0.08289599418640137
1772812223689919700,3.097919677734375,0.007921218872070312,0.0021008849143981934,-0.11668354272842407
1772812223699620400,3.107620361328125,-0.04623222351074219,-0.011424779891967773,-0.1245889663696289
1772812223709321000,3.117321044921875,-0.0736236572265625,0.016949981451034546,-0.0981673002243042
1772812223719021600,3.127021484375,-0.072296142578125,0.00962260365486145,-0.036039769649505615
1772812223728722200,3.13672216796875,-0.06385326385498047,-0.015206903219223022,-0.009902656078338623
1772812223738422800,3.1464228515625,-0.12497329711914062,0.01814931631088257,0.04132360219955444
1772812223748123400,3.156123291015625,-0.16991710662841797,0.04116979241371155,0.07132041454315186
1772812223757824000,3.165823974609375,-0.16606616973876953,0.03485381603240967,0.1128690242767334
1772812223767524600,3.175524658203125,-0.08237266540527344,0.0024466514587402344,0.1367904543876648
1772812223777225200,3.18522509765625,0.016386985778808594,-0.02212885022163391,0.14429831504821777
1772812223786925800,3.19492578125,0.07822608947753906,-0.034837186336517334,0.09668368101119995
1772812223796626400,3.20462646484375,0.10965824127197266,-0.01569250226020813,0.031067490577697754
1772812223806327000,3.2143271484375,0.09943580627441406,-0.0022864937782287598,-0.021923065185546875
1772812223816027600,3.224027587890625,0.07183361053466797,0.0012925565242767334,-0.05735582113265991
1772812223825728300,3.233728271484375,0.02947235107421875,0.03604957461357117,-0.07676374912261963
1772812223835428900,3.243428955078125,0.0007114410400390625,0.02837693691253662,-0.06020277738571167
1772812223845129500,3.25312939453125,-0.007632255554199219,-0.014909416437149048,-0.006628572940826416
1772812223854830000,3.262830078125,0.019512176513671875,-0.005243629217147827,-0.008422255516052246
1772812223864530700,3.27253076171875,0.03341388702392578,0.02750241756439209,-0.031711697578430176
1772812223874231300,3.282231201171875,0.0071239471435546875,0.048435360193252563,-0.035221755504608154
1772812223883932000,3.291931884765625,0.018836021423339844,0.014394432306289673,0.01847010850906372
1772812223893632500,3.301632568359375,0.04557037353515625,-0.039861977100372314,0.048828125
1772812223903333000,3.3113330078125,0.11190223693847656,-0.06453853845596313,0.08002221584320068
1772812223913033700,3.32103369140625,0.12659072875976562,-0.038579463958740234,0.06242704391479492
1772812223922734300,3.330734375,0.0821676254272461,-0.028213322162628174,0.04947376251220703
1772812223932435000,3.34043505859375,0.00432586669921875,-0.01794719696044922,0.04658627510070801
1772812223942135600,3.350135498046875,-0.06161785125732422,-0.023725837469100952,0.023434579372406006
1772812223951836200,3.359836181640625,-0.14172649383544922,-0.033875733613967896,0.024563729763031006
1772812223961536800,3.369536865234375,-0.21112918853759766,0.01212853193283081,0.03489774465560913
1772812223971237400,3.3792373046875,-0.24299144744873047,0.04257857799530029,0.002649068832397461
1772812223980938000,3.38893798828125,-0.23088455200195312,0.056512266397476196,-0.018432796001434326
1772812223990638600,3.398638671875,-0.1602153778076172,0.06364011764526367,-0.028479814529418945
1772812224000339200,3.408339111328125,-0.07772159576416016,0.05091044306755066,-0.03904932737350464
1772812224010039800,3.418039794921875,0.008253097534179688,0.02965429425239563,-0.04495525360107422
1772812224019740400,3.427740478515625,0.0634469985961914,0.02692645788192749,-0.05000913143157959
1772812224029441000,3.43744091796875,0.1141195297241211,-0.020330071449279785,-0.0009353756904602051
1772812224039141400,3.447141357421875,0.18857955932617188,-0.038299232721328735,0.017033755779266357
1772812224048842200,3.45684228515625,0.2536325454711914,-0.025865286588668823,0.03480041027069092
1772812224058542800,3.46654296875,0.27657413482666016,-0.001977086067199707,0.010253190994262695
1772812224068243500,3.476243408203125,0.19677162170410156,0.008190780878067017,0.023151516914367676
1772812224077944000,3.485944091796875,0.07819557189941406,-0.006847977638244629,0.04646939039230347
1772812224087644700,3.495644775390625,0.006283760070800781,-0.03837163746356964,0.035584986209869385
1772812224097345000,3.505344970703125,-0.03851318359375,-0.032707929611206055,0.03741908073425293
1772812224107046000,3.5150458984375,-0.10726737976074219,-0.02014663815498352,0.008265018463134766
1772812224116746500,3.52474658203125,-0.17493247985839844,0.011888980865478516,-0.006322264671325684
1772812224126447000,3.534447021484375,-0.20618915557861328,0.04565012454986572,-0.022445082664489746
1772812224136147700,3.544147705078125,-0.1910266876220703,0.08039838075637817,-0.029918670654296875
1772812224145848000,3.55384814453125,-0.21732425689697266,0.0779876708984375,-0.04235357046127319
1772812224155548700,3.563548583984375,-0.18203353881835938,0.06425219774246216,-0.03828740119934082
1772812224165249500,3.57324951171875,-0.0920572280883789,0.018223315477371216,-0.037675559520721436
1772812224174950100,3.5829501953125,-0.009441375732421875,0.016859441995620728,-0.042866408824920654
1772812224184650800,3.592650634765625,0.09655189514160156,0.002674669027328491,-0.038726747035980225
1772812224194351400,3.602351318359375,0.18776798248291016,-0.0058324337005615234,-0.011057794094085693
1772812224204051700,3.6120517578125,0.22329235076904297,-0.00626412034034729,-0.0036777853965759277
1772812224213752300,3.62175244140625,0.2947988510131836,0.011423945426940918,-0.019024789333343506
1772812224223453000,3.631452880859375,0.27470874786376953,0.013315171003341675,-0.044760167598724365
1772812224233153800,3.64115380859375,0.19145870208740234,-0.005042672157287598,-0.03238958120346069
1772812224242854400,3.6508544921875,0.09661865234375,0.0008254945278167725,-0.02190953493118286
1772812224252555000,3.660554931640625,0.017477989196777344,-0.010066032409667969,-0.02916860580444336
1772812224262255400,3.67025537109375,-0.07561683654785156,-0.004565209150314331,-0.040292561054229736
1772812224271956000,3.6799560546875,-0.16722583770751953,0.008771449327468872,-0.0146864652633667
1772812224281656600,3.689656494140625,-0.23621082305908203,-0.006215095520019531,-0.0153123140335083
1772812224291357400,3.699357421875,-0.2428884506225586,0.021446168422698975,-0.000001430511474609375
1772812224301058000,3.70905810546875,-0.20946502685546875,0.01992437243461609,-0.003073275089263916
1772812224310758400,3.71875830078125,-0.1860494613647461,0.019044548273086548,0.014966130256652832
1772812224320459000,3.728458984375,-0.138336181640625,0.013341367244720459,0.03968000411987305
1772812224330159600,3.73815966796875,-0.03731727600097656,0.014738887548446655,0.05362778902053833
1772812224339860200,3.747860107421875,0.042029380798339844,0.024562418460845947,0.06282413005828857
1772812224349561000,3.75756103515625,0.11655998229980469,0.019895166158676147,0.06367677450180054
1772812224359261400,3.767261474609375,0.16393375396728516,0.008918970823287964,0.050052523612976074
1772812224368962000,3.776962158203125,0.15636253356933594,-0.008716732263565063,0.05059856176376343
1772812224378662700,3.78666259765625,0.17958354949951172,-0.043181806802749634,-0.0009548664093017578
1772812224388363300,3.79636328125,0.14722347259521484,-0.04409915208816528,-0.06532961130142212
1772812224398063900,3.80606396484375,0.11427497863769531,-0.02553442120552063,-0.09723138809204102
1772812224407764700,3.8157646484375,0.05245494842529297,-0.03675191104412079,-0.09200435876846313
1772812224417465000,3.825465087890625,-0.00598907470703125,-0.058164894580841064,-0.07742667198181152
1772812224427165700,3.835165771484375,-0.029341697692871094,-0.028197675943374634,-0.058502376079559326
1772812224436866300,3.8448662109375,-0.06055736541748047,-0.007592707872390747,-0.03164166212081909
1772812224446567000,3.85456689453125,-0.09006309509277344,0.013181567192077637,-0.00905066728591919
1772812224456267500,3.864267578125,-0.11316967010498047,0.02020171284675598,0.07151418924331665
1772812224465968000,3.873968017578125,-0.18060588836669922,0.02482384443283081,0.09165441989898682
1772812224475668700,3.883668701171875,-0.20697784423828125,0.05965122580528259,0.1020696759223938
1772812224485369300,3.893369384765625,-0.2153921127319336,0.10581082105636597,0.09529894590377808
1772812224495070000,3.903070068359375,-0.15909385681152344,0.06615370512008667,0.08478856086730957
1772812224504770600,3.9127705078125,-0.05552959442138672,0.05429035425186157,0.06306535005569458
1772812224514471200,3.92247119140625,0.046413421630859375,0.03313520550727844,0.008030176162719727
1772812224524171800,3.932171875,0.13617229461669922,0.00010707974433898926,-0.026718080043792725
1772812224533872400,3.941872314453125,0.19736766815185547,-0.02388651669025421,-0.026103496551513672
1772812224543573000,3.951572998046875,0.23048114776611328,-0.02049878239631653,-0.01773369312286377
1772812224553273600,3.961273681640625,0.24782276153564453,-0.027769505977630615,-0.022600829601287842
1772812224562974200,3.97097412109375,0.2108469009399414,-0.024529293179512024,-0.02912384271621704
1772812224572674800,3.9806748046875,0.13094234466552734,-0.0127677321434021,-0.015124619007110596
1772812224582375400,3.99037548828125,0.08414077758789062,-0.020726412534713745,-0.03766059875488281
1772812224592076000,4.000075927734375,0.022893905639648438,-0.046357572078704834,-0.0157889723777771
1772812224601776600,4.009776611328125,-0.04909324645996094,-0.032284364104270935,-0.03557950258255005
1772812224611477200,4.019477294921875,-0.12701988220214844,-0.00016584992408752441,-0.03234320878982544
1772812224621177900,4.029177734375,-0.17898082733154297,0.008553415536880493,-0.030496597290039062
1772812224630878500,4.03887841796875,-0.17120933532714844,0.04374542832374573,-0.027351200580596924
1772812224640579000,4.0485791015625,-0.14826202392578125,0.031614840030670166,-0.00014609098434448242
1772812224650279700,4.05827978515625,-0.12342071533203125,0.032291293144226074,0.03187990188598633
1772812224659980300,4.067980224609375,-0.09552764892578125,0.01599651575088501,0.05916142463684082
1772812224669681000,4.077680908203125,-0.05401897430419922,0.014176249504089355,0.06519585847854614
1772812224679381500,4.087381591796875,-0.016767501831054688,0.0035836398601531982,0.05756598711013794
1772812224689082000,4.09708203125,0.011636734008789062,0.011322319507598877,0.01956498622894287
1772812224698782700,4.10678271484375,0.029021263122558594,0.02439054846763611,-0.021643340587615967
1772812224708483300,4.1164833984375,0.0037384033203125,-0.004036039113998413,-0.051261186599731445
1772812224718184000,4.126183837890625,0.011776924133300781,-0.04033160209655762,-0.0352289080619812
1772812224727884500,4.135884521484375,0.0773477554321289,-0.04460813105106354,-0.060738325119018555
1772812224737585200,4.145585205078125,0.08305931091308594,-0.019217640161514282,-0.08495229482650757
1772812224747285800,4.15528564453125,0.07112979888916016,0.01681658625602722,-0.09554046392440796
1772812224756986400,4.164986328125,0.0806436538696289,0.0064013004302978516,-0.03495258092880249
1772812224766687000,4.17468701171875,0.06759452819824219,-0.002957940101623535,-0.00412440299987793
1772812224776387600,4.1843876953125,0.08054447174072266,-0.01775255799293518,0.060471296310424805
1772812224786088200,4.194088134765625,0.0732870101928711,-0.046567052602767944,0.0666617751121521
1772812224795788800,4.203788818359375,0.08742523193359375,-0.0102386474609375,0.03910166025161743
1772812224805489400,4.213489501953125,0.042603492736816406,0.004258304834365845,0.03921550512313843
1772812224815190000,4.22318994140625,-0.05089092254638672,0.0100078284740448,0.007384240627288818
1772812224824890600,4.232890625,-0.12056350708007812,-0.008393019437789917,-0.02350562810897827
1772812224834591200,4.24259130859375,-0.1432514190673828,-0.006119072437286377,-0.024312913417816162
1772812224844291800,4.252291748046875,-0.14202880859375,-0.010075390338897705,-0.01953226327896118
1772812224853992400,4.261992431640625,-0.07841873168945312,-0.0205630362033844,0.016212880611419678
1772812224863693000,4.271693115234375,-0.08416366577148438,-0.004582762718200684,0.023640155792236328
1772812224873393700,4.2813935546875,-0.08871078491210938,0.015074610710144043,0.013969480991363525
1772812224883094300,4.29109423828125,-0.059098243713378906,0.003961741924285889,0.03889578580856323
1772812224892795000,4.300794921875,-0.03349018096923828,0.008504122495651245,0.036108195781707764
1772812224902495500,4.31049560546875,0.01056671142578125,0.006530880928039551,0.01851522922515869
1772812224912196000,4.320196044921875,0.02683734893798828,-0.0012115240097045898,-0.010641157627105713
1772812224921896700,4.329896728515625,0.0734090805053711,-0.00789216160774231,0.010351240634918213
1772812224931597300,4.339597412109375,0.12038516998291016,-0.017785772681236267,0.014752089977264404
1772812224941298000,4.3492978515625,0.17371559143066406,-0.026906251907348633,0.007001519203186035
1772812224950998500,4.35899853515625,0.18857669830322266,-0.0024517178535461426,0.006262421607971191
1772812224960699100,4.36869921875,0.15382099151611328,-0.015608206391334534,0.05738884210586548
1772812224970399700,4.378399658203125,0.07848072052001953,-0.04272209107875824,0.08555853366851807
1772812224980100400,4.388100341796875,-0.017973899841308594,-0.001958131790161133,0.0733410120010376
1772812224989801000,4.397801025390625,-0.10470390319824219,0.01860448718070984,0.07273030281066895
1772812224999501600,4.40750146484375,-0.1736774444580078,0.023327291011810303,0.044922590255737305
1772812225009202200,4.4172021484375,-0.18979644775390625,0.02879682183265686,-0.009459078311920166
1772812225018902800,4.42690283203125,-0.17617034912109375,0.007944941520690918,-0.1077340841293335
1772812225028603400,4.436603271484375,-0.14626026153564453,-0.009154260158538818,-0.11335831880569458
1772812225038304000,4.446303955078125,-0.12266254425048828,0.0111447274684906,-0.1291884183883667
1772812225048004600,4.456004638671875,-0.07818317413330078,0.0010086297988891602,-0.1106383204460144
1772812225057705200,4.465705322265625,-0.03912162780761719,0.0125809907913208,-0.0739547610282898
1772812225067405800,4.47540576171875,0.036957740783691406,0.01091320812702179,0.001955389976501465
1772812225077106400,4.4851064453125,0.12706565856933594,0.011919483542442322,0.08273476362228394
1772812225086807000,4.49480712890625,0.22146987915039062,-0.04649794101715088,0.16827720403671265
1772812225096507600,4.504507568359375,0.2847480773925781,-0.08187372982501984,0.22161900997161865
1772812225106208300,4.514208251953125,0.3045768737792969,-0.1026705801486969,0.1825278401374817
1772812225115908900,4.523908935546875,0.3088541030883789,-0.051322534680366516,0.15719211101531982
1772812225125609500,4.533609375,0.21315765380859375,-0.004082590341567993,0.06247669458389282
1772812225135310000,4.54331005859375,0.06380462646484375,0.01524883508682251,-0.015743732452392578
1772812225145010700,4.5530107421875,-0.08654308319091797,0.02285134792327881,-0.08287936449050903
1772812225154711300,4.562711181640625,-0.20967960357666016,0.015285730361938477,-0.14139097929000854
1772812225164412000,4.572411865234375,-0.2872962951660156,-0.01497998833656311,-0.14506840705871582
1772812225174112500,4.582112548828125,-0.3166351318359375,-0.0021796822547912598,-0.13692152500152588
1772812225183813000,4.591813232421875,-0.2925300598144531,0.031688570976257324,-0.12272518873214722
1772812225193513700,4.601513671875,-0.2382211685180664,0.08223271369934082,-0.10128927230834961
1772812225203214300,4.61121435546875,-0.1777811050415039,0.09936001896858215,-0.08745169639587402
1772812225212915000,4.6209150390625,-0.09599494934082031,0.06190502643585205,-0.05527704954147339
1772812225222615600,4.630615478515625,0.0032472610473632812,0.02833789587020874,-0.04346489906311035
1772812225232316200,4.640316162109375,0.08788681030273438,0.004552274942398071,-0.028984427452087402
1772812225242016800,4.650016845703125,0.16759777069091797,-0.01721496880054474,-0.017846286296844482
1772812225251717400,4.65971728515625,0.2259845733642578,-0.012729108333587646,0.010149776935577393
1772812225261418000,4.66941796875,0.24335479736328125,-0.0035438090562820435,0.04699486494064331
1772812225271118600,4.67911865234375,0.2204275131225586,0.0032008886337280273,0.07215404510498047
1772812225280819200,4.688819091796875,0.18620014190673828,-0.011805474758148193,0.05880904197692871
1772812225290519800,4.698519775390625,0.10554218292236328,-0.013285830616950989,0.03239089250564575
1772812225300220400,4.708220458984375,-0.0008497238159179688,-0.0311671644449234,0.026614904403686523
1772812225309921000,4.717921142578125,-0.0725412368774414,-0.03608424961566925,0.006754457950592041
1772812225319621600,4.72762158203125,-0.14186477661132812,0.0077391862869262695,-0.003771483898162842
1772812225329322200,4.737322265625,-0.19009113311767578,0.010640859603881836,-0.009419023990631104
1772812225339022800,4.74702294921875,-0.2199535369873047,0.017041176557540894,0.024078786373138428
1772812225348723500,4.756723388671875,-0.19173240661621094,0.02144351601600647,0.03487133979797363
1772812225358424000,4.766424072265625,-0.1287069320678711,0.030124694108963013,0.021932780742645264
1772812225368124700,4.776124755859375,-0.033789634704589844,0.018758386373519897,0.020970284938812256
1772812225377825300,4.7858251953125,0.025475502014160156,0.029305696487426758,0.014972686767578125
1772812225387526000,4.79552587890625,0.10502338409423828,0.02928881347179413,-0.01398015022277832
1772812225397226500,4.8052265625,0.12680339813232422,0.01860673725605011,-0.010654807090759277
1772812225406927000,4.814927001953125,0.14467811584472656,0.007770031690597534,-0.01624363660812378
1772812225416627700,4.824627685546875,0.15287399291992188,0.0016337484121322632,-0.031121134757995605
1772812225426328300,4.834328369140625,0.12920475006103516,-0.006161406636238098,-0.033030688762664795
1772812225436029000,4.84402880859375,0.08942031860351562,-0.01885637640953064,-0.033226966857910156
1772812225445729500,4.8537294921875,0.06318283081054688,-0.001434326171875,-0.036143362522125244
1772812225455430100,4.86343017578125,0.04448509216308594,-0.021245747804641724,-0.029920876026153564
1772812225465130800,4.873130859375,0.019113540649414062,-0.05643804371356964,0.0026034116744995117
1772812225474831400,4.882831298828125,-0.05289268493652344,-0.030974864959716797,0.036914825439453125
1772812225484532000,4.892531982421875,-0.104888916015625,0.009191125631332397,0.07053178548812866
1772812225494232600,4.902232666015625,-0.13257503509521484,0.02459084987640381,0.10162729024887085
1772812225503933200,4.91193310546875,-0.14581680297851562,0.04384416341781616,0.0954781174659729
1772812225513633800,4.9216337890625,-0.09767532348632812,0.06009793281555176,0.036404192447662354
1772812225523334400,4.93133447265625,-0.019629478454589844,0.04708412289619446,-0.013673186302185059
1772812225533035000,4.941034912109375,0.018392562866210938,0.00790831446647644,-0.04031127691268921
1772812225542735600,4.950735595703125,0.05110359191894531,-0.0349673330783844,-0.03949016332626343
1772812225552436200,4.960436279296875,0.035035133361816406,-0.055584847927093506,-0.029076099395751953
1772812225562136800,4.97013671875,0.04277801513671875,-0.05268189311027527,-0.0035662055015563965
1772812225571837400,4.97983740234375,0.06447505950927734,-0.04635977745056152,0.02424079179763794
1772812225581538000,4.9895380859375,0.05990314483642578,-0.01708221435546875,0.021396398544311523
1772812225591238700,4.99923876953125,0.08012199401855469,-0.018140465021133423,0.02805095911026001
1772812225600939300,5.008939208984375,0.04938793182373047,-0.03400716185569763,0.04567223787307739
1772812225610640000,5.018639892578125,0.041534423828125,-0.03835783898830414,0.0618327260017395
1772812225620340200,5.02834033203125,0.030330657958984375,-0.02858160436153412,0.04428374767303467
1772812225630041000,5.038041015625,-0.006595611572265625,-0.02338346838951111,0.02722334861755371
1772812225639741700,5.04774169921875,-0.026460647583007812,-0.013586342334747314,0.004845798015594482
1772812225649442300,5.0574423828125,-0.036540985107421875,-0.0013042092323303223,0.0034851431846618652
1772812225659143000,5.067142822265625,-0.08759498596191406,0.01253315806388855,-0.007798612117767334
1772812225668843500,5.076843505859375,-0.16838645935058594,0.03603735566139221,-0.019381344318389893
1772812225678544000,5.0865439453125,-0.24787330627441406,0.048575401306152344,-0.0604514479637146
1772812225688244700,5.09624462890625,-0.3119993209838867,0.02766704559326172,-0.058552086353302
1772812225697945300,5.1059453125,-0.23877906799316406,-0.0031951963901519775,-0.04478013515472412
1772812225707646000,5.11564599609375,-0.11402416229248047,-0.04622530937194824,0.007207274436950684
1772812225717346600,5.1253466796875,0.11229610443115234,-0.05626487731933594,0.030636906623840332
1772812225727047200,5.135047119140625,0.3044319152832031,-0.009681880474090576,0.0210115909576416
1772812225736747500,5.14474755859375,0.3675651550292969,0.004240706562995911,0.018691599369049072
1772812225746448400,5.154448486328125,0.38732337951660156,-0.03451256453990936,0.02278292179107666
1772812225756149000,5.16414892578125,0.3455629348754883,-0.056852683424949646,0.011305749416351318
1772812225765849600,5.173849609375,0.29395389556884766,-0.05085274577140808,-0.03496497869491577
1772812225775550200,5.18355029296875,0.2010040283203125,-0.03735187649726868,-0.04969877004623413
1772812225785250800,5.193250732421875,0.07212352752685547,-0.026683896780014038,-0.08225232362747192
1772812225794951200,5.202951171875,-0.09574317932128906,-0.012537360191345215,-0.06794971227645874
1772812225804652000,5.212652099609375,-0.26325511932373047,0.006724298000335693,-0.05260181427001953
1772812225814352600,5.2223525390625,-0.35399436950683594,0.020252764225006104,-0.025528132915496826
1772812225824053200,5.23205322265625,-0.40570640563964844,0.03719669580459595,-0.012811124324798584
1772812225833753900,5.24175390625,-0.3860492706298828,0.04433929920196533,0.010047078132629395
1772812225843454500,5.251454345703125,-0.33029842376708984,0.05025869607925415,0.020535409450531006
1772812225853154800,5.26115478515625,-0.24139690399169922,0.04477176070213318,0.060214459896087646
1772812225862855700,5.270855712890625,-0.12931156158447266,0.029538244009017944,0.06538093090057373
1772812225872556300,5.280556396484375,-0.0014677047729492188,0.0023488998413085938,0.04972261190414429
1772812225882257000,5.2902568359375,0.1442279815673828,-0.016292646527290344,0.049068987369537354
1772812225891957500,5.29995751953125,0.25687694549560547,-0.026461586356163025,0.035353124141693115
1772812225901657900,5.309657958984375,0.3265056610107422,-0.02928180992603302,0.018935799598693848
1772812225911358500,5.3193583984375,0.3668813705444336,-0.021586433053016663,0.005794227123260498
1772812225921059000,5.32905908203125,0.3396797180175781,-0.014846131205558777,-0.03612321615219116
1772812225930760000,5.338760009765625,0.23067283630371094,-0.015726327896118164,-0.0625615119934082
1772812225940460500,5.34846044921875,0.10701751708984375,-0.032054781913757324,-0.06968766450881958
1772812225950161200,5.3581611328125,-0.0064105987548828125,-0.02968120574951172,-0.07261300086975098
1772812225959861500,5.367861572265625,-0.10031986236572266,-0.03309103846549988,-0.06271106004714966
1772812225969562000,5.37756201171875,-0.1455526351928711,0.001576244831085205,-0.05516541004180908
1772812225979262700,5.3872626953125,-0.2111835479736328,-0.0011570751667022705,-0.02157008647918701
1772812225988963600,5.396963623046875,-0.25228214263916016,0.008507192134857178,0.06602269411087036
1772812225998664200,5.406664306640625,-0.2716846466064453,0.03570482134819031,0.11671149730682373
1772812226008364800,5.41636474609375,-0.24268150329589844,0.04685086011886597,0.10401713848114014
1772812226018065200,5.426065185546875,-0.14364147186279297,0.07444888353347778,0.08364033699035645
1772812226027765800,5.435765869140625,-0.05563640594482422,0.05607941746711731,0.0032522082328796387
1772812226037466400,5.44546630859375,0.03218364715576172,0.025565356016159058,-0.04728275537490845
1772812226047167200,5.455167236328125,0.11392879486083984,-0.013830333948135376,-0.07997477054595947
1772812226056867800,5.464867919921875,0.13789081573486328,-0.01625560224056244,-0.09577822685241699
1772812226066568400,5.474568359375,0.13086605072021484,-0.021873295307159424,-0.07815736532211304
1772812226076268800,5.484268798828125,0.13925743103027344,-0.008214190602302551,-0.04180908203125
1772812226085969400,5.493969482421875,0.13225650787353516,0.004265934228897095,-0.035671234130859375
1772812226095670000,5.503669921875,0.15952014923095703,-0.009266242384910583,-0.013186752796173096
1772812226105371000,5.513370849609375,0.1416311264038086,-0.032243967056274414,0.025710225105285645
1772812226115071500,5.523071533203125,0.1276111602783203,-0.040615811944007874,0.01794147491455078
1772812226124772000,5.532772216796875,0.11030769348144531,-0.02841867506504059,0.029213249683380127
1772812226134472400,5.542472412109375,0.0567779541015625,-0.028691738843917847,0.02209383249282837
1772812226144173000,5.552173095703125,-0.012317657470703125,-0.013480812311172485,0.009036004543304443
1772812226153873700,5.561873779296875,-0.06610107421875,0.009500741958618164,0.01783996820449829
1772812226163574500,5.571574462890625,-0.11899185180664062,0.03790423274040222,0.04150956869125366
1772812226173275100,5.581275146484375,-0.1522350311279297,0.02457672357559204,0.04154932498931885
1772812226182975700,5.590975830078125,-0.14617919921875,0.003390192985534668,0.029088199138641357
1772812226192676000,5.600676025390625,-0.1297149658203125,-0.004256397485733032,0.017256617546081543
1772812226202376700,5.610376708984375,-0.11001777648925781,-0.00039124488830566406,-0.03319096565246582
1772812226212077300,5.620077392578125,-0.047059059143066406,-0.006807088851928711,-0.062373995780944824
1772812226221778200,5.629778076171875,-0.010999679565429688,-0.04948157072067261,-0.07025504112243652
1772812226231478800,5.639478759765625,0.029199600219726562,-0.03303122520446777,-0.05706554651260376
1772812226241179400,5.649179443359375,0.04994392395019531,-0.03303608298301697,-0.01720297336578369
1772812226250879700,5.658879638671875,0.049170494079589844,-0.037352949380874634,0.032766640186309814
1772812226260580400,5.668580322265625,0.033050537109375,-0.0035837292671203613,0.10282903909683228
1772812226270281000,5.678281005859375,0.004216194152832031,0.0038450956344604492,0.13211697340011597
1772812226279981800,5.68798193359375,0.024077415466308594,0.005618751049041748,0.1375281810760498
1772812226289682400,5.697682373046875,0.04704856872558594,0.01797276735305786,0.11552828550338745
1772812226299382800,5.7073828125,0.0742959976196289,0.010335832834243774,0.08995300531387329
1772812226309083400,5.71708349609375,0.12587738037109375,-0.005594164133071899,0.03371584415435791
1772812226318784000,5.726783935546875,0.11668205261230469,-0.04298849403858185,-0.012558817863464355
1772812226328484600,5.736484619140625,0.06765937805175781,-0.06193378567695618,-0.05562937259674072
1772812226338185500,5.746185546875,0.01829051971435547,-0.042535871267318726,-0.08996391296386719
1772812226347886000,5.755885986328125,-0.032578468322753906,-0.01905962824821472,-0.09369838237762451
1772812226357586700,5.765586669921875,-0.060164451599121094,-0.005605936050415039,-0.13852596282958984
1772812226367287000,5.775287109375,-0.07429027557373047,0.013389497995376587,-0.12474548816680908
1772812226376987600,5.784987548828125,-0.1046457290649414,-0.00006571412086486816,-0.086764395236969
1772812226386688300,5.794688232421875,-0.1110067367553711,0.010120809078216553,-0.034005582332611084
1772812226396388900,5.804388916015625,-0.10793781280517578,0.015294820070266724,0.036162376403808594
1772812226406089700,5.81408984375,-0.103851318359375,0.0010126233100891113,0.08967459201812744
1772812226415790000,5.8237900390625,-0.055176734924316406,0.002422124147415161,0.10397154092788696
1772812226425490700,5.83349072265625,0.005707740783691406,0.04608047008514404,0.08660054206848145
1772812226435191300,5.84319140625,0.0773763656616211,0.025644809007644653,0.08238208293914795
1772812226444892000,5.852891845703125,0.0654916763305664,-0.010629802942276001,0.06796729564666748
1772812226454592500,5.862592529296875,0.06793212890625,-0.03178103268146515,0.046858131885528564
1772812226464293400,5.87229345703125,0.05031776428222656,-0.06232401728630066,-0.006608188152313232
1772812226473993700,5.88199365234375,0.02708148956298828,-0.06111878156661987,0.0036674141883850098
1772812226483694300,5.8916943359375,-0.00750732421875,-0.05417560040950775,-0.008820116519927979
1772812226493395000,5.90139501953125,-0.03561687469482422,-0.01899699866771698,0.008085310459136963
1772812226503095600,5.911095458984375,-0.07148933410644531,-0.017426759004592896,0.05024147033691406
1772812226512796200,5.920796142578125,-0.07272529602050781,0.012032955884933472,0.052274107933044434
1772812226522497000,5.9304970703125,-0.076385498046875,0.06096678972244263,0.013771653175354004
1772812226532197400,5.940197265625,-0.04353618621826172,0.07075375318527222,-0.034575581550598145
1772812226541898000,5.94989794921875,-0.0076656341552734375,0.0297967791557312,-0.07900130748748779
1772812226551598600,5.9595986328125,0.013596534729003906,0.035024210810661316,-0.08372408151626587
1772812226561299200,5.96929931640625,-0.0030536651611328125,0.03534476459026337,-0.0822291374206543
1772812226570999800,5.978999755859375,-0.03820037841796875,0.034643396735191345,-0.05424237251281738
1772812226580700700,5.98870068359375,-0.059848785400390625,0.035553231835365295,-0.013603031635284424
1772812226590401000,5.998401123046875,-0.052947044372558594,0.012555152177810669,0.01959240436553955
1772812226600101600,6.0081015625,0.00787353515625,0.009766906499862671,0.027293503284454346
1772812226609802200,6.01780224609375,0.06170940399169922,-0.026767581701278687,0.07015115022659302
1772812226619502800,6.0275029296875,0.13701629638671875,-0.037304461002349854,0.05140131711959839
1772812226629203500,6.037203369140625,0.1370563507080078,0.006268784403800964,0.02040863037109375
1772812226638904300,6.046904296875,0.10776901245117188,0.024873852729797363,0.002168118953704834
1772812226648604700,6.056604736328125,0.05659675598144531,0.011292442679405212,0.013876557350158691
1772812226658305300,6.06630517578125,0.0286102294921875,-0.009148284792900085,0.03032916784286499
1772812226668006000,6.076005859375,0.011676788330078125,-0.005961284041404724,0.023039042949676514
1772812226677706500,6.08570654296875,-0.004965782165527344,0.01625870168209076,0.016903460025787354
1772812226687407000,6.095406982421875,-0.06134986877441406,0.029254406690597534,-0.013776898384094238
1772812226697108000,6.10510791015625,-0.10268688201904297,0.0019763559103012085,-0.04061877727508545
1772812226706808300,6.114808349609375,-0.1045684814453125,-0.0026707053184509277,-0.04666334390640259
1772812226716509000,6.124509033203125,-0.07700634002685547,0.04958470165729523,-0.05271095037460327
1772812226726209500,6.13420947265625,-0.043918609619140625,0.06834240257740021,-0.030413687229156494
1772812226735910100,6.14391015625,-0.039572715759277344,0.05302129685878754,-0.006696164608001709
1772812226745610800,6.15361083984375,-0.02717304229736328,0.02285553514957428,0.01773703098297119
1772812226755311600,6.1633115234375,-0.024509429931640625,-0.0010782331228256226,0.040720999240875244
1772812226765012000,6.173011962890625,0.01694774627685547,-0.014519840478897095,0.009158492088317871
1772812226774712600,6.182712646484375,0.04249858856201172,-0.007958084344863892,-0.02264261245727539
1772812226784413200,6.1924130859375,0.04997825622558594,-0.006489545106887817,-0.043284475803375244
1772812226794113800,6.20211376953125,0.05493927001953125,-0.014982789754867554,-0.028880774974822998
1772812226803814400,6.211814453125,0.07983970642089844,-0.0066567957401275635,-0.012362062931060791
1772812226813515300,6.221515380859375,0.0832357406616211,0.011058956384658813,-0.015589296817779541
1772812226823215600,6.231215576171875,0.05717754364013672,0.04710747301578522,-0.03534722328186035
1772812226832916200,6.240916259765625,0.009124755859375,0.03557652235031128,-0.003401637077331543
1772812226842616800,6.250616943359375,-0.015831947326660156,0.014853373169898987,0.006288111209869385
1772812226852317400,6.2603173828125,-0.042694091796875,0.013135775923728943,0.01198887825012207
1772812226862018000,6.27001806640625,-0.060817718505859375,0.004543930292129517,-0.0006919503211975098
1772812226871718700,6.27971875,-0.11041450500488281,0.008942797780036926,-0.010980427265167236
1772812226881419300,6.289419189453125,-0.1369161605834961,0.019547969102859497,-0.0017697811126708984
1772812226891119900,6.299119873046875,-0.10182476043701172,-0.0029744952917099,-0.0033313632011413574
1772812226900820500,6.308820556640625,-0.041408538818359375,0.018639490008354187,-0.02168583869934082
1772812226910521000,6.31852099609375,0.00627899169921875,0.03377801179885864,-0.0436440110206604
1772812226920221700,6.3282216796875,0.03671550750732422,0.02922208607196808,-0.021714627742767334
1772812226929922300,6.33792236328125,0.06429290771484375,0.0015228092670440674,-0.0058304667472839355
1772812226939623000,6.347622802734375,0.08788204193115234,0.00022581219673156738,-0.00404202938079834
1772812226949323500,6.357323486328125,0.08520889282226562,-0.010125309228897095,0.0013006925582885742
1772812226959024000,6.367024169921875,0.0720052719116211,0.009792923927307129,0.02890998125076294
1772812226968724700,6.376724853515625,0.020206451416015625,0.006087839603424072,0.033547937870025635
1772812226978425300,6.38642529296875,-0.007205009460449219,-0.003160834312438965,0.016912639141082764
1772812226988126000,6.3961259765625,-0.01772022247314453,0.012720301747322083,0.05613487958908081
1772812226997826600,6.40582666015625,-0.01634502410888672,-0.015454545617103577,0.06705665588378906
1772812227007527200,6.415527099609375,-0.040863037109375,-0.03416807949542999,0.08601713180541992
1772812227017227800,6.425227783203125,-0.048468589782714844,-0.016968712210655212,0.07952660322189331
1772812227026928400,6.434928466796875,-0.07833385467529297,0.030645549297332764,0.037860333919525146
1772812227036629000,6.44462890625,-0.10890865325927734,0.0804658830165863,0.0002936124801635742
1772812227046329600,6.45432958984375,-0.08603954315185547,0.07231937348842621,-0.05703467130661011
1772812227056030200,6.4640302734375,-0.02937793731689453,0.0648362934589386,-0.09175264835357666
1772812227065730800,6.473730712890625,0.05817985534667969,0.04335258901119232,-0.04170280694961548
1772812227075431400,6.483431396484375,0.1361236572265625,0.0026088207960128784,-0.02461397647857666
1772812227085132000,6.493132080078125,0.1798086166381836,-0.0008274614810943604,0.0011647343635559082
1772812227094832600,6.50283251953125,0.1674022674560547,0.015264928340911865,0.015938758850097656
1772812227104533200,6.512533203125,0.1575784683227539,0.0071166157722473145,0.02594691514968872
1772812227114233900,6.52223388671875,0.13146018981933594,0.0061232298612594604,0.024236857891082764
1772812227123934500,6.5319345703125,0.0645914077758789,-0.005816653370857239,0.011027276515960693
1772812227133635000,6.541635009765625,-0.003509521484375,-0.0230596661567688,-0.0056275129318237305
1772812227143335700,6.551335693359375,-0.05985260009765625,-0.02586144208908081,-0.005042731761932373
1772812227153036300,6.561036376953125,-0.11640071868896484,0.01773741841316223,-0.04527777433395386
1772812227162737000,6.57073681640625,-0.11200523376464844,0.02004334330558777,-0.04419213533401489
1772812227172437500,6.5804375,-0.09360027313232422,0.0012419819831848145,-0.027813315391540527
1772812227182138000,6.59013818359375,-0.050811767578125,0.005451947450637817,-0.0022487640380859375
1772812227191838700,6.599838623046875,-0.00046253204345703125,0.005112797021865845,0.05687880516052246
1772812227201539300,6.609539306640625,0.007878303527832031,0.00047957897186279297,0.08104294538497925
1772812227211240000,6.619239990234375,-0.014574050903320312,-0.0008415579795837402,0.08326321840286255
1772812227220940500,6.6289404296875,-0.052008628845214844,0.01236698031425476,0.03187638521194458
1772812227230641200,6.63864111328125,-0.055873870849609375,0.013198822736740112,-0.037738144397735596
1772812227240341800,6.648341796875,-0.043178558349609375,0.023091793060302734,-0.08201771974563599
1772812227250042400,6.65804248046875,-0.03182029724121094,0.02041226625442505,-0.10743814706802368
1772812227259743000,6.667742919921875,-0.013537406921386719,-0.0006268322467803955,-0.09903097152709961
1772812227269443600,6.677443603515625,0.006756782531738281,-0.039288610219955444,-0.0737881064414978
1772812227279144200,6.687144287109375,0.06196784973144531,-0.043627649545669556,-0.06137359142303467
1772812227288844800,6.6968447265625,0.11861801147460938,-0.03393092751502991,-0.06531298160552979
1772812227298545400,6.70654541015625,0.14855575561523438,-0.012891501188278198,-0.05236983299255371
1772812227308246000,6.71624609375,0.15574169158935547,0.005164593458175659,-0.02264261245727539
1772812227317946600,6.725946533203125,0.09222888946533203,-0.01774275302886963,0.03374350070953369
1772812227327647200,6.735647216796875,0.0120849609375,-0.013506561517715454,0.04623836278915405
1772812227337347800,6.745347900390625,-0.043231964111328125,0.0052336156368255615,0.048235416412353516
1772812227347048400,6.75504833984375,-0.09886741638183594,-0.024796396493911743,0.045900940895080566
1772812227356749000,6.7647490234375,-0.14777374267578125,-0.021171867847442627,0.011087894439697266
1772812227366449700,6.77444970703125,-0.13819122314453125,-0.01492580771446228,-0.01562720537185669
1772812227376150300,6.784150390625,-0.0840463638305664,-0.02089640498161316,-0.035273611545562744
1772812227385851000,6.793850830078125,-0.029685020446777344,-0.03145235776901245,-0.004564940929412842
1772812227395551500,6.803551513671875,0.027357101440429688,-0.030639201402664185,-0.010104179382324219
1772812227405252000,6.813252197265625,0.055281639099121094,-0.01616188883781433,-0.009081244468688965
1772812227414952700,6.82295263671875,0.049775123596191406,0.016525596380233765,-0.012420952320098877
1772812227424653300,6.8326533203125,0.03613471984863281,0.026300281286239624,-0.004029214382171631
1772812227434354000,6.84235400390625,0.031007766723632812,0.012333124876022339,0.004868209362030029
1772812227444054500,6.852054443359375,0.020059585571289062,-0.022848278284072876,0.02690267562866211
1772812227453755100,6.861755126953125,-0.003688812255859375,-0.028421536087989807,0.05738610029220581
1772812227463455700,6.871455810546875,0.06001758575439453,-0.04375079274177551,0.05687922239303589
1772812227473156400,6.88115625,0.060294151306152344,-0.03116169571876526,0.052025020122528076
1772812227482857000,6.89085693359375,0.06879043579101562,-0.01929888129234314,0.012234151363372803
1772812227492557600,6.9005576171875,0.06070518493652344,-0.012924820184707642,-0.03054720163345337
1772812227502258200,6.910258056640625,0.004570960998535156,-0.027013272047042847,-0.02952253818511963
1772812227511958800,6.919958740234375,-0.043509483337402344,-0.03352135419845581,-0.028027474880218506
1772812227521659400,6.929659423828125,-0.12375736236572266,-0.026924699544906616,0.022774219512939453
1772812227531360000,6.939360107421875,-0.18042945861816406,-0.024480104446411133,0.03214526176452637
1772812227541060600,6.949060546875,-0.1951751708984375,-0.03647342324256897,0.06159299612045288
1772812227550761200,6.95876123046875,-0.18508052825927734,-0.000683903694152832,0.014726877212524414
1772812227560461800,6.9684619140625,-0.09273338317871094,0.029687196016311646,-0.06534039974212646
1772812227570162400,6.978162353515625,-0.01828765869140625,0.06442394852638245,-0.12759029865264893
1772812227579863000,6.987863037109375,0.045577049255371094,0.016746997833251953,-0.11051928997039795
1772812227589563600,6.997563720703125,0.08841133117675781,-0.01973205804824829,-0.09483975172042847
1772812227599264300,7.00726416015625,0.12350940704345703,-0.035836368799209595,-0.038217365741729736
1772812227608964900,7.01696484375,0.1333150863647461,-0.02461811900138855,0.008431673049926758
1772812227618665500,7.02666552734375,0.10877418518066406,-0.061665743589401245,0.07645803689956665
1772812227628366000,7.036365966796875,0.1187448501586914,-0.051943302154541016,0.07084226608276367
1772812227638066700,7.046066650390625,0.10272407531738281,-0.0030322670936584473,0.054315805435180664
1772812227647767300,7.055767333984375,0.07524776458740234,-0.0010239779949188232,0.06123697757720947
1772812227657468000,7.065468017578125,0.01171875,-0.003603339195251465,0.07548344135284424
1772812227667168500,7.07516845703125,-0.014301300048828125,-0.0035136044025421143,0.07549971342086792
1772812227676869000,7.084869140625,0.00008869171142578125,-0.01868465542793274,0.05104297399520874
1772812227686569700,7.09456982421875,-0.003421783447265625,-0.03624540567398071,0.016653895378112793
1772812227696270300,7.104270263671875,0.02025127410888672,-0.022009938955307007,0.0022377371788024902
1772812227705971000,7.113970947265625,0.020015716552734375,-0.004610270261764526,-0.017937541007995605
1772812227715671600,7.123671630859375,-0.02143383026123047,-0.019342094659805298,-0.012591898441314697
1772812227725372200,7.1333720703125,-0.043361663818359375,-0.01687401533126831,-0.012268126010894775
1772812227735072800,7.14307275390625,-0.043731689453125,0.03085830807685852,-0.022907257080078125
1772812227744773400,7.1527734375,-0.07354164123535156,0.0336591899394989,-0.02259284257888794
1772812227754474000,7.162473876953125,-0.08167266845703125,0.008909553289413452,-0.021397888660430908
1772812227764174600,7.172174560546875,-0.08142471313476562,-0.000632554292678833,-0.03348374366760254
1772812227773875200,7.181875244140625,-0.0964803695678711,0.00856846570968628,-0.025604844093322754
1772812227783575800,7.191575927734375,-0.1066293716430664,-0.02373957633972168,-0.007073581218719482
1772812227793276400,7.2012763671875,-0.10021209716796875,-0.042746394872665405,0.009282529354095459
1772812227802977000,7.21097705078125,-0.06453132629394531,-0.015074193477630615,0.04326742887496948
1772812227812677600,7.220677734375,-0.0012006759643554688,0.008725106716156006,0.06600069999694824
1772812227822378200,7.230378173828125,0.04692840576171875,-0.023433148860931396,0.08638179302215576
1772812227832078800,7.240078857421875,0.07775020599365234,-0.0199032723903656,0.10366207361221313
1772812227841779500,7.249779541015625,0.11875057220458984,-0.02256762981414795,0.07885009050369263
1772812227851480000,7.25947998046875,0.13792133331298828,-0.01827162504196167,0.05216097831726074
1772812227861180700,7.2691806640625,0.10495948791503906,-0.019877523183822632,0.051477670669555664
1772812227880582000,7.288581787109375,0.0930318832397461,-0.01155349612236023,0.024235844612121582
1772812227890282500,7.298282470703125,0.05850410461425781,0.01294034719467163,-0.032209932804107666
1772812227909683700,7.31768359375,-0.015671730041503906,-0.003011167049407959,-0.08099144697189331
1772812227919384300,7.32738427734375,-0.05885791778564453,-0.006478160619735718,-0.10914373397827148
1772812227929085000,7.3370849609375,-0.0742645263671875,-0.033445268869400024,-0.10780656337738037
1772812227938785500,7.34678564453125,-0.08827781677246094,-0.038059085607528687,-0.07572126388549805
1772812227948486100,7.356486083984375,-0.10208797454833984,-0.025352507829666138,-0.0558629035949707
1772812227958186800,7.366186767578125,-0.10859203338623047,-0.014280349016189575,-0.03801983594894409
1772812227967887400,7.375887451171875,-0.1079254150390625,-0.012862563133239746,0.013270854949951172
1772812227977588000,7.385587890625,-0.09554672241210938,0.005947977304458618,0.03090304136276245
1772812227987288600,7.39528857421875,-0.05048370361328125,0.015554934740066528,0.045093536376953125
1772812227996989200,7.4049892578125,0.021982192993164062,-0.018871158361434937,0.11059647798538208
1772812228006689800,7.414689697265625,0.09434223175048828,-0.04245102405548096,0.11626648902893066
1772812228016390400,7.424390380859375,0.14788150787353516,-0.026494652032852173,0.10330986976623535
1772812228026091000,7.434091064453125,0.1794567108154297,-0.025770187377929688,0.09954333305358887
1772812228035791600,7.44379150390625,0.10704898834228516,-0.017063558101654053,0.09549123048782349
1772812228045492200,7.4534921875,0.027635574340820312,0.018666356801986694,0.050067007541656494
1772812228055192800,7.46319287109375,-0.06345748901367188,0.05299931764602661,0.01616913080215454
1772812228064893400,7.4728935546875,-0.1319284439086914,0.06976732611656189,-0.03463810682296753
1772812228074594000,7.482593994140625,-0.13339996337890625,0.05172616243362427,-0.08377623558044434
1772812228084294700,7.492294677734375,-0.07007884979248047,0.05983981490135193,-0.12491118907928467
1772812228093995300,7.501995361328125,0.020517349243164062,0.05607447028160095,-0.14751285314559937
1772812228103696000,7.51169580078125,0.08021163940429688,0.02297869324684143,-0.10371315479278564
1772812228113396500,7.521396484375,0.13538837432861328,-0.01724371314048767,-0.06366831064224243
1772812228123097000,7.53109716796875,0.1508340835571289,-0.02467218041419983,-0.032031893730163574
1772812228132797700,7.540797607421875,0.13779258728027344,-0.03817504644393921,-0.0028268098831176758
1772812228142498300,7.550498291015625,0.10495758056640625,-0.01705259084701538,0.03217560052871704
1772812228152199000,7.560198974609375,0.04442310333251953,-0.02492663264274597,0.017460942268371582
1772812228161899500,7.5698994140625,-0.011525154113769531,0.00516316294670105,-0.004610002040863037
1772812228171600100,7.57960009765625,-0.05125141143798828,-0.0009805262088775635,0.00995868444442749
1772812228181301000,7.589301025390625,-0.11626434326171875,0.002525120973587036,0.019868135452270508
1772812228191001300,7.59900146484375,-0.11437416076660156,0.023774802684783936,0.015701889991760254
1772812228200702000,7.608701904296875,-0.08900928497314453,0.006532788276672363,0.04690659046173096
1772812228210402600,7.618402587890625,-0.0676126480102539,0.030068695545196533,0.05642092227935791
1772812228220103200,7.628103271484375,-0.03712654113769531,0.031174689531326294,0.042951226234436035
1772812228229803800,7.6378037109375,-0.025971412658691406,0.006600618362426758,0.004917144775390625
1772812228239504400,7.64750439453125,-0.022110939025878906,0.028516530990600586,-0.00026601552963256836
1772812228249205000,7.657205078125,-0.024209022521972656,-0.013480782508850098,-0.028744518756866455
1772812228258905600,7.666905517578125,-0.028598785400390625,-0.015781104564666748,-0.08768701553344727
1772812228268606200,7.676606201171875,-0.011691093444824219,-0.004898518323898315,-0.12386250495910645
1772812228278306800,7.686306884765625,0.02500152587890625,-0.01674032211303711,-0.15891247987747192
1772812228288007400,7.69600732421875,0.06817913055419922,0.014860749244689941,-0.12897390127182007
1772812228297708000,7.7057080078125,0.07293987274169922,0.0004762411117553711,-0.0681580901145935
1772812228307408600,7.71540869140625,0.0740213394165039,-0.0055841803550720215,-0.011836647987365723
1772812228317109200,7.725109130859375,0.07748222351074219,-0.03431600332260132,0.021273255348205566
1772812228326809900,7.734809814453125,0.04918956756591797,-0.032765865325927734,-0.010171592235565186
1772812228336510500,7.744510498046875,-0.04099082946777344,-0.0036193132400512695,-0.029421746730804443
1772812228346211000,7.754211181640625,-0.09321880340576172,0.006508469581604004,-0.06394684314727783
1772812228355911700,7.76391162109375,-0.10343265533447266,-0.006450176239013672,-0.06523233652114868
1772812228365612300,7.7736123046875,-0.0994100570678711,0.007032930850982666,-0.06766235828399658
1772812228375313000,7.78331298828125,-0.07664108276367188,-0.029801100492477417,-0.04070174694061279
1772812228385013500,7.793013427734375,-0.04602527618408203,-0.017724931240081787,0.009404420852661133
1772812228394714000,7.802714111328125,-0.01826000213623047,-0.0037442445755004883,0.01041954755783081
1772812228404414700,7.812414794921875,0.014988899230957031,0.025251537561416626,0.01073610782623291
1772812228414115300,7.822115234375,0.04419708251953125,0.05379560589790344,0.011761069297790527
1772812228423816200,7.831816162109375,0.04115104675292969,0.05846637487411499,0.0033227205276489258
1772812228433516500,7.8415166015625,0.04402923583984375,0.00960385799407959,0.035319507122039795
1772812228443217200,7.851217041015625,0.05510234832763672,-0.0228101909160614,0.06933087110519409
1772812228452917800,7.860917724609375,0.049521446228027344,-0.03693336248397827,0.06666284799575806
1772812228462618400,7.870618408203125,0.04755878448486328,-0.037773460149765015,0.04561960697174072
1772812228472319000,7.880319091796875,0.04913806915283203,-0.03108122944831848,0.0312839150428772
1772812228482019800,7.890019775390625,0.05665302276611328,0.0238209068775177,-0.02606254816055298
1772812228491720200,7.89972021484375,0.04293251037597656,0.042764484882354736,-0.05264705419540405
1772812228501420800,7.9094208984375,-0.032909393310546875,0.040939509868621826,-0.07788264751434326
1772812228511121400,7.919121337890625,-0.0722198486328125,0.023561060428619385,-0.02977854013442993
1772812228520822000,7.928822021484375,-0.07795333862304688,-0.01644521951675415,-0.027206480503082275
1772812228530522600,7.938522705078125,-0.060108184814453125,-0.00715184211730957,-0.012536585330963135
1772812228540223500,7.948223388671875,-0.015519142150878906,-0.018487781286239624,0.05048006772994995
1772812228549923800,7.957923828125,0.02243804931640625,-0.026175081729888916,0.14234083890914917
1772812228559624400,7.96762451171875,0.027997970581054688,-0.03398466110229492,0.19553911685943604
1772812228569325000,7.977324951171875,0.013428688049316406,-0.0021359622478485107,0.19545608758926392
1772812228579025700,7.987025634765625,-0.009214401245117188,0.0519983172416687,0.1443241834640503
1772812228588726300,7.996726318359375,-0.030344009399414062,0.04398679733276367,0.028198838233947754
1772812228598427100,8.00642724609375,0.020681381225585938,0.01925969123840332,-0.08196717500686646
1772812228608127700,8.016127685546875,0.08150863647460938,-0.02532714605331421,-0.14029991626739502
1772812228627528700,8.03552880859375,0.1300039291381836,-0.09287256002426147,-0.1252657175064087
1772812228637229300,8.045229248046875,0.09276103973388672,-0.05433005094528198,-0.08752411603927612
1772812228646930000,8.054929931640626,0.016106605529785156,-0.003249824047088623,-0.07954543828964233
1772812228656630800,8.064630859375,-0.03347015380859375,0.021992206573486328,-0.04523038864135742
1772812228666331400,8.074331298828126,-0.07995891571044922,0.014513403177261353,-0.027229368686676025
1772812228676031700,8.08403173828125,-0.07628250122070312,0.013649046421051025,-0.0377691388130188
1772812228685732400,8.093732421875,-0.09271907806396484,-0.007018029689788818,0.006488204002380371
1772812228695433000,8.103432861328125,-0.10305595397949219,0.0044879913330078125,0.0129624605178833
1772812228705133600,8.113133544921874,-0.11795806884765625,0.0036424100399017334,0.008772432804107666
1772812228714834400,8.12283447265625,-0.132659912109375,0.0654192566871643,-0.013030707836151123
1772812228724535000,8.13253515625,-0.14008808135986328,0.06584662199020386,-0.03609222173690796
1772812228734235600,8.142235595703125,-0.1121358871459961,0.06095242500305176,-0.064907968044281
1772812228743936000,8.15193603515625,-0.062277793884277344,0.025795072317123413,-0.09117275476455688
1772812228753636600,8.16163671875,0.011566162109375,0.013411521911621094,-0.07108235359191895
1772812228763337200,8.171337158203125,0.09011459350585938,0.01908695697784424,-0.026795566082000732
1772812228773037800,8.181037841796876,0.10141372680664062,-0.005943596363067627,0.06725496053695679
1772812228782738700,8.19073876953125,0.1171722412109375,-0.023639947175979614,0.10675126314163208
1772812228792439300,8.200439208984376,0.12210750579833984,-0.00802147388458252,0.11626434326171875
1772812228802140000,8.210139892578125,0.11172199249267578,0.005203813314437866,0.08419674634933472
1772812228811840300,8.21984033203125,0.07803535461425781,-0.010651469230651855,0.044051289558410645
1772812228821540900,8.229540771484375,0.05793952941894531,-0.03595241904258728,-0.016271770000457764
1772812228831241500,8.239241455078124,0.04533958435058594,-0.02188965678215027,-0.030872762203216553
1772812228840942300,8.2489423828125,0.007099151611328125,-0.02198803424835205,-0.031510233879089355
1772812228850643000,8.258642822265625,-0.05637836456298828,-0.029568642377853394,0.003959357738494873
1772812228860343600,8.268343505859375,-0.0906057357788086,-0.016987502574920654,0.03296840190887451
1772812228870044000,8.2780439453125,-0.14670562744140625,-0.00877031683921814,0.08182638883590698
1772812228879744500,8.28774462890625,-0.1701984405517578,0.03290736675262451,0.09492915868759155
1772812228889445000,8.297445068359375,-0.14393901824951172,0.05891311168670654,0.07842326164245605
1772812228899146000,8.30714599609375,-0.09811687469482422,0.08551347255706787,0.06186950206756592
1772812228908846600,8.3168466796875,-0.040081024169921875,0.05531814694404602,0.04049074649810791
1772812228918547200,8.326547119140624,0.02639007568359375,0.022566556930541992,0.06690669059753418
1772812228928247600,8.33624755859375,0.028215408325195312,-0.019053786993026733,0.08282148838043213
1772812228937948200,8.3459482421875,0.0806427001953125,-0.03752022981643677,0.09367114305496216
1772812228947648800,8.355648681640625,0.10046100616455078,-0.020133674144744873,0.07612204551696777
1772812228957349600,8.365349609375,0.08575057983398438,-0.013000160455703735,0.09399610757827759
1772812228967050200,8.37505029296875,0.05113697052001953,-0.02320769429206848,0.14048337936401367
1772812228976750800,8.384750732421875,0.0819253921508789,-0.020339667797088623,0.11354386806488037
1772812228986451200,8.394451171875,0.15480613708496094,0.027480006217956543,0.04227954149246216
1772812228996151800,8.40415185546875,0.13241195678710938,0.004372358322143555,-0.022268950939178467
1772812229005852400,8.413852294921876,0.10329341888427734,-0.022345155477523804,-0.028728604316711426
1772812229015553300,8.42355322265625,0.06290721893310547,-0.02171945571899414,-0.023356735706329346
1772812229025254000,8.43325390625,0.04560375213623047,-0.009548366069793701,-0.017432451248168945
1772812229034954500,8.44295458984375,-0.011415481567382812,-0.012077510356903076,0.013281404972076416
1772812229044655000,8.452655029296874,-0.03928852081298828,-0.016712278127670288,0.020300447940826416
1772812229054355500,8.46235546875,-0.05733776092529297,0.005794793367385864,0.058354735374450684
1772812229064056000,8.47205615234375,-0.08925342559814453,-0.039870381355285645,0.0702744722366333
1772812229073757000,8.4817568359375,-0.12537860870361328,-0.07129675149917603,0.09863632917404175
1772812229083457500,8.49145751953125,-0.12680912017822266,-0.03043532371520996,0.08641636371612549
1772812229093158100,8.501158203125,-0.13180065155029297,0.020788371562957764,0.03092014789581299
1772812229102858800,8.510858642578125,-0.09917449951171875,0.005939364433288574,-0.005439877510070801
1772812229112559000,8.52055908203125,-0.05655479431152344,0.0014804303646087646,-0.057352542877197266
1772812229122259700,8.530259765625,0.032540321350097656,0.021462678909301758,-0.09665471315383911
1772812229131960600,8.539960693359374,0.09558963775634766,0.012816518545150757,-0.11172753572463989
1772812229141661200,8.5496611328125,0.0835103988647461,-0.025045931339263916,-0.09130316972732544
1772812229151361800,8.55936181640625,0.06102275848388672,-0.03283071517944336,-0.05653256177902222
1772812229161062400,8.5690625,0.048323631286621094,-0.03757983446121216,-0.05039799213409424
1772812229170763000,8.578762939453124,0.02760791778564453,-0.022220194339752197,-0.05384331941604614
1772812229180463400,8.58846337890625,0.017841339111328125,0.000978618860244751,-0.07382440567016602
1772812229190164000,8.5981640625,0.027063369750976562,-0.0092582106590271,-0.024062514305114746
1772812229199864800,8.60786474609375,0.007905960083007812,-0.026486873626708984,0.002438068389892578
1772812229209565400,8.6175654296875,0.004313468933105469,-0.02325722575187683,0.03604501485824585
1772812229219266000,8.62726611328125,-0.051097869873046875,-0.018919765949249268,0.06320637464523315
1772812229228966700,8.636966552734375,-0.0691518783569336,-0.0015222132205963135,0.08790230751037598
1772812229238667000,8.6466669921875,-0.10573005676269531,0.008323460817337036,0.08719289302825928
1772812229248367600,8.65636767578125,-0.101715087890625,0.04044544696807861,0.042713820934295654
1772812229258068500,8.666068359375,-0.10481643676757812,0.06979590654373169,0.005547285079956055
1772812229267769000,8.67576904296875,-0.08198833465576172,0.038644254207611084,-0.001900792121887207
1772812229277469700,8.6854697265625,-0.03490257263183594,0.029405683279037476,-0.014454960823059082
1772812229287170300,8.69517041015625,0.011357307434082031,0.005381256341934204,-0.008445799350738525
1772812229296871000,8.704870849609375,0.0639333724975586,-0.0006933212280273438,-0.013011395931243896
1772812229306571300,8.7145712890625,0.07095909118652344,0.011160075664520264,-0.03990805149078369
1772812229316272000,8.724272216796875,0.0673074722290039,0.0259149968624115,-0.044151127338409424
1772812229325972700,8.73397265625,0.053043365478515625,0.06427651643753052,-0.008692145347595215
1772812229335673300,8.74367333984375,0.10370731353759766,0.08523908257484436,0.028765618801116943
1772812229345374000,8.7533740234375,0.1535625457763672,0.029843926429748535,0.05759572982788086
1772812229355074600,8.763074462890625,0.18026351928710938,0.02966746687889099,0.07215410470962524
1772812229364775200,8.772775146484374,0.21239566802978516,0.09254670143127441,0.1435779333114624
1772812229374475800,8.782475830078125,0.24287128448486328,0.03990069031715393,0.020025312900543213
1772812229384176400,8.79217626953125,0.22822284698486328,-0.07254984974861145,-0.15350502729415894
1772812229393877000,8.801876953125,0.10202884674072266,-0.04107818007469177,-0.1914847493171692
1772812229403577600,8.81157763671875,0.02141571044921875,0.03990134596824646,-0.14949756860733032
1772812229413278200,8.8212783203125,-0.036579132080078125,0.0677749514579773,-0.0573466420173645
1772812229422978800,8.830978759765625,-0.0817098617553711,0.02978682518005371,-0.038856685161590576
1772812229432679400,8.840679443359376,-0.1708087921142578,0.018530309200286865,-0.036224424839019775
1772812229442380000,8.850380126953125,-0.22203922271728516,0.035967230796813965,0.00749439001083374
1772812229452080600,8.86008056640625,-0.2382984161376953,0.0024804770946502686,-0.04692620038986206
1772812229461781200,8.86978125,-0.21898269653320312,-0.022197872400283813,-0.10385942459106445
1772812229471481900,8.87948193359375,-0.16477680206298828,-0.015158325433731079,-0.10094255208969116
1772812229481182500,8.889182373046875,-0.10218238830566406,-0.025493472814559937,-0.05923265218734741
1772812229490883000,8.898883056640624,-0.02660846710205078,-0.005431234836578369,0.058290064334869385
1772812229500583700,8.908583740234375,0.059477806091308594,0.04592016339302063,0.15669023990631104
1772812229510284300,8.9182841796875,0.11833000183105469,0.005163639783859253,0.14035636186599731
1772812229519985000,8.92798486328125,0.1257333755493164,-0.06647142767906189,0.10270148515701294
1772812229529685500,8.937685546875,0.056674957275390625,-0.02018985152244568,0.042271316051483154
1772812229539386000,8.94738623046875,0.011140823364257812,-0.0008704662322998047,-0.02244359254837036
1772812229549086700,8.957086669921875,-0.06904411315917969,0.01719832420349121,-0.05832993984222412
1772812229558787300,8.966787353515626,-0.12562179565429688,-0.032712727785110474,-0.024052441120147705
1772812229568488000,8.976488037109375,-0.14005184173583984,-0.008791238069534302,-0.061804890632629395
1772812229578188500,8.9861884765625,-0.14356708526611328,0.023882806301116943,-0.048551201820373535
1772812229587889200,8.99588916015625,-0.18582439422607422,0.017227739095687866,-0.009250938892364502
1772812229597589800,9.00558984375,-0.20273876190185547,0.02345365285873413,0.016250193119049072
1772812229607290400,9.015290283203125,-0.1865549087524414,0.07344779372215271,0.009794890880584717
1772812229616991000,9.024990966796874,-0.07427406311035156,0.0855446457862854,0.019201278686523438
1772812229626691600,9.034691650390625,0.04896259307861328,0.028228402137756348,0.020796239376068115
1772812229636392200,9.04439208984375,0.19719791412353516,0.011790573596954346,0.06468331813812256
1772812229646092800,9.0540927734375,0.3125333786010742,-0.01634487509727478,0.05937683582305908
1772812229655793400,9.06379345703125,0.3426084518432617,-0.06932109594345093,-0.023925185203552246
1772812229665494000,9.073493896484376,0.2676210403442383,-0.05132433772087097,-0.05098235607147217
1772812229675194600,9.083194580078125,0.16694259643554688,-0.012080609798431396,-0.04912877082824707
1772812229684895200,9.092895263671876,0.06676006317138672,0.006859689950942993,-0.019103944301605225
1772812229694595800,9.102595947265625,-0.06708908081054688,-0.008455902338027954,-0.024972259998321533
1772812229704296400,9.11229638671875,-0.09521293640136719,-0.05037897825241089,-0.01563960313796997
1772812229713997000,9.1219970703125,-0.15237998962402344,-0.03498941659927368,-0.04002159833908081
1772812229723697700,9.13169775390625,-0.1333942413330078,-0.026746302843093872,-0.005875885486602783
1772812229733398300,9.141398193359375,-0.12537288665771484,-0.021274656057357788,-0.009687423706054688
1772812229743099000,9.151098876953125,-0.12104034423828125,0.008467823266983032,0.0065021514892578125
1772812229752799500,9.160799560546875,-0.12267112731933594,0.053062766790390015,0.003167271614074707
1772812229762500000,9.1705,-0.12899208068847656,0.05949714779853821,0.04527682065963745
1772812229772200700,9.18020068359375,-0.0894021987915039,0.03500860929489136,0.0800786018371582
1772812229781901300,9.1899013671875,-0.05413055419921875,0.02168184518814087,0.07691484689712524
1772812229791602000,9.199601806640626,0.058068275451660156,0.022614121437072754,0.056527137756347656
1772812229801302500,9.209302490234375,0.19904327392578125,0.005354434251785278,-0.002250969409942627
1772812229811003100,9.219003173828124,0.2589988708496094,0.027600854635238647,-0.08398646116256714
1772812229820703700,9.228703857421875,0.2770357131958008,0.03263232111930847,-0.10142463445663452
1772812229830404400,9.238404296875,0.24086952209472656,0.037233591079711914,-0.1438978910446167
1772812229840105000,9.24810498046875,0.15005779266357422,0.04011496901512146,-0.13773012161254883
1772812229849805600,9.2578056640625,0.05006122589111328,0.00012814998626708984,-0.12126010656356812
1772812229859506200,9.267506103515625,0.02461528778076172,-0.018808990716934204,-0.11163061857223511
1772812229869206800,9.277206787109375,0.057351112365722656,0.020058780908584595,-0.11104488372802734
1772812229878907400,9.286907470703126,0.028497695922851562,0.020384281873703003,-0.04308086633682251
1772812229888608000,9.29660791015625,0.0025730133056640625,0.010476619005203247,0.025446832180023193
1772812229898308600,9.30630859375,-0.05831718444824219,0.025884240865707397,0.04094195365905762
1772812229908009200,9.31600927734375,-0.14549732208251953,0.004509270191192627,0.0973585844039917
1772812229917709800,9.325709716796876,-0.15011215209960938,0.004300802946090698,0.09085553884506226
1772812229927410400,9.335410400390625,-0.15345001220703125,0.04201352596282959,0.019967496395111084
1772812229937111000,9.345111083984374,-0.17911148071289062,0.02927115559577942,-0.005705356597900391
1772812229946811600,9.354811767578125,-0.18212318420410156,-0.005796521902084351,-0.019933223724365234
1772812229956512300,9.36451220703125,-0.18520259857177734,-0.03878775238990784,-0.026254236698150635
1772812229966212900,9.374212890625,-0.11873722076416016,-0.04430648684501648,-0.019819974899291992
1772812229975913500,9.38391357421875,-0.056941986083984375,0.0013970136642456055,-0.03451615571975708
1772812229985614000,9.393614013671876,-0.0762033462524414,0.038790374994277954,-0.024293363094329834
1772812229995314700,9.403314697265625,0.008485794067382812,0.029848724603652954,-0.009588003158569336
1772812230005015300,9.413015380859376,0.011728286743164062,0.0034326910972595215,0.014711141586303711
1772812230014716000,9.4227158203125,0.058409690856933594,0.012929022312164307,0.06307274103164673
1772812230024416500,9.43241650390625,0.1172952651977539,-0.02998754382133484,0.07799696922302246
1772812230034117000,9.4421171875,0.14584827423095703,-0.025040626525878906,0.06715899705886841
1772812230043817700,9.451817626953124,0.13167476654052734,0.009025603532791138,0.05009615421295166
1772812230053518300,9.461518310546875,0.0977935791015625,0.0008791983127593994,0.02818012237548828
1772812230063219000,9.471218994140624,-0.00736236572265625,-0.005672484636306763,-0.010282397270202637
1772812230072919600,9.48091943359375,-0.06378746032714844,-0.019198447465896606,-0.02887946367263794
1772812230082620200,9.4906201171875,-0.07338523864746094,-0.02430635690689087,-0.06424486637115479
1772812230092320800,9.50032080078125,-0.09216690063476562,-0.006258189678192139,-0.06839150190353394
1772812230102021400,9.510021484375,-0.10239791870117188,-0.013309240341186523,-0.04006922245025635
1772812230111722000,9.519721923828126,-0.1266183853149414,-0.04613214731216431,0.024189651012420654
1772812230121422600,9.529422607421875,-0.08810710906982422,-0.013564258813858032,0.056512653827667236
1772812230131123200,9.539123291015626,-0.07859992980957031,0.05474764108657837,0.042267680168151855
1772812230140823800,9.54882373046875,-0.015193939208984375,0.03536924719810486,0.0629003643989563
1772812230150524400,9.5585244140625,0.06597328186035156,0.011913418769836426,0.035432517528533936
1772812230160225000,9.56822509765625,0.13174152374267578,-0.027095705270767212,0.021388113498687744
1772812230169925600,9.577925537109374,0.18825435638427734,-0.06939977407455444,0.002022266387939453
1772812230179626200,9.587626220703125,0.18041133880615234,-0.07830864191055298,0.006312131881713867
1772812230189326800,9.597326904296875,0.17636775970458984,-0.06870386004447937,-0.004482626914978027
1772812230199027500,9.60702734375,0.06766033172607422,-0.021928369998931885,-0.006420552730560303
1772812230208728000,9.61672802734375,-0.007489204406738281,0.00017204880714416504,0.016270458698272705
1772812230218428700,9.6264287109375,-0.04014301300048828,-0.002807438373565674,0.005480825901031494
1772812230228129300,9.63612939453125,-0.10053825378417969,0.0122317373752594,-0.0016682744026184082
1772812230237830000,9.645829833984376,-0.11884689331054688,-0.006952881813049316,0.008301317691802979
1772812230247530500,9.655530517578125,-0.10515403747558594,-0.029533803462982178,0.009061038494110107
1772812230257231000,9.665231201171874,-0.07291889190673828,-0.01575601100921631,0.03599768877029419
1772812230266931700,9.674931640625,-0.03296947479248047,0.015298962593078613,0.04709029197692871
1772812230276632300,9.68463232421875,-0.006579399108886719,0.013003736734390259,0.06563824415206909
1772812230286333000,9.6943330078125,0.004082679748535156,0.017206966876983643,0.06169193983078003
1772812230296033500,9.704033447265624,0.04514884948730469,0.03511860966682434,0.0474737286567688
1772812230305734100,9.713734130859375,0.07256507873535156,0.015704214572906494,0.03048032522201538
1772812230315434800,9.723434814453125,0.11126708984375,0.03365197777748108,-0.001004636287689209
1772812230325135400,9.73313525390625,0.12818431854248047,0.019765526056289673,-0.008469820022583008
1772812230334836000,9.7428359375,0.14017295837402344,-0.0008249282836914062,-0.05248844623565674
1772812230344536600,9.75253662109375,0.09909248352050781,0.00021979212760925293,-0.06320637464523315
1772812230354237200,9.7622373046875,0.05171680450439453,0.0018507838249206543,-0.06146496534347534
1772812230363937800,9.771937744140626,-0.0030670166015625,0.015601754188537598,-0.040325164794921875
1772812230373638400,9.781638427734375,-0.08637237548828125,0.016148000955581665,-0.010385215282440186
1772812230383339000,9.791339111328124,-0.09424781799316406,0.0000928640365600586,-0.009934425354003906
1772812230393039600,9.80103955078125,-0.06912708282470703,0.0012263357639312744,0.030012667179107666
1772812230402740200,9.810740234375,-0.038603782653808594,-0.0013900995254516602,0.06657087802886963
1772812230412440800,9.82044091796875,-0.0050754547119140625,-0.009314507246017456,0.051202476024627686
1772812230422141400,9.830141357421875,0.01966094970703125,-0.003481060266494751,0.030423402786254883
1772812230431842000,9.839842041015626,0.0027894973754882812,0.004652500152587891,0.013695597648620605
1772812230441542700,9.849542724609375,-0.016157150268554688,-0.00004819035530090332,0.0030780434608459473
1772812230460944000,9.86894384765625,-0.06634330749511719,-0.01862296462059021,-0.048349738121032715
1772812230470644500,9.87864453125,-0.04762458801269531,0.014020591974258423,-0.07682937383651733
1772812230480345000,9.888344970703125,-0.009134292602539062,0.0076270997524261475,-0.07300496101379395
1772812230490045700,9.898045654296874,-0.05018901824951172,-0.017396122217178345,-0.02481091022491455
1772812230499746300,9.907746337890625,-0.04006767272949219,-0.03503894805908203,0.019023001194000244
1772812230509447000,9.917447021484374,-0.014819145202636719,-0.03739020228385925,0.03047800064086914
1772812230519147500,9.9271474609375,0.0171051025390625,-0.00806117057800293,0.020187079906463623
1772812230528848100,9.93684814453125,-0.005610466003417969,0.013772815465927124,0.00170820951461792
1772812230538548700,9.946548828125,-0.013818740844726562,0.0014581680297851562,-0.024990558624267578
1772812230548249300,9.956249267578125,-0.004176139831542969,-0.010534197092056274,-0.06738579273223877
1772812230557950000,9.965949951171876,0.021864891052246094,-0.010485351085662842,-0.05129057168960571
1772812230567650600,9.975650634765625,0.034526824951171875,-0.0164908766746521,-0.028303444385528564
1772812230577351200,9.98535107421875,0.030417442321777344,-0.042713046073913574,0.034327030181884766
1772812230587052000,9.995052001953125,0.039277076721191406,-0.050460875034332275,0.052022337913513184
1772812230596752400,10.00475244140625,0.03751087188720703,0.030511051416397095,0.05085498094558716
1772812230606453000,10.014452880859375,0.024066925048828125,0.05051407217979431,0.022986114025115967
1772812230616153600,10.024153564453124,-0.09635066986083984,0.03133717179298401,0.04376250505447388
1772812230625854200,10.033854248046875,-0.13362598419189453,-0.02930513024330139,0.04741162061691284
1772812230635554800,10.043554931640625,-0.1715078353881836,-0.02969244122505188,0.035623252391815186
1772812230645255700,10.053255615234375,-0.15349960327148438,0.015385985374450684,0.005996406078338623
1772812230654956300,10.062956298828125,-0.10762214660644531,0.04712119698524475,0.00643157958984375
1772812230664656600,10.07265673828125,-0.0095367431640625,0.033675312995910645,-0.026404380798339844
1772812230674357200,10.082357177734375,0.09399700164794922,0.028479307889938354,-0.040718257427215576
1772812230684057900,10.092057861328126,0.2523345947265625,-0.0275384783744812,-0.015533983707427979
