time,seconds_elapsed,z,y,x
1772812232477671000,0.0836708984375,0,0,0
1772812232497072000,0.103072021484375,0.12036800384521484,0.022689104080200195,0.012608110904693604
1772812232506772700,0.112772705078125,0.17467308044433594,0.04505859315395355,0.001452624797821045
1772812232516473300,0.122473388671875,0.16086292266845703,0.037741273641586304,-0.0036275386810302734
1772812232526174000,0.132174072265625,0.1530752182006836,0.041557833552360535,-0.0012521147727966309
1772812232535874600,0.14187451171875,0.11997413635253906,0.04592911899089813,-0.042952120304107666
1772812232545575200,0.1515751953125,0.11764907836914062,0.07416173815727234,-0.024622321128845215
1772812232555275800,0.16127587890625,0.11215591430664062,0.04937632381916046,0.017599523067474365
1772812232564976400,0.170976318359375,0.1107492446899414,-0.03424108028411865,0.0421639084815979
1772812232574677000,0.180677001953125,0.09641265869140625,-0.11521124839782715,0.052700936794281006
1772812232584377600,0.190377685546875,0.09068012237548828,-0.09191229939460754,-0.009444952011108398
1772812232594078200,0.200078125,0.09047985076904297,-0.02252739667892456,-0.0904533863067627
1772812232603778800,0.20977880859375,0.0697622299194336,0.008639171719551086,-0.1044694185256958
1772812232613479400,0.2194794921875,0.10320568084716797,-0.024959534406661987,-0.06489056348800659
1772812232623180000,0.229179931640625,0.09566307067871094,-0.006198108196258545,0.0013360977172851562
1772812232632880600,0.238880615234375,0.1058502197265625,0.010936155915260315,0.031131744384765625
1772812232642581200,0.248581298828125,0.11022472381591797,-0.01824231445789337,0.05135142803192139
1772812232652281900,0.25828173828125,0.07271385192871094,-0.05486324429512024,0.04774892330169678
1772812232661982500,0.267982421875,0.07693195343017578,-0.06980603188276291,0.06781947612762451
1772812232671683000,0.27768310546875,0.0822305679321289,-0.046885475516319275,0.03215372562408447
1772812232681383700,0.2873837890625,0.056756019592285156,0.0013922005891799927,-0.0028975605964660645
1772812232691084300,0.297084228515625,-0.04402351379394531,0.00018690526485443115,-0.02207428216934204
1772812232700785200,0.30678515625,-0.1464223861694336,-0.013721480965614319,-0.03294330835342407
1772812232710485800,0.31648583984375,-0.18883800506591797,-0.024484440684318542,0.003424704074859619
1772812232720186000,0.32618603515625,-0.1518268585205078,-0.0509544312953949,0.05450636148452759
1772812232729886700,0.33588671875,-0.06802940368652344,0.0018334537744522095,0.056605517864227295
1772812232739587300,0.34558740234375,-0.04721641540527344,0.06191742420196533,0.01271355152130127
1772812232749288000,0.355287841796875,-0.05826377868652344,0.08475388586521149,-0.06680452823638916
1772812232758988800,0.36498876953125,-0.10253620147705078,0.054055750370025635,-0.1199655532836914
1772812232768689400,0.374689453125,-0.1293621063232422,0.010975360870361328,-0.09118229150772095
1772812232778390000,0.38439013671875,-0.11836814880371094,-0.026498347520828247,-0.09748250246047974
1772812232788090600,0.394090576171875,-0.06020641326904297,-0.06579802930355072,-0.04634350538253784
1772812232797791000,0.403791015625,0.010091781616210938,-0.05877384543418884,-0.007942378520965576
1772812232807491600,0.41349169921875,0.12828540802001953,-0.02736036479473114,0.04676705598831177
1772812232817192400,0.4231923828125,0.21062564849853516,0.003186166286468506,0.08653068542480469
1772812232826893000,0.43289306640625,0.2513399124145508,-0.029422998428344727,0.1315562129020691
1772812232836593700,0.44259375,0.2353191375732422,-0.06191328912973404,0.1287568211555481
1772812232846294300,0.452294189453125,0.1732797622680664,-0.031443700194358826,0.07600092887878418
1772812232855995000,0.461994873046875,0.06513309478759766,0.008713021874427795,0.020569562911987305
1772812232865695500,0.471695556640625,-0.060128211975097656,0.01659904420375824,-0.03668874502182007
1772812232875396000,0.48139599609375,-0.1719036102294922,0.010392114520072937,-0.05603623390197754
1772812232885096700,0.4910966796875,-0.20639896392822266,0.0070204585790634155,-0.02756255865097046
1772812232894797300,0.50079736328125,-0.20287132263183594,-0.001503869891166687,0.019277095794677734
1772812232904498000,0.510497802734375,-0.1516246795654297,0.023209884762763977,0.051391422748565674
1772812232914198500,0.520198486328125,-0.09458732604980469,0.06709212064743042,0.06672614812850952
1772812232923899100,0.529899169921875,-0.010687828063964844,0.11142420768737793,0.04992878437042236
1772812232933599700,0.539599853515625,0.05512809753417969,0.07454420626163483,0.05398416519165039
1772812232943300400,0.54930029296875,0.10910797119140625,0.04272496700286865,0.03571975231170654
1772812232953001000,0.5590009765625,0.1573333740234375,0.00494404137134552,0.03381240367889404
1772812232962701600,0.56870166015625,0.17882156372070312,-0.013262420892715454,0.017728209495544434
1772812232972402200,0.578402099609375,0.17299938201904297,-0.05427761375904083,-0.031870365142822266
1772812232982102800,0.588102783203125,0.11108112335205078,-0.04176846146583557,-0.0670047402381897
1772812232991803400,0.597803466796875,0.01756572723388672,0.015510067343711853,-0.08971601724624634
1772812233001504000,0.60750390625,-0.10237598419189453,0.03348401188850403,-0.09307897090911865
1772812233011204600,0.61720458984375,-0.19668960571289062,0.008449479937553406,-0.08205223083496094
1772812233020905200,0.6269052734375,-0.26831912994384766,0.018892884254455566,-0.05718463659286499
1772812233030605800,0.636605712890625,-0.2871112823486328,0.036559075117111206,-0.013985216617584229
1772812233040306400,0.646306396484375,-0.2021961212158203,0.013437926769256592,0.05548590421676636
1772812233050007000,0.656007080078125,-0.09058189392089844,0.02014605700969696,0.13515782356262207
1772812233059707600,0.665707763671875,-0.009141921997070312,-0.0050367265939712524,0.17936182022094727
1772812233069408300,0.675408203125,0.08267974853515625,-0.020656362175941467,0.17167973518371582
1772812233079108900,0.68510888671875,0.13647747039794922,0.00815322995185852,0.13646328449249268
1772812233088809500,0.6948095703125,0.1576251983642578,0.026868000626564026,0.07494843006134033
1772812233098510000,0.704510009765625,0.16670608520507812,0.016782909631729126,0.04000979661941528
1772812233108210700,0.714210693359375,0.16742897033691406,0.00769159197807312,0.005630373954772949
1772812233117911300,0.723911376953125,0.17049407958984375,0.0055727362632751465,-0.012655079364776611
1772812233127612000,0.73361181640625,0.1335306167602539,-0.009522944688796997,-0.029434919357299805
1772812233137312500,0.7433125,0.11022758483886719,-0.00041538476943969727,-0.04927945137023926
1772812233147013000,0.75301318359375,0.029756546020507812,0.0014660507440567017,-0.09211570024490356
1772812233156713700,0.762713623046875,-0.052878379821777344,0.030321449041366577,-0.09585314989089966
1772812233166414300,0.772414306640625,-0.1282978057861328,0.031142905354499817,-0.07942384481430054
1772812233176115000,0.782114990234375,-0.1648693084716797,0.0316615104675293,-0.06542783975601196
1772812233185815600,0.791815673828125,-0.1596832275390625,0.036329835653305054,-0.0599328875541687
1772812233195516200,0.80151611328125,-0.1381206512451172,0.037042126059532166,-0.04871034622192383
1772812233205216800,0.811216796875,-0.055685997009277344,0.03223524987697601,-0.024213850498199463
1772812233214917400,0.82091748046875,-0.013447761535644531,0.02353578805923462,0.018791794776916504
1772812233224618000,0.830617919921875,0.02803516387939453,0.0001036524772644043,0.08180242776870728
1772812233234318600,0.840318603515625,0.04400444030761719,0.00328768789768219,0.12043613195419312
1772812233244019200,0.850019287109375,0.06316280364990234,0.03970082104206085,0.1205528974533081
1772812233253719800,0.8597197265625,0.07375526428222656,0.026645362377166748,0.05502212047576904
1772812233263420700,0.869420654296875,0.10302066802978516,0.040098413825035095,-0.03544420003890991
1772812233273121000,0.87912109375,0.13189983367919922,0.011099591851234436,-0.13353341817855835
1772812233282821600,0.888821533203125,0.1404275894165039,-0.027598664164543152,-0.17596209049224854
1772812233292522200,0.898522216796875,0.12417221069335938,-0.06899850815534592,-0.19583195447921753
1772812233302222800,0.908222900390625,0.06697845458984375,-0.11634670197963715,-0.18193262815475464
1772812233311923500,0.91792333984375,0.015382766723632812,-0.14914585649967194,-0.12518370151519775
1772812233321624300,0.927624267578125,-0.028301239013671875,-0.10928602516651154,-0.07877117395401001
1772812233331325000,0.937324951171875,-0.05588722229003906,-0.06580676138401031,-0.048216044902801514
1772812233341025500,0.947025634765625,-0.10886096954345703,-0.03695882856845856,-0.028204739093780518
1772812233350726000,0.956725830078125,-0.16685962677001953,-0.045817285776138306,0.013772845268249512
1772812233360426500,0.966426513671875,-0.16627120971679688,-0.04701554775238037,0.04447096586227417
1772812233370127000,0.976127197265625,-0.14812850952148438,-0.04689627140760422,0.06707948446273804
1772812233379828000,0.985827880859375,-0.11391925811767578,-0.045078977942466736,0.08206868171691895
1772812233389528600,0.995528564453125,-0.04503154754638672,-0.03499425947666168,0.1008557677268982
1772812233399229200,1.005229248046875,0.01797008514404297,0.00006276369094848633,0.10449892282485962
1772812233408929800,1.0149296875,0.054019927978515625,0.011423081159591675,0.08960610628128052
1772812233418630400,1.02463037109375,0.04125213623046875,0.03290069103240967,0.04538923501968384
1772812233428330800,1.034330810546875,0.01929473876953125,0.01762409508228302,-0.015849053859710693
1772812233438031600,1.044031494140625,0.028303146362304688,0.008581757545471191,-0.08560305833816528
1772812233447732200,1.053732177734375,0.039587974548339844,0.003363475203514099,-0.12441235780715942
1772812233457432800,1.063432861328125,0.07430076599121094,-0.019955158233642578,-0.15164333581924438
1772812233467133400,1.073133544921875,0.106109619140625,-0.01904471218585968,-0.08094942569732666
1772812233476834000,1.082833984375,0.1256275177001953,-0.042902931571006775,-0.03126293420791626
1772812233486534700,1.09253466796875,0.1260242462158203,-0.04546463489532471,0.017545044422149658
1772812233496235300,1.1022353515625,0.10873985290527344,-0.035012081265449524,0.07188105583190918
1772812233505936000,1.111935791015625,0.031708717346191406,-0.06080909073352814,0.07291513681411743
1772812233515636500,1.121636474609375,-0.04995536804199219,-0.03317664563655853,0.09192317724227905
1772812233525337000,1.131337158203125,-0.10435009002685547,-0.016359463334083557,0.06660467386245728
1772812233535037700,1.14103759765625,-0.16254234313964844,-0.0063005536794662476,0.08842724561691284
1772812233544738300,1.15073828125,-0.17862892150878906,-0.005084514617919922,0.08411884307861328
1772812233554439000,1.16043896484375,-0.13563919067382812,0.008293837308883667,0.08330613374710083
1772812233564139500,1.170139404296875,-0.08989429473876953,0.013175919651985168,0.1064685583114624
1772812233573840100,1.179840087890625,-0.07205009460449219,0.00620192289352417,0.10774558782577515
1772812233583540700,1.189540771484375,-0.025037765502929688,0.01804472506046295,0.06611639261245728
1772812233593241300,1.199241455078125,0.04246234893798828,0.00799494981765747,0.008978962898254395
1772812233602942000,1.20894189453125,0.055937767028808594,0.01409466564655304,-0.013435542583465576
1772812233612642600,1.218642578125,0.06802940368652344,0.01244443655014038,-0.04615473747253418
1772812233622343200,1.22834326171875,0.09633159637451172,0.011178568005561829,-0.02229970693588257
1772812233632043800,1.238043701171875,0.078216552734375,0.007918819785118103,-0.00981283187866211
1772812233641744400,1.247744384765625,0.08394527435302734,0.02490834891796112,-0.0387115478515625
1772812233651445000,1.257445068359375,0.03550243377685547,0.044919148087501526,-0.06517589092254639
1772812233661145600,1.2671455078125,-0.04265785217285156,0.03477706015110016,-0.08844244480133057
1772812233670846200,1.27684619140625,-0.11356735229492188,0.033987656235694885,-0.09235250949859619
1772812233680546800,1.286546875,-0.14678668975830078,0.022725507616996765,-0.07809174060821533
1772812233690247400,1.296247314453125,-0.13008975982666016,0.032325804233551025,-0.017908036708831787
1772812233699948000,1.305947998046875,-0.07492256164550781,0.001698710024356842,0.03842967748641968
1772812233709648600,1.315648681640625,0.04633331298828125,0.011285148561000824,0.11563658714294434
1772812233719349200,1.325349365234375,0.1337728500366211,0.032717056572437286,0.13218790292739868
1772812233729049900,1.3350498046875,0.2480792999267578,0.022765301167964935,0.14434927701950073
1772812233738750500,1.34475048828125,0.27820301055908203,0.04190269112586975,0.11230510473251343
1772812233748451000,1.354451171875,0.24193096160888672,0.04323239624500275,0.0964617133140564
1772812233758151700,1.364151611328125,0.1721210479736328,0.04210826754570007,0.09187823534011841
1772812233767852300,1.373852294921875,0.11165046691894531,0.03796662390232086,0.07868283987045288
1772812233777553000,1.383552978515625,0.07089996337890625,0.012233950197696686,0.03634655475616455
1772812233787253500,1.39325341796875,0.0601806640625,0.021449580788612366,-0.0315815806388855
1772812233796954000,1.4029541015625,0.06738662719726562,0.006876274943351746,-0.08859014511108398
1772812233806654700,1.41265478515625,0.04994773864746094,-0.0011467933654785156,-0.15930122137069702
1772812233816355300,1.422355224609375,-0.0058803558349609375,-0.01604081690311432,-0.19141870737075806
1772812233826056200,1.43205615234375,-0.1019124984741211,-0.014883443713188171,-0.18132460117340088
1772812233835756800,1.4417568359375,-0.15515899658203125,-0.006606757640838623,-0.1553998589515686
1772812233845457200,1.45145703125,-0.19929122924804688,0.0025631487369537354,-0.07961112260818481
1772812233855157800,1.46115771484375,-0.1603851318359375,-0.0011704713106155396,0.030501365661621094
1772812233864858400,1.4708583984375,-0.13521671295166016,-0.0523054301738739,0.13077765703201294
1772812233874559000,1.48055908203125,-0.07885551452636719,-0.07350558787584305,0.198053777217865
1772812233884259800,1.490259765625,-0.027008056640625,-0.06426466256380081,0.2012389898300171
1772812233893960400,1.49996044921875,-0.020677566528320312,-0.047210417687892914,0.13563817739486694
1772812233903661000,1.5096611328125,-0.01675891876220703,-0.04067850112915039,0.07412558794021606
1772812233913361700,1.519361572265625,-0.039977073669433594,-0.06208154559135437,0.010162651538848877
1772812233923062300,1.529062255859375,-0.031040191650390625,-0.07651150226593018,-0.03288537263870239
1772812233932762600,1.5387626953125,0.004764556884765625,-0.07182788848876953,-0.07245224714279175
1772812233942463500,1.54846337890625,0.011701583862304688,-0.05707337707281113,-0.10033071041107178
1772812233952164000,1.5581640625,0.0220794677734375,-0.050537049770355225,-0.10433143377304077
1772812233961864700,1.56786474609375,0.014713287353515625,-0.02332952618598938,-0.10897690057754517
1772812233971565300,1.5775654296875,-0.01953411102294922,0.002582758665084839,-0.13888585567474365
1772812233981266000,1.587265869140625,-0.06609916687011719,0.05905032157897949,-0.1808413863182068
1772812233990966500,1.596966552734375,-0.1024932861328125,0.03847062587738037,-0.16805201768875122
1772812234000667100,1.606667236328125,-0.1159963607788086,0.01117195188999176,-0.11024314165115356
1772812234010367700,1.61636767578125,-0.059922218322753906,-0.029736630618572235,-0.0339505672454834
1772812234020068400,1.626068359375,0.0034580230712890625,-0.016509756445884705,0.002306818962097168
1772812234029769000,1.63576904296875,0.032855987548828125,0.007259473204612732,0.04499727487564087
1772812234039469600,1.645469482421875,0.040618896484375,0.01101672649383545,0.06561052799224854
1772812234049170200,1.655170166015625,0.03058147430419922,0.01428292691707611,0.09207826852798462
1772812234058870800,1.664870849609375,0.0171356201171875,0.018838852643966675,0.0820627212524414
1772812234068571400,1.6745712890625,0.000347137451171875,-0.007192276418209076,0.07967370748519897
1772812234078272000,1.68427197265625,-0.018537521362304688,-0.025326117873191833,0.08688026666641235
1772812234087972600,1.69397265625,-0.0065174102783203125,-0.02418452501296997,0.05161285400390625
1772812234097673200,1.703673095703125,0.019411087036132812,-0.016229242086410522,0.05116397142410278
1772812234107373800,1.713373779296875,0.03553962707519531,-0.012387692928314209,0.035036444664001465
1772812234117074400,1.723074462890625,0.039684295654296875,0.017162412405014038,0.04811227321624756
1772812234126775000,1.732775146484375,0.02257061004638672,0.03810132294893265,0.058736979961395264
1772812234136475600,1.7424755859375,-0.011930465698242188,0.03531217575073242,0.057652056217193604
1772812234146176300,1.75217626953125,-0.00115203857421875,0.03320837765932083,0.02005934715270996
1772812234155876900,1.761876953125,-0.01879596710205078,0.03388776630163193,-0.03335624933242798
1772812234165577500,1.771577392578125,-0.0008306503295898438,0.019447751343250275,-0.05079090595245361
1772812234175278000,1.781278076171875,0.020361900329589844,-0.0014198645949363708,-0.03255671262741089
1772812234184978700,1.790978759765625,0.049490928649902344,-0.025157727301120758,-0.0503460168838501
1772812234194679300,1.80067919921875,0.08526802062988281,-0.00673811137676239,-0.02969735860824585
1772812234204380000,1.8103798828125,0.07569599151611328,-0.010370217263698578,0.017026782035827637
1772812234214080500,1.82008056640625,0.03795051574707031,-0.019065983593463898,0.031079888343811035
1772812234223781000,1.829781005859375,0.0372772216796875,-0.009180605411529541,0.03227102756500244
1772812234233481700,1.839481689453125,0.00016307830810546875,-0.0007835477590560913,0.04033207893371582
1772812234243182300,1.849182373046875,-0.017472267150878906,0.005157299339771271,-0.009756922721862793
1772812234252883000,1.858883056640625,-0.056054115295410156,-0.01616157591342926,0.008696913719177246
1772812234262583600,1.86858349609375,-0.10463523864746094,-0.05465590953826904,0.032089412212371826
1772812234272284200,1.8782841796875,-0.09707927703857422,-0.05067547410726547,0.033497393131256104
1772812234281984800,1.88798486328125,-0.13077163696289062,0.024570301175117493,0.016446590423583984
1772812234291685400,1.897685302734375,-0.1580362319946289,0.059973619878292084,-0.031026721000671387
1772812234301386000,1.907385986328125,-0.16843223571777344,0.05977129936218262,-0.05155426263809204
1772812234311086600,1.917086669921875,-0.13273239135742188,0.04933615028858185,-0.06754869222640991
1772812234320787200,1.926787109375,-0.058732032775878906,0.03600354492664337,-0.05575007200241089
1772812234330488000,1.936488037109375,0.021148681640625,-0.005639955401420593,-0.04460257291793823
1772812234340188700,1.946188720703125,0.09613418579101562,-0.019915536046028137,-0.0001633763313293457
1772812234349889300,1.95588916015625,0.17806243896484375,-0.03384403511881828,0.04536545276641846
1772812234359589600,1.965589599609375,0.23736190795898438,-0.05292564630508423,0.06653666496276855
1772812234369290200,1.975290283203125,0.25447654724121094,-0.03323902562260628,0.05128544569015503
1772812234378990800,1.984990966796875,0.23366832733154297,-0.020441804081201553,0.0033773183822631836
1772812234388691700,1.994691650390625,0.17080020904541016,-0.039621561765670776,-0.026611745357513428
1772812234398392300,2.004392333984375,0.1313180923461914,-0.05488116294145584,-0.031113743782043457
1772812234408093000,2.014093017578125,0.08903884887695312,-0.029396705329418182,-0.0468098521232605
1772812234417793500,2.02379345703125,0.001674652099609375,0.0016198232769966125,-0.06903702020645142
1772812234427494100,2.033494140625,-0.09705829620361328,0.0218089297413826,-0.06161218881607056
1772812234437194800,2.04319482421875,-0.19877052307128906,0.05048739165067673,-0.047157227993011475
1772812234446895400,2.052895263671875,-0.23296451568603516,0.04752980172634125,-0.016193747520446777
1772812234456596000,2.062595947265625,-0.2360973358154297,0.030122101306915283,0.03978174924850464
1772812234466296600,2.072296630859375,-0.19092559814453125,0.020158924162387848,0.08040213584899902
1772812234475997200,2.0819970703125,-0.13003158569335938,0.045239321887493134,0.08850252628326416
1772812234485697800,2.09169775390625,-0.1302013397216797,0.06011539697647095,0.08516007661819458
1772812234495398400,2.1013984375,-0.0857086181640625,0.025788627564907074,0.11997902393341064
1772812234505099000,2.11109912109375,-0.0008401870727539062,0.0024860501289367676,0.0936967134475708
1772812234514799600,2.120799560546875,0.114288330078125,-0.02559853345155716,0.06536763906478882
1772812234524500200,2.130500244140625,0.19337177276611328,-0.0015681907534599304,0.01073366403579712
1772812234534200800,2.140200927734375,0.2370777130126953,-0.012398239225149155,-0.03164958953857422
1772812234543901400,2.1499013671875,0.22600936889648438,-0.014492608606815338,-0.050391972064971924
1772812234553602000,2.15960205078125,0.12930583953857422,0.00035565346479415894,-0.08585959672927856
1772812234563302700,2.169302734375,0.048363685607910156,-0.006000325083732605,-0.07990056276321411
1772812234573003300,2.179003173828125,-0.034793853759765625,-0.012620966881513596,-0.0702013373374939
1772812234582703900,2.188703857421875,-0.08598041534423828,-0.014897726476192474,-0.05834090709686279
1772812234592404500,2.198404541015625,-0.09149360656738281,-0.019602470099925995,-0.0749545693397522
1772812234602105000,2.20810498046875,-0.11094284057617188,0.0018055886030197144,-0.09231328964233398
1772812234611805700,2.2178056640625,-0.12065315246582031,-0.013089381158351898,-0.06600022315979004
1772812234621506300,2.22750634765625,-0.10899734497070312,0.0008817426860332489,-0.06402695178985596
1772812234631207000,2.23720703125,-0.04456138610839844,0.002429928630590439,-0.03301471471786499
1772812234640907500,2.246907470703125,0.018726348876953125,-0.0035413093864917755,0.05003952980041504
1772812234650608000,2.256608154296875,0.07619190216064453,-0.007597446441650391,0.10656863451004028
1772812234660308700,2.266308837890625,0.14207839965820312,-0.0017955340445041656,0.13082212209701538
1772812234670009300,2.27600927734375,0.15498733520507812,-0.0005857013165950775,0.1394779086112976
1772812234679710000,2.2857099609375,0.11694049835205078,0.0013106390833854675,0.11428356170654297
1772812234689410600,2.29541064453125,0.08536815643310547,-0.016553975641727448,0.09705430269241333
1772812234699111200,2.305111083984375,0.046105384826660156,-0.015773072838783264,0.05761998891830444
1772812234708811800,2.314811767578125,-0.023041725158691406,0.0018980950117111206,-0.0028441548347473145
1772812234718512400,2.324512451171875,-0.06157112121582031,0.012157239019870758,-0.03113025426864624
1772812234728213000,2.334212890625,-0.13004016876220703,-0.009181946516036987,-0.03911548852920532
1772812234737913600,2.34391357421875,-0.14791011810302734,-0.001358628273010254,-0.058125197887420654
1772812234747614200,2.3536142578125,-0.15719890594482422,0.009319819509983063,-0.09271174669265747
1772812234757314800,2.363314697265625,-0.13684844970703125,0.01307036355137825,-0.10872632265090942
1772812234767015700,2.373015625,-0.11215019226074219,-0.0025988519191741943,-0.03489643335342407
1772812234776716300,2.38271630859375,-0.09025382995605469,-0.02271328493952751,0.02869105339050293
1772812234786416600,2.392416748046875,-0.07339859008789062,0.018174290657043457,0.07679718732833862
1772812234796117200,2.4021171875,-0.046234130859375,0.08391925692558289,0.09701931476593018
1772812234805817900,2.41181787109375,0.018047332763671875,0.08099059015512466,0.07531547546386719
1772812234815518500,2.4215185546875,0.13051795959472656,0.05040112882852554,0.06734925508499146
1772812234825219000,2.431218994140625,0.23050498962402344,-0.019504055380821228,0.05397379398345947
1772812234834920000,2.440919921875,0.3136444091796875,-0.024075135588645935,-0.026049554347991943
1772812234844620500,2.45062060546875,0.2954845428466797,-0.00674707256257534,-0.09138578176498413
1772812234854321200,2.460321044921875,0.17410850524902344,-0.0026326850056648254,-0.11331117153167725
1772812234864021800,2.470021728515625,0.06652259826660156,-0.02317599207162857,-0.10428392887115479
1772812234873722400,2.479722412109375,-0.021610260009765625,-0.027129758149385452,-0.08375650644302368
1772812234883422700,2.489422607421875,-0.10007095336914062,0.010290276259183884,-0.03272855281829834
1772812234893123600,2.49912353515625,-0.143096923828125,0.012232605367898941,-0.021544694900512695
1772812234902824200,2.50882421875,-0.1536540985107422,0.013357527554035187,0.013009786605834961
1772812234912524800,2.51852490234375,-0.18757247924804688,0.019251912832260132,0.035222768783569336
1772812234922225400,2.528225341796875,-0.1396923065185547,0.032440461218357086,0.01991736888885498
1772812234931926000,2.537926025390625,-0.0926513671875,0.034681592136621475,0.03464698791503906
1772812234941626600,2.547626708984375,-0.05350780487060547,0.014716044068336487,0.06967061758041382
1772812234951327200,2.5573271484375,0.03917217254638672,-0.012792043387889862,0.068142831325531
1772812234961027800,2.56702783203125,0.0703573226928711,0.021683458238840103,0.05677992105484009
1772812234970728400,2.576728515625,0.058670997619628906,0.04208049178123474,0.03386944532394409
1772812234980429000,2.586428955078125,0.029539108276367188,0.018783289939165115,0.027727901935577393
1772812234990129700,2.596129638671875,0.0114288330078125,-0.012069914489984512,-0.02603691816329956
1772812234999830300,2.605830322265625,-0.007634162902832031,-0.014179140329360962,-0.03693920373916626
1772812235009531000,2.61553076171875,0.04183197021484375,-0.014261990785598755,-0.07799553871154785
1772812235019231500,2.6252314453125,0.08812713623046875,-0.029894305393099785,-0.051282405853271484
1772812235028932000,2.63493212890625,0.08194637298583984,-0.02203630656003952,-0.08319973945617676
1772812235038632700,2.6446328125,0.0700368881225586,0.002765968441963196,-0.07389193773269653
1772812235048333300,2.654333251953125,0.013655662536621094,0.021763797849416733,-0.08275771141052246
1772812235058034000,2.664033935546875,-0.037026405334472656,0.03799547627568245,-0.08501458168029785
1772812235067734500,2.673734619140625,-0.09744834899902344,0.023339834064245224,-0.053231894969940186
1772812235077435100,2.68343505859375,-0.10395240783691406,0.012109905481338501,0.0018047094345092773
1772812235087135700,2.6931357421875,-0.09743499755859375,0.007546216249465942,0.03618025779724121
1772812235096836400,2.70283642578125,-0.09101200103759766,0.03805838152766228,0.05452245473861694
1772812235106537000,2.712536865234375,-0.11534881591796875,0.03401969373226166,0.06606662273406982
1772812235116237600,2.722237548828125,-0.12994670867919922,0.030250094830989838,0.0758008360862732
1772812235125938200,2.731938232421875,-0.10900592803955078,0.016753513365983963,0.061815857887268066
1772812235135638800,2.741638671875,-0.060097694396972656,0.0037490203976631165,0.04492288827896118
1772812235145339400,2.75133935546875,0.016239166259765625,-0.021160148084163666,0.06475597620010376
1772812235155040000,2.7610400390625,0.10649967193603516,-0.05276232212781906,0.06412637233734131
1772812235164740600,2.77074072265625,0.22343921661376953,-0.05077727138996124,0.02998220920562744
1772812235174441200,2.780441162109375,0.3078947067260742,-0.030535953119397163,-0.009955406188964844
1772812235184141800,2.790141845703125,0.3168630599975586,-0.017104996368288994,-0.03186243772506714
1772812235193842400,2.799842529296875,0.23508739471435547,-0.005656493827700615,-0.05802512168884277
1772812235203543000,2.80954296875,0.15939617156982422,-0.010498739778995514,-0.06266069412231445
1772812235213244000,2.819243896484375,0.09554386138916016,-0.008715610951185226,-0.06940340995788574
1772812235222944500,2.828944580078125,0.0515594482421875,-0.016904547810554504,-0.05457413196563721
1772812235232644900,2.838644775390625,0.014207839965820312,-0.022090457379817963,0.0058078765869140625
1772812235242345500,2.848345458984375,-0.01776599884033203,0.008203387260437012,0.04826301336288452
1772812235252046000,2.858046142578125,-0.09154224395751953,0.01417592167854309,0.04275554418563843
1772812235261746700,2.86774658203125,-0.16881847381591797,0.01809459924697876,0.04103881120681763
1772812235271447600,2.877447509765625,-0.23773670196533203,0.007765732705593109,0.04497694969177246
1772812235281148200,2.887148193359375,-0.31371116638183594,-0.008697934448719025,0.0412256121635437
1772812235290848800,2.896848876953125,-0.29315662384033203,-0.01611516624689102,0.0529177188873291
1772812235300549400,2.90654931640625,-0.2507152557373047,0.018613114953041077,0.06904739141464233
1772812235310250000,2.91625,-0.15956783294677734,0.015270143747329712,0.05423760414123535
1772812235319950300,2.925950439453125,-0.04278755187988281,0.008858159184455872,0.005799412727355957
1772812235329651200,2.935651123046875,0.046195030212402344,0.023243490606546402,-0.0361822247505188
1772812235339351800,2.945351806640625,0.133697509765625,0.013819541782140732,-0.05032527446746826
1772812235349052400,2.955052490234375,0.23974609375,-0.014284046366810799,-0.020618796348571777
1772812235358753000,2.9647529296875,0.3063678741455078,-0.061712369322776794,0.013584256172180176
1772812235368453600,2.97445361328125,0.2871379852294922,-0.05877994745969772,0.03125840425491333
1772812235378154200,2.984154296875,0.25882434844970703,-0.04187777265906334,0.027521073818206787
1772812235387854800,2.993854736328125,0.17099475860595703,-0.02299591153860092,-0.003210306167602539
1772812235397555500,3.003555419921875,0.038773536682128906,-0.01006411761045456,-0.00306779146194458
1772812235407256000,3.013256103515625,-0.07475948333740234,-0.01718832179903984,-0.0066567063331604
1772812235416956700,3.022956787109375,-0.12992000579833984,-0.01431296020746231,-0.013886749744415283
1772812235426657300,3.0326572265625,-0.18303966522216797,0.015069596469402313,-0.007659256458282471
1772812235436358000,3.04235791015625,-0.19646549224853516,-0.0014545470476150513,0.005551755428314209
1772812235446058500,3.05205859375,-0.16142940521240234,0.02959076315164566,0.014871954917907715
1772812235455759000,3.061759033203125,-0.1481637954711914,0.028164125978946686,0.024037063121795654
1772812235465459700,3.071459716796875,-0.11980152130126953,0.05115810036659241,0.019826114177703857
1772812235475160300,3.081160400390625,-0.09189033508300781,0.04170318692922592,-0.003421008586883545
1772812235484861000,3.09086083984375,-0.07619857788085938,0.04723800718784332,-0.03115910291671753
1772812235494561500,3.1005615234375,-0.03254222869873047,0.01879972219467163,-0.04185223579406738
1772812235504262100,3.11026220703125,0.029230117797851562,-0.009096812456846237,-0.07021498680114746
1772812235513962800,3.119962646484375,0.05229663848876953,-0.013832096010446548,-0.07774049043655396
1772812235523663400,3.129663330078125,0.11617660522460938,-0.0540243536233902,-0.05466490983963013
1772812235533364000,3.139364013671875,0.1472759246826172,-0.05157409980893135,-0.05354762077331543
1772812235543064600,3.149064697265625,0.14374828338623047,-0.03161024674773216,-0.0383334755897522
1772812235552765200,3.15876513671875,0.11201953887939453,-0.03152104467153549,-0.0019149184226989746
1772812235562465800,3.1684658203125,0.09020328521728516,-0.034592676907777786,0.041297316551208496
1772812235572166400,3.17816650390625,0.05695056915283203,-0.04107825830578804,0.08774673938751221
1772812235581867000,3.187866943359375,0.01720714569091797,-0.01850300282239914,0.11449170112609863
1772812235591567600,3.197567626953125,0.0016546249389648438,-0.02475232630968094,0.09379404783248901
1772812235601268200,3.207268310546875,-0.0501861572265625,-0.0055188387632369995,0.07885771989822388
1772812235610968800,3.21696875,-0.07887458801269531,-0.00020872056484222412,0.05891263484954834
1772812235620669400,3.22666943359375,-0.12119483947753906,-0.0001279488205909729,0.012099742889404297
1772812235630370000,3.2363701171875,-0.12276172637939453,0.025565899908542633,-0.0380021333694458
1772812235640070700,3.246070556640625,-0.13955211639404297,0.031982965767383575,-0.06428056955337524
1772812235649771300,3.255771240234375,-0.1430988311767578,0.043357834219932556,-0.081082284450531
1772812235659472100,3.26547216796875,-0.12066650390625,0.04981651157140732,-0.10273826122283936
1772812235669172500,3.27517236328125,-0.08209705352783203,0.037274569272994995,-0.09748566150665283
1772812235678873000,3.284873046875,-0.03355979919433594,0.025644630193710327,-0.08787071704864502
1772812235688573700,3.29457373046875,0.024720191955566406,0.011855393648147583,-0.05687415599822998
1772812235698274300,3.3042744140625,0.07376480102539062,-0.007175229489803314,-0.0354384183883667
1772812235707975000,3.313974853515625,0.12086200714111328,-0.004653923213481903,-0.01943373680114746
1772812235717675800,3.32367578125,0.13074970245361328,-0.01155366376042366,-0.01115107536315918
1772812235727376400,3.33337646484375,0.1345958709716797,-0.03939775377511978,-0.012391090393066406
1772812235737077000,3.343076904296875,0.12900543212890625,-0.04075590893626213,-0.015128850936889648
1772812235746777600,3.352777587890625,0.129425048828125,-0.04309210926294327,-0.025135576725006104
1772812235756478000,3.36247802734375,0.09103107452392578,-0.02730945497751236,-0.003325939178466797
1772812235766178600,3.372178466796875,0.047423362731933594,-0.009103178977966309,0.029657602310180664
1772812235775879400,3.38187939453125,0.038689613342285156,-0.016280680894851685,0.08419531583786011
1772812235785580000,3.391580078125,-0.004103660583496094,-0.022050976753234863,0.13870924711227417
1772812235795280600,3.40128076171875,-0.06865787506103516,0.003315970301628113,0.1464240550994873
1772812235804981200,3.410981201171875,-0.10858631134033203,0.04136046767234802,0.09958809614181519
1772812235814681900,3.420681884765625,-0.10667037963867188,0.0695853903889656,0.014595329761505127
1772812235824382500,3.430382568359375,-0.1354045867919922,0.04106096923351288,-0.0641128420829773
1772812235834083000,3.4400830078125,-0.09417438507080078,0.021060362458229065,-0.12110495567321777
1772812235843783700,3.44978369140625,-0.06887149810791016,0.007781468331813812,-0.14477962255477905
1772812235853484300,3.459484375,-0.06049823760986328,-0.011108413338661194,-0.10887426137924194
1772812235863185000,3.469184814453125,-0.045230865478515625,-0.005031459033489227,-0.06625378131866455
1772812235872885500,3.478885498046875,-0.00434112548828125,-0.0012938529253005981,-0.03252005577087402
1772812235882586000,3.488586181640625,0.03227996826171875,0.022264733910560608,0.016513347625732422
1772812235892286700,3.49828662109375,0.06465625762939453,0.013046696782112122,0.04462850093841553
1772812235901987300,3.5079873046875,0.0812387466430664,0.014626972377300262,0.05899810791015625
1772812235911688000,3.51768798828125,0.11416053771972656,0.006951943039894104,0.03651010990142822
1772812235921388500,3.527388427734375,0.05476665496826172,0.02489924430847168,0.007395625114440918
1772812235931089200,3.537089111328125,-0.0072498321533203125,-0.0067572519183158875,0.028970003128051758
1772812235940789800,3.546789794921875,-0.0035753250122070312,0.00492965430021286,0.02710878849029541
1772812235950490400,3.556490478515625,0.008249282836914062,0.01922690123319626,0.006624460220336914
1772812235960191000,3.56619091796875,0.014014244079589844,0.014468193054199219,-0.014864921569824219
1772812235969891600,3.5758916015625,0.0314788818359375,0.01785862445831299,-0.0210149884223938
1772812235979592200,3.58559228515625,0.04160022735595703,0.028967931866645813,-0.02118164300918579
1772812235989292800,3.595292724609375,0.037445068359375,0.03827981650829315,-0.02142965793609619
1772812235998993400,3.604993408203125,0.005092620849609375,0.059070438146591187,-0.020184814929962158
1772812236008694000,3.614694091796875,-0.01617145538330078,0.03728937357664108,-0.03035902976989746
1772812236018394600,3.62439453125,-0.03825664520263672,0.025720015168190002,-0.04980671405792236
1772812236028095200,3.63409521484375,-0.06933784484863281,-0.0026571452617645264,-0.08591389656066895
1772812236037795800,3.6437958984375,-0.08217716217041016,0.00002415478229522705,-0.11048126220703125
1772812236047496400,3.653496337890625,-0.06533336639404297,0.00884312391281128,-0.11647355556488037
1772812236057197000,3.663197021484375,-0.06293582916259766,-0.008939787745475769,-0.07485854625701904
1772812236066897700,3.672897705078125,-0.006556510925292969,-0.041058801114559174,-0.0035628080368041992
1772812236076598300,3.682598388671875,0.03589439392089844,-0.037247564643621445,0.05176401138305664
1772812236086299000,3.692298828125,0.0658864974975586,-0.028622854501008987,0.07317602634429932
1772812236095999500,3.70199951171875,0.04943084716796875,-0.009117871522903442,0.1372678279876709
1772812236105700400,3.711700439453125,-0.0032453536987304688,-0.012496750801801682,0.1311095952987671
1772812236115400700,3.721400634765625,0.0050201416015625,-0.012023154646158218,0.11972904205322266
1772812236125101300,3.731101318359375,-0.01384735107421875,-0.017998740077018738,0.07259607315063477
1772812236134802000,3.740802001953125,-0.02887439727783203,-0.03765031695365906,0.06507205963134766
1772812236144502500,3.75050244140625,-0.008389472961425781,-0.08169057965278625,0.058014750480651855
1772812236154203100,3.760203125,0.023469924926757812,-0.10019118338823318,0.006877779960632324
1772812236163904000,3.769904052734375,0.061881065368652344,-0.08299548923969269,0.022306203842163086
1772812236173604600,3.7796044921875,0.052608489990234375,-0.036222536116838455,0.005600929260253906
1772812236183305200,3.78930517578125,0.014071464538574219,0.011305693536996841,-0.0025336742401123047
1772812236193005800,3.799005859375,-0.04267311096191406,0.015555121004581451,-0.01033473014831543
1772812236202706200,3.8087060546875,-0.06199932098388672,-0.016762126237154007,-0.04750335216522217
1772812236212406800,3.81840673828125,-0.062148094177246094,-0.04399728775024414,-0.07262969017028809
1772812236222107600,3.828107666015625,-0.04340839385986328,-0.04541467875242233,-0.09561163187026978
1772812236231808300,3.837808349609375,-0.0025539398193359375,-0.03651415556669235,-0.08830559253692627
1772812236241508900,3.8475087890625,0.02240467071533203,-0.017545878887176514,-0.06421148777008057
1772812236251209500,3.85720947265625,0.061077117919921875,-0.0040913596749305725,-0.018249452114105225
1772812236260910000,3.86691015625,0.02723217010498047,0.008703958243131638,0.05152416229248047
1772812236270610700,3.876610595703125,0.013852119445800781,0.009980011731386185,0.0952157974243164
1772812236280311300,3.886311279296875,-0.0040683746337890625,0.009552974253892899,0.11992287635803223
1772812236290012000,3.896011962890625,0.0006437301635742188,0.0098516084253788,0.13382995128631592
1772812236299712500,3.90571240234375,-0.014780044555664062,-0.0340685099363327,0.16219282150268555
1772812236309413000,3.9154130859375,-0.041728973388671875,-0.031755637377500534,0.1561412811279297
1772812236319113700,3.92511376953125,-0.0211639404296875,-0.033366911113262177,0.09834468364715576
1772812236328814300,3.934814453125,-0.04695415496826172,0.004824232310056686,0.0015196800231933594
1772812236338515000,3.944514892578125,-0.05700492858886719,0.011748112738132477,-0.07857203483581543
1772812236348215600,3.954215576171875,-0.000827789306640625,0.018015265464782715,-0.15317654609680176
1772812236357916200,3.963916259765625,0.022812843322753906,0.01738932728767395,-0.16692101955413818
1772812236367616800,3.97361669921875,-0.0068340301513671875,-0.000756382942199707,-0.12677347660064697
1772812236377317400,3.9833173828125,-0.0030546188354492188,-0.030126752331852913,-0.05544543266296387
1772812236387018000,3.99301806640625,0.007660865783691406,-0.04398389905691147,0.003496527671813965
1772812236396718600,4.002718505859375,0.05933189392089844,-0.03008817881345749,0.05485081672668457
1772812236406419200,4.012419189453125,0.06771659851074219,-0.025858942419290543,0.08252763748168945
1772812236416119800,4.022119873046875,0.08418655395507812,-0.040701791644096375,0.09106338024139404
1772812236425820400,4.0318203125,0.05920982360839844,-0.043144457042217255,0.08766520023345947
1772812236435521000,4.04152099609375,0.02991962432861328,0.009655330330133438,0.07278621196746826
1772812236445221600,4.0512216796875,-0.04245185852050781,0.017422519624233246,0.050287723541259766
1772812236454922200,4.060922119140625,-0.07949447631835938,0.000408221036195755,0.03160834312438965
1772812236464622800,4.070622802734375,-0.10294246673583984,0.014459174126386642,-0.011834502220153809
1772812236474323500,4.080323486328125,-0.1106719970703125,0.004874052479863167,-0.01609814167022705
1772812236484024000,4.090024169921875,-0.09236812591552734,0.0011458192020654678,0.021836280822753906
1772812236493724700,4.099724609375,-0.052051544189453125,-0.012871148064732552,0.03006720542907715
1772812236503425300,4.10942529296875,0.0075473785400390625,-0.01659572310745716,0.038614630699157715
1772812236513126000,4.1191259765625,0.08491230010986328,-0.025055505335330963,0.04767012596130371
1772812236522826500,4.128826416015625,0.14214229583740234,-0.022013124078512192,0.010918974876403809
1772812236532527000,4.138527099609375,0.1655254364013672,-0.012253858149051666,-0.03152596950531006
1772812236542228000,4.14822802734375,0.17801761627197266,0.0027945581823587418,-0.0717020034790039
1772812236551928300,4.15792822265625,0.16560745239257812,0.002312861382961273,-0.05364668369293213
1772812236561629000,4.16762890625,0.09811592102050781,-0.021674491465091705,-0.04765653610229492
1772812236571329500,4.17732958984375,0.04125213623046875,-0.011246593669056892,-0.06732094287872314
1772812236581030100,4.187030029296875,-0.051115989685058594,0.03061028942465782,-0.07862240076065063
1772812236590730800,4.196730712890625,-0.13960838317871094,0.03816939517855644,-0.06609535217285156
1772812236600431600,4.206431640625,-0.17721843719482422,0.04063628986477852,-0.045572519302368164
1772812236610132200,4.21613232421875,-0.20125293731689453,0.04408019781112671,-0.022032439708709717
1772812236619832800,4.225832763671875,-0.15787124633789062,0.028683088719844818,0.01677834987640381
1772812236629533400,4.235533447265625,-0.11290931701660156,0.008346952497959137,0.038926124572753906
1772812236639234000,4.245234130859375,-0.031017303466796875,-0.01744505763053894,0.04980790615081787
1772812236648934400,4.254934326171875,0.06362342834472656,-0.007145339623093605,0.038241028785705566
1772812236658635300,4.26463525390625,0.07784843444824219,0.0018890071660280228,0.01880192756652832
1772812236668335900,4.2743359375,0.15305137634277344,-0.003936242312192917,-0.001828312873840332
1772812236678036500,4.284036376953125,0.12928485870361328,-0.012940696440637112,0.0009164810180664062
1772812236687737000,4.293737060546875,0.11291694641113281,-0.0026623662561178207,-0.03464305400848389
1772812236697437700,4.303437744140625,0.10041522979736328,-0.026549793779850006,-0.036084651947021484
1772812236707138300,4.31313818359375,0.08815288543701172,-0.01579909957945347,-0.0495220422744751
1772812236716839000,4.3228388671875,0.021964073181152344,0.010474298149347305,-0.051978230476379395
1772812236726539500,4.33253955078125,-0.0042972564697265625,0.010563977062702179,-0.056747257709503174
1772812236736240000,4.342240234375,-0.050116539001464844,0.0225115604698658,-0.04029035568237305
1772812236745940700,4.351940673828125,-0.0974435806274414,0.04809864982962608,-0.044928789138793945
1772812236755641300,4.361641357421875,-0.10392570495605469,0.025593221187591553,-0.06305408477783203
1772812236765342000,4.371342041015625,-0.13276100158691406,0.018922090530395508,-0.005771756172180176
1772812236775042600,4.38104248046875,-0.10706233978271484,0.018791966140270233,0.012326478958129883
1772812236784743200,4.3907431640625,-0.047580718994140625,0.02007480338215828,0.028046011924743652
1772812236794443800,4.40044384765625,-0.02318096160888672,0.0289248488843441,0.02322232723236084
1772812236804144400,4.410144287109375,-0.045205116271972656,0.010027658194303513,0.01974797248840332
1772812236813845000,4.419844970703125,-0.035180091857910156,-0.0037300512194633484,0.0465625524520874
1772812236823545600,4.429545654296875,-0.0017938613891601562,-0.03579659014940262,0.071785569190979
1772812236833246200,4.43924609375,0.013456344604492188,-0.0468970462679863,0.0900881290435791
1772812236842946800,4.44894677734375,0.0366668701171875,0.0017661545425653458,0.09299159049987793
1772812236852647400,4.4586474609375,-0.011260986328125,0.03906313329935074,0.06919407844543457
1772812236862348000,4.46834814453125,-0.001934051513671875,0.05710134655237198,0.017699480056762695
1772812236872048600,4.478048583984375,0.042675018310546875,0.08608142286539078,-0.05905634164810181
1772812236881749200,4.487749267578125,0.014849662780761719,0.07610438764095306,-0.11759567260742188
1772812236891449900,4.497449951171875,0.0016241073608398438,0.008748946711421013,-0.15062594413757324
1772812236901150500,4.507150390625,0.01562786102294922,-0.03673671931028366,-0.1438043713569641
1772812236910851000,4.51685107421875,0.032980918884277344,-0.035944484174251556,-0.12581408023834229
1772812236920551700,4.5265517578125,0.03602123260498047,0.0021290425211191177,-0.10432243347167969
1772812236930252300,4.536252197265625,0.030826568603515625,0.023058060556650162,-0.04840373992919922
1772812236939953000,4.545952880859375,0.036269187927246094,-0.031472429633140564,0.0034214258193969727
1772812236949653500,4.555653564453125,0.010900497436523438,-0.028826989233493805,0.05568349361419678
1772812236959354000,4.56535400390625,0.037624359130859375,0.0024194009602069855,0.10565519332885742
1772812236969054700,4.5750546875,0.03339385986328125,0.019627884030342102,0.12579727172851562
1772812236978755300,4.58475537109375,0.008148193359375,0.060252413153648376,0.13884609937667847
1772812236988456000,4.5944560546875,-0.03321552276611328,0.06543847173452377,0.1393594741821289
1772812236998156500,4.604156494140625,-0.06926727294921875,0.03341187164187431,0.13245010375976562
1772812237007857200,4.613857177734375,-0.04352855682373047,0.030683664605021477,0.12198615074157715
1772812237017557800,4.623557861328125,0.0006494522094726562,0.04206670820713043,0.07009625434875488
1772812237027258400,4.63325830078125,0.03586006164550781,0.050613630563020706,0.053132057189941406
1772812237036959000,4.642958984375,0.05635643005371094,0.048060446977615356,0.009504437446594238
1772812237046659800,4.652659912109375,0.022413253784179688,0.03220226243138313,-0.03356587886810303
1772812237056360400,4.6623603515625,-0.017937660217285156,0.0063632819801568985,-0.0802963376045227
1772812237066061000,4.67206103515625,-0.008161544799804688,-0.02797655202448368,-0.10784995555877686
1772812237075761700,4.68176171875,0.03895854949951172,-0.036653757095336914,-0.07591348886489868
1772812237085462000,4.6914619140625,0.08171367645263672,-0.053895942866802216,-0.04635357856750488
1772812237095162600,4.70116259765625,0.114471435546875,-0.040981560945510864,-0.04788506031036377
1772812237104863500,4.710863525390625,0.08327865600585938,0.027682701125741005,-0.05178499221801758
1772812237114564000,4.720564208984375,0.0008363723754882812,0.0712532252073288,-0.03909546136856079
1772812237124264700,4.7302646484375,-0.0849609375,0.03426501899957657,-0.006420552730560303
1772812237133965300,4.73996533203125,-0.09051990509033203,-0.013905348256230354,0.018764257431030273
1772812237143666000,4.749666015625,-0.08547115325927734,-0.039786551147699356,0.06188523769378662
1772812237153366500,4.759366455078125,-0.07936477661132812,-0.06896001100540161,0.10698205232620239
1772812237163067100,4.769067138671875,-0.06386852264404297,-0.05027102679014206,0.09171462059020996
1772812237172767700,4.778767822265625,-0.0756683349609375,0.014073457568883896,0.041180968284606934
1772812237182468400,4.78846826171875,-0.09318733215332031,0.04726743325591087,0.017652511596679688
1772812237192169000,4.7981689453125,-0.08455371856689453,0.041346803307533264,0.02177262306213379
1772812237201869600,4.80786962890625,-0.05488014221191406,0.017197581008076668,0.03632831573486328
1772812237211570200,4.817570068359375,-0.005709648132324219,0.009356998838484287,0.05781447887420654
1772812237221270800,4.827270751953125,0.05787372589111328,0.01569516770541668,0.09015333652496338
1772812237230971400,4.836971435546875,0.10378551483154297,0.00021804310381412506,0.0821617841720581
1772812237240672000,4.846672119140625,0.12067699432373047,-0.0024481029249727726,0.058031439781188965
1772812237250372600,4.85637255859375,0.14210796356201172,0.02679746225476265,-0.027974724769592285
1772812237260073200,4.8660732421875,0.10794258117675781,0.03878762573003769,-0.06599760055541992
1772812237269773800,4.87577392578125,0.0625619888305664,0.012969675473868847,-0.08671879768371582
1772812237279474400,4.885474365234375,0.025015830993652344,0.0007453113794326782,-0.10258734226226807
1772812237289175000,4.895175048828125,0.026964187622070312,-0.01609480194747448,-0.10802870988845825
1772812237298875600,4.904875732421875,0.026552200317382812,-0.0344819650053978,-0.10537213087081909
1772812237308576300,4.914576171875,0.020349502563476562,-0.020143859088420868,-0.07181638479232788
1772812237318276900,4.92427685546875,0.0001850128173828125,-0.01448382530361414,-0.025183439254760742
1772812237327977500,4.9339775390625,-0.04087638854980469,0.0057305581867694855,0.03885728120803833
1772812237337678000,4.943677978515625,-0.08960151672363281,0.02441045269370079,0.07111358642578125
1772812237347378700,4.953378662109375,-0.0893545150756836,-0.00947996973991394,0.11062860488891602
1772812237357079300,4.963079345703125,-0.09857177734375,-0.0010848082602024078,0.11935043334960938
1772812237366780000,4.97277978515625,-0.09354305267333984,-0.01970895752310753,0.12109529972076416
1772812237376480500,4.98248046875,-0.09918880462646484,-0.024561038240790367,0.11104810237884521
1772812237386181000,4.99218115234375,-0.08942699432373047,-0.0074630845338106155,0.06450140476226807
1772812237395881700,5.0018818359375,-0.037467002868652344,0.011505365371704102,0.01982259750366211
1772812237405582300,5.011582275390625,-0.031093597412109375,0.0236512441188097,-0.02514827251434326
1772812237415283000,5.021282958984375,0.0587615966796875,0.03565692901611328,-0.09934914112091064
1772812237424983600,5.030983642578125,0.09890556335449219,0.03353046625852585,-0.11721903085708618
1772812237434684400,5.040684326171875,0.11017799377441406,0.017240038141608238,-0.09154534339904785
1772812237444384800,5.050384765625,0.08836746215820312,-0.006025232374668121,-0.10201841592788696
1772812237454085400,5.06008544921875,0.07753467559814453,-0.016562869772315025,-0.11021941900253296
1772812237463786000,5.069785888671875,0.01627063751220703,-0.021562792360782623,-0.06273573637008667
1772812237473486600,5.079486572265625,0.016037940979003906,-0.026460520923137665,-0.01027369499206543
1772812237483187200,5.089187255859375,0.02282428741455078,-0.035055357962846756,0.021738290786743164
1772812237492888000,5.09888818359375,0.015286445617675781,-0.028796324506402016,0.057708740234375
1772812237502588700,5.108588623046875,-0.0050792694091796875,-0.03810374438762665,0.08495855331420898
1772812237512289300,5.118289306640625,-0.02391815185546875,0.009106092154979706,0.11520051956176758
1772812237521990000,5.127989990234375,-0.07300090789794922,0.030630070716142654,0.0869530439376831
1772812237531690200,5.137690185546875,-0.12358474731445312,0.030137203633785248,0.06819301843643188
1772812237541390800,5.147390869140625,-0.14156150817871094,0.02205776609480381,0.036776721477508545
1772812237551091700,5.157091796875,-0.0980978012084961,-0.016713859513401985,0.012076914310455322
1772812237560792300,5.166792236328125,-0.05421733856201172,-0.02271631546318531,-0.001256108283996582
1772812237570493000,5.176492919921875,0.021904945373535156,-0.028831100091338158,-0.015854358673095703
1772812237580193500,5.186193603515625,0.09797954559326172,-0.004370054230093956,-0.02354663610458374
1772812237589894100,5.19589404296875,0.12102222442626953,0.03006487898528576,-0.06287652254104614
1772812237599594800,5.2055947265625,0.1507558822631836,0.028036871924996376,-0.08284109830856323
1772812237609295400,5.21529541015625,0.1588296890258789,-0.01326996274292469,-0.07194101810455322
1772812237618996000,5.224995849609375,0.13620281219482422,-0.01646524667739868,-0.09553855657577515
1772812237628696600,5.234696533203125,0.0810089111328125,-0.007272299379110336,-0.0668935775756836
1772812237638397200,5.244397216796875,0.018515586853027344,-0.007608169689774513,-0.06122070550918579
1772812237648097800,5.254097900390625,-0.03345775604248047,0.0022345632314682007,-0.03864717483520508
1772812237657798400,5.26379833984375,-0.059841156005859375,0.01885160058736801,-0.02723795175552368
1772812237667499000,5.2734990234375,-0.10467243194580078,0.019754163920879364,-0.010719716548919678
1772812237677199600,5.28319970703125,-0.10054206848144531,-0.020695941522717476,0.01743084192276001
1772812237686900200,5.292900146484375,-0.09182548522949219,-0.013990480452775955,0.05853676795959473
1772812237696600800,5.302600830078125,-0.0727090835571289,-0.036382317543029785,0.07347387075424194
1772812237706301400,5.312301513671875,-0.04686927795410156,-0.03221093863248825,0.06359899044036865
1772812237716002000,5.322001953125,-0.02616596221923828,-0.03387266770005226,0.037417709827423096
1772812237725702700,5.33170263671875,0.005984306335449219,-0.03576353192329407,-0.007406651973724365
1772812237735403300,5.3414033203125,0.02942371368408203,-0.015466909855604172,-0.03208029270172119
1772812237745104000,5.351103759765625,0.02899456024169922,-0.005159564316272736,-0.07329744100570679
1772812237754804500,5.360804443359375,-0.0008420944213867188,0.008701149374246597,-0.07497864961624146
1772812237764505000,5.370505126953125,-0.021915435791015625,-0.009162724018096924,-0.0757940411567688
1772812237774205700,5.380205810546875,-0.022583961486816406,-0.008748333901166916,-0.0771324634552002
1772812237783906300,5.38990625,-0.02205371856689453,-0.0010780207812786102,-0.052681028842926025
1772812237793607000,5.39960693359375,0.006731986999511719,0.008792515844106674,-0.05245029926300049
1772812237803307500,5.4093076171875,0.0503692626953125,0.014579381793737411,-0.04668062925338745
1772812237813008100,5.419008056640625,0.04502296447753906,0.01165003702044487,-0.01960378885269165
1772812237822708700,5.428708740234375,0.07384777069091797,-0.01184692233800888,0.029742956161499023
1772812237832409300,5.438409423828125,0.08097267150878906,-0.01583772897720337,0.044631898403167725
1772812237842110000,5.44810986328125,0.09630107879638672,-0.04555036127567291,0.0008324384689331055
1772812237851810600,5.457810546875,0.1878805160522461,-0.02815607190132141,-0.040110230445861816
1772812237861511000,5.467510986328125,0.16833114624023438,-0.06361989676952362,0.0263175368309021
1772812237871211500,5.47721142578125,0.15014362335205078,-0.10399804264307022,0.06849348545074463
1772812237880912100,5.486912109375,0.13818836212158203,-0.013704866170883179,0.05089163780212402
1772812237890612700,5.49661279296875,0.09375667572021484,0.017774879932403564,-0.025301456451416016
1772812237900313300,5.506313232421875,-0.013271331787109375,0.042385488748550415,-0.1079288125038147
1772812237910014000,5.516013916015625,-0.16213417053222656,-0.006645753979682922,-0.03312408924102783
1772812237919714600,5.525714599609375,-0.2969484329223633,-0.05907059833407402,0.05502438545227051
1772812237929415200,5.535415283203125,-0.3566627502441406,0.003349900245666504,0.06099128723144531
1772812237939115800,5.54511572265625,-0.3329601287841797,0.054856956005096436,0.012902021408081055
1772812237948816400,5.55481640625,-0.23283767700195312,-0.05269460380077362,-0.053078293800354004
1772812237958517000,5.56451708984375,-0.15317821502685547,0.011507265269756317,0.01703023910522461
1772812237968217600,5.574217529296875,-0.14813899993896484,0.15492132306098938,-0.003743767738342285
1772812237977918200,5.583918212890625,0.01665496826171875,-0.029813088476657867,0.0242767333984375
1772812237987618800,5.593618896484375,0.12682723999023438,-0.06734862923622131,0.05193471908569336
1772812237997319400,5.6033193359375,0.2812328338623047,-0.059533387422561646,0.0435788631439209
1772812238007020000,5.61302001953125,0.31908321380615234,0.07236947119235992,0.03201925754547119
1772812238016720600,5.622720703125,0.26335716247558594,-0.008692920207977295,0.01847374439239502
1772812238026421200,5.632421142578125,0.18961143493652344,-0.04358033835887909,0.05004441738128662
1772812238036121900,5.642121826171875,0.06169605255126953,-0.05998150259256363,0.012781739234924316
1772812238045822500,5.651822509765625,0.03607749938964844,-0.03251349925994873,0.021674394607543945
1772812238055523000,5.661523193359375,-0.0702047348022461,-0.01651810109615326,-0.013988971710205078
1772812238065223700,5.6712236328125,-0.1653308868408203,0.030232295393943787,0.006314396858215332
1772812238074924300,5.68092431640625,-0.2247753143310547,0.030019938945770264,0.017985939979553223
1772812238084625000,5.690625,-0.2326030731201172,0.022869303822517395,0.031112313270568848
1772812238094325500,5.700325439453125,-0.20737457275390625,0.045101284980773926,0.04388320446014404
1772812238104026000,5.710026123046875,-0.17444229125976562,0.033105894923210144,0.06788134574890137
1772812238113726700,5.719726806640625,-0.14220046997070312,0.020990893244743347,0.07743322849273682
1772812238123427600,5.729427490234375,-0.10222339630126953,0.013398468494415283,0.06758511066436768
1772812238133128200,5.739128173828125,0.048867225646972656,0.06230516731739044,0.004847526550292969
1772812238142828800,5.748828857421875,0.0350341796875,0.021485358476638794,-0.06684756278991699
1772812238152529400,5.758529296875,0.09677505493164062,-0.0029665380716323853,-0.11769366264343262
1772812238171930400,5.777930419921875,0.13431072235107422,0.048415571451187134,-0.03842055797576904
1772812238181631000,5.787630859375,0.12982654571533203,0.03070729970932007,-0.05415380001068115
1772812238191331800,5.797331787109375,0.1065816879272461,-0.02849160134792328,-0.020045042037963867
1772812238201032400,5.807032470703125,0.1319293975830078,-0.021649152040481567,-0.0637897253036499
1772812238210733000,5.816733154296875,0.14626598358154297,-0.012607872486114502,-0.05725520849227905
1772812238220433700,5.82643359375,0.17805004119873047,-0.005003482103347778,-0.011051654815673828
1772812238230134300,5.83613427734375,0.14929485321044922,-0.006285518407821655,0.006435751914978027
1772812238239835000,5.8458349609375,0.12451648712158203,0.019749365746974945,0.07465469837188721
1772812238249535500,5.855535400390625,0.10477638244628906,-0.012631326913833618,0.10022151470184326
1772812238259236000,5.865236083984375,0.051116943359375,-0.0188787579536438,0.05255162715911865
1772812238268936700,5.874936767578125,0.020656585693359375,0.034849897027015686,0.05912303924560547
1772812238278637300,5.88463720703125,0.021409034729003906,0.05691473186016083,0.053977131843566895
1772812238288338000,5.894337890625,0.019926071166992188,0.002985551953315735,-0.07457166910171509
1772812238298038500,5.90403857421875,-0.0628204345703125,0.014829859137535095,-0.07047438621520996
1772812238307739100,5.9137392578125,-0.09946632385253906,-0.011845365166664124,-0.013681530952453613
1772812238317439700,5.923439697265625,-0.09184646606445312,0.015326455235481262,-0.04848814010620117
1772812238327140400,5.933140380859375,-0.12075424194335938,0.020625442266464233,-0.049393415451049805
1772812238336841000,5.942841064453125,-0.17630958557128906,0.048871204257011414,-0.03345370292663574
1772812238346541600,5.95254150390625,-0.20766162872314453,0.03898771107196808,0.04420042037963867
1772812238356242200,5.9622421875,-0.14689159393310547,0.025792196393013,0.13131308555603027
1772812238365942800,5.97194287109375,-0.06598567962646484,-0.0006012469530105591,0.15263736248016357
1772812238375643400,5.981643310546875,0.010066986083984375,-0.05816991627216339,0.07003772258758545
1772812238385344000,5.991343994140625,0.056735992431640625,-0.03697548806667328,0.04669642448425293
1772812238395044600,6.001044677734375,0.09333515167236328,0.013964399695396423,0.013278603553771973
1772812238404745200,6.0107451171875,0.07638168334960938,-0.0006478279829025269,0.016916990280151367
1772812238414445800,6.02044580078125,0.05728340148925781,-0.000681564211845398,0.07176387310028076
1772812238424146400,6.030146484375,0.0679473876953125,-0.017878547310829163,0.04553067684173584
1772812238433847000,6.039846923828125,0.053821563720703125,-0.0037164390087127686,0.0166165828704834
1772812238443547600,6.049547607421875,0.012987136840820312,0.02410481870174408,0.04598426818847656
1772812238453248300,6.059248291015625,-0.03652381896972656,0.009525299072265625,0.0707254409790039
1772812238462948900,6.068948974609375,-0.10765552520751953,-0.016041576862335205,0.12643766403198242
1772812238472649500,6.0786494140625,-0.1742095947265625,-0.04198634624481201,0.07750928401947021
1772812238482350000,6.08835009765625,-0.15042686462402344,0.0011617988348007202,0.033170223236083984
1772812238492050700,6.09805078125,-0.1142568588256836,0.02753375470638275,-0.036294519901275635
1772812238501751300,6.107751220703125,-0.02096271514892578,0.06652608513832092,-0.06656712293624878
1772812238511452200,6.1174521484375,0.08506584167480469,0.03201387822628021,-0.12835067510604858
1772812238521152800,6.12715283203125,0.08823966979980469,-0.013753995299339294,-0.10380488634109497
1772812238530853000,6.13685302734375,0.09969520568847656,-0.028117060661315918,-0.08156472444534302
1772812238540553700,6.1465537109375,0.12160301208496094,0.006510049104690552,-0.03421205282211304
1772812238550254300,6.15625439453125,0.10192394256591797,-0.00014474987983703613,-0.009373307228088379
1772812238559955000,6.165954833984375,0.07899761199951172,-0.028567597270011902,0.04624605178833008
1772812238569655800,6.17565576171875,0.06943702697753906,-0.0405057817697525,0.05711334943771362
1772812238579356400,6.1853564453125,0.038840293884277344,-0.035820379853248596,0.04920774698257446
1772812238589057000,6.19505712890625,0.01692485809326172,-0.018320366740226746,0.07147383689880371
1772812238598757600,6.204757568359375,-0.005877494812011719,-0.054110437631607056,0.06473618745803833
1772812238608458200,6.214458251953125,-0.03296661376953125,-0.043653517961502075,0.04722130298614502
1772812238618158600,6.22415869140625,-0.04183673858642578,0.009316504001617432,-0.000655055046081543
1772812238627859500,6.233859375,-0.07991886138916016,0.02937987446784973,-0.010830342769622803
1772812238637560000,6.24356005859375,-0.12092304229736328,0.02011096477508545,-0.043309807777404785
1772812238647260700,6.2532607421875,-0.1354055404663086,0.003183335065841675,-0.057583391666412354
1772812238656961300,6.262961181640625,-0.1320476531982422,0.008930683135986328,-0.06675863265991211
1772812238666662000,6.272661865234375,-0.14755821228027344,0.022723853588104248,-0.09733492136001587
1772812238676362500,6.282362548828125,-0.14397621154785156,0.016441479325294495,-0.1219589114189148
1772812238686063000,6.29206298828125,-0.17341232299804688,0.01895242929458618,-0.12757378816604614
1772812238695763700,6.301763671875,-0.13059520721435547,0.04296521842479706,-0.12401992082595825
1772812238705464300,6.31146435546875,-0.04152679443359375,0.04467238485813141,-0.08552342653274536
1772812238715165000,6.3211650390625,0.035401344299316406,-0.008614018559455872,-0.04205840826034546
1772812238724865500,6.330865478515625,0.14169597625732422,-0.05024197697639465,0.0029700398445129395
1772812238734566100,6.340566162109375,0.20163726806640625,-0.02883283793926239,0.000671088695526123
1772812238744266800,6.350266845703125,0.20062637329101562,-0.0162823349237442,0.00179290771484375
1772812238753967400,6.35996728515625,0.15497207641601562,-0.027249112725257874,-0.020866990089416504
1772812238763668000,6.36966796875,0.1312856674194336,-0.03352251648902893,-0.01988142728805542
1772812238773368600,6.37936865234375,0.07503604888916016,-0.0366654247045517,0.014310240745544434
1772812238783069200,6.389069091796875,0.03033733367919922,-0.051800668239593506,0.052452027797698975
1772812238792769800,6.398769775390625,-0.0041866302490234375,-0.01010274887084961,0.08857518434524536
1772812238802470400,6.408470458984375,-0.027612686157226562,0.034896016120910645,0.10935574769973755
1772812238812171000,6.4181708984375,-0.05315113067626953,0.02206861972808838,0.1029236912727356
1772812238821871600,6.42787158203125,-0.01591968536376953,0.02267596125602722,0.06248831748962402
1772812238831572200,6.437572265625,0.0054302215576171875,0.023920997977256775,0.011938810348510742
1772812238841272800,6.44727294921875,0.026494979858398438,0.010697007179260254,-0.024280846118927002
1772812238850973400,6.456973388671875,0.021353721618652344,0.001191854476928711,-0.06839233636856079
1772812238860674000,6.466674072265625,-0.013154029846191406,-0.019809111952781677,-0.08902561664581299
1772812238870374700,6.476374755859375,-0.05176734924316406,0.003516271710395813,-0.1002761721611023
1772812238880075300,6.4860751953125,-0.008493423461914062,0.01894994080066681,-0.09570109844207764
1772812238889775900,6.49577587890625,-0.03539848327636719,0.02751675248146057,-0.10026586055755615
1772812238899476500,6.5054765625,-0.019481658935546875,0.01624293625354767,-0.09090256690979004
1772812238909177000,6.515177001953125,0.009140968322753906,-0.01847735047340393,-0.08316308259963989
1772812238918877700,6.524877685546875,0.026685714721679688,0.005486294627189636,-0.03759831190109253
1772812238928578300,6.534578369140625,0.04983234405517578,0.007130742073059082,-0.010403275489807129
1772812238938279000,6.54427880859375,0.05609893798828125,-0.021034225821495056,0.02374368906021118
1772812238947979500,6.5539794921875,-0.007160186767578125,-0.018486514687538147,0.010433793067932129
1772812238957680400,6.563680419921875,0.0025424957275390625,0.0029837489128112793,-0.02765423059463501
1772812238967381000,6.573381103515625,-0.005541801452636719,0.031757161021232605,-0.04075634479522705
1772812238977081300,6.583081298828125,-0.05123710632324219,0.007983505725860596,-0.030508339405059814
1772812238986782000,6.592781982421875,-0.03739643096923828,-0.013719692826271057,0.019945919513702393
1772812238996482600,6.602482666015625,-0.03914833068847656,-0.021028056740760803,0.06202274560928345
1772812239006183200,6.61218310546875,-0.04323387145996094,-0.015400528907775879,0.05646932125091553
1772812239015884000,6.621884033203125,-0.036612510681152344,0.0069599449634552,0.03512352705001831
1772812239025584600,6.631584716796875,-0.013659477233886719,0.006589099764823914,0.042674362659454346
1772812239035285200,6.64128515625,-0.026436805725097656,-0.032972246408462524,0.04364216327667236
1772812239044985900,6.65098583984375,0.00926971435546875,-0.036653727293014526,0.0254480242729187
1772812239054686500,6.6606865234375,-0.0015268325805664062,0.001077800989151001,-0.0063574910163879395
1772812239064387000,6.670386962890625,0.0077877044677734375,0.02584707736968994,-0.0735480785369873
1772812239074087700,6.680087646484375,0.036957740783691406,0.013967633247375488,-0.14565742015838623
1772812239083788300,6.689788330078125,0.0715951919555664,-0.007866650819778442,-0.1582810878753662
1772812239093489000,6.699489013671875,0.08696842193603516,-0.003531739115715027,-0.1670929193496704
1772812239103189500,6.709189453125,0.09397029876708984,-0.02719414234161377,-0.13088101148605347
1772812239112890000,6.71889013671875,0.020843505859375,-0.06705489754676819,-0.08804923295974731
1772812239122590700,6.7285908203125,-0.03351116180419922,-0.05068591237068176,0.0020000338554382324
1772812239132291300,6.738291259765625,-0.04465961456298828,-0.039232686161994934,0.055774986743927
1772812239141992000,6.747991943359375,-0.056822776794433594,-0.053520724177360535,0.09940487146377563
1772812239151692500,6.757692626953125,-0.06646251678466797,-0.03040367364883423,0.1318761110305786
1772812239161393200,6.76739306640625,-0.08189964294433594,-0.029077380895614624,0.1361180543899536
1772812239171093800,6.77709375,-0.0759878158569336,-0.013975411653518677,0.15272164344787598
1772812239180794400,6.78679443359375,-0.05141162872314453,-0.03605446219444275,0.1294887661933899
1772812239190495000,6.796494873046875,-0.046097755432128906,-0.030297115445137024,0.08919697999954224
1772812239200195600,6.806195556640625,-0.032599449157714844,-0.016279086470603943,0.04800248146057129
1772812239209896200,6.815896240234375,0.010201454162597656,-0.0026530474424362183,0.013448894023895264
1772812239219596800,6.8255966796875,0.03472423553466797,0.005833819508552551,0.0022333860397338867
1772812239229297400,6.83529736328125,0.043526649475097656,0.02102626860141754,-0.0073896050453186035
1772812239238998000,6.844998046875,0.07214164733886719,-0.003434404730796814,0.003664553165435791
1772812239248698600,6.85469873046875,0.07317256927490234,0.00010094046592712402,-0.02483844757080078
1772812239258399200,6.864399169921875,0.09774398803710938,0.005008980631828308,-0.051777005195617676
1772812239268099800,6.874099853515625,0.11606979370117188,0.021913915872573853,-0.08209306001663208
1772812239277800400,6.883800537109375,0.09645271301269531,-0.007408007979393005,-0.07527637481689453
1772812239287501000,6.8935009765625,0.09016704559326172,-0.04089993238449097,-0.04894763231277466
1772812239297201700,6.90320166015625,0.08994483947753906,-0.031091228127479553,-0.015417814254760742
1772812239306902300,6.91290234375,0.028583526611328125,-0.01904265582561493,0.016037940979003906
1772812239316603000,6.922602783203125,-0.012930870056152344,-0.009100779891014099,0.04570889472961426
1772812239326303500,6.932303466796875,-0.044376373291015625,0.015574276447296143,0.06564563512802124
1772812239336004400,6.94200439453125,-0.06000995635986328,-0.007963940501213074,0.08640259504318237
1772812239345704700,6.95170458984375,-0.056563377380371094,-0.021377861499786377,0.09970921277999878
1772812239355405300,6.9614052734375,-0.06379127502441406,-0.01653909683227539,0.0871475338935852
1772812239365106000,6.97110595703125,-0.04039573669433594,0.0038695931434631348,0.1073043942451477
1772812239374806500,6.980806640625,-0.055069923400878906,0.0054283589124679565,0.06739211082458496
1772812239384507100,6.990507080078125,-0.03295326232910156,0.007373914122581482,0.01906418800354004
1772812239394208000,7.0002080078125,-0.07351875305175781,0.018449842929840088,-0.030240297317504883
1772812239403908600,7.00990869140625,-0.08400917053222656,0.03193415701389313,-0.07305216789245605
1772812239413609200,7.019609130859375,-0.06732845306396484,-0.008947178721427917,-0.06888401508331299
1772812239423309800,7.029309814453125,-0.04043102264404297,-0.03367526829242706,-0.046241700649261475
1772812239433010200,7.03901025390625,0.015445709228515625,-0.028132393956184387,-0.01806730031967163
1772812239442710800,7.048710693359375,0.08220672607421875,-0.0027150511741638184,0.008211791515350342
1772812239452411600,7.05841162109375,0.08317375183105469,-0.0036058425903320312,0.044651687145233154
1772812239462112300,7.0681123046875,0.070037841796875,0.0005863308906555176,0.026236295700073242
1772812239471812900,7.077812744140625,0.0359649658203125,0.01892232894897461,0.007899105548858643
1772812239481513500,7.087513427734375,0.009511947631835938,0.02879105508327484,-0.015968024730682373
1772812239491214000,7.097214111328125,-0.0035505294799804688,0.0237724632024765,-0.03493684530258179
1772812239500914700,7.106914794921875,0.004765510559082031,-0.017825394868850708,-0.02751058340072632
1772812239510615300,7.116615234375,0.0011720657348632812,-0.01318688690662384,-0.009478390216827393
1772812239520316000,7.12631591796875,0.028232574462890625,0.0005428791046142578,0.0011919736862182617
1772812239530016500,7.1360166015625,-0.007504463195800781,0.005712389945983887,-0.022487342357635498
1772812239539717000,7.145717041015625,-0.020272254943847656,0.012059777975082397,-0.007169067859649658
1772812239549417700,7.155417724609375,-0.044610023498535156,0.01844841241836548,0.013922631740570068
1772812239559118300,7.165118408203125,-0.07917022705078125,0.03479550778865814,0.010210812091827393
1772812239568819000,7.17481884765625,-0.06026172637939453,0.013528242707252502,0.01640421152114868
1772812239578519600,7.18451953125,-0.03347301483154297,-0.015566244721412659,0.03933924436569214
1772812239588220200,7.19422021484375,-0.005953788757324219,-0.0011127442121505737,0.019648969173431396
1772812239597920800,7.203920654296875,0.009425163269042969,0.036753639578819275,-0.0017682909965515137
1772812239607621400,7.213621337890625,-0.0024871826171875,0.06626811623573303,0.001536726951599121
1772812239617322000,7.223322021484375,-0.013117790222167969,0.04379449784755707,0.012718737125396729
1772812239627022600,7.233022705078125,-0.015377044677734375,0.001197919249534607,0.017167985439300537
1772812239636723200,7.24272314453125,0.010708808898925781,-0.01181115210056305,0.026837468147277832
1772812239646423800,7.252423828125,-0.0048236846923828125,-0.03044337034225464,0.036411821842193604
1772812239656124400,7.26212451171875,-0.034323692321777344,-0.061949267983436584,0.01635068655014038
1772812239665825000,7.271824951171875,-0.0315704345703125,0.006574973464012146,0.0036032795906066895
1772812239675525600,7.281525634765625,0.01703643798828125,0.044197142124176025,-0.056366145610809326
1772812239685226200,7.291226318359375,0.054238319396972656,0.031701087951660156,-0.11171972751617432
1772812239694926800,7.3009267578125,0.10974502563476562,0.050425201654434204,-0.13170337677001953
1772812239704627500,7.31062744140625,0.14328289031982422,0.050411567091941833,-0.1216665506362915
1772812239714328000,7.320328125,0.13164329528808594,0.033089444041252136,-0.038109421730041504
1772812239724028700,7.330028564453125,0.034351348876953125,0.028323933482170105,0.03563225269317627
1772812239733729300,7.339729248046875,-0.044887542724609375,0.03402642905712128,0.06244766712188721
1772812239743430000,7.349429931640625,-0.1288013458251953,0.04462084174156189,0.05314737558364868
1772812239753130500,7.359130615234375,-0.14552974700927734,0.027423173189163208,0.04454243183135986
1772812239762831000,7.3688310546875,-0.11263370513916016,0.006835520267486572,0.032979488372802734
1772812239772531700,7.37853173828125,-0.08147716522216797,-0.036548301577568054,0.053410232067108154
1772812239782232600,7.388232666015625,-0.04025459289550781,-0.04071900248527527,0.04773622751235962
1772812239791933200,7.39793310546875,-0.027963638305664062,-0.029562771320343018,0.02462482452392578
1772812239801633800,7.4076337890625,-0.007590293884277344,0.02886757254600525,-0.004607021808624268
1772812239811334100,7.417334228515625,-0.013424873352050781,0.04709239304065704,-0.02072906494140625
1772812239821034800,7.42703466796875,-0.0403289794921875,0.03511153161525726,-0.0015226006507873535
1772812239830735400,7.4367353515625,-0.032624244689941406,0.008770763874053955,-0.020876765251159668
1772812239840436200,7.446436279296875,-0.028591156005859375,0.006683334708213806,-0.03747713565826416
1772812239850136800,7.45613671875,-0.008137702941894531,0.021084025502204895,-0.03512066602706909
1772812239859837400,7.46583740234375,0.041413307189941406,0.02308158576488495,-0.024736762046813965
1772812239869538000,7.4755380859375,0.07836246490478516,0.031217828392982483,-0.007153749465942383
1772812239879238700,7.48523876953125,0.1252422332763672,0.021202534437179565,0.034404754638671875
1772812239888939300,7.494939208984375,0.14309024810791016,0.00980307161808014,0.0392916202545166
1772812239898640000,7.504639892578125,0.1335592269897461,-0.011077627539634705,0.035205304622650146
1772812239908340500,7.514340576171875,0.09952068328857422,0.0016699880361557007,-0.000771641731262207
1772812239918041000,7.524041015625,0.056708335876464844,0.012911945581436157,-0.019185960292816162
1772812239927741700,7.53374169921875,-0.014763832092285156,0.0329136848449707,-0.05078548192977905
1772812239937442300,7.5434423828125,-0.07682609558105469,0.026634082198143005,-0.057223379611968994
1772812239947143000,7.553142822265625,-0.09667587280273438,-0.003172248601913452,-0.024991393089294434
1772812239956843500,7.562843505859375,-0.04796791076660156,0.010343536734580994,0.009058237075805664
1772812239966544100,7.572544189453125,-0.02602863311767578,-0.0002315044403076172,0.038660407066345215
1772812239976244700,7.58224462890625,-0.004508018493652344,-0.005394741892814636,0.06725478172302246
1772812239985945300,7.5919453125,0.008437156677246094,-0.00251026451587677,0.058771371841430664
1772812239995646000,7.60164599609375,0.031762123107910156,0.022755548357963562,0.045640408992767334
1772812240005346600,7.6113466796875,0.004105567932128906,0.012085452675819397,0.01872265338897705
1772812240015047200,7.621047119140625,-0.0007028579711914062,-0.014653965830802917,-0.0234641432762146
1772812240024747800,7.630747802734375,-0.0006847381591796875,-0.019661739468574524,-0.044179320335388184
1772812240034448400,7.640448486328125,-0.018281936645507812,0.00018987059593200684,-0.053133368492126465
1772812240044149000,7.65014892578125,0.0009059906005859375,-0.02015635371208191,-0.03983789682388306
1772812240053849600,7.659849609375,-0.012066841125488281,-0.043707311153411865,-0.007151901721954346
1772812240063550200,7.66955029296875,-0.030755043029785156,-0.011891528964042664,0.029079914093017578
1772812240073250800,7.679250732421875,-0.017264366149902344,0.01614740490913391,0.011840224266052246
1772812240082951400,7.688951416015625,-0.04279804229736328,0.0655231922864914,0.036843717098236084
1772812240092652000,7.698652099609375,-0.09622764587402344,0.058405905961990356,0.050377070903778076
1772812240102352600,7.7083525390625,-0.09702587127685547,0.017481833696365356,0.050669074058532715
1772812240112053200,7.71805322265625,-0.06958389282226562,0.03227029740810394,0.03673011064529419
1772812240121753900,7.72775390625,-0.03675270080566406,0.003254219889640808,0.025743842124938965
1772812240131454500,7.737454345703125,0.013195037841796875,-0.028343424201011658,0.03258901834487915
1772812240141155000,7.747155029296875,0.06353378295898438,0.012764185667037964,0.034309566020965576
1772812240150855700,7.756855712890625,0.08475303649902344,0.020557820796966553,0.04486799240112305
1772812240160556500,7.766556640625,0.050292015075683594,0.000586971640586853,0.07101142406463623
1772812240170257200,7.776257080078125,0.08355331420898438,-0.012687146663665771,0.027730345726013184
1772812240179957800,7.785957763671875,0.037467002868652344,-0.014781355857849121,-0.01732659339904785
1772812240189658000,7.795658203125,0.019224166870117188,-0.013509482145309448,-0.01586925983428955
1772812240199358700,7.805358642578125,0.017754554748535156,-0.0240800678730011,-0.041466712951660156
1772812240209059300,7.815059326171875,-0.010762214660644531,-0.010886311531066895,-0.03709697723388672
1772812240218760000,7.824760009765625,-0.009392738342285156,-0.0016404390335083008,-0.009226381778717041
1772812240228460800,7.834460693359375,-0.028047561645507812,0.005155324935913086,0.040538787841796875
1772812240238161400,7.844161376953125,-0.06405925750732422,0.003185376524925232,0.09188205003738403
1772812240247862000,7.853862060546875,-0.079559326171875,0.03481762111186981,0.060488879680633545
1772812240257562600,7.863562744140625,-0.09971141815185547,0.0739278495311737,0.019464552402496338
1772812240267263200,7.87326318359375,-0.008931159973144531,0.025499403476715088,0.0002079010009765625
1772812240276963600,7.882963623046875,0.09817123413085938,0.023178905248641968,-0.0849652886390686
1772812240286664400,7.89266455078125,0.18253135681152344,0.008020535111427307,-0.11632227897644043
1772812240296365000,7.902364990234375,0.1349010467529297,0.006509378552436829,-0.1161963939666748
1772812240306065700,7.912065673828125,0.06687736511230469,-0.00732538104057312,-0.06641519069671631
1772812240315766300,7.921766357421875,0.0011768341064453125,0.016599029302597046,-0.0210990309715271
1772812240325467000,7.931466796875,-0.0657491683959961,0.0384179949760437,-0.009917914867401123
1772812240335167500,7.94116748046875,-0.08573341369628906,0.027122393250465393,0.00366055965423584
1772812240344868000,7.9508681640625,-0.10668373107910156,-0.010327741503715515,0.034591078758239746
1772812240354568700,7.960568603515625,-0.06377696990966797,-0.047820642590522766,0.05450916290283203
1772812240364269300,7.970269287109375,-0.028596878051757812,-0.025534257292747498,0.053531646728515625
1772812240373970000,7.979969970703125,-0.011632919311523438,-0.00424724817276001,0.03579258918762207
1772812240383670500,7.98967041015625,-0.012631416320800781,-0.012268587946891785,0.06328612565994263
1772812240393371100,7.99937109375,0.006405830383300781,-0.01603299379348755,0.07116496562957764
1772812240403071700,8.00907177734375,0.016901016235351562,-0.004474326968193054,0.04001116752624512
1772812240412772400,8.0187724609375,0.060169219970703125,-0.023127585649490356,0.0353245735168457
1772812240422473000,8.028472900390625,0.08972740173339844,-0.04957456886768341,0.03495818376541138
1772812240432173600,8.038173583984374,0.08820152282714844,-0.04614344239234924,-0.0039449334144592285
1772812240441874200,8.047874267578125,0.09728622436523438,0.01724134385585785,-0.05013477802276611
1772812240451574800,8.05757470703125,0.0874948501586914,0.0330304354429245,-0.07756203413009644
1772812240461275400,8.067275390625,0.056792259216308594,0.037526026368141174,-0.10076838731765747
1772812240470976000,8.07697607421875,-0.036895751953125,0.01976245641708374,-0.10864591598510742
1772812240480676600,8.086676513671875,-0.09253978729248047,-0.008364245295524597,-0.1014510989189148
1772812240490377200,8.096377197265625,-0.0955209732055664,0.020594879984855652,-0.07324635982513428
1772812240500077800,8.106077880859376,-0.11263275146484375,0.01699221134185791,-0.056833505630493164
1772812240509778400,8.1157783203125,-0.058929443359375,-0.0004108697175979614,0.0010191798210144043
1772812240519479000,8.12547900390625,-0.06262397766113281,-0.011652275919914246,0.020580828189849854
1772812240529179600,8.1351796875,-0.023871421813964844,-0.0003868788480758667,0.020661890506744385
1772812240538880300,8.14488037109375,0.0001125335693359375,0.0059175193309783936,0.03612971305847168
1772812240548581000,8.1545810546875,0.022470474243164062,0.008567854762077332,0.050648272037506104
1772812240558281500,8.164281494140624,0.006766319274902344,-0.00042085349559783936,0.06650388240814209
1772812240567982000,8.173982177734375,0.02195262908935547,-0.005351230502128601,0.04865545034408569
1772812240577682700,8.1836826171875,0.02869892120361328,-0.0060333311557769775,0.05780303478240967
1772812240587383300,8.19338330078125,0.008258819580078125,0.013363584876060486,0.022230982780456543
1772812240597084000,8.203083984375,0.013987541198730469,-0.013470694422721863,0.030141174793243408
1772812240606784800,8.21278466796875,0.027776718139648438,-0.05336713790893555,0.032970547676086426
1772812240616485400,8.2224853515625,0.03195762634277344,-0.03586743772029877,-0.005533993244171143
1772812240626186000,8.23218603515625,0.050296783447265625,-0.03795516490936279,-0.04324007034301758
1772812240635886600,8.241886474609375,0.02246570587158203,-0.02606034278869629,-0.04749608039855957
1772812240645587200,8.251587158203124,-0.008436203002929688,-0.025840282440185547,-0.04698306322097778
1772812240655287600,8.26128759765625,-0.00118255615234375,-0.018548160791397095,-0.038190603256225586
1772812240664988400,8.270988525390624,-0.005814552307128906,-0.018645763397216797,-0.031845033168792725
1772812240674689000,8.28068896484375,0.023726463317871094,-0.005894005298614502,-0.035943567752838135
1772812240684389600,8.2903896484375,0.011523246765136719,-0.0381883829832077,-0.036839306354522705
1772812240694090200,8.30009033203125,0.004252433776855469,-0.053584665060043335,-0.04145491123199463
1772812240703790800,8.309790771484375,-0.028688430786132812,-0.01915450394153595,-0.04457801580429077
1772812240713491500,8.319491455078126,-0.056305885314941406,0.0039185285568237305,-0.0109330415725708
1772812240723192000,8.329192138671875,-0.07645702362060547,-0.0345524400472641,0.03767693042755127
1772812240732892700,8.338892578125,-0.12581920623779297,-0.043312788009643555,0.05016881227493286
1772812240742593300,8.34859326171875,-0.07322978973388672,-0.026746362447738647,0.06165170669555664
1772812240752294000,8.3582939453125,-0.035617828369140625,-0.00711020827293396,0.05281186103820801
1772812240761994500,8.367994384765625,-0.008037567138671875,0.00027857720851898193,0.035858869552612305
1772812240771695000,8.377695068359374,-0.0174102783203125,0.0002593100070953369,0.018294572830200195
1772812240781395700,8.387395751953125,-0.017180442810058594,-0.005642220377922058,0.007736146450042725
1772812240791096300,8.397096435546874,-0.012198448181152344,-0.020698845386505127,0.029760539531707764
1772812240800797000,8.406796875,-0.0873270034790039,-0.03980889916419983,0.01748138666152954
1772812240810497500,8.41649755859375,-0.07533454895019531,-0.03772136569023132,0.05125725269317627
1772812240820198100,8.4261982421875,-0.04948711395263672,-0.02042965590953827,0.009528636932373047
1772812240829898800,8.435898681640625,0.015852928161621094,0.004132196307182312,-0.04375100135803223
1772812240839599400,8.445599365234376,0.1142263412475586,0.02885057032108307,-0.10544025897979736
1772812240849300000,8.455300048828125,0.226348876953125,0.027454301714897156,-0.15131771564483643
1772812240859000600,8.46500048828125,0.24850082397460938,-0.022138670086860657,-0.14171773195266724
1772812240868701200,8.474701171875,0.21038150787353516,-0.07644307613372803,-0.08549845218658447
1772812240878401800,8.48440185546875,0.1447134017944336,-0.023359060287475586,-0.007993578910827637
1772812240888102400,8.494102294921875,0.0377197265625,0.007383495569229126,0.07608848810195923
1772812240897803000,8.503802978515624,-0.04056262969970703,0.018752172589302063,0.09871488809585571
1772812240907503600,8.513503662109375,-0.10114192962646484,0.041924625635147095,0.14490634202957153
1772812240917204200,8.523204345703125,-0.07599925994873047,0.011757522821426392,0.11470788717269897
1772812240926904800,8.53290478515625,-0.07831096649169922,-0.01037512719631195,0.11761707067489624
1772812240936605400,8.54260546875,-0.1817913055419922,-0.04906615614891052,0.08060997724533081
1772812240946306000,8.55230615234375,-0.1800212860107422,-0.08396407961845398,0.02963012456893921
1772812240956006700,8.562006591796875,-0.2148427963256836,-0.025021597743034363,-0.03672760725021362
1772812240965707300,8.571707275390626,-0.17852783203125,-0.0011434406042099,-0.0739898681640625
1772812240975407900,8.581407958984375,-0.12040901184082031,-0.004121750593185425,-0.11161315441131592
1772812240985108500,8.5911083984375,0.00035762786865234375,0.04955029487609863,-0.10123986005783081
1772812240994809300,8.600809326171875,0.11913204193115234,0.010082244873046875,-0.055543601512908936
1772812241004510000,8.610510009765624,0.21825885772705078,-0.008122175931930542,-0.013246595859527588
1772812241014210600,8.62021044921875,0.2674388885498047,-0.002369493246078491,-0.005547583103179932
1772812241023911200,8.6299111328125,0.28409862518310547,0.037072718143463135,-0.027409136295318604
1772812241033611500,8.639611572265625,0.1993722915649414,0.04610443115234375,-0.07980626821517944
1772812241043312000,8.64931201171875,0.08905601501464844,0.031621962785720825,-0.10485535860061646
1772812241053013000,8.659012939453126,-0.007636070251464844,0.0465913861989975,-0.10755425691604614
1772812241062713600,8.668713623046875,-0.11331939697265625,0.014768406748771667,-0.07518893480300903
1772812241072414200,8.678414306640626,-0.18665027618408203,-0.018086597323417664,-0.10274267196655273
1772812241082114800,8.68811474609375,-0.21753692626953125,-0.007952556014060974,-0.06269347667694092
1772812241091815400,8.6978154296875,-0.22675323486328125,0.0042218416929244995,-0.04130518436431885
1772812241101516000,8.70751611328125,-0.2417430877685547,-0.0014111101627349854,0.003146231174468994
1772812241111216600,8.717216552734374,-0.2364950180053711,0.024776801466941833,0.01823502779006958
1772812241120917200,8.726917236328125,-0.15836048126220703,0.049352824687957764,0.06312799453735352
1772812241130617900,8.736617919921875,-0.08856773376464844,0.05999016761779785,0.06940913200378418
1772812241140318500,8.746318359375,-0.028275489807128906,0.04982121288776398,0.05546462535858154
1772812241150019000,8.75601904296875,0.021429061889648438,0.014662623405456543,0.09545469284057617
1772812241159719700,8.7657197265625,0.09965038299560547,0.005586385726928711,0.0852699875831604
1772812241169420300,8.775420166015625,0.19318008422851562,0.021263539791107178,0.04962301254272461
1772812241179121000,8.785120849609376,0.25702381134033203,0.021043971180915833,0.01398402452468872
1772812241188821500,8.794821533203125,0.2445240020751953,-0.01803651452064514,-0.012539803981781006
1772812241198522000,8.804522216796874,0.24283504486083984,-0.02857433259487152,-0.059691011905670166
1772812241208222700,8.81422265625,0.2188282012939453,-0.003951817750930786,-0.11175775527954102
1772812241217923300,8.82392333984375,0.17882061004638672,0.0014060884714126587,-0.13283777236938477
1772812241227624000,8.8336240234375,0.10900402069091797,0.004002958536148071,-0.10288643836975098
1772812241237324500,8.843324462890624,0.03340625762939453,-0.004284590482711792,-0.0968974232673645
1772812241247025200,8.853025146484375,-0.03856945037841797,0.05043686926364899,-0.0723567008972168
1772812241256725800,8.862725830078125,-0.0976724624633789,0.06081444025039673,0.0265997052192688
1772812241266426400,8.87242626953125,-0.15239810943603516,0.0724124014377594,0.1156080961227417
1772812241276127000,8.882126953125,-0.14032840728759766,0.06613199412822723,0.11351585388183594
1772812241285827600,8.89182763671875,-0.14021873474121094,0.05185951292514801,0.10997909307479858
1772812241295528200,8.901528076171875,-0.1295452117919922,0.03625445067882538,0.08423507213592529
1772812241305228800,8.911228759765624,-0.10144519805908203,0.010172873735427856,0.03917282819747925
1772812241314929700,8.9209296875,-0.06919574737548828,-0.019869938492774963,0.029804110527038574
1772812241324630000,8.930630126953124,0.014233589172363281,-0.027836710214614868,0.030655503273010254
1772812241334330600,8.94033056640625,0.1210184097290039,-0.015032708644866943,0.03726041316986084
1772812241344031200,8.95003125,0.18255043029785156,0.01764453947544098,0.03299838304519653
1772812241353731800,8.95973193359375,0.15366649627685547,-0.007437273859977722,0.05011129379272461
1772812241363432400,8.969432373046875,0.07585620880126953,-0.029166817665100098,0.036422550678253174
1772812241373133300,8.97913330078125,0.045226097106933594,0.0029636025428771973,-0.0006784796714782715
1772812241382834000,8.988833984375,-0.017859458923339844,0.02836272120475769,-0.05235445499420166
1772812241392534500,8.998534423828126,-0.030435562133789062,0.044928789138793945,-0.10969114303588867
1772812241402235100,9.008235107421875,-0.021516799926757812,0.01237073540687561,-0.14490413665771484
1772812241411935700,9.017935791015624,0.019118309020996094,0.017013534903526306,-0.13819622993469238
1772812241421636000,9.027635986328125,0.030823707580566406,0.0233781635761261,-0.06427121162414551
1772812241431337000,9.0373369140625,0.017543792724609375,-0.012260988354682922,0.02115553617477417
1772812241441037600,9.04703759765625,0.05271434783935547,-0.010804906487464905,0.0854310393333435
1772812241450738200,9.05673828125,0.06495952606201172,0.017778128385543823,0.10870915651321411
1772812241460438800,9.066438720703125,0.028759002685546875,0.02187889814376831,0.12354874610900879
1772812241470139400,9.076139404296875,-0.030364990234375,0.007723316550254822,0.08624321222305298
1772812241479840000,9.085840087890626,-0.08977413177490234,-0.004253759980201721,0.0656508207321167
1772812241489540600,9.09554052734375,-0.1353616714477539,-0.0432712584733963,0.055666565895080566
1772812241499241200,9.1052412109375,-0.14723777770996094,-0.06967613101005554,0.03724801540374756
1772812241508941800,9.11494189453125,-0.10236740112304688,-0.03434589505195618,-0.0242387056350708
1772812241518642400,9.124642333984376,-0.0641632080078125,-0.0484188050031662,-0.007987678050994873
1772812241528343000,9.134343017578125,0.006232261657714844,-0.04595561325550079,-0.0014710426330566406
1772812241538043600,9.144043701171874,0.09777259826660156,-0.012243330478668213,0.017152726650238037
1772812241547744300,9.153744140625,0.1159372329711914,0.015906915068626404,0.08128565549850464
1772812241557444900,9.16344482421875,0.11491012573242188,-0.03673623502254486,0.12295204401016235
1772812241567145500,9.1731455078125,0.057422637939453125,-0.021366029977798462,0.11358422040939331
1772812241576846000,9.18284619140625,0.0021600723266601562,-0.005124509334564209,0.08706420660018921
1772812241586546700,9.192546630859376,-0.04028892517089844,-0.004716426134109497,0.011308789253234863
1772812241596247300,9.202247314453125,-0.03131294250488281,-0.07027232646942139,-0.14467072486877441
1772812241605948000,9.211947998046876,0.011697769165039062,-0.0764249861240387,-0.27648645639419556
1772812241615648500,9.2216484375,0.05166435241699219,-0.045234307646751404,-0.28157246112823486
1772812241625349000,9.23134912109375,0.07694816589355469,-0.015952005982398987,-0.18495047092437744
1772812241635049700,9.2410498046875,0.025358200073242188,0.005377784371376038,-0.014493465423583984
1772812241644750300,9.250750244140624,-0.06307220458984375,0.0356643944978714,0.12191426753997803
1772812241654451000,9.260450927734375,-0.15250587463378906,0.08343520760536194,0.19580209255218506
1772812241664151600,9.270151611328124,-0.2558889389038086,0.06927354633808136,0.2599834203720093
1772812241673852200,9.27985205078125,-0.24118804931640625,-0.008425161242485046,0.25314390659332275
1772812241683552800,9.289552734375,-0.2386159896850586,-0.05140770971775055,0.1554688811302185
1772812241693253400,9.29925341796875,-0.17377185821533203,-0.03906570374965668,0.11121159791946411
1772812241702954000,9.3089541015625,-0.030010223388671875,-0.04226092994213104,0.036957740783691406
1772812241712654600,9.318654541015626,0.10895633697509766,-0.06703507900238037,-0.03900718688964844
1772812241722355200,9.328355224609375,0.21035289764404297,-0.0820557177066803,-0.14890402555465698
1772812241732055800,9.338055908203126,0.2490825653076172,-0.07187454402446747,-0.17360913753509521
1772812241741756400,9.34775634765625,0.2110147476196289,-0.012040778994560242,-0.1512758731842041
1772812241751457000,9.35745703125,0.17607784271240234,0.07108932733535767,-0.09418582916259766
1772812241761158000,9.367157958984375,0.08503150939941406,0.04952777922153473,-0.02296304702758789
1772812241770858500,9.3768583984375,0.04113292694091797,-0.036997824907302856,0.010860025882720947
1772812241780559000,9.38655908203125,0.06267738342285156,-0.018572494387626648,0.01959007978439331
1772812241790259700,9.396259765625,0.04634666442871094,-0.029745399951934814,-0.001156628131866455
1772812241799960000,9.4059599609375,-0.0743560791015625,-0.04051724076271057,-0.026860713958740234
1772812241809660700,9.41566064453125,-0.19301700592041016,0.004426479339599609,-0.04944276809692383
1772812241819361500,9.425361572265626,-0.2767772674560547,0.04779878258705139,-0.08517354726791382
1772812241829062100,9.435062255859375,-0.28268909454345703,0.06750378012657166,-0.01503288745880127
1772812241838762800,9.4447626953125,-0.22623920440673828,0.04375489056110382,0.06375032663345337
1772812241848463400,9.45446337890625,-0.19084548950195312,-0.03861987590789795,0.050519466400146484
1772812241858164000,9.4641640625,-0.18425273895263672,-0.03634973615407944,0.04665172100067139
1772812241867864600,9.473864501953125,-0.14712047576904297,0.06591342389583588,0.02791595458984375
1772812241877565200,9.483565185546874,-0.05541706085205078,0.09844127297401428,0.08461552858352661
1772812241887265800,9.493265869140625,0.008725166320800781,-0.014831647276878357,0.11283361911773682
1772812241896966400,9.50296630859375,0.20488357543945312,-0.07712362706661224,0.09728884696960449
1772812241906667000,9.5126669921875,0.2953643798828125,-0.062134332954883575,0.08185142278671265
1772812241916367600,9.52236767578125,0.31830310821533203,-0.04728500545024872,0.05559980869293213
1772812241926068200,9.532068115234376,0.4091062545776367,0.006506703794002533,0.024110615253448486
1772812241935768800,9.541768798828125,0.40416717529296875,0.02931889146566391,-0.04072815179824829
1772812241945469400,9.551469482421876,0.3686513900756836,-0.01026654988527298,-0.09635579586029053
1772812241955170000,9.561170166015625,0.323272705078125,-0.00859852135181427,-0.14137554168701172
1772812241964870700,9.57087060546875,0.2777547836303711,-0.018234170973300934,-0.22577059268951416
1772812241974571300,9.5805712890625,0.05550861358642578,0.0043793171644210815,-0.23955315351486206
1772812241984272000,9.59027197265625,-0.09808635711669922,-0.0003932565450668335,-0.20147424936294556
1772812241993972500,9.599972412109375,-0.24903011322021484,-0.00746464729309082,-0.1581730842590332
1772812242003673000,9.609673095703124,-0.4116487503051758,0.0028405189514160156,-0.06960487365722656
1772812242013373700,9.619373779296875,-0.5176105499267578,0.008284151554107666,-0.0074349045753479
1772812242023074300,9.62907421875,-0.4829721450805664,0.023917704820632935,0.030530452728271484
1772812242032775000,9.63877490234375,-0.35594654083251953,0.0580185204744339,0.08360922336578369
1772812242042475500,9.6484755859375,-0.23950862884521484,0.06312227249145508,0.17913687229156494
1772812242052176100,9.658176025390626,-0.13582611083984375,0.06595753133296967,0.23425662517547607
1772812242061876700,9.667876708984375,0.011984825134277344,0.05495376139879227,0.25363796949386597
1772812242071577300,9.677577392578126,0.1056375503540039,0.03185822814702988,0.21226710081100464
1772812242081278200,9.6872783203125,0.17661285400390625,0.000430181622505188,0.12417042255401611
1772812242090978600,9.696978515625,0.20044612884521484,-0.021555423736572266,0.024406373500823975
1772812242100679200,9.70667919921875,0.23917198181152344,-0.007635392248630524,-0.0522424578666687
1772812242110379800,9.7163798828125,0.2997446060180664,-0.07068575918674469,-0.09227079153060913
1772812242120080400,9.726080322265625,0.25583934783935547,-0.05473241209983826,-0.14265072345733643
1772812242129781000,9.735781005859375,0.20569133758544922,-0.021908745169639587,-0.14581704139709473
1772812242139481900,9.74548193359375,0.13173675537109375,-0.04801977053284645,-0.14829683303833008
1772812242149182500,9.755182373046875,0.008481025695800781,-0.03939943388104439,-0.13131141662597656
1772812242158883000,9.764883056640626,-0.019646644592285156,0.025185033679008484,-0.11485666036605835
1772812242168583700,9.774583740234375,-0.053234100341796875,0.03881444036960602,-0.05590558052062988
1772812242178284300,9.7842841796875,-0.09814071655273438,0.030294202268123627,0.05257749557495117
1772812242187985000,9.79398486328125,-0.085845947265625,0.026983976364135742,0.11117225885391235
1772812242197685200,9.803685302734374,-0.13856029510498047,-0.000505402684211731,0.12149977684020996
1772812242207386000,9.81338623046875,-0.13992881774902344,-0.003909751772880554,0.1386188268661499
1772812242217086700,9.823086669921874,-0.14137935638427734,-0.02539907395839691,0.08468055725097656
1772812242226787300,9.832787353515625,-0.08630752563476562,-0.0444965586066246,0.05948549509048462
1772812242236488000,9.842488037109375,-0.046225547790527344,-0.05142038315534592,0.015408098697662354
1772812242246188500,9.8521884765625,-0.04089069366455078,-0.04169329255819321,-0.002421140670776367
1772812242255889200,9.86188916015625,-0.02263927459716797,-0.013885319232940674,-0.045397818088531494
1772812242265589800,9.87158984375,-0.049399375915527344,0.030703619122505188,-0.04886728525161743
1772812242275290400,9.881290283203125,-0.07923603057861328,0.001718282699584961,-0.04059898853302002
1772812242284991000,9.890990966796876,-0.0543365478515625,-0.022828295826911926,-0.06668180227279663
1772812242294691600,9.900691650390625,-0.04624176025390625,-0.0009923353791236877,-0.04724764823913574
1772812242304392200,9.91039208984375,-0.008722305297851562,0.03376931697130203,-0.07320070266723633
1772812242314092800,9.9200927734375,0.05057048797607422,0.07390229403972626,-0.07220578193664551
1772812242323793400,9.92979345703125,0.052196502685546875,0.05202221870422363,0.006126284599304199
1772812242333494000,9.939493896484375,0.10537052154541016,0.05829458683729172,0.08278506994247437
1772812242343194600,9.949194580078125,0.25068187713623047,0.02613278478384018,0.14809072017669678
1772812242352895200,9.958895263671875,0.2981901168823242,-0.028611205518245697,0.19935905933380127
1772812242362595800,9.968595947265625,0.2318744659423828,-0.01679326221346855,0.20517337322235107
1772812242372296400,9.97829638671875,0.34920215606689453,-0.04237375408411026,0.11164408922195435
