time,seconds_elapsed,z,y,x
1772812423067567600,0.087567626953125,0,0,0
1772812423077268500,0.0972685546875,0.057944297790527344,0.0012059211730957031,-0.01865692436695099
1772812423086969000,0.106968994140625,0.03218364715576172,0.02244645357131958,-0.02591685950756073
1772812423096669700,0.116669677734375,0.042044639587402344,-0.03486707806587219,-0.02569793164730072
1772812423106370600,0.12637060546875,0.021172523498535156,-0.02259206771850586,-0.018485814332962036
1772812423116071200,0.1360712890625,0.028603553771972656,-0.003194570541381836,-0.06550510972738266
1772812423125771800,0.145771728515625,0.017287254333496094,0.028249680995941162,-0.05402425676584244
1772812423135472400,0.155472412109375,-0.06241798400878906,0.058541834354400635,-0.03390580415725708
1772812423145173200,0.16517333984375,0.0965890884399414,0.032560527324676514,-0.08484629541635513
1772812423154873900,0.174873779296875,0.033141136169433594,0.06220319867134094,-0.03390498459339142
1772812423164574500,0.184574462890625,-0.00024700164794921875,0.07784384489059448,0.09523892402648926
1772812423174275000,0.194275146484375,-0.03524303436279297,0.14147335290908813,0.14081591367721558
1772812423183976000,0.203975830078125,0.0769357681274414,0.08837838470935822,0.14127536118030548
1772812423193676500,0.213676513671875,0.11931419372558594,0.00795331597328186,0.1429922729730606
1772812423203377200,0.223377197265625,0.15048599243164062,-0.022079825401306152,0.15933573246002197
1772812423213077800,0.233077880859375,0.3104438781738281,-0.04563459753990173,0.08330509066581726
1772812423222778600,0.242778564453125,0.30449485778808594,-0.020035088062286377,0.011940538883209229
1772812423232479200,0.252479248046875,0.25467967987060547,0.030005156993865967,-0.03294728696346283
1772812423242179800,0.262179931640625,0.20258426666259766,0.04179561138153076,-0.05909452587366104
1772812423251880700,0.271880615234375,0.10704994201660156,0.032890886068344116,-0.03416627645492554
1772812423261581300,0.281581298828125,-0.009855270385742188,0.023624032735824585,0.001634940505027771
1772812423271282000,0.291281982421875,-0.10773563385009766,0.030562400817871094,0.013057008385658264
1772812423280982500,0.300982421875,-0.12255859375,0.03779563307762146,0.03976720571517944
1772812423290683400,0.310683349609375,-0.12318992614746094,0.05337265133857727,0.09792128205299377
1772812423300384000,0.320384033203125,-0.11366653442382812,0.049736618995666504,0.16074220836162567
1772812423310084600,0.330084716796875,-0.08396339416503906,0.04122042655944824,0.1396501660346985
1772812423319785500,0.339785400390625,-0.08310794830322266,0.07482948899269104,0.0967353880405426
1772812423329486000,0.349486083984375,-0.06044483184814453,0.08106090128421783,0.05306428670883179
1772812423339186700,0.359186767578125,-0.03398895263671875,0.07164669036865234,0.0532623827457428
1772812423348887600,0.368887451171875,-0.017728805541992188,0.045584529638290405,0.11286696791648865
1772812423358588200,0.378588134765625,0.02227306365966797,-0.009533971548080444,0.1270897537469864
1772812423368288800,0.388288818359375,0.0725851058959961,-0.00006917119026184082,0.10625223815441132
1772812423377989400,0.3979892578125,0.1179046630859375,0.01443752646446228,0.10030262172222137
1772812423387690200,0.407690185546875,0.1445627212524414,-0.0031767189502716064,0.04095920920372009
1772812423397390800,0.417390869140625,0.17289352416992188,0.01796489953994751,-0.006150051951408386
1772812423407091500,0.427091552734375,0.1203012466430664,0.006600111722946167,0.006268396973609924
1772812423416792000,0.4367919921875,0.06455421447753906,-0.017160803079605103,-0.032085269689559937
1772812423426493000,0.446492919921875,-0.0048122406005859375,-0.0013474524021148682,-0.049291446805000305
1772812423436193500,0.456193603515625,-0.03740692138671875,0.0066460371017456055,-0.079058438539505
1772812423445894100,0.46589404296875,-0.07618904113769531,-0.013083577156066895,-0.047700464725494385
1772812423455595000,0.475594970703125,-0.0872030258178711,-0.04714331030845642,-0.005991742014884949
1772812423465295600,0.485295654296875,-0.10033798217773438,-0.05361968278884888,0.024974092841148376
1772812423474996200,0.494996337890625,-0.11903667449951172,-0.05492132902145386,0.03324848413467407
1772812423484696800,0.50469677734375,-0.12096786499023438,-0.05296400189399719,0.021068766713142395
1772812423494397700,0.514397705078125,-0.12874507904052734,-0.01382756233215332,0.0084514319896698
1772812423504098300,0.524098388671875,-0.08722686767578125,0.00326654314994812,-0.03889712691307068
1772812423513799000,0.533798828125,-0.038402557373046875,0.030372947454452515,-0.05848833918571472
1772812423523499500,0.54349951171875,0.019959449768066406,0.05031013488769531,-0.04668909311294556
1772812423533200400,0.553200439453125,0.07711601257324219,0.04694828391075134,-0.016253873705863953
1772812423542901000,0.56290087890625,0.12841224670410156,-0.03158256411552429,0.06584857404232025
1772812423552601600,0.5726015625,0.1763315200805664,-0.08572173118591309,0.07918256521224976
1772812423562302500,0.582302490234375,0.19632911682128906,-0.07985547184944153,0.07880902290344238
1772812423572003000,0.592003173828125,0.21128177642822266,-0.04516497254371643,0.03011956810951233
1772812423581703700,0.60170361328125,0.16377735137939453,-0.004924386739730835,-0.025020793080329895
1772812423591404500,0.611404541015625,0.1254110336303711,0.021503537893295288,-0.0321880578994751
1772812423601105200,0.621105224609375,0.053704261779785156,0.02884155511856079,-0.0005359649658203125
1772812423610805800,0.6308056640625,0.015041351318359375,0.03315344452857971,0.007683083415031433
1772812423620506600,0.640506591796875,-0.053475379943847656,0.038445115089416504,-0.005948513746261597
1772812423630207200,0.650207275390625,-0.10084724426269531,0.04711025953292847,0.04089149832725525
1772812423639907800,0.659907958984375,-0.1086721420288086,0.01364213228225708,0.12466800212860107
1772812423649608400,0.6696083984375,-0.06344890594482422,-0.02186805009841919,0.14901524782180786
1772812423659309300,0.679309326171875,-0.03309059143066406,-0.01529589295387268,0.07843747735023499
1772812423669010000,0.689010009765625,-0.056120872497558594,0.0557938814163208,0.0000725090503692627
1772812423678710500,0.69871044921875,-0.10810279846191406,0.10901123285293579,-0.056950509548187256
1772812423688411100,0.7084111328125,-0.2179737091064453,0.10791033506393433,-0.04770585894584656
1772812423698112000,0.718112060546875,-0.23656177520751953,0.03758889436721802,-0.009792372584342957
1772812423707812600,0.7278125,-0.18545055389404297,-0.019266188144683838,0.09464362263679504
1772812423717513200,0.73751318359375,-0.06463432312011719,-0.10105583071708679,0.1626681089401245
1772812423727213800,0.7472138671875,0.06002330780029297,-0.07810333371162415,0.08774913847446442
1772812423736914700,0.756914794921875,0.12613201141357422,-0.059357523918151855,-0.016364887356758118
1772812423746615300,0.766615234375,0.12409687042236328,0.009818941354751587,-0.0963762179017067
1772812423756316000,0.77631591796875,0.05386924743652344,0.009411662817001343,-0.11588329076766968
1772812423766016500,0.7860166015625,0.0130615234375,-0.024516254663467407,-0.11474457383155823
1772812423775717400,0.79571728515625,-0.05763435363769531,-0.03790944814682007,-0.0856671929359436
1772812423785418000,0.80541796875,-0.07184219360351562,-0.04075205326080322,-0.07522965967655182
1772812423795118600,0.81511865234375,-0.03638458251953125,-0.05491331219673157,-0.044960081577301025
1772812423804819200,0.824819091796875,0.01493072509765625,-0.041315048933029175,-0.011754974722862244
1772812423814520000,0.83452001953125,0.07829856872558594,-0.012693315744400024,-0.007739037275314331
1772812423824220700,0.844220703125,0.11234188079833984,0.02115011215209961,0.0026156604290008545
1772812423833921300,0.85392138671875,0.13050174713134766,0.068560391664505,0.015586361289024353
1772812423843622100,0.8636220703125,0.11069869995117188,0.07583510875701904,0.03394690155982971
1772812423853322800,0.87332275390625,0.0653390884399414,0.04813387989997864,0.06944002211093903
1772812423863023400,0.8830234375,0.04185962677001953,0.0363183319568634,0.12939609587192535
1772812423872724200,0.89272412109375,0.07638168334960938,-0.00935506820678711,0.13377448916435242
1772812423882424800,0.9024248046875,0.11030006408691406,-0.010146230459213257,0.1114182323217392
1772812423892125400,0.91212548828125,0.10245895385742188,0.039986371994018555,0.05359680950641632
1772812423901826300,0.921826416015625,0.0735921859741211,0.04877978563308716,-0.012065812945365906
1772812423911527000,0.93152685546875,-0.0006456375122070312,0.03259691596031189,-0.06522341072559357
1772812423921227500,0.9412275390625,-0.09125518798828125,0.006708770990371704,-0.06193260848522186
1772812423930928000,0.95092822265625,-0.1379556655883789,-0.017543554306030273,-0.05310584604740143
1772812423940629000,0.96062890625,-0.21205997467041016,-0.0419309139251709,-0.03593713045120239
1772812423950329600,0.97032958984375,-0.24840164184570312,-0.06040048599243164,-0.00916290283203125
1772812423960030200,0.9800302734375,-0.232330322265625,-0.031087011098861694,0.005980163812637329
1772812423969730800,0.989730712890625,-0.1753082275390625,0.003812849521636963,0.007056578993797302
1772812423979431700,0.999431640625,-0.13332557678222656,0.01763862371444702,0.04815538227558136
1772812423989132300,1.00913232421875,-0.042647361755371094,-0.009030163288116455,0.09144826233386993
1772812423998833000,1.0188330078125,0.04057598114013672,-0.037874430418014526,0.1299176663160324
1772812424008533500,1.028533447265625,0.11647415161132812,-0.02001398801803589,0.1094236820936203
1772812424018234400,1.038234375,0.16638755798339844,0.034849345684051514,0.05786658823490143
1772812424027935000,1.04793505859375,0.1625347137451172,0.08332768082618713,-0.02612544596195221
1772812424037635600,1.057635498046875,0.1317148208618164,0.09764012694358826,-0.06635402143001556
1772812424047336400,1.06733642578125,0.12843894958496094,0.08570283651351929,-0.0687180757522583
1772812424057037000,1.077037109375,0.1380758285522461,0.03863024711608887,0.011576592922210693
1772812424066737700,1.086737548828125,0.2157268524169922,-0.05356833338737488,0.019565999507904053
1772812424076438300,1.096438232421875,0.234375,-0.056123584508895874,-0.016288921236991882
1772812424086139100,1.10613916015625,0.1985492706298828,-0.041188836097717285,-0.05272151529788971
1772812424095839700,1.11583984375,0.10096263885498047,-0.03626066446304321,-0.0826747864484787
1772812424105540400,1.125540283203125,-0.03849601745605469,-0.04302379488945007,-0.11091410368680954
1772812424115241000,1.135240966796875,-0.17792034149169922,-0.06769689917564392,-0.07466685771942139
1772812424124941800,1.14494189453125,-0.2702455520629883,-0.047835856676101685,-0.050164833664894104
1772812424134642400,1.154642333984375,-0.28096771240234375,-0.01839187741279602,-0.019600018858909607
1772812424144343300,1.16434326171875,-0.19263648986816406,-0.010178834199905396,0.035671308636665344
1772812424154044000,1.1740439453125,-0.1057729721069336,-0.030560672283172607,0.08364604413509369
1772812424163744500,1.18374462890625,-0.04391193389892578,-0.029523372650146484,0.12981025874614716
1772812424173445000,1.193445068359375,-0.010174751281738281,-0.048823535442352295,0.14825965464115143
1772812424183146000,1.20314599609375,-0.006442070007324219,-0.03244897723197937,0.12466341257095337
1772812424192846600,1.2128466796875,-0.06632137298583984,0.00006586313247680664,0.12230904400348663
1772812424202547200,1.222547119140625,-0.13108444213867188,-0.0036721229553222656,0.11546236276626587
1772812424212247800,1.232247802734375,-0.17824745178222656,0.013164550065994263,0.07883165776729584
1772812424221948700,1.24194873046875,-0.2010364532470703,0.019731730222702026,0.0598069429397583
1772812424231649300,1.251649169921875,-0.1927785873413086,0.029025912284851074,0.0122537761926651
1772812424241350000,1.261349853515625,-0.15398025512695312,0.054872065782547,-0.06283912062644958
1772812424251050800,1.27105078125,-0.11220932006835938,0.08059409260749817,-0.12495622038841248
1772812424260751400,1.28075146484375,-0.04400157928466797,0.10382655262947083,-0.17335113883018494
1772812424270452000,1.290451904296875,0.019578933715820312,0.1274629533290863,-0.20188605785369873
1772812424280152600,1.300152587890625,0.11385631561279297,0.10816827416419983,-0.1729903519153595
1772812424289853400,1.309853515625,0.1853351593017578,0.07753890752792358,-0.14744210243225098
1772812424299554000,1.319553955078125,0.24612140655517578,0.05241268873214722,-0.12324835360050201
1772812424309254700,1.329254638671875,0.28813648223876953,0.01700696349143982,-0.11100485175848007
1772812424318955300,1.338955322265625,0.28342151641845703,0.015639424324035645,-0.08547617495059967
1772812424328656100,1.34865625,0.27631187438964844,0.0021438300609588623,-0.07369282841682434
1772812424338356700,1.358356689453125,0.22454357147216797,0.0021563172340393066,-0.07715579867362976
1772812424348057300,1.368057373046875,0.13245391845703125,-0.0030198097229003906,-0.09900123625993729
1772812424357758000,1.377758056640625,0.04194355010986328,-0.03296142816543579,-0.09328430891036987
1772812424367458800,1.387458740234375,-0.03526115417480469,-0.05284082889556885,-0.08142254501581192
1772812424377159400,1.397159423828125,-0.05231285095214844,-0.060304462909698486,-0.05195246636867523
1772812424386860000,1.406860107421875,-0.033766746520996094,-0.06597846746444702,-0.0003691762685775757
1772812424396561000,1.416560791015625,-0.017882347106933594,-0.040228307247161865,0.07981672883033752
1772812424406261500,1.426261474609375,-0.0010662078857421875,-0.01989227533340454,0.15681758522987366
1772812424415962000,1.435962158203125,-0.03746795654296875,-0.024739712476730347,0.22024807333946228
1772812424425663000,1.4456630859375,-0.080291748046875,-0.006267070770263672,0.25024908781051636
1772812424435363600,1.455363525390625,-0.07766437530517578,0.05199378728866577,0.22483062744140625
1772812424445064200,1.465064208984375,-0.0644826889038086,0.08663633465766907,0.22507479786872864
1772812424454764800,1.474764892578125,-0.012693405151367188,0.10797679424285889,0.2045111060142517
1772812424464465700,1.484465576171875,0.03587818145751953,0.12495282292366028,0.1642976999282837
1772812424474166300,1.494166259765625,0.04363727569580078,0.13517355918884277,0.1494460552930832
1772812424483867000,1.503866943359375,0.0030145645141601562,0.14240285754203796,0.13219772279262543
1772812424493567700,1.513567626953125,-0.04048347473144531,0.10238918662071228,0.08450424671173096
1772812424503268400,1.523268310546875,-0.10206985473632812,0.06369441747665405,0.05044785141944885
1772812424512969000,1.532968994140625,-0.10258102416992188,0.016158103942871094,0.003088518977165222
1772812424522669600,1.542669677734375,-0.08774185180664062,0.003007829189300537,-0.05357034504413605
1772812424532370400,1.552370361328125,-0.04369640350341797,0.019786953926086426,-0.12592767179012299
1772812424542071000,1.562071044921875,-0.014459609985351562,0.0024705231189727783,-0.19477398693561554
1772812424551771600,1.571771728515625,0.023715972900390625,-0.0368880033493042,-0.21494123339653015
1772812424561472300,1.58147216796875,0.038898468017578125,-0.05349579453468323,-0.21148362755775452
1772812424571173000,1.591173095703125,0.07146453857421875,-0.06535214185714722,-0.18454141914844513
1772812424580873700,1.600873779296875,0.10933494567871094,-0.07879394292831421,-0.14704158902168274
1772812424590574300,1.61057421875,0.10065364837646484,-0.09618180990219116,-0.11217328906059265
1772812424600275000,1.62027490234375,0.09559059143066406,-0.09423863887786865,-0.05747365951538086
1772812424609975800,1.629975830078125,0.1128997802734375,-0.07822251319885254,0.016489312052726746
1772812424619676400,1.639676513671875,0.12162303924560547,-0.05316591262817383,0.03953436017036438
1772812424629377000,1.649376953125,0.1030874252319336,-0.04257810115814209,0.058309406042099
1772812424639077600,1.65907763671875,0.0671854019165039,-0.004585564136505127,0.07292087376117706
1772812424648778500,1.668778564453125,0.025994300842285156,0.03974995017051697,0.08143839240074158
1772812424658479000,1.67847900390625,-0.022721290588378906,0.06730419397354126,0.11446806788444519
1772812424668179700,1.6881796875,-0.07176589965820312,0.07285568118095398,0.14623965322971344
1772812424677880600,1.697880615234375,-0.09289932250976562,0.05933818221092224,0.19607412815093994
1772812424687581200,1.707581298828125,-0.10188674926757812,0.026866376399993896,0.23645959794521332
1772812424697281800,1.71728173828125,-0.10714054107666016,0.052510470151901245,0.21881234645843506
1772812424706982700,1.726982666015625,-0.06519317626953125,0.09996485710144043,0.17794540524482727
1772812424716683300,1.736683349609375,-0.04506969451904297,0.09088674187660217,0.11473651230335236
1772812424726383900,1.7463837890625,-0.01700592041015625,0.07767218351364136,0.051742538809776306
1772812424736084500,1.75608447265625,0.012945175170898438,0.05167728662490845,0.04253464937210083
1772812424745785300,1.765785400390625,0.044716835021972656,0.021071016788482666,0.0402427613735199
1772812424755486000,1.77548583984375,0.07941532135009766,-0.0028444528579711914,0.03931790590286255
1772812424765186600,1.7851865234375,0.10640239715576172,-0.05696690082550049,0.010725319385528564
1772812424774887200,1.79488720703125,0.11757850646972656,-0.06336373090744019,-0.017889797687530518
1772812424784588000,1.804588134765625,0.11204814910888672,-0.05453139543533325,-0.06853131949901581
1772812424794288600,1.81428857421875,0.08774757385253906,-0.05517071485519409,-0.12417768687009811
1772812424803989200,1.8239892578125,0.048537254333496094,-0.07293403148651123,-0.1337876170873642
1772812424813689900,1.83368994140625,0.014689445495605469,-0.08448141813278198,-0.11632058024406433
1772812424823390700,1.843390625,-0.013871192932128906,-0.09779196977615356,-0.06353722512722015
1772812424833091300,1.85309130859375,0.00043964385986328125,-0.07824128866195679,-0.036068469285964966
1772812424842792000,1.8627919921875,0.00043773651123046875,-0.07567667961120605,-0.008449465036392212
1772812424852492500,1.872492431640625,0.02868938446044922,-0.058525264263153076,0.0027536600828170776
1772812424862193400,1.882193359375,0.064697265625,-0.027566730976104736,0.008324116468429565
1772812424871894000,1.89189404296875,0.10709953308105469,-0.02746748924255371,0.01799599826335907
1772812424881594600,1.9015947265625,0.14283275604248047,-0.048673033714294434,0.0291135311126709
1772812424891295200,1.911295166015625,0.1084756851196289,-0.027472496032714844,0.03780350089073181
1772812424900996000,1.92099609375,0.09346580505371094,-0.008995592594146729,0.04081542789936066
1772812424910696700,1.93069677734375,0.04102134704589844,-0.0059410929679870605,0.03941689431667328
1772812424920397600,1.9403974609375,-0.043483734130859375,-0.020763278007507324,0.04783877730369568
1772812424930098200,1.95009814453125,-0.10184478759765625,0.0026397705078125,0.08269612491130829
1772812424939798800,1.959798828125,-0.1356639862060547,0.0029000043869018555,0.09487788379192352
1772812424949499600,1.969499755859375,-0.18767929077148438,-0.03543919324874878,0.10985074937343597
1772812424959200300,1.9792001953125,-0.21286678314208984,-0.01958674192428589,0.0654265284538269
1772812424968900900,1.98890087890625,-0.22460651397705078,-0.008000433444976807,0.03883357346057892
1772812424978601500,1.9986015625,-0.19721317291259766,-0.019325435161590576,0.011008262634277344
1772812424988302300,2.00830224609375,-0.17019271850585938,-0.042042434215545654,-0.032153740525245667
1772812424998003000,2.0180029296875,-0.16475868225097656,-0.06610363721847534,-0.019590303301811218
1772812425007703600,2.02770361328125,-0.07472419738769531,-0.051415205001831055,0.00759907066822052
1772812425017404200,2.037404052734375,-0.02271556854248047,-0.0524023175239563,0.031158611178398132
1772812425027105000,2.04710498046875,0.022500991821289062,-0.07578694820404053,0.0684279352426529
1772812425036805600,2.0568056640625,0.04107475280761719,-0.07448899745941162,0.05605733394622803
1772812425046506200,2.06650634765625,0.035808563232421875,0.01768094301223755,0.022515565156936646
1772812425056206800,2.076206787109375,0.016544342041015625,0.03647881746292114,-0.0018756091594696045
1772812425065907700,2.08590771484375,0.050571441650390625,0.034666240215301514,-0.033072516322135925
1772812425075608300,2.0956083984375,0.08401203155517578,0.06692048907279968,-0.04518777132034302
1772812425085309000,2.105308837890625,0.14267921447753906,0.05476027727127075,-0.037672072649002075
1772812425095009500,2.115009521484375,0.16139984130859375,-0.015184521675109863,-0.049370646476745605
1772812425104710400,2.12471044921875,0.14084148406982422,-0.06341087818145752,-0.06450876593589783
1772812425114411000,2.134410888671875,0.08291816711425781,-0.05023980140686035,-0.1037062332034111
1772812425124111600,2.144111572265625,-0.03400707244873047,-0.015017807483673096,-0.12525685131549835
1772812425133812200,2.153812255859375,-0.1547384262084961,-0.021774709224700928,-0.14927415549755096
1772812425143513000,2.16351318359375,-0.23447227478027344,-0.023903310298919678,-0.14342468976974487
1772812425153213700,2.173213623046875,-0.25037479400634766,-0.0236663818359375,-0.10713225603103638
1772812425162914300,2.182914306640625,-0.17653274536132812,-0.054383277893066406,-0.06200146675109863
1772812425172615200,2.192615234375,-0.05449962615966797,-0.06314104795455933,0.004115939140319824
1772812425182315800,2.202315673828125,0.036022186279296875,-0.056853294372558594,0.052716925740242004
1772812425192016400,2.212016357421875,0.10495185852050781,-0.031599342823028564,0.038546353578567505
1772812425201717200,2.22171728515625,0.10673999786376953,-0.007772922515869141,0.04260152578353882
1772812425211417900,2.23141796875,0.10840892791748047,-0.011843562126159668,0.09584799408912659
1772812425221118500,2.241118408203125,0.12291622161865234,-0.0006327629089355469,0.08139914274215698
1772812425230819000,2.250819091796875,0.07953357696533203,0.01628941297531128,0.041473761200904846
1772812425240520000,2.26052001953125,0.042807579040527344,0.038708269596099854,0.016862332820892334
1772812425250220500,2.270220458984375,-0.00499725341796875,0.06828224658966064,-0.011013403534889221
1772812425259921200,2.279921142578125,-0.022516250610351562,0.04483973979949951,-0.041336655616760254
1772812425269621800,2.289621826171875,-0.051444053649902344,0.01360177993774414,-0.05670337378978729
1772812425279322600,2.299322509765625,-0.03634929656982422,-0.009649455547332764,-0.06524887681007385
1772812425289023200,2.309023193359375,0.0031452178955078125,-0.04629749059677124,-0.027297750115394592
1772812425298723800,2.318723876953125,0.0701303482055664,-0.08064937591552734,-0.033334776759147644
1772812425308424400,2.328424560546875,0.0829916000366211,-0.0845385193824768,-0.07329102605581284
1772812425318125300,2.338125244140625,0.042670249938964844,-0.0434952974319458,-0.09782096743583679
1772812425327826000,2.347825927734375,-0.04638481140136719,-0.01944631338119507,-0.0888548195362091
1772812425337526500,2.357526611328125,-0.09743118286132812,-0.013500392436981201,-0.07235978543758392
1772812425347227100,2.36722705078125,-0.10403060913085938,-0.00508493185043335,-0.06609177589416504
1772812425356928000,2.376927978515625,-0.07518386840820312,0.01823735237121582,-0.014643445611000061
1772812425366628600,2.386628662109375,-0.020911216735839844,0.01699244976043701,0.04454559087753296
1772812425376329200,2.3963291015625,0.021848678588867188,0.030911505222320557,0.058606311678886414
1772812425386029800,2.40602978515625,0.04738807678222656,0.031164050102233887,0.09307363629341125
1772812425395730700,2.415730712890625,0.08306121826171875,0.010912656784057617,0.10455422103404999
1772812425405431300,2.425431396484375,0.10163116455078125,0.012655496597290039,0.09116974472999573
1772812425415132000,2.4351318359375,0.07042503356933594,0.018133819103240967,0.05087265372276306
1772812425424832800,2.444832763671875,0.05032157897949219,0.0007730722427368164,0.023345723748207092
1772812425434533400,2.454533447265625,0.03291511535644531,0.002447366714477539,-0.02681581676006317
1772812425444234000,2.46423388671875,-0.02065753936767578,0.008984088897705078,-0.09049578011035919
1772812425453934800,2.473934814453125,-0.0521087646484375,0.010335981845855713,-0.1052059605717659
1772812425463635500,2.483635498046875,-0.055907249450683594,-0.01878589391708374,-0.08417506515979767
1772812425473336000,2.493336181640625,-0.05492115020751953,-0.019679725170135498,-0.06926609575748444
1772812425483036700,2.50303662109375,-0.013947486877441406,-0.040385544300079346,-0.0789606124162674
1772812425492737500,2.512737548828125,0.011035919189453125,-0.030606329441070557,-0.1068895012140274
1772812425502438100,2.522438232421875,0.04028511047363281,-0.00398486852645874,-0.08441245555877686
1772812425512138800,2.532138671875,0.06308460235595703,0.0033111572265625,-0.03232015669345856
1772812425521839400,2.54183935546875,0.03248405456542969,-0.008404910564422607,0.016065344214439392
1772812425531540200,2.551540283203125,0.028228759765625,-0.040875136852264404,0.05378812551498413
1772812425541240800,2.56124072265625,-0.034770965576171875,-0.030502676963806152,0.10441243648529053
1772812425550941400,2.57094140625,-0.09787273406982422,0.01775217056274414,0.10590295493602753
1772812425560642000,2.58064208984375,-0.145721435546875,0.04193305969238281,0.0435849130153656
1772812425570343000,2.590343017578125,-0.16678810119628906,0.061641693115234375,-0.004977956414222717
1772812425580043500,2.60004345703125,-0.14501667022705078,0.07408511638641357,-0.046583473682403564
1772812425589744000,2.609744140625,-0.1152963638305664,0.08694776892662048,-0.052010297775268555
1772812425599444700,2.61944482421875,-0.041337013244628906,0.046109914779663086,-0.03557144105434418
1772812425609145600,2.6291455078125,0.06548404693603516,-0.024078726768493652,-0.034163907170295715
1772812425618846200,2.63884619140625,0.1210479736328125,-0.03220963478088379,-0.02893003821372986
1772812425628546800,2.648546875,0.1685342788696289,-0.03503715991973877,-0.009406909346580505
1772812425638247400,2.658247314453125,0.16100215911865234,-0.07288593053817749,-0.015524342656135559
1772812425647948300,2.6679482421875,0.1158761978149414,-0.09617209434509277,-0.03250643610954285
1772812425657649000,2.67764892578125,0.06439781188964844,-0.08195489645004272,-0.012982845306396484
1772812425667349500,2.687349609375,0.014935493469238281,-0.05494058132171631,0.007743895053863525
1772812425677050400,2.69705029296875,-0.012497901916503906,-0.06783801317214966,-0.010668665170669556
1772812425686751000,2.7067509765625,-0.03118610382080078,-0.030285179615020752,-0.01849140226840973
1772812425696451600,2.71645166015625,-0.05067920684814453,0.03358191251754761,-0.012147441506385803
1772812425706152400,2.72615234375,-0.06860065460205078,0.06226259469985962,0.010371580719947815
1772812425715853000,2.73585302734375,-0.07795429229736328,0.06033030152320862,0.02374197542667389
1772812425725553700,2.7455537109375,-0.06243610382080078,0.0796537697315216,0.061252057552337646
1772812425735254300,2.755254150390625,-0.05072784423828125,0.09009557962417603,0.13946852087974548
1772812425744955100,2.764955078125,-0.025102615356445312,0.08605432510375977,0.16784903407096863
1772812425754655700,2.77465576171875,0.00007534027099609375,0.05818283557891846,0.16636842489242554
1772812425764356400,2.7843564453125,0.014240264892578125,0.07436943054199219,0.16656453907489777
1772812425774057000,2.794056884765625,0.02698802947998047,0.07747381925582886,0.13916489481925964
1772812425783757800,2.8037578125,0.053633689880371094,0.07010543346405029,0.08841578662395477
1772812425793458400,2.81345849609375,0.04805278778076172,0.023927271366119385,0.03208954632282257
1772812425803159000,2.823158935546875,0.04018688201904297,-0.03139162063598633,-0.024612262845039368
1772812425812859600,2.832859619140625,0.04302406311035156,-0.02522355318069458,-0.06373628228902817
1772812425822560500,2.842560546875,0.0010986328125,-0.06201004981994629,-0.0820743590593338
1772812425832261000,2.85226123046875,-0.03659820556640625,-0.08422774076461792,-0.07112421095371246
1772812425841961700,2.861961669921875,-0.059535980224609375,-0.08213961124420166,-0.045813605189323425
1772812425851662300,2.871662353515625,-0.06797409057617188,-0.08688563108444214,-0.022385448217391968
1772812425861363200,2.88136328125,-0.040946006774902344,-0.07919472455978394,-0.02626986801624298
1772812425871063800,2.891063720703125,-0.000232696533203125,-0.026580810546875,-0.024132847785949707
1772812425880764400,2.900764404296875,0.02098846435546875,0.031190931797027588,-0.013818755745887756
1772812425890465000,2.910465087890625,0.02304553985595703,0.05400407314300537,-0.02177739143371582
1772812425900166000,2.920165771484375,0.032135963439941406,0.06335783004760742,-0.01747196912765503
1772812425909866500,2.929866455078125,0.037522315979003906,0.0403597354888916,0.01253800094127655
1772812425919567000,2.939567138671875,0.03572273254394531,0.020665407180786133,0.06211565434932709
1772812425929268000,2.94926806640625,0.051581382751464844,0.010244548320770264,0.05869211256504059
1772812425938968600,2.958968505859375,0.033066749572753906,0.00604623556137085,0.045989081263542175
1772812425948669200,2.968669189453125,0.011349678039550781,0.03419923782348633,0.0482310950756073
1772812425958370000,2.9783701171875,-0.018213272094726562,0.05077248811721802,0.028685614466667175
1772812425968070700,2.988070556640625,-0.015484809875488281,0.01362830400466919,0.0119791179895401
1772812425977771300,2.997771240234375,-0.035137176513671875,-0.008496999740600586,-0.00571364164352417
1772812425987472000,3.007471923828125,-0.028558731079101562,-0.020697593688964844,0.004537135362625122
1772812425997172500,3.01717236328125,-0.011508941650390625,-0.01067429780960083,-0.003686845302581787
1772812426006873300,3.026873291015625,0.0052165985107421875,-0.039115965366363525,0.024840131402015686
1772812426016574000,3.036573974609375,0.008680343627929688,-0.038272976875305176,0.04153212904930115
1772812426026274600,3.046274658203125,0.021470069885253906,-0.030561089515686035,0.04827418923377991
1772812426035975200,3.05597509765625,0.037517547607421875,0.016367614269256592,0.10190920531749725
1772812426045676000,3.065676025390625,0.07794761657714844,0.003971099853515625,0.11958567798137665
1772812426055376600,3.075376708984375,0.06470298767089844,0.00008726119995117188,0.1414746344089508
1772812426065077200,3.0850771484375,0.026964187622070312,-0.014746129512786865,0.11758668720722198
1772812426074777900,3.09477783203125,-0.005406379699707031,0.019311606884002686,0.06413136422634125
1772812426084478700,3.104478759765625,-0.0747976303100586,0.04483872652053833,-0.01808573305606842
1772812426094179300,3.114179443359375,-0.10645198822021484,0.0918264389038086,-0.10140857845544815
1772812426103880000,3.1238798828125,-0.10571098327636719,0.07530373334884644,-0.1146138608455658
1772812426113580500,3.13358056640625,-0.08022689819335938,0.07303956151008606,-0.1318434178829193
1772812426123281400,3.143281494140625,-0.021027565002441406,0.005058884620666504,-0.12474319338798523
1772812426132982000,3.15298193359375,0.043030738830566406,-0.03447878360748291,-0.12446571886539459
1772812426142683000,3.162682861328125,0.1000680923461914,-0.05947643518447876,-0.08940201997756958
1772812426152383500,3.172383544921875,0.14194869995117188,-0.09620440006256104,-0.07154004275798798
1772812426162084000,3.182083984375,0.16892337799072266,-0.0913546085357666,-0.0768807902932167
1772812426171784700,3.19178466796875,0.16123676300048828,-0.07493770122528076,-0.08937198668718338
1772812426181485600,3.201485595703125,0.13715171813964844,-0.04789251089096069,-0.10599688440561295
1772812426191186200,3.211186279296875,0.11930561065673828,-0.0576290488243103,-0.11718578636646271
1772812426200886800,3.22088671875,0.0429229736328125,-0.05719882249832153,-0.1398696005344391
1772812426210587400,3.23058740234375,-0.023921966552734375,-0.03886449337005615,-0.10997068881988525
1772812426220288300,3.240288330078125,-0.0719614028930664,-0.021265923976898193,-0.0712444856762886
1772812426229988900,3.24998876953125,-0.11793899536132812,-0.004779636859893799,-0.01999032497406006
1772812426239689500,3.259689453125,-0.10192584991455078,-0.008474111557006836,0.046846792101860046
1772812426249390000,3.26939013671875,-0.09322547912597656,-0.001916050910949707,0.13557149469852448
1772812426259091000,3.279091064453125,-0.05525970458984375,-0.024645686149597168,0.16945399343967438
1772812426268791600,3.28879150390625,-0.02496623992919922,-0.017518162727355957,0.1288672238588333
1772812426278492200,3.2984921875,0.01305389404296875,0.040883421897888184,0.07162527740001678
1772812426288192800,3.30819287109375,-0.004856109619140625,0.07806181907653809,0.07825896143913269
1772812426297893400,3.317893310546875,-0.010692596435546875,0.08286017179489136,0.04893358051776886
1772812426307594200,3.32759423828125,-0.02348804473876953,0.05936363339424133,0.06480784714221954
1772812426317294800,3.337294921875,-0.021968841552734375,0.06092071533203125,0.10928821563720703
1772812426326995500,3.346995361328125,-0.03106689453125,0.03559833765029907,0.12087628245353699
1772812426336696300,3.3566962890625,-0.0235748291015625,0.004485666751861572,0.11780509352684021
1772812426346397000,3.36639697265625,-0.010324478149414062,-0.0071822404861450195,0.07730761170387268
1772812426356097500,3.37609765625,0.0015239715576171875,-0.013979017734527588,0.03770890831947327
1772812426365798400,3.38579833984375,-0.006823539733886719,-0.013545572757720947,-0.014110967516899109
1772812426375499000,3.3954990234375,-0.005620002746582031,-0.033142268657684326,-0.03572647273540497
1772812426385199600,3.40519970703125,0.013196945190429688,-0.03983181715011597,-0.06315576285123825
1772812426394900200,3.414900146484375,0.004645347595214844,-0.07127887010574341,-0.07776324450969696
1772812426404601000,3.42460107421875,-0.0037565231323242188,-0.06930267810821533,-0.1290668547153473
1772812426414301700,3.4343017578125,-0.03080272674560547,-0.06218445301055908,-0.12505409121513367
1772812426424002300,3.444002197265625,-0.043216705322265625,-0.034316301345825195,-0.12913241982460022
1772812426433703000,3.453702880859375,-0.03182697296142578,-0.012968182563781738,-0.1197548657655716
1772812426443403800,3.46340380859375,-0.020603179931640625,-0.026646912097930908,-0.06879033893346786
1772812426453104400,3.4731044921875,0.015112876892089844,-0.042372822761535645,-0.00999458134174347
1772812426462805000,3.482804931640625,0.05134391784667969,-0.0844883918762207,0.01751585304737091
1772812426472505600,3.492505615234375,0.1021871566772461,-0.06359177827835083,0.021658703684806824
1772812426482206500,3.50220654296875,0.11566352844238281,-0.042043209075927734,-0.04848863184452057
1772812426491907000,3.511906982421875,0.11475276947021484,-0.010524511337280273,-0.07227464020252228
1772812426501607700,3.521607666015625,0.07738494873046875,-0.009497880935668945,-0.07248011231422424
1772812426511308300,3.531308349609375,0.008874893188476562,-0.009660601615905762,-0.05964349955320358
1772812426521009200,3.541009033203125,-0.05258750915527344,-0.02082228660583496,-0.02001279592514038
1772812426530709800,3.550709716796875,-0.09534454345703125,-0.0401344895362854,0.01313808560371399
1772812426540410400,3.560410400390625,-0.07028007507324219,-0.0015186667442321777,-0.011311039328575134
1772812426550111000,3.570111083984375,-0.052654266357421875,0.013577044010162354,-0.011990487575531006
1772812426559811800,3.579811767578125,-0.03763771057128906,-0.005132794380187988,-0.004970744252204895
1772812426569512400,3.589512451171875,-0.02520751953125,-0.002215087413787842,-0.004439398646354675
1772812426579213000,3.599213134765625,0.011724472045898438,-0.011189520359039307,0.0004103332757949829
1772812426588914000,3.608913818359375,0.0021152496337890625,-0.027775228023529053,0.023184314370155334
1772812426598614500,3.618614501953125,-0.0038347244262695312,-0.059886395931243896,0.05160868167877197
1772812426608315100,3.628315185546875,0.01617717742919922,-0.04968297481536865,0.07552726566791534
1772812426618015700,3.638015625,0.025244712829589844,-0.00008416175842285156,0.07901865243911743
1772812426627716600,3.647716552734375,0.041217803955078125,0.06756168603897095,0.07086578011512756
1772812426637417200,3.657417236328125,0.04399681091308594,0.12491273880004883,0.04531341791152954
1772812426647117800,3.667117919921875,0.04910469055175781,0.1511906087398529,0.03329680860042572
1772812426656818400,3.676818359375,0.03764152526855469,0.17943620681762695,0.057699695229530334
1772812426666519300,3.686519287109375,0.022820472717285156,0.16450855135917664,0.03828363120555878
1772812426676220000,3.696219970703125,0.014121055603027344,0.11776596307754517,0.04589828848838806
1772812426685920500,3.70592041015625,-0.010926246643066406,0.08292824029922485,0.040038466453552246
1772812426695621000,3.71562109375,-0.032039642333984375,0.03540682792663574,0.017636612057685852
1772812426705322000,3.725322021484375,-0.07042884826660156,0.01039239764213562,-0.008700072765350342
1772812426715022600,3.735022705078125,-0.09522819519042969,-0.006375521421432495,-0.016668513417243958
1772812426724723200,3.74472314453125,-0.11722660064697266,-0.06548026204109192,-0.048600971698760986
1772812426734423800,3.754423828125,-0.10231590270996094,-0.11195075511932373,-0.08810679614543915
1772812426744124400,3.76412451171875,-0.09820938110351562,-0.0820181667804718,-0.1018633171916008
1772812426753825300,3.7738251953125,-0.07884407043457031,-0.06642261147499084,-0.1374935805797577
1772812426763526000,3.78352587890625,-0.0703725814819336,-0.08403775095939636,-0.1099686473608017
1772812426773226500,3.7932265625,-0.06201457977294922,-0.06568324565887451,-0.07152453064918518
1772812426782927400,3.80292724609375,-0.06084632873535156,-0.0038134753704071045,-0.0028822720050811768
1772812426792628000,3.8126279296875,-0.03263092041015625,-0.00037917494773864746,0.05330030620098114
1772812426802328600,3.82232861328125,0.0009775161743164062,0.01827263832092285,0.10472340881824493
1772812426812029400,3.832029541015625,-0.010685920715332031,0.06976336240768433,0.11623255908489227
1772812426821730000,3.84172998046875,0.024885177612304688,0.07318168878555298,0.09511016309261322
1772812426831430700,3.8514306640625,0.06806182861328125,0.08417338132858276,0.08521173894405365
1772812426841131300,3.86113134765625,0.10223197937011719,0.07849034667015076,0.06085754930973053
1772812426850832100,3.87083203125,0.13344669342041016,0.10011681914329529,0.025270700454711914
1772812426860532700,3.88053271484375,0.0946950912475586,0.11106732487678528,-0.0008136630058288574
1772812426870233300,3.8902333984375,0.06244659423828125,0.080121248960495,0.0028382539749145508
1772812426879934000,3.899933837890625,-0.0033712387084960938,0.01484420895576477,0.002389281988143921
1772812426889634800,3.909634765625,-0.06335639953613281,-0.0047740936279296875,0.006508573889732361
1772812426899335400,3.91933544921875,-0.07759571075439453,-0.03111743927001953,0.02103029191493988
1772812426909036000,3.9290361328125,-0.0810089111328125,-0.053064942359924316,0.010509178042411804
1772812426918736600,3.938736572265625,-0.04434680938720703,-0.04858800768852234,-0.03792181611061096
1772812426928437500,3.9484375,-0.03533172607421875,-0.04181388020515442,-0.08198066055774689
1772812426938138000,3.95813818359375,-0.037032127380371094,-0.01635923981666565,-0.13015148043632507
1772812426947838700,3.967838623046875,-0.025760650634765625,0.0025509893894195557,-0.09930060803890228
1772812426957539300,3.977539306640625,0.048801422119140625,-0.03373527526855469,-0.03433355689048767
1772812426967240000,3.987239990234375,0.07735919952392578,-0.04201453924179077,0.05266459286212921
1772812426976940800,3.99694091796875,0.09010124206542969,-0.007487118244171143,0.03823894262313843
1772812426986641400,4.006641357421875,0.08969497680664062,0.03937104344367981,0.020167037844657898
1772812426996342000,4.016342041015625,0.04812145233154297,0.08324629068374634,0.018027901649475098
1772812427006043000,4.02604296875,0.008416175842285156,0.0807151198387146,0.01998800039291382
1772812427015743500,4.035743408203125,-0.010618209838867188,0.09004688262939453,-0.0006659477949142456
1772812427025444000,4.045444091796875,-0.042255401611328125,0.06192997097969055,0.01063711941242218
1772812427035145000,4.05514501953125,-0.06158447265625,0.005399256944656372,0.059856295585632324
1772812427044845600,4.064845458984375,-0.028838157653808594,-0.008901536464691162,0.08585302531719208
1772812427054546200,4.074546142578125,-0.0013561248779296875,0.02384456992149353,0.04896286129951477
1772812427064246800,4.084246826171875,0.013902664184570312,0.039096444845199585,-0.00031369924545288086
1772812427073947600,4.09394775390625,-0.020494461059570312,0.031676143407821655,0.03162018954753876
1772812427083648300,4.103648193359375,-0.03311443328857422,-0.05042070150375366,0.058244168758392334
1772812427093348900,4.113348876953125,-0.05610370635986328,-0.05643850564956665,0.04894085228443146
1772812427103049500,4.123049560546875,-0.05869579315185547,-0.02914375066757202,-0.014224991202354431
1772812427112750000,4.13275,-0.03298377990722656,0.032060861587524414,-0.05469343066215515
1772812427122451000,4.142450927734375,-0.027680397033691406,0.046399861574172974,-0.034419551491737366
1772812427132151600,4.152151611328125,0.0045948028564453125,-0.003434121608734131,-0.014433979988098145
1772812427141852200,4.16185205078125,-0.023657798767089844,-0.021517634391784668,0.006768807768821716
1772812427151552800,4.171552734375,-0.02792072296142578,-0.00955548882484436,0.06204037368297577
1772812427161253600,4.181253662109375,0.01962757110595703,-0.024779200553894043,0.10373960435390472
1772812427170954200,4.190954345703125,0.06045818328857422,-0.01443818211555481,0.07395578920841217
1772812427180654800,4.20065478515625,0.0864419937133789,-0.008784174919128418,0.05048176646232605
1772812427190355500,4.21035546875,0.0943145751953125,-0.007747143507003784,0.06278809905052185
1772812427200056300,4.220056396484375,0.0808572769165039,-0.0016760528087615967,0.0467006117105484
1772812427209757000,4.2297568359375,0.04996299743652344,0.00153312087059021,0.03303496539592743
1772812427219457500,4.23945751953125,0.01844310760498047,-0.014584779739379883,0.03609810769557953
1772812427229158400,4.249158447265625,-0.012505531311035156,0.02935686707496643,-0.0032029300928115845
1772812427238859000,4.25885888671875,-0.024045944213867188,0.08321863412857056,-0.06932926177978516
1772812427248559600,4.2685595703125,-0.004757881164550781,0.08156397938728333,-0.09499755501747131
1772812427258260200,4.27826025390625,-0.00106048583984375,0.05441001057624817,-0.09025964140892029
1772812427267961000,4.287961181640625,0.019011497497558594,0.02361971139907837,-0.04045027494430542
1772812427277661700,4.29766162109375,0.04574108123779297,-0.02300959825515747,0.048204243183135986
1772812427287362300,4.3073623046875,0.08255577087402344,-0.05584520101547241,0.06730708479881287
1772812427297063000,4.31706298828125,0.07399559020996094,-0.04326349496841431,0.07831218838691711
1772812427306763800,4.326763671875,0.02081584930419922,-0.0022223293781280518,0.06190541386604309
1772812427316464400,4.33646435546875,0.0038013458251953125,-0.03285142779350281,0.020922347903251648
1772812427326165000,4.3461650390625,-0.039961814880371094,-0.017032116651535034,-0.025276288390159607
1772812427335865600,4.355865478515625,-0.05940723419189453,0.0006382167339324951,-0.022079572081565857
1772812427345566500,4.36556640625,-0.10201358795166016,-0.014934629201889038,-0.023000583052635193
1772812427355267000,4.37526708984375,-0.07329082489013672,-0.023342996835708618,0.005354657769203186
1772812427364967700,4.3849677734375,-0.061493873596191406,-0.05084922909736633,-0.014269575476646423
1772812427374668300,4.394668212890625,-0.019303321838378906,-0.034395188093185425,-0.014968827366828918
1772812427384369000,4.404368896484375,0.016313552856445312,0.00035834312438964844,-0.02871088683605194
1772812427394069800,4.41406982421875,0.039551734924316406,-0.005052238702774048,-0.047883495688438416
1772812427403770400,4.423770263671875,0.04942893981933594,0.004158496856689453,-0.03272683918476105
1772812427413471000,4.433470947265625,0.042636871337890625,-0.0050817131996154785,-0.023616090416908264
1772812427423171800,4.443171875,0.021843910217285156,0.024742543697357178,-0.031065747141838074
1772812427432872400,4.45287255859375,0.004923820495605469,0.023676633834838867,-0.029398754239082336
1772812427442573000,4.462572998046875,-0.02701091766357422,0.032352060079574585,-0.025619417428970337
1772812427452274000,4.47227392578125,-0.023105621337890625,0.05170196294784546,-0.03141757845878601
1772812427461974500,4.481974609375,-0.01807689666748047,0.04616326093673706,-0.05743607133626938
1772812427471675100,4.491675048828125,-0.011962890625,0.021718919277191162,-0.03482562303543091
1772812427481375700,4.501375732421875,-0.030663490295410156,-0.00011298060417175293,-0.0125521719455719
1772812427491076600,4.51107666015625,-0.03492259979248047,-0.051894158124923706,-0.0082339346408844
1772812427500777200,4.520777099609375,-0.06027793884277344,-0.05888405442237854,-0.0341174453496933
1772812427510477800,4.530477783203125,-0.07811260223388672,-0.044927895069122314,-0.04545962065458298
1772812427520178400,4.540178466796875,-0.06384849548339844,-0.04457622766494751,-0.06384538114070892
1772812427529879000,4.549879150390625,-0.03452587127685547,-0.03831323981285095,-0.06302638351917267
1772812427539580000,4.559579833984375,-0.004551887512207031,-0.06936439871788025,-0.006821498274803162
1772812427549280500,4.569280517578125,0.013132095336914062,-0.08178675174713135,-0.033194899559020996
1772812427558981000,4.578981201171875,0.02226543426513672,-0.05341419577598572,-0.04656696319580078
1772812427568681700,4.588681640625,0.013584136962890625,-0.023402541875839233,-0.06185845285654068
1772812427578382600,4.598382568359375,-0.0031890869140625,0.00612187385559082,-0.047275424003601074
1772812427588083200,4.608083251953125,-0.029073715209960938,0.020144939422607422,-0.04055579751729965
1772812427597783800,4.61778369140625,-0.04397392272949219,0.04889273643493652,-0.001987665891647339
1772812427607484400,4.627484375,-0.04687786102294922,0.0554330050945282,0.09650696814060211
1772812427617185000,4.63718505859375,0.009138107299804688,0.0821675956249237,0.06544491648674011
1772812427626886000,4.646885986328125,-0.10397148132324219,0.07057419419288635,0.07593236863613129
1772812427636586500,4.65658642578125,-0.10569572448730469,0.0365583598613739,0.040831759572029114
1772812427646287400,4.666287353515625,-0.11905670166015625,0.078555166721344,-0.05044366419315338
1772812427655988000,4.675988037109375,-0.04858875274658203,0.08994507789611816,-0.08190423250198364
1772812427665688600,4.6856884765625,0.01247406005859375,0.031021565198898315,-0.08237516134977341
1772812427675389200,4.69538916015625,0.0995187759399414,-0.022285401821136475,-0.029537126421928406
1772812427685090000,4.705090087890625,0.15678882598876953,-0.0780702531337738,-0.0394415557384491
1772812427694790700,4.714790771484375,0.1871175765991211,-0.09782803058624268,-0.04558707773685455
1772812427704491300,4.7244912109375,0.15569019317626953,-0.08267083764076233,-0.0807894840836525
1772812427723892500,4.743892578125,0.007839202880859375,-0.06754577159881592,-0.09560655802488327
1772812427733593300,4.75359326171875,0.0923919677734375,-0.05636921525001526,-0.1023607850074768
1772812427743294000,4.7632939453125,0.006093025207519531,-0.006888270378112793,-0.0375102236866951
1772812427752994600,4.77299462890625,0.029443740844726562,0.005910217761993408,0.014506489038467407
1772812427762695200,4.782695068359375,-0.029989242553710938,-0.005804777145385742,0.05650998651981354
1772812427772396000,4.79239599609375,-0.0531463623046875,0.01862284541130066,0.08386433124542236
1772812427782096600,4.8020966796875,-0.10999488830566406,0.05952775478363037,0.07757087051868439
1772812427791797200,4.81179736328125,-0.1646127700805664,0.11452662944793701,0.0594092458486557
1772812427801497900,4.821497802734375,-0.17936992645263672,0.1475984752178192,0.030276551842689514
1772812427811198700,4.83119873046875,-0.11257743835449219,0.17480501532554626,0.019916251301765442
1772812427820899300,4.8408994140625,-0.03154945373535156,0.1680486500263214,0.07275259494781494
1772812427830600000,4.850599853515625,0.09279251098632812,0.09190234541893005,0.11886358261108398
1772812427840300500,4.860300537109375,0.19730377197265625,-0.003847062587738037,0.15015284717082977
1772812427850001400,4.87000146484375,0.2658052444458008,-0.05423930287361145,0.14762699604034424
1772812427859702000,4.879701904296875,0.28362083435058594,-0.051853686571121216,0.08808150887489319
1772812427869402600,4.889402587890625,0.24927711486816406,-0.04503491520881653,0.024652794003486633
1772812427879103500,4.899103515625,0.1366138458251953,-0.022262662649154663,-0.00861610472202301
1772812427888804000,4.90880419921875,0.03758716583251953,0.004588186740875244,0.003288760781288147
1772812427898504700,4.918504638671875,-0.033855438232421875,-0.0008156299591064453,-0.007045179605484009
1772812427908205300,4.928205322265625,-0.12287044525146484,0.0002263188362121582,-0.01264423131942749
1772812427917906200,4.93790625,-0.1609048843383789,0.02797597646713257,-0.015500575304031372
1772812427927606800,4.947606689453125,-0.14057636260986328,0.06058362126350403,-0.04547024518251419
1772812427937307400,4.957307373046875,-0.12877750396728516,0.05011701583862305,-0.0008051097393035889
1772812427947008000,4.967008056640625,-0.09361839294433594,0.049779027700424194,0.015813052654266357
1772812427956708600,4.97670849609375,-0.05198097229003906,0.0306432843208313,0.0590214729309082
1772812427966409500,4.986409423828125,-0.021643638610839844,0.0055356621742248535,0.08862175047397614
1772812427976110000,4.996110107421875,0.025801658630371094,-0.01872652769088745,0.08111029863357544
1772812427985810700,5.005810791015625,0.07830810546875,-0.012742012739181519,0.0641179084777832
1772812427995511300,5.01551123046875,0.08756542205810547,-0.0027463138103485107,0.0377432256937027
1772812428005212200,5.025212158203125,0.07783699035644531,0.006806701421737671,0.004543021321296692
1772812428014912800,5.034912841796875,0.05768299102783203,-0.01532745361328125,-0.021712854504585266
1772812428024613400,5.04461328125,0.022569656372070312,-0.028534531593322754,-0.015978187322616577
1772812428034314000,5.05431396484375,-0.0013990402221679688,-0.036977022886276245,-0.003214821219444275
1772812428044014800,5.064014892578125,0.0032253265380859375,-0.06366497278213501,0.007658243179321289
1772812428053715500,5.073715576171875,0.01831531524658203,-0.08645859360694885,0.011734962463378906
1772812428063416000,5.083416015625,0.029603958129882812,-0.061719149351119995,0.004788488149642944
1772812428073117000,5.093116943359375,-0.008704185485839844,-0.007252246141433716,-0.017619088292121887
1772812428082817500,5.102817626953125,-0.04868793487548828,0.035059183835983276,-0.02631199359893799
1772812428092518100,5.11251806640625,-0.09617328643798828,0.05111423134803772,-0.023167982697486877
1772812428102218800,5.12221875,-0.13456439971923828,0.04412579536437988,0.011509165167808533
1772812428111919600,5.131919677734375,-0.13108062744140625,0.028562068939208984,0.04231366515159607
1772812428121620200,5.1416201171875,-0.09115791320800781,0.00023284554481506348,0.062027692794799805
1772812428131320800,5.15132080078125,-0.04013347625732422,-0.04161497950553894,0.09821461141109467
1772812428141021400,5.161021484375,0.014723777770996094,-0.06353798508644104,0.07197822630405426
1772812428150722000,5.17072216796875,0.07685565948486328,-0.041861772537231445,0.023871660232543945
1772812428160423000,5.1804228515625,0.07672786712646484,-0.019519329071044922,0.022990301251411438
1772812428170123500,5.19012353515625,0.0683441162109375,-0.030015796422958374,0.0004263371229171753
1772812428179824000,5.19982421875,0.05420970916748047,-0.020447075366973877,-0.01328955590724945
1772812428189524700,5.209524658203125,0.027382850646972656,-0.02103397250175476,0.002244517207145691
1772812428199225600,5.2192255859375,0.00455474853515625,-0.023201704025268555,0.003989800810813904
1772812428208926200,5.22892626953125,0.0080108642578125,-0.02944585680961609,-0.008019909262657166
1772812428218626800,5.238626708984375,0.027896881103515625,-0.03765431046485901,-0.028289079666137695
1772812428228327400,5.248327392578125,0.04038715362548828,-0.024570077657699585,-0.062176406383514404
1772812428238028300,5.2580283203125,0.019693374633789062,-0.02051842212677002,-0.06903523951768875
1772812428247729000,5.26772900390625,0.02635669708251953,-0.01994985342025757,-0.05803573131561279
1772812428257429500,5.277429443359375,0.03873920440673828,-0.015039145946502686,-0.015326127409934998
1772812428267130400,5.28713037109375,0.06026172637939453,-0.0428813099861145,0.021689385175704956
1772812428276831000,5.2968310546875,0.014321327209472656,-0.05161088705062866,0.0278327614068985
1772812428286531600,5.306531494140625,-0.044968605041503906,-0.033149123191833496,0.03983692824840546
1772812428296232200,5.316232177734375,-0.1090993881225586,0.018358170986175537,0.012777134776115417
1772812428305933000,5.32593310546875,-0.132080078125,0.09030720591545105,-0.021943315863609314
1772812428315633700,5.335633544921875,-0.12044620513916016,0.11330938339233398,-0.057941995561122894
1772812428325334300,5.345334228515625,-0.09127616882324219,0.07573062181472778,-0.05176301300525665
1772812428335035000,5.355034912109375,-0.055474281311035156,0.05061841011047363,-0.0542471706867218
1772812428344735500,5.364735595703125,0.04562187194824219,-0.00012052059173583984,-0.0681643858551979
1772812428354436400,5.374436279296875,0.14616966247558594,-0.030386805534362793,-0.08335627615451813
1772812428364137000,5.384136962890625,0.23671817779541016,-0.06605035066604614,-0.05573667585849762
1772812428373837600,5.393837646484375,0.27505016326904297,-0.08868485689163208,-0.055769115686416626
1772812428383538200,5.4035380859375,0.3020496368408203,-0.08043137192726135,-0.04857522249221802
1772812428393239000,5.413239013671875,0.27910614013671875,-0.057707756757736206,-0.03415575623512268
1772812428402939600,5.422939697265625,0.2400035858154297,-0.026187598705291748,0.0046261996030807495
1772812428412640300,5.43264013671875,0.16149044036865234,-0.03297576308250427,0.08262807130813599
1772812428422340900,5.4423408203125,0.1054220199584961,-0.02669641375541687,0.1325215995311737
1772812428432041700,5.452041748046875,-0.0014629364013671875,-0.01591414213180542,0.17641288042068481
1772812428451443000,5.47144287109375,-0.12789535522460938,0.0307043194770813,0.11036965250968933
1772812428461143800,5.481143798828125,-0.18594932556152344,0.05482757091522217,0.00926893949508667
1772812428470844400,5.490844482421875,-0.18650531768798828,0.037036240100860596,-0.0444469228386879
1772812428480545000,5.500544921875,-0.14232254028320312,-0.007848203182220459,-0.05693972110748291
1772812428490245600,5.51024560546875,-0.08476638793945312,-0.056275755167007446,-0.023122280836105347
1772812428499946200,5.5199462890625,0.0035581588745117188,-0.08222141861915588,0.010788798332214355
1772812428509647000,5.529647216796875,0.062132835388183594,-0.09901395440101624,0.06533512473106384
1772812428519347700,5.53934765625,0.037331581115722656,-0.11323750019073486,0.06180089712142944
1772812428529048300,5.54904833984375,-0.0000171661376953125,-0.06496134400367737,0.02786119282245636
1772812428538749000,5.5587490234375,-0.06260204315185547,-0.01642817258834839,-0.04584270715713501
1772812428548449800,5.56844970703125,-0.10996818542480469,0.023494422435760498,-0.11136382818222046
1772812428558150400,5.578150390625,-0.1376504898071289,0.024612247943878174,-0.1563902199268341
1772812428567851000,5.58785107421875,-0.16129398345947266,0.017677605152130127,-0.17036180198192596
1772812428577551600,5.597551513671875,-0.15038776397705078,0.0036313533782958984,-0.1797354519367218
1772812428587252200,5.607252197265625,-0.13611793518066406,-0.04268676042556763,-0.17028024792671204
1772812428596953000,5.616953125,-0.12561798095703125,-0.06127992272377014,-0.17166832089424133
1772812428606653700,5.62665380859375,-0.0788125991821289,-0.0959962010383606,-0.16646520793437958
1772812428616354300,5.636354248046875,-0.06455516815185547,-0.06662249565124512,-0.17317602038383484
1772812428626055200,5.64605517578125,-0.042298316955566406,-0.024729043245315552,-0.17134448885917664
1772812428635755800,5.655755859375,-0.026307106018066406,-0.009350478649139404,-0.12855848670005798
1772812428645456400,5.665456298828125,-0.011794090270996094,-0.02774009108543396,-0.06544238328933716
1772812428655157200,5.6751572265625,0.0212554931640625,-0.03052365779876709,-0.04030558466911316
1772812428664857900,5.68485791015625,-0.00511932373046875,-0.023009121417999268,0.01999625563621521
1772812428674558500,5.694558349609375,-0.03929901123046875,-0.034018516540527344,0.020819976925849915
1772812428684259000,5.704259033203125,-0.11640167236328125,0.01947435736656189,0.030124321579933167
1772812428693959700,5.713959716796875,-0.19451236724853516,0.07269394397735596,0.035365134477615356
1772812428703660500,5.72366064453125,-0.22771453857421875,0.07458731532096863,0.032158732414245605
1772812428713361200,5.733361083984375,-0.24970340728759766,0.0663728415966034,0.04168802499771118
1772812428723061800,5.743061767578125,-0.2171611785888672,0.039355307817459106,0.1056193858385086
1772812428732762400,5.752762451171875,-0.168670654296875,0.013738244771957397,0.15402154624462128
1772812428742463200,5.762463134765625,-0.0715780258178711,-0.02831190824508667,0.1811499446630478
1772812428752163800,5.772163818359375,-0.007877349853515625,-0.03633105754852295,0.15997973084449768
1772812428761864400,5.781864501953125,0.012401580810546875,-0.022605329751968384,0.10051105916500092
1772812428771565000,5.79156494140625,0.03942108154296875,0.03793713450431824,0.020682692527770996
1772812428781265700,5.801265625,0.0471954345703125,0.08623501658439636,-0.060630060732364655
1772812428790966500,5.810966552734375,0.038361549377441406,0.09277062118053436,-0.06520272046327591
1772812428800667100,5.820667236328125,0.03318214416503906,0.06379374861717224,0.005845010280609131
1772812428810367700,5.83036767578125,0.03981971740722656,0.027547121047973633,0.03425434231758118
1772812428820068600,5.840068603515625,0.03337287902832031,0.04388844966888428,0.10821101069450378
1772812428829769200,5.849769287109375,0.0870199203491211,0.0504763126373291,0.14456228911876678
1772812428839469800,5.8594697265625,0.1715106964111328,0.014227151870727539,0.038296014070510864
1772812428849170400,5.86917041015625,0.07338523864746094,-0.0161554217338562,-0.06780979037284851
1772812428858871300,5.878871337890625,0.06278038024902344,0.035912275314331055,-0.12706610560417175
1772812428868572000,5.888572021484375,0.09236431121826172,0.06945887207984924,-0.14997164905071259
1772812428878272500,5.8982724609375,0.12263107299804688,0.0814884603023529,-0.10920261591672897
1772812428887973000,5.90797314453125,0.18885326385498047,0.07017219066619873,-0.05861420929431915
1772812428897674000,5.917674072265625,0.19982051849365234,0.04089638590812683,-0.033503517508506775
1772812428907374600,5.92737451171875,0.1752758026123047,0.04343423247337341,-0.06015142798423767
1772812428917075200,5.9370751953125,0.09230804443359375,0.0924254059791565,-0.021370336413383484
1772812428926775800,5.94677587890625,0.06487560272216797,0.16005182266235352,0.05239354074001312
1772812428936476400,5.956476318359375,0.03557014465332031,0.1393255591392517,0.07417543232440948
1772812428946177300,5.96617724609375,-0.05086803436279297,0.09718599915504456,0.174968421459198
1772812428955878000,5.9758779296875,-0.0499420166015625,0.12816673517227173,0.22168616950511932
1772812428965578500,5.98557861328125,0.06155872344970703,0.10814613103866577,0.1630059778690338
1772812428975279000,5.995279052734375,0.04879283905029297,0.006890833377838135,0.09486111998558044
1772812428984979700,6.004979736328125,0.05973052978515625,-0.0013557076454162598,0.10633857548236847
1772812428994680600,6.0146806640625,0.16103744506835938,0.05552127957344055,0.09503744542598724
1772812429004381200,6.024381103515625,0.14529037475585938,-0.0013331472873687744,0.07408908009529114
1772812429014082000,6.03408203125,0.014476776123046875,-0.07314467430114746,0.10773175954818726
1772812429023782700,6.04378271484375,-0.01059722900390625,-0.017754286527633667,0.10299885272979736
1772812429033483300,6.053483154296875,-0.037563323974609375,0.031445473432540894,0.06915700435638428
1772812429043183900,6.063183837890625,-0.06168651580810547,0.01037299633026123,0.028680652379989624
1772812429052884500,6.072884521484375,-0.014802932739257812,-0.038501739501953125,-0.023944079875946045
1772812429062585300,6.08258544921875,-0.009867668151855469,-0.01809588074684143,0.0041465312242507935
1772812429072286000,6.092285888671875,0.07143020629882812,0.014043807983398438,0.02809871733188629
1772812429081986600,6.101986572265625,0.037199974060058594,-0.025066465139389038,0.025564461946487427
1772812429091687200,6.111687255859375,0.037642478942871094,-0.01465684175491333,0.041771650314331055
1772812429101388000,6.121387939453125,0.028656005859375,0.03871279954910278,0.031518444418907166
1772812429111088600,6.131088623046875,-0.024860382080078125,0.03511372208595276,0.05009697377681732
1772812429120789200,6.140789306640625,-0.07155990600585938,-0.0014716684818267822,0.021815091371536255
1772812429130489900,6.15048974609375,-0.13034343719482422,0.026715576648712158,-0.00045365095138549805
1772812429140190500,6.1601904296875,-0.15280628204345703,0.06569176912307739,-0.027317404747009277
1772812429149891300,6.169891357421875,-0.14315032958984375,0.06453007459640503,0.05941079556941986
1772812429159592000,6.179592041015625,-0.043082237243652344,0.014571726322174072,0.06701484322547913
1772812429169292500,6.18929248046875,0.06354236602783203,0.014777958393096924,-0.0030904561281204224
1772812429178993200,6.1989931640625,0.07072257995605469,0.07321052253246307,-0.07568882405757904
1772812429188694000,6.208694091796875,0.03544044494628906,0.10309742391109467,-0.12185843288898468
1772812429198394600,6.21839453125,-0.04157829284667969,0.06484591960906982,-0.10185430943965912
1772812429208095200,6.22809521484375,-0.12315940856933594,0.006285935640335083,-0.06852614879608154
1772812429217796000,6.237796142578125,-0.15865802764892578,-0.012941062450408936,0.062321022152900696
1772812429227496700,6.24749658203125,-0.059403419494628906,-0.0016970634460449219,0.23573975265026093
1772812429237197300,6.257197265625,0.10753250122070312,-0.08952280879020691,0.21096864342689514
1772812429246898000,6.26689794921875,0.018648147583007812,-0.21345528960227966,0.1717073619365692
1772812429256598800,6.276598876953125,0.1676950454711914,-0.11791390180587769,0.020842552185058594
1772812429266299400,6.28629931640625,0.09423446655273438,0.0726175308227539,-0.07533349096775055
1772812429276000000,6.296,0.029107093811035156,0.0862240195274353,-0.1333499252796173
1772812429285700600,6.30570068359375,-0.06545448303222656,0.041028767824172974,-0.0965082123875618
1772812429295401200,6.315401123046875,-0.19835948944091797,0.03093162178993225,-0.07187475264072418
1772812429305102000,6.32510205078125,-0.2630939483642578,0.03464996814727783,-0.0059250593185424805
1772812429314802700,6.334802734375,-0.29258060455322266,0.011441737413406372,0.01657065749168396
1772812429324503300,6.34450341796875,-0.25327301025390625,0.03491562604904175,-0.010039106011390686
1772812429334204000,6.354203857421875,-0.17809295654296875,0.09523440897464752,-0.03180903196334839
1772812429343904500,6.363904541015625,-0.1111907958984375,0.13274633884429932,-0.010272398591041565
1772812429353605400,6.37360546875,-0.043041229248046875,0.1139855682849884,0.012527123093605042
1772812429363306000,6.383305908203125,0.049816131591796875,0.034520238637924194,0.13711844384670258
1772812429373006600,6.393006591796875,0.10571575164794922,-0.07483357191085815,0.27901601791381836
1772812429382707500,6.40270751953125,0.13936424255371094,-0.1625247597694397,0.35243064165115356
1772812429392408000,6.412407958984375,0.2017498016357422,-0.2057945728302002,0.287972092628479
1772812429402108700,6.422108642578125,0.3277406692504883,-0.16242840886116028,0.037366822361946106
1772812429411809300,6.431809326171875,0.3386411666870117,-0.04614078998565674,-0.20842845737934113
1772812429421510100,6.44151025390625,0.32817745208740234,0.024536460638046265,-0.3357383608818054
1772812429431210800,6.451210693359375,0.2625846862792969,0.007995247840881348,-0.3877042233943939
1772812429440911400,6.460911376953125,0.1686553955078125,-0.0694897472858429,-0.35091710090637207
1772812429450612000,6.470612060546875,0.07391643524169922,-0.11963298916816711,-0.2827354073524475
1772812429460312600,6.4803125,0.011342048645019531,-0.11748066544532776,-0.21503427624702454
1772812429470013400,6.490013427734375,-0.03723716735839844,-0.07983332872390747,-0.177906334400177
1772812429479714000,6.499714111328125,-0.0790863037109375,-0.028837591409683228,-0.13416548073291779
1772812429489414700,6.50941455078125,-0.12371444702148438,-0.012465685606002808,-0.10024240612983704
1772812429499115300,6.519115234375,-0.13341522216796875,0.03005102276802063,-0.07644344121217728
1772812429508816100,6.528816162109375,-0.1358489990234375,0.04963594675064087,-0.0058927983045578
1772812429518516700,6.538516845703125,-0.0888071060180664,0.05402073264122009,0.05595800280570984
1772812429528217300,6.54821728515625,-0.0637369155883789,0.019262760877609253,0.11698533594608307
1772812429537918000,6.55791796875,-0.050853729248046875,0.03407672047615051,0.1844959706068039
1772812429547618800,6.567618896484375,0.03710460662841797,0.04192665219306946,0.1445865035057068
1772812429557319400,6.5773193359375,0.009434700012207031,0.008842229843139648,0.06972889602184296
1772812429567020000,6.58702001953125,-0.018988609313964844,-0.028650134801864624,0.04258686304092407
1772812429576721000,6.596720947265625,-0.006955146789550781,-0.004366099834442139,0.06501884758472443
1772812429586421500,6.60642138671875,0.00604248046875,-0.014809191226959229,0.048579856753349304
1772812429596122000,6.6161220703125,0.015278816223144531,-0.04324221611022949,0.03802739083766937
1772812429605822700,6.62582275390625,0.000843048095703125,-0.03476065397262573,0.003352910280227661
1772812429615523300,6.6355234375,-0.02862834930419922,0.002238720655441284,-0.021334871649742126
1772812429625224200,6.64522412109375,-0.06932544708251953,0.03416094183921814,0.012215539813041687
1772812429634924800,6.6549248046875,-0.024580955505371094,0.012855470180511475,-0.03150852024555206
1772812429644625400,6.66462548828125,-0.07465362548828125,-0.05373978614807129,-0.061031781136989594
1772812429654326000,6.674325927734375,-0.0720834732055664,-0.08133584260940552,-0.10243383049964905
1772812429664026600,6.684026611328125,-0.08717632293701172,-0.09936800599098206,-0.1672411859035492
1772812429673727500,6.6937275390625,-0.06788253784179688,-0.07905825972557068,-0.16129180788993835
1772812429683428000,6.703427978515625,0.014630317687988281,0.001940906047821045,-0.09399078041315079
1772812429693128700,6.713128662109375,0.10864830017089844,-0.01706060767173767,-0.03745708614587784
1772812429702829300,6.722829345703125,0.17510414123535156,-0.10835212469100952,0.003915533423423767
1772812429712530000,6.732530029296875,0.15447521209716797,-0.07948711514472961,0.05003178119659424
1772812429722230800,6.742230712890625,0.1929483413696289,-0.03384026885032654,0.043753400444984436
1772812429731931400,6.751931396484375,0.16247177124023438,-0.03714510798454285,0.0064617544412612915
1772812429741632300,6.76163232421875,0.10777473449707031,-0.04165762662887573,-0.0016452372074127197
1772812429751332900,6.771332763671875,0.12224388122558594,0.0038618147373199463,-0.01298685371875763
1772812429761033500,6.781033447265625,0.09058570861816406,0.03562772274017334,-0.03208012878894806
1772812429770734000,6.790734130859375,0.048874855041503906,-0.010700106620788574,-0.058002859354019165
1772812429780434700,6.8004345703125,-0.012133598327636719,-0.0017879307270050049,-0.05351603776216507
1772812429790135600,6.810135498046875,-0.06736946105957031,0.04927220940589905,-0.05646926164627075
1772812429799836200,6.819836181640625,-0.08160114288330078,0.08561599254608154,-0.04391629993915558
1772812429809536800,6.829536865234375,-0.20497512817382812,0.01652655005455017,-0.005082547664642334
1772812429819237400,6.8392373046875,-0.1933298110961914,-0.054241567850112915,0.09209977090358734
1772812429828938000,6.84893798828125,-0.16541767120361328,-0.0899038314819336,0.11385823786258698
1772812429838638800,6.858638916015625,-0.14505481719970703,-0.07626214623451233,0.18217118084430695
1772812429848339500,6.86833935546875,-0.05562114715576172,-0.059845805168151855,0.1539364606142044
1772812429858040000,6.8780400390625,-0.04883575439453125,0.01631912589073181,0.09096288681030273
1772812429867740700,6.88774072265625,-0.04798698425292969,0.09476980566978455,0.05874979496002197
1772812429877441500,6.897441650390625,-0.02709197998046875,0.13693362474441528,0.010248079895973206
1772812429887142100,6.90714208984375,-0.055912017822265625,0.13150179386138916,0.04177083075046539
1772812429896842800,6.9168427734375,0.020475387573242188,0.05041694641113281,0.057764217257499695
1772812429906543400,6.92654345703125,-0.040925025939941406,-0.008317768573760986,0.09593847393989563
1772812429916244200,6.936244140625,0.032772064208984375,-0.04435086250305176,0.10535319149494171
1772812429925944800,6.94594482421875,0.10988330841064453,-0.043681710958480835,0.07132969796657562
1772812429935645400,6.9556455078125,0.12798690795898438,-0.06726369261741638,0.042824238538742065
1772812429945346000,6.965345947265625,0.11395454406738281,-0.09813088178634644,0.04440954327583313
1772812429955047000,6.975046875,0.12246417999267578,-0.11251232028007507,0.0037375539541244507
1772812429964747500,6.98474755859375,0.09669780731201172,-0.0702235996723175,-0.06624048948287964
1772812429974448000,6.9944482421875,0.04431915283203125,-0.04888594150543213,-0.10115218162536621
1772812429984148700,7.004148681640625,-0.02831745147705078,-0.030515074729919434,-0.08666878938674927
1772812429993849600,7.013849609375,-0.06206035614013672,-0.03236299753189087,-0.07526853680610657
1772812430003550200,7.02355029296875,-0.10227203369140625,-0.02227562665939331,-0.03925628215074539
1772812430013250800,7.033250732421875,-0.08532047271728516,-0.02665296196937561,-0.021920323371887207
1772812430022951400,7.042951416015625,-0.047455787658691406,0.0024906694889068604,0.01735815405845642
1772812430032652000,7.052652099609375,-0.0008020401000976562,-0.006477475166320801,0.015597298741340637
1772812430042353000,7.062352783203125,0.04856586456298828,-0.008977293968200684,0.0286862850189209
1772812430052053500,7.072053466796875,0.07352828979492188,-0.019741058349609375,0.03159476816654205
1772812430061754000,7.081754150390625,0.10157108306884766,-0.04079282283782959,0.027184873819351196
1772812430071454700,7.091454833984375,0.08439826965332031,-0.008562058210372925,-0.006408393383026123
1772812430081155600,7.101155517578125,0.01692485809326172,0.022937148809432983,0.006111070513725281
1772812430090856200,7.110856201171875,-0.02114391326904297,0.053439825773239136,-0.013196155428886414
1772812430100556800,7.120556884765625,-0.13263511657714844,0.0675424337387085,-0.011097535490989685
1772812430110257700,7.130257568359375,-0.20572376251220703,0.06763036549091339,0.04472173750400543
1772812430119958300,7.139958251953125,-0.21280193328857422,0.0539821982383728,0.04330967366695404
1772812430129659000,7.149658935546875,-0.17029285430908203,0.01897701621055603,0.04011473059654236
1772812430139359500,7.159359375,-0.15198898315429688,0.02253130078315735,0.016967162489891052
1772812430149060000,7.16906005859375,-0.0857381820678711,0.0030440092086791992,-0.007560700178146362
1772812430158761000,7.178760986328125,-0.008831977844238281,0.023147135972976685,-0.02574915438890457
1772812430168461600,7.188461669921875,0.10323524475097656,0.015386253595352173,-0.04058077931404114
1772812430178162200,7.198162109375,0.11217784881591797,-0.00900760293006897,0.0027253180742263794
1772812430187862800,7.20786279296875,0.1526784896850586,-0.062421947717666626,0.010884881019592285
1772812430197563400,7.2175634765625,0.13599205017089844,-0.05858013033866882,-0.03203144669532776
1772812430207264300,7.22726416015625,0.046645164489746094,-0.023660272359848022,-0.06732216477394104
1772812430216964900,7.23696484375,-0.016489028930664062,-0.001018911600112915,-0.10385261476039886
1772812430226665500,7.24666552734375,-0.03734016418457031,0.0006659328937530518,-0.1427287608385086
1772812430236366000,7.256365966796875,-0.028412818908691406,-0.020544975996017456,-0.12294641137123108
1772812430246067000,7.26606689453125,0.012083053588867188,-0.03679704666137695,-0.04343999922275543
1772812430255767600,7.275767578125,0.06361007690429688,-0.07046464085578918,-0.018893256783485413
1772812430265468200,7.28546826171875,0.07304954528808594,-0.051957160234451294,-0.018277958035469055
1772812430275169000,7.2951689453125,0.0022974014282226562,-0.012990862131118774,-0.05188405513763428
1772812430284869600,7.30486962890625,-0.06374168395996094,-0.04380860924720764,-0.05739966034889221
1772812430294570200,7.3145703125,-0.028608322143554688,-0.04414963722229004,-0.11372663825750351
1772812430304270800,7.324270751953125,-0.09870624542236328,0.020911604166030884,-0.12250593304634094
1772812430313971500,7.333971435546875,-0.07701492309570312,0.03779876232147217,-0.06369396299123764
1772812430323672300,7.34367236328125,-0.09564495086669922,0.03954198956489563,0.004297241568565369
1772812430333373000,7.353373046875,-0.0374603271484375,0.03754726052284241,0.04979322850704193
1772812430343073500,7.363073486328125,0.018585205078125,0.06819659471511841,0.053475603461265564
1772812430352774100,7.372774169921875,0.06546592712402344,0.11046336591243744,0.07037006318569183
1772812430362474800,7.382474853515625,0.06450939178466797,0.11921447515487671,0.07898102700710297
1772812430372175600,7.392175537109375,0.04123497009277344,0.0985291600227356,0.09258352220058441
1772812430381876200,7.401876220703125,0.03719520568847656,0.08904203772544861,0.12409643828868866
1772812430391576800,7.411576904296875,0.028490066528320312,0.09957161545753479,0.1470043957233429
1772812430401277400,7.42127734375,0.02225017547607422,0.11890941858291626,0.14813512563705444
1772812430410978000,7.43097802734375,0.12079715728759766,0.09742134809494019,0.12130966782569885
