time,seconds_elapsed,z,y,x
1772812403627367700,0.09336767578125,0,0,0
1772812403646769200,0.11276904296875,-0.08657455444335938,0.01755356788635254,-0.013495534658432007
1772812403656469800,0.1224697265625,-0.09562492370605469,0.06306809186935425,0.06525598466396332
1772812403666170600,0.132170654296875,-0.029630661010742188,0.07970079779624939,0.11876925826072693
1772812403675871200,0.141871337890625,-0.022649765014648438,0.061149805784225464,0.13298138976097107
1772812403685572000,0.151572021484375,-0.05419445037841797,0.0038331151008605957,0.16378487646579742
1772812403695272700,0.161272705078125,0.05112171173095703,0.03807482123374939,0.11026853322982788
1772812403704973300,0.170973388671875,0.07961368560791016,0.10076656937599182,0.06671582162380219
1772812403714674200,0.180674072265625,0.18592453002929688,0.06985926628112793,0.04408273100852966
1772812403724374800,0.190374755859375,0.21804428100585938,0.029912441968917847,0.08306905627250671
1772812403734075600,0.20007568359375,0.209747314453125,-0.04138308763504028,0.0915306806564331
1772812403743776300,0.2097763671875,0.23215866088867188,-0.05664479732513428,0.12595170736312866
1772812403753477000,0.21947705078125,0.20761489868164062,-0.053855687379837036,0.13663536310195923
1772812403763177700,0.229177734375,0.1801128387451172,-0.07536742091178894,0.09614291787147522
1772812403772878300,0.23887841796875,0.11811447143554688,-0.026608705520629883,0.12789186835289001
1772812403782579200,0.2485791015625,0.10081195831298828,-0.0009844601154327393,0.06996574997901917
1772812403792279800,0.25827978515625,-0.01795482635498047,-0.024708032608032227,-0.012228220701217651
1772812403801980400,0.26798046875,-0.11115264892578125,-0.03157222270965576,-0.058923959732055664
1772812403811681300,0.277681396484375,-0.07604694366455078,0.007150143384933472,-0.050157174468040466
1772812403821382000,0.2873818359375,-0.08498191833496094,0.0029277503490448,0.02427157759666443
1772812403831082800,0.297082763671875,-0.028601646423339844,-0.05248644948005676,0.028888434171676636
1772812403840783400,0.306783447265625,0.010416984558105469,-0.05343833565711975,-0.05070282518863678
1772812403850484200,0.316484130859375,0.004240989685058594,0.003445535898208618,-0.029807955026626587
1772812403860184800,0.326184814453125,0.043048858642578125,0.013508349657058716,0.0060749053955078125
1772812403869885400,0.335885498046875,0.07917404174804688,-0.026675403118133545,0.06393754482269287
1772812403879586300,0.34558642578125,0.10478591918945312,-0.035764455795288086,0.059184104204177856
1772812403889287000,0.355286865234375,0.1018829345703125,-0.0010929107666015625,0.012775242328643799
1772812403898987800,0.36498779296875,0.03217887878417969,0.004817992448806763,-0.035718560218811035
1772812403908688400,0.3746884765625,-0.04207134246826172,0.025665283203125,-0.02689710259437561
1772812403918389200,0.38438916015625,-0.07334709167480469,0.02056834101676941,-0.014203324913978577
1772812403928089900,0.39408984375,-0.13027095794677734,0.012904196977615356,-0.0239688903093338
1772812403937790700,0.403790771484375,-0.18549442291259766,-0.010423630475997925,-0.05165691673755646
1772812403947491300,0.4134912109375,-0.18924331665039062,-0.01157328486442566,-0.07717786729335785
1772812403957192000,0.42319189453125,-0.1464700698852539,0.011926025152206421,-0.10003569722175598
1772812403966892800,0.432892822265625,-0.08629131317138672,0.029307186603546143,-0.1422993242740631
1772812403976593400,0.442593505859375,-0.010256767272949219,0.006241500377655029,-0.1751958131790161
1772812403986294300,0.452294189453125,0.0800466537475586,0.0019067823886871338,-0.09604407101869583
1772812403995995000,0.461994873046875,0.17962265014648438,-0.06033661961555481,0.03276996314525604
1772812404005695700,0.47169580078125,0.2766704559326172,-0.1221936047077179,0.034835830330848694
1772812404015396400,0.481396240234375,0.30486583709716797,-0.16137197613716125,-0.03778298199176788
1772812404025097200,0.49109716796875,0.2798900604248047,-0.09624910354614258,-0.0447223037481308
1772812404034797800,0.5007978515625,0.2216663360595703,-0.012573838233947754,-0.0046041905879974365
1772812404044498400,0.51049853515625,0.18471908569335938,-0.02340918779373169,0.015260323882102966
1772812404054199300,0.52019921875,0.05277442932128906,-0.050546854734420776,0.02352115511894226
1772812404063900000,0.52989990234375,-0.05514335632324219,-0.020936638116836548,0.05811642110347748
1772812404073600800,0.539600830078125,-0.12557029724121094,0.040601253509521484,0.053512126207351685
1772812404083301400,0.54930126953125,-0.12073421478271484,0.08843648433685303,0.12274806201457977
1772812404093002000,0.559001953125,-0.06799030303955078,0.0760917067527771,0.19251298904418945
1772812404102702800,0.568702880859375,0.008305549621582031,0.049668580293655396,0.19539472460746765
1772812404112403500,0.578403564453125,0.008059501647949219,0.06320887804031372,0.16501709818840027
1772812404122104300,0.588104248046875,-0.029691696166992188,0.10952651500701904,0.1365121454000473
1772812404131805000,0.597804931640625,-0.09836578369140625,0.12506943941116333,0.10524392127990723
1772812404141505500,0.607505615234375,-0.10239124298095703,0.07423755526542664,0.1763903796672821
1772812404151206400,0.617206298828125,-0.045386314392089844,0.004668831825256348,0.2986030578613281
1772812404160907000,0.626906982421875,0.06692695617675781,-0.06488317251205444,0.2793004810810089
1772812404170607900,0.63660791015625,0.16666889190673828,-0.06038773059844971,0.16196683049201965
1772812404180308500,0.64630859375,0.14597797393798828,0.017542481422424316,0.02674822509288788
1772812404190009300,0.65600927734375,0.07633495330810547,0.06709924340248108,-0.08226591348648071
1772812404199710000,0.6657099609375,-0.026157379150390625,0.07484406232833862,-0.17895275354385376
1772812404209410800,0.675410888671875,-0.12212371826171875,0.05238565802574158,-0.2269299030303955
1772812404219111400,0.685111328125,-0.15057659149169922,0.016265004873275757,-0.17870239913463593
1772812404228812000,0.69481201171875,-0.08683395385742188,-0.07146784663200378,-0.03309302031993866
1772812404238513000,0.704512939453125,0.059334754943847656,-0.157981276512146,0.021407276391983032
1772812404248213500,0.714213623046875,0.15007305145263672,-0.18460214138031006,-0.009706258773803711
1772812404257914400,0.723914306640625,0.1545553207397461,-0.09318915009498596,-0.054391250014305115
1772812404267615000,0.733614990234375,0.10366630554199219,-0.03358882665634155,-0.09135040640830994
1772812404277315800,0.74331591796875,0.05244255065917969,-0.01374998688697815,-0.07666443288326263
1772812404287016400,0.753016357421875,-0.0003223419189453125,-0.03980496525764465,-0.016442954540252686
1772812404296717000,0.762717041015625,-0.022797584533691406,-0.053712934255599976,0.030485138297080994
1772812404306418000,0.77241796875,0.006894111633300781,-0.025171607732772827,0.047745779156684875
1772812404316118500,0.782118408203125,0.021953582763671875,0.01680690050125122,0.048776984214782715
1772812404325819400,0.7918193359375,0.046202659606933594,0.035808682441711426,0.025198951363563538
1772812404335520000,0.80152001953125,0.026515960693359375,0.014927387237548828,-0.0013111680746078491
1772812404345220900,0.811220947265625,-0.005772590637207031,0.01755756139755249,-0.014249533414840698
1772812404354921500,0.82092138671875,-0.029270172119140625,0.03211405873298645,-0.0003279000520706177
1772812404364622000,0.8306220703125,-0.041792869567871094,0.043098390102386475,0.039870038628578186
1772812404374323000,0.840322998046875,-0.05291938781738281,0.016612619161605835,0.047734543681144714
1772812404384023600,0.8500234375,-0.028530120849609375,0.013843715190887451,0.056484490633010864
1772812404393724200,0.85972412109375,0.0013103485107421875,0.04075497388839722,0.07820788025856018
1772812404403425000,0.869425048828125,0.05881786346435547,0.026445865631103516,0.10126090049743652
1772812404413125600,0.879125732421875,0.0882568359375,-0.04208865761756897,0.06387399137020111
1772812404422826500,0.888826416015625,0.11365795135498047,-0.023814648389816284,0.008212924003601074
1772812404432527000,0.898527099609375,0.09863567352294922,0.05346795916557312,-0.026133522391319275
1772812404442228000,0.90822802734375,0.036812782287597656,0.06460496783256531,-0.033190205693244934
1772812404451928600,0.917928466796875,-0.03923988342285156,0.018841981887817383,-0.04251374304294586
1772812404461629200,0.927629150390625,-0.0892791748046875,0.003681093454360962,-0.022782117128372192
1772812404471330000,0.937330078125,-0.12788867950439453,-0.007492572069168091,0.0016423463821411133
1772812404481030700,0.94703076171875,-0.13878631591796875,-0.06587177515029907,-0.01946738362312317
1772812404490731500,0.9567314453125,-0.13181209564208984,-0.09921199083328247,-0.06010207533836365
1772812404500432100,0.96643212890625,-0.1248931884765625,-0.07356500625610352,-0.1155981793999672
1772812404510133000,0.976133056640625,-0.11808204650878906,-0.05620107054710388,-0.1252688765525818
1772812404519833600,0.98583349609375,-0.12317276000976562,-0.09088972210884094,-0.08086109161376953
1772812404529534500,0.995534423828125,-0.09521961212158203,-0.15784811973571777,-0.05074530839920044
1772812404539235000,1.005235107421875,-0.05359458923339844,-0.15088719129562378,-0.07502917945384979
1772812404548935700,1.014935791015625,-0.04564857482910156,-0.08952650427818298,-0.03585392236709595
1772812404558636500,1.024636474609375,0.013915061950683594,-0.07810342311859131,-0.004758208990097046
1772812404568337200,1.034337158203125,0.03367424011230469,-0.06011170148849487,-0.011524885892868042
1772812404578038000,1.0440380859375,0.029582977294921875,-0.0020866990089416504,0.007750451564788818
1772812404587738600,1.053738525390625,0.032619476318359375,0.06260254979133606,0.023976624011993408
1772812404597439500,1.063439453125,0.04620838165283203,0.08910194039344788,0.042507827281951904
1772812404607140000,1.07314013671875,0.045459747314453125,0.10613365471363068,0.05744005739688873
1772812404616841000,1.082841064453125,0.054116249084472656,0.0963398814201355,0.09362286329269409
1772812404626541600,1.09254150390625,0.040230751037597656,0.06421488523483276,0.12150673568248749
1772812404636242200,1.1022421875,0.047718048095703125,0.018751800060272217,0.11382120847702026
1772812404645943000,1.111943115234375,0.05860614776611328,0.014136731624603271,0.04245203733444214
1772812404655643600,1.1216435546875,0.026971817016601562,0.02772316336631775,-0.022099807858467102
1772812404665344500,1.131344482421875,-0.05237579345703125,0.011437058448791504,-0.02451099455356598
1772812404675045000,1.141045166015625,-0.097442626953125,-0.03364330530166626,-0.040041178464889526
1772812404684745700,1.150745849609375,-0.12878131866455078,-0.09108421206474304,-0.057827919721603394
1772812404694446600,1.160446533203125,-0.1478099822998047,-0.08635476231575012,-0.06977064907550812
1772812404704147200,1.170147216796875,-0.09471607208251953,-0.06402823328971863,-0.07793353497982025
1772812404713847800,1.179847900390625,-0.0036411285400390625,-0.018121570348739624,-0.128342404961586
1772812404723548700,1.189548583984375,0.042410850524902344,0.008361279964447021,-0.13757604360580444
1772812404733249300,1.199249267578125,0.06180858612060547,0.04141929745674133,-0.05349354445934296
1772812404742950100,1.2089501953125,0.10082244873046875,-0.032924115657806396,0.013869136571884155
1772812404752650800,1.218650634765625,0.11439990997314453,-0.06740868091583252,0.056870684027671814
1772812404762351600,1.2283515625,0.14651107788085938,-0.08298531174659729,0.07239823043346405
1772812404772052200,1.23805224609375,0.1497945785522461,-0.07289442420005798,0.0546579509973526
1772812404781753000,1.247753173828125,0.114166259765625,-0.038110196590423584,0.04077190160751343
1772812404791453700,1.25745361328125,0.09323596954345703,0.00253903865814209,0.020912140607833862
1772812404801154300,1.267154296875,0.045604705810546875,0.00952044129371643,-0.012025728821754456
1772812404810855200,1.276855224609375,-0.018840789794921875,0.029815316200256348,-0.026430249214172363
1772812404820555800,1.2865556640625,-0.09273529052734375,0.04080462455749512,-0.031685978174209595
1772812404830256600,1.296256591796875,-0.11708259582519531,0.04201209545135498,-0.01370413601398468
1772812404839957200,1.305957275390625,-0.15155792236328125,0.04499104619026184,-0.011165112257003784
1772812404849658000,1.315658203125,-0.14069366455078125,0.04701507091522217,-0.008025452494621277
1772812404859358700,1.325358642578125,-0.11468124389648438,0.03486904501914978,0.011755019426345825
1772812404869059300,1.335059326171875,-0.06321430206298828,0.029481351375579834,0.05084274709224701
1772812404878760200,1.34476025390625,0.02969646453857422,-0.0015271306037902832,0.07492701709270477
1772812404888460800,1.354460693359375,0.07040977478027344,-0.04323464632034302,0.09039855003356934
1772812404898161700,1.36416162109375,0.11747264862060547,-0.021314144134521484,0.07825733721256256
1772812404907862300,1.3738623046875,0.11198711395263672,0.021686017513275146,0.041370704770088196
1772812404917563100,1.383563232421875,0.07128047943115234,0.010611921548843384,0.007607877254486084
1772812404927263700,1.393263671875,0.037109375,-0.02228221297264099,0.029006004333496094
1772812404936964600,1.402964599609375,0.03756904602050781,-0.06303349137306213,0.08430616557598114
1772812404946665200,1.412665283203125,0.052100181579589844,-0.08853435516357422,0.05584092438220978
1772812404956365800,1.42236572265625,0.10170173645019531,-0.06583729386329651,-0.0031345337629318237
1772812404966066700,1.432066650390625,0.06694316864013672,-0.019424110651016235,-0.05251683294773102
1772812404975767300,1.441767333984375,-0.027217864990234375,-0.010098963975906372,-0.06161905825138092
1772812404985468200,1.45146826171875,-0.08444976806640625,0.021481096744537354,-0.06473472714424133
1772812404995168800,1.461168701171875,-0.12066173553466797,0.031444042921066284,-0.07481963187456131
1772812405004869400,1.470869384765625,-0.1538400650024414,-0.004089474678039551,-0.0669054388999939
1772812405014570200,1.4805703125,-0.14170360565185547,0.014355897903442383,-0.04625459015369415
1772812405024270800,1.490270751953125,-0.1544780731201172,0.054419875144958496,-0.0010072588920593262
1772812405033971500,1.499971435546875,-0.07761955261230469,0.015659958124160767,0.0501440167427063
1772812405043672300,1.50967236328125,-0.013811111450195312,0.0022546052932739258,0.0948600023984909
1772812405053373000,1.519373046875,0.03832244873046875,0.012156128883361816,0.12642137706279755
1772812405063073800,1.52907373046875,0.12482357025146484,0.01601308584213257,0.12172946333885193
1772812405072774400,1.5387744140625,0.15688610076904297,-0.02423843741416931,0.08993785083293915
1772812405082475300,1.548475341796875,0.16016769409179688,-0.02946898341178894,0.011702120304107666
1772812405092176000,1.55817578125,0.10218524932861328,-0.0023820102214813232,-0.025995582342147827
1772812405101876500,1.56787646484375,0.07925224304199219,0.015391647815704346,-0.04839581251144409
1772812405111577300,1.577577392578125,0.07316970825195312,-0.04995918273925781,-0.06518110632896423
1772812405121278000,1.58727783203125,0.053081512451171875,-0.07102632522583008,-0.08978544175624847
1772812405130978800,1.596978759765625,-0.021930694580078125,-0.03570210933685303,-0.08738802373409271
1772812405140679400,1.606679443359375,-0.049793243408203125,-0.01985308527946472,-0.04982250928878784
1772812405150380300,1.61638037109375,-0.056036949157714844,-0.025997549295425415,-0.009722098708152771
1772812405160081000,1.626080810546875,-0.02687549591064453,-0.05779135227203369,0.008487075567245483
1772812405169781800,1.63578173828125,-0.012292861938476562,-0.011267125606536865,-0.026308313012123108
1772812405179482400,1.645482421875,-0.03682422637939453,-0.025459736585617065,-0.008476689457893372
1772812405189183000,1.655182861328125,-0.03505992889404297,-0.02815425395965576,-0.01665639877319336
1772812405198883800,1.6648837890625,-0.025060653686523438,0.01608213782310486,-0.0016710758209228516
1772812405208584400,1.67458447265625,-0.08930492401123047,0.05806988477706909,0.012567564845085144
1772812405218285300,1.684285400390625,-0.12417125701904297,0.0648336112499237,0.01593761146068573
1772812405227986000,1.69398583984375,-0.1148386001586914,0.0751420259475708,0.027411609888076782
1772812405237686800,1.703686767578125,-0.05148792266845703,0.06940436363220215,0.005126357078552246
1772812405247387400,1.713387451171875,0.027245521545410156,0.038051605224609375,0.019231736660003662
1772812405257088000,1.723087890625,0.1104593276977539,-0.007378637790679932,0.026274263858795166
1772812405266788900,1.732788818359375,0.2098398208618164,-0.033560216426849365,-0.017606571316719055
1772812405276489500,1.742489501953125,0.2345409393310547,-0.05390176177024841,-0.020681962370872498
1772812405286190300,1.7521904296875,0.24580097198486328,-0.054378360509872437,-0.03978016972541809
1772812405295891000,1.761890869140625,0.16739749908447266,-0.10016286373138428,-0.058642685413360596
1772812405305591800,1.771591796875,0.07616901397705078,-0.100792795419693,-0.06287629902362823
1772812405315292400,1.78129248046875,-0.014704704284667969,-0.09489628672599792,-0.06746120750904083
1772812405324993000,1.790992919921875,-0.07109642028808594,-0.073883056640625,-0.07131350040435791
1772812405334694000,1.80069384765625,-0.10882949829101562,-0.017578452825546265,-0.09936320036649704
1772812405344394500,1.81039453125,-0.13525104522705078,0.03382915258407593,-0.10703486204147339
1772812405354095000,1.82009521484375,-0.1811685562133789,0.07080140709877014,-0.02290305495262146
1772812405363796000,1.8297958984375,-0.15215682983398438,0.06378042697906494,0.057496652007102966
1772812405373496600,1.83949658203125,-0.1600818634033203,0.0022658705711364746,0.0922059565782547
1772812405383197400,1.849197509765625,-0.12079238891601562,0.0129871666431427,0.12040688097476959
1772812405392898000,1.85889794921875,-0.055088043212890625,0.06489640474319458,0.12103842198848724
1772812405402598700,1.8685986328125,-0.015192985534667969,0.12853696942329407,0.11212672293186188
1772812405412299500,1.878299560546875,0.03344249725341797,0.1011514663696289,0.09571245312690735
1772812405422000000,1.888000244140625,0.05416584014892578,0.06388935446739197,0.11529392004013062
1772812405431701000,1.897700927734375,0.0803995132446289,0.07608407735824585,0.10652454197406769
1772812405441401600,1.907401611328125,0.1014547348022461,0.07584914565086365,0.086915984749794
1772812405451102500,1.9171025390625,0.06331443786621094,0.06147095561027527,0.05674578249454498
1772812405460803000,1.926802978515625,0.06581687927246094,0.07100030779838562,0.04581177234649658
1772812405470504000,1.93650390625,0.047120094299316406,0.04297289252281189,-0.005346164107322693
1772812405480204500,1.94620458984375,0.028738975524902344,0.03067183494567871,-0.03359249234199524
1772812405489905200,1.9559052734375,0.040047645568847656,0.00979873538017273,-0.018595263361930847
1772812405499606000,1.96560595703125,0.028802871704101562,-0.013230234384536743,-0.00475582480430603
1772812405509306600,1.975306640625,0.016547203063964844,-0.022253990173339844,0.003089010715484619
1772812405519007500,1.985007568359375,0.04095935821533203,-0.024297773838043213,-0.028024733066558838
1772812405528708000,1.9947080078125,0.020227432250976562,-0.030134648084640503,-0.06954026222229004
1772812405538409000,2.004408935546875,0.032782554626464844,-0.041730910539627075,-0.09270381927490234
1772812405548109600,2.014109619140625,0.04984283447265625,-0.008710294961929321,-0.13978418707847595
1772812405557810200,2.02381005859375,0.03839302062988281,-0.011817991733551025,-0.15870429575443268
1772812405567511000,2.033510986328125,-0.0011043548583984375,-0.026067137718200684,-0.13003374636173248
1772812405577211600,2.043211669921875,-0.028156280517578125,-0.0024484097957611084,-0.1099010705947876
1772812405586912500,2.05291259765625,-0.060631752014160156,-0.0025818347930908203,-0.07363267242908478
1772812405596613000,2.062613037109375,-0.07609844207763672,-0.0045684874057769775,0.012299865484237671
1772812405606314000,2.07231396484375,-0.07013702392578125,-0.04364630579948425,0.057992130517959595
1772812405616014600,2.0820146484375,-0.05486011505126953,-0.055576205253601074,0.04731540381908417
1772812405625715200,2.091715087890625,-0.04451274871826172,-0.02071446180343628,-0.012761905789375305
1772812405635416000,2.101416015625,-0.04724693298339844,0.014063447713851929,-0.0524631142616272
1772812405645116700,2.11111669921875,-0.07223224639892578,0.021825939416885376,-0.08937042951583862
1772812405654817500,2.120817626953125,-0.06851673126220703,0.038258880376815796,-0.09876994788646698
1772812405664518100,2.13051806640625,-0.10247135162353516,0.011383742094039917,-0.06881031394004822
1772812405674218800,2.14021875,-0.1076040267944336,-0.00752750039100647,-0.018278852105140686
1772812405683919600,2.149919677734375,-0.09973430633544922,-0.0249822735786438,0.04782715439796448
1772812405693620200,2.1596201171875,-0.09320068359375,-0.007094651460647583,0.09847390651702881
1772812405703320800,2.16932080078125,-0.07738494873046875,-0.014740973711013794,0.13070891797542572
1772812405713021700,2.179021728515625,-0.07710552215576172,0.00020799040794372559,0.11820995807647705
1772812405722722300,2.188722412109375,-0.08265113830566406,0.03100481629371643,0.08240501582622528
1772812405732423200,2.198423095703125,-0.09274482727050781,0.08238640427589417,0.04177577793598175
1772812405742123800,2.208123779296875,-0.0720367431640625,0.11074560880661011,0.008282452821731567
1772812405751824600,2.21782470703125,-0.06691360473632812,0.11523711681365967,-0.010347411036491394
1772812405761525200,2.227525146484375,0.027561187744140625,0.10691139101982117,0.006179094314575195
1772812405771225900,2.237225830078125,0.05101299285888672,0.07524275779724121,-0.018240392208099365
1772812405780926700,2.2469267578125,0.06930828094482422,0.016505539417266846,0.04638952016830444
1772812405790627300,2.25662744140625,0.1296100616455078,-0.04030129313468933,0.054141074419021606
1772812405800328200,2.266328125,0.18647003173828125,-0.039862215518951416,-0.004337489604949951
1772812405810028800,2.27602880859375,0.10814857482910156,0.0005338490009307861,-0.011175304651260376
1772812405819729700,2.285729736328125,0.2735004425048828,-0.018278002738952637,-0.05402304232120514
1772812405829430300,2.29543017578125,0.1795053482055664,0.006141692399978638,-0.09705200791358948
1772812405839131000,2.305130859375,0.09877300262451172,-0.04985490441322327,-0.026944532990455627
1772812405848831700,2.314831787109375,0.16057205200195312,-0.06748399138450623,-0.0517125129699707
1772812405858532400,2.324532470703125,0.048404693603515625,-0.055493444204330444,-0.07755397260189056
1772812405868233200,2.334233154296875,0.06403732299804688,-0.048344552516937256,-0.07064017653465271
1772812405877933800,2.343933837890625,0.041779518127441406,-0.028495043516159058,-0.009497076272964478
1772812405897335300,2.363335205078125,0.05228900909423828,0.01207202672958374,0.04551994800567627
1772812405907036000,2.373035888671875,0.053679466247558594,0.025115221738815308,0.05796244740486145
1772812405916736800,2.38273681640625,0.02914714813232422,0.040277570486068726,0.12743189930915833
1772812405926437400,2.392437255859375,0.009734153747558594,0.05473512411117554,0.11329659819602966
1772812405936138200,2.40213818359375,-0.02460956573486328,0.08313488960266113,0.09404298663139343
1772812405945838800,2.4118388671875,-0.03363037109375,0.13217410445213318,0.0646744966506958
1772812405955539700,2.421539794921875,-0.04246044158935547,0.14012321829795837,0.08284789323806763
1772812405965240300,2.431240234375,-0.03470039367675781,0.11712980270385742,0.11903610825538635
1772812405974941000,2.44094091796875,-0.02476215362548828,0.028742462396621704,0.16165512800216675
1772812405984641800,2.450641845703125,-0.0009202957153320312,-0.031488776206970215,0.1534215807914734
1772812405994342400,2.46034228515625,0.013064384460449219,-0.017954021692276,0.12862205505371094
1772812406004043300,2.470043212890625,-0.00493621826171875,0.009218096733093262,0.08221259713172913
1772812406013743900,2.479743896484375,-0.03435230255126953,0.00023981928825378418,0.014819324016571045
1772812406023444500,2.489444580078125,-0.04909992218017578,-0.004549562931060791,-0.023973017930984497
1772812406033145300,2.499145263671875,-0.06591796875,-0.034509122371673584,-0.013693392276763916
1772812406042846000,2.508845947265625,-0.04831886291503906,-0.04736337065696716,-0.01171007752418518
1772812406052546600,2.518546630859375,-0.015700340270996094,-0.055913835763931274,-0.02481040358543396
1772812406062247400,2.528247314453125,-0.009512901306152344,-0.0764230489730835,-0.014527395367622375
1772812406071948000,2.537947998046875,0.008343696594238281,-0.03599041700363159,-0.036137655377388
1772812406081649000,2.54764892578125,0.021172523498535156,-0.029148191213607788,-0.06298494338989258
1772812406091349500,2.557349609375,0.021988868713378906,-0.036243557929992676,-0.016648083925247192
1772812406101050000,2.567050048828125,0.021567344665527344,-0.06383410096168518,0.030942440032958984
1772812406110751000,2.5767509765625,0.03052806854248047,-0.09732511639595032,0.046531498432159424
1772812406120451600,2.58645166015625,0.054607391357421875,-0.038844794034957886,0.028235286474227905
1772812406130152400,2.59615234375,0.07474231719970703,0.020814716815948486,0.021001696586608887
1772812406139853000,2.60585302734375,0.058060646057128906,0.015663206577301025,0.01032605767250061
1772812406149554000,2.615553955078125,0.027558326721191406,0.007125675678253174,-0.028971731662750244
1772812406159254500,2.625254638671875,0.00228118896484375,-0.015236139297485352,-0.031355634331703186
1772812406168955100,2.634955078125,-0.019046783447265625,-0.026591837406158447,-0.037089258432388306
1772812406178656000,2.644656005859375,-0.02825927734375,-0.039153844118118286,-0.03103548288345337
1772812406188356600,2.654356689453125,-0.057272911071777344,-0.08060833811759949,-0.04871475696563721
1772812406198057500,2.664057373046875,-0.06339263916015625,-0.057939112186431885,-0.08069539070129395
1772812406207758000,2.673758056640625,-0.08237838745117188,-0.026682615280151367,-0.01466149091720581
1772812406217459000,2.683458984375,-0.0728445053100586,-0.056827425956726074,0.028491228818893433
1772812406227159600,2.69315966796875,-0.021127700805664062,-0.07523021101951599,0.03999966382980347
1772812406236860200,2.702860107421875,0.009726524353027344,-0.04151102900505066,0.02347254753112793
1772812406246561000,2.71256103515625,0.01654815673828125,0.014626801013946533,0.04836742579936981
1772812406256261600,2.72226171875,-0.02731800079345703,0.05210652947425842,0.055781543254852295
1772812406265962500,2.73196240234375,-0.004547119140625,0.027086615562438965,0.05344182252883911
1772812406275663000,2.7416630859375,-0.00333404541015625,0.023341655731201172,0.039700329303741455
1772812406285364000,2.751364013671875,-0.015100479125976562,0.03813710808753967,-0.0072214603424072266
1772812406295064600,2.761064697265625,0.020399093627929688,0.05319598317146301,-0.06230540573596954
1772812406304765200,2.77076513671875,0.05651569366455078,0.07282131910324097,-0.0940353125333786
1772812406314466000,2.780466064453125,0.0685281753540039,0.029557734727859497,-0.10662591457366943
1772812406324166700,2.790166748046875,0.033252716064453125,-0.006534367799758911,-0.08001737296581268
1772812406333867500,2.799867431640625,0.0032243728637695312,-0.08413243293762207,-0.0533917099237442
1772812406343568100,2.809568115234375,0.016028404235839844,-0.12832927703857422,-0.031296029686927795
1772812406353268700,2.819268798828125,0.009770393371582031,-0.11728569865226746,-0.04634535312652588
1772812406362969600,2.828969482421875,-0.014037132263183594,-0.052491605281829834,-0.05167865753173828
1772812406372670200,2.838670166015625,-0.017434120178222656,0.0007893741130828857,-0.05486035346984863
1772812406382371000,2.84837109375,-0.03017139434814453,0.026753634214401245,-0.04699355363845825
1772812406392071700,2.85807177734375,-0.05679035186767578,0.036871254444122314,0.00031509995460510254
1772812406401772300,2.867772216796875,-0.06174945831298828,0.05490177869796753,-0.01198500394821167
1772812406411473200,2.87747314453125,-0.03716564178466797,0.08174923062324524,-0.01284848153591156
1772812406421173800,2.887173828125,-0.002391815185546875,0.09885013103485107,0.01898743212223053
1772812406430874600,2.89687451171875,0.042357444763183594,0.07393521070480347,0.05422200262546539
1772812406440575200,2.9065751953125,0.08041763305664062,0.03294691443443298,0.08832168579101562
1772812406450275800,2.91627587890625,0.07544422149658203,0.014175981283187866,0.08599576354026794
1772812406459976700,2.925976806640625,0.04583549499511719,0.040079861879348755,0.03073456883430481
1772812406469677300,2.93567724609375,0.03202056884765625,0.05380180478096008,-0.03554524481296539
1772812406479378200,2.945378173828125,-0.008584976196289062,0.03379431366920471,-0.06951729953289032
1772812406489078800,2.955078857421875,-0.06496047973632812,0.024003654718399048,-0.08438362181186676
1772812406498779400,2.964779296875,-0.07448005676269531,-0.02860221266746521,-0.09249129891395569
1772812406508480300,2.974480224609375,-0.0908670425415039,-0.059729814529418945,-0.08679027855396271
1772812406518180900,2.984180908203125,-0.11756324768066406,-0.05245816707611084,-0.05867888033390045
1772812406527881700,2.9938818359375,-0.10379600524902344,-0.060145795345306396,-0.058175474405288696
1772812406537582300,3.003582275390625,-0.08905506134033203,-0.05413830280303955,-0.04720108211040497
1772812406547283000,3.013282958984375,-0.08395671844482422,-0.06306150555610657,-0.04689532518386841
1772812406556983800,3.02298388671875,-0.06950950622558594,-0.045369505882263184,-0.06059746444225311
1772812406566684400,3.032684326171875,-0.06823539733886719,-0.022736191749572754,-0.06769976019859314
1772812406576385300,3.04238525390625,-0.04344940185546875,-0.006262540817260742,-0.05571924149990082
1772812406586086000,3.0520859375,-0.01792144775390625,-0.021187812089920044,-0.027462288737297058
1772812406595786800,3.061786865234375,0.0283355712890625,-0.0075397491455078125,0.008811041712760925
1772812406605487400,3.0714873046875,0.03380012512207031,-0.024543732404708862,0.01073591411113739
1772812406615188000,3.08118798828125,0.013275146484375,0.008914023637771606,0.03383795917034149
1772812406624888800,3.090888916015625,0.016611099243164062,0.04786595702171326,0.07488057017326355
1772812406634589400,3.10058935546875,0.029296875,0.03835442662239075,0.06563520431518555
1772812406644290300,3.110290283203125,0.06059551239013672,0.030766665935516357,0.07049436867237091
1772812406653991000,3.119990966796875,0.07371234893798828,0.0362076461315155,0.06044197082519531
1772812406663691800,3.12969189453125,0.09015083312988281,0.033086150884628296,0.027365848422050476
1772812406673392400,3.139392333984375,0.08984088897705078,0.036555707454681396,-0.002354845404624939
1772812406683093000,3.149093017578125,0.058940887451171875,0.038455069065093994,-0.006030961871147156
1772812406692793900,3.1587939453125,0.04501533508300781,0.01993468403816223,-0.01094922423362732
1772812406702494500,3.168494384765625,0.0030641555786132812,0.014444738626480103,-0.0033848434686660767
1772812406712195300,3.1781953125,-0.02997112274169922,-0.02380990982055664,-0.011481910943984985
1772812406721896000,3.18789599609375,-0.027154922485351562,-0.01985183358192444,-0.021481886506080627
1772812406731596500,3.197596435546875,-0.02084827423095703,0.01923006772994995,-0.04704688489437103
1772812406741297400,3.20729736328125,-0.031093597412109375,0.044756144285202026,-0.03672069311141968
1772812406750998000,3.216998046875,-0.059967041015625,0.025262892246246338,-0.026299238204956055
1772812406760699000,3.226698974609375,-0.08361339569091797,0.025310248136520386,-0.005286276340484619
1772812406770399500,3.2363994140625,-0.08565044403076172,0.04742875695228577,0.01877366006374359
1772812406780100400,3.246100341796875,-0.08878612518310547,0.06713306903839111,0.05725753307342529
1772812406789801000,3.255801025390625,-0.055400848388671875,0.059128373861312866,0.07432255148887634
1772812406799501600,3.26550146484375,-0.02375030517578125,0.022454500198364258,0.03932774066925049
1772812406809202400,3.275202392578125,0.06382942199707031,0.017795711755752563,0.010838881134986877
1772812406818903000,3.284903076171875,0.1146087646484375,0.02008533477783203,-0.055179134011268616
1772812406828603600,3.294603759765625,0.1339101791381836,-0.020631402730941772,-0.06727372109889984
1772812406838304500,3.304304443359375,0.11284351348876953,-0.04602313041687012,-0.060495972633361816
1772812406848005000,3.314005126953125,0.0791473388671875,-0.09013471007347107,-0.05946195125579834
1772812406857705700,3.323705810546875,0.054223060607910156,-0.07040426135063171,-0.023983314633369446
1772812406867406600,3.333406494140625,-0.0079345703125,-0.05622395873069763,-0.024247005581855774
1772812406886808000,3.35280810546875,-0.03328990936279297,-0.0072438716888427734,-0.018873542547225952
1772812406896508700,3.3625087890625,-0.03155517578125,0.028444528579711914,-0.01941695809364319
1772812406906209300,3.372209228515625,-0.023920059204101562,0.07002344727516174,-0.029164448380470276
1772812406915910100,3.38191015625,-0.03989601135253906,0.07742440700531006,-0.0077618807554244995
1772812406925610800,3.39161083984375,-0.03912162780761719,0.08980759978294373,0.02281402051448822
1772812406935311600,3.4013115234375,-0.02541828155517578,0.06685522198677063,0.05903691053390503
1772812406945012200,3.41101220703125,0.02097320556640625,0.041622698307037354,0.10923735797405243
1772812406954713000,3.420713134765625,0.03595542907714844,0.019511401653289795,0.12863098084926605
1772812406964413700,3.43041357421875,0.06947708129882812,0.0017617642879486084,0.13142968714237213
1772812406974114300,3.4401142578125,0.09770679473876953,0.007281631231307983,0.1073770821094513
1772812406983815200,3.449815185546875,0.09366607666015625,0.052178412675857544,0.06772124767303467
1772812406993515800,3.459515869140625,0.08263301849365234,0.061130136251449585,0.008889436721801758
1772812407003216600,3.469216552734375,0.07294940948486328,0.04285445809364319,0.01268361508846283
1772812407012917200,3.478917236328125,0.03987407684326172,0.009197056293487549,0.001440688967704773
1772812407022617900,3.488617919921875,0.05440330505371094,-0.02338123321533203,0.0013741403818130493
1772812407032318700,3.498318603515625,0.032196998596191406,-0.023503929376602173,-0.0030270665884017944
1772812407042019300,3.508019287109375,-0.004927635192871094,-0.007672816514968872,0.008053034543991089
1772812407051720200,3.51772021484375,-0.02966785430908203,-0.023962318897247314,0.02114883065223694
1772812407061420800,3.5274208984375,-0.09750938415527344,-0.027538448572158813,0.020470812916755676
1772812407071121700,3.53712158203125,-0.0971231460571289,-0.018798112869262695,0.030285894870758057
1772812407080822300,3.546822265625,-0.11554622650146484,0.005362451076507568,0.03444105386734009
1772812407090523000,3.55652294921875,-0.09247493743896484,-0.006612271070480347,0.02514679729938507
1772812407100223700,3.5662236328125,-0.05564308166503906,-0.052191734313964844,-0.016322582960128784
1772812407109924400,3.57592431640625,-0.02645587921142578,-0.033896952867507935,-0.06259767711162567
1772812407119625200,3.585625244140625,-0.010666847229003906,-0.008077681064605713,-0.09590661525726318
1772812407129325800,3.595325927734375,-0.030420303344726562,-0.014604926109313965,-0.09183180332183838
1772812407139026400,3.6050263671875,-0.04398059844970703,-0.04818689823150635,-0.053125739097595215
1772812407158428000,3.624427978515625,0.0041332244873046875,-0.09076130390167236,0.04834459722042084
1772812407168128800,3.634128662109375,0.05342674255371094,-0.07607528567314148,0.028937965631484985
1772812407177829400,3.643829345703125,0.09601593017578125,-0.04564884305000305,-0.005147978663444519
1772812407187530200,3.6535302734375,0.09083271026611328,0.010636478662490845,-0.0514511913061142
1772812407197230800,3.66323095703125,0.05986309051513672,0.04423511028289795,-0.06779861450195312
1772812407206931500,3.672931396484375,0.015321731567382812,0.053898900747299194,-0.05786944925785065
1772812407216632300,3.68263232421875,-0.031993865966796875,0.023745089769363403,-0.02689562737941742
1772812407226333000,3.6923330078125,-0.0785055160522461,-0.0028212368488311768,0.02893902361392975
1772812407236033500,3.702033447265625,-0.09011554718017578,-0.024526596069335938,0.06147259473800659
1772812407245734400,3.711734375,-0.06742477416992188,-0.06319630146026611,0.07442295551300049
1772812407255435000,3.72143505859375,-0.041602134704589844,-0.07571220397949219,0.05443485081195831
1772812407265135900,3.731135986328125,0.01202392578125,-0.0016578137874603271,0.02066795527935028
1772812407274836500,3.74083642578125,0.011819839477539062,0.02808395028114319,0.022508904337882996
1772812407284537000,3.750537109375,-0.03190898895263672,-0.009759753942489624,0.051345065236091614
1772812407294238000,3.760238037109375,-0.06784248352050781,-0.0428946316242218,0.1131494790315628
1772812407303938600,3.7699384765625,-0.09607696533203125,-0.023443907499313354,0.1135789006948471
1772812407313639200,3.77963916015625,-0.0849618911743164,0.004528552293777466,0.09463812410831451
1772812407323340000,3.789340087890625,-0.061020851135253906,0.023113787174224854,0.019423484802246094
1772812407333040600,3.79904052734375,-0.013889312744140625,0.07763642072677612,-0.04930338263511658
1772812407342741500,3.808741455078125,0.05483818054199219,0.0927419364452362,-0.098629429936409
1772812407352442000,3.818442138671875,0.11060810089111328,0.06444579362869263,-0.08179132640361786
1772812407362142700,3.828142822265625,0.14299869537353516,-0.014737695455551147,-0.050397321581840515
1772812407371843600,3.837843505859375,0.18414020538330078,-0.07407486438751221,-0.012156546115875244
1772812407381544200,3.847544189453125,0.1891794204711914,-0.09076979756355286,0.0028300732374191284
1772812407391245000,3.8572451171875,0.1728668212890625,-0.08036240935325623,-0.03732888400554657
1772812407400945700,3.866945556640625,0.09445953369140625,-0.03929188847541809,-0.07902699708938599
1772812407410646500,3.876646484375,0.018568992614746094,-0.01751658320426941,-0.10682116448879242
1772812407420347100,3.88634716796875,-0.07951641082763672,0.009154736995697021,-0.15631458163261414
1772812407430047700,3.8960478515625,-0.16529464721679688,0.03326231241226196,-0.11466201394796371
1772812407439748600,3.90574853515625,-0.17660808563232422,0.01597854495048523,-0.09436941146850586
1772812407449449200,3.91544921875,-0.16998767852783203,0.026128023862838745,-0.04267323017120361
1772812407459150000,3.925150146484375,-0.15753936767578125,-0.0034068822860717773,0.027565091848373413
1772812407468850700,3.9348505859375,-0.09706974029541016,-0.044021397829055786,0.062097907066345215
1772812407478551300,3.94455126953125,-0.009398460388183594,-0.014287084341049194,0.07561509311199188
1772812407488252200,3.954252197265625,0.06854248046875,0.010941922664642334,0.07802538573741913
1772812407497952800,3.963952880859375,0.11101245880126953,0.029195845127105713,0.07227323949337006
1772812407507653600,3.973653564453125,0.09271240234375,0.05743175745010376,0.0760173499584198
1772812407517354200,3.983354248046875,0.0758676528930664,0.05626410245895386,0.09728589653968811
1772812407527054800,3.993054931640625,0.06047344207763672,0.04611155390739441,0.10148599743843079
1772812407536755700,4.002755615234375,-0.005267143249511719,0.07327732443809509,0.04983678460121155
1772812407546456300,4.012456298828125,-0.006388664245605469,0.06872865557670593,0.033026233315467834
1772812407556157200,4.0221572265625,0.007822036743164062,0.03393763303756714,0.004396900534629822
1772812407565857800,4.03185791015625,-0.0017194747924804688,0.018437474966049194,-0.026815414428710938
1772812407575558700,4.04155859375,-0.02169513702392578,0.027518898248672485,-0.05561259388923645
1772812407585259300,4.05125927734375,-0.014264106750488281,0.0362589955329895,-0.056615352630615234
1772812407594960000,4.0609599609375,-0.01280975341796875,0.03247898817062378,-0.059061199426651
1772812407604660700,4.07066064453125,-0.03255653381347656,0.010420829057693481,-0.014704287052154541
1772812407614361300,4.080361328125,-0.02373504638671875,-0.024851173162460327,-0.021026864647865295
1772812407624062200,4.090062255859375,-0.018568992614746094,-0.02022877335548401,-0.06483215093612671
1772812407633762800,4.0997626953125,0.02888011932373047,-0.015416741371154785,-0.06688056886196136
1772812407643463400,4.10946337890625,0.0507965087890625,-0.037283480167388916,-0.052218034863471985
1772812407653164300,4.119164306640625,0.06879615783691406,-0.045588135719299316,-0.0797145664691925
1772812407662865000,4.128864990234375,0.07354736328125,-0.04728063941001892,-0.0733252763748169
1772812407672565800,4.138565673828125,0.06289386749267578,0.004729241132736206,-0.03239646553993225
1772812407682266400,4.148266357421875,0.055896759033203125,-0.00005036592483520508,0.017068803310394287
1772812407691967000,4.157967041015625,0.039577484130859375,-0.008895426988601685,0.01990412175655365
1772812407701667800,4.167667724609375,-0.014088630676269531,-0.004333317279815674,0.01847212016582489
1772812407711368400,4.177368408203125,-0.055024147033691406,0.025009959936141968,0.0024275779724121094
1772812407721069000,4.187069091796875,-0.07526111602783203,0.0359882116317749,0.012285053730010986
1772812407730770000,4.19677001953125,-0.05282020568847656,-0.010714054107666016,0.020404934883117676
1772812407740470500,4.206470458984375,0.018632888793945312,-0.062276482582092285,-0.016906797885894775
1772812407750171400,4.21617138671875,0.047710418701171875,-0.043290287256240845,-0.04891839623451233
1772812407759872000,4.2258720703125,0.04334545135498047,-0.01360580325126648,-0.06695985794067383
1772812407769572600,4.235572509765625,0.008451461791992188,0.01413661241531372,-0.03635801374912262
1772812407779273500,4.2452734375,-0.02938556671142578,-0.03322359919548035,-0.018268942832946777
1772812407788974000,4.25497412109375,-0.0701284408569336,-0.010933727025985718,0.02567361295223236
1772812407798674700,4.2646748046875,-0.0807647705078125,0.00451543927192688,0.05159543454647064
1772812407808375600,4.27437548828125,-0.10295677185058594,0.010675400495529175,0.061194390058517456
1772812407818076200,4.284076171875,-0.08824634552001953,0.005518138408660889,0.060696497559547424
1772812407827777000,4.293777099609375,-0.08195781707763672,0.028211504220962524,0.029629230499267578
1772812407837477600,4.3034775390625,-0.08632564544677734,0.06207582354545593,0.03218773007392883
1772812407847178200,4.31317822265625,-0.05530357360839844,0.05169248580932617,0.027381137013435364
1772812407856879000,4.322879150390625,0.006972312927246094,0.05973184108734131,0.0129309743642807
1772812407866579700,4.332579833984375,0.055275917053222656,0.04321509599685669,-0.006847456097602844
1772812407876280600,4.342280517578125,0.10389995574951172,0.040387630462646484,0.009855508804321289
1772812407885981200,4.351981201171875,0.11868953704833984,-0.019497781991958618,0.021775618195533752
1772812407895682000,4.36168212890625,0.1425619125366211,-0.060468971729278564,0.008365124464035034
1772812407905382700,4.371382568359375,0.12716102600097656,-0.07185569405555725,0.0013597458600997925
1772812407915083300,4.381083251953125,0.08611488342285156,-0.05095890164375305,-0.019144073128700256
1772812407924784000,4.3907841796875,0.035186767578125,-0.008962929248809814,-0.04914200305938721
1772812407934484700,4.400484619140625,-0.03486156463623047,-0.002149909734725952,-0.07499374449253082
1772812407944185600,4.410185546875,-0.06134796142578125,-0.011863887310028076,-0.059877485036849976
1772812407953886200,4.41988623046875,-0.06148242950439453,-0.013407975435256958,-0.019742727279663086
1772812407963586800,4.4295869140625,-0.0251312255859375,-0.0016203820705413818,0.032771870493888855
1772812407973287700,4.43928759765625,-0.008223533630371094,-0.01273694634437561,0.08670887351036072
1772812407982988300,4.44898828125,0.013081550598144531,-0.0032213330268859863,0.11600795388221741
1772812407992689200,4.458689208984375,0.0387115478515625,0.012400537729263306,0.10683499276638031
1772812408002389800,4.4683896484375,0.01096343994140625,0.027492016553878784,0.09652616083621979
1772812408012090400,4.47809033203125,-0.00574493408203125,0.0268421471118927,0.06412620842456818
1772812408021791200,4.487791259765625,-0.013909339904785156,0.04216018319129944,0.009876146912574768
1772812408031491800,4.497491943359375,-0.05956268310546875,0.02612602710723877,-0.009012296795845032
1772812408041192700,4.507192626953125,-0.05621051788330078,-0.0008298754692077637,-0.014118790626525879
1772812408050893300,4.516893310546875,-0.05292224884033203,-0.0003643035888671875,0.027023106813430786
1772812408060594000,4.526593994140625,-0.016757965087890625,0.0019233226776123047,0.05635784566402435
1772812408070294800,4.536294677734375,-0.0376739501953125,-0.005806177854537964,0.06450062990188599
1772812408079995400,4.545995361328125,-0.06645679473876953,-0.00043824315071105957,0.06583759188652039
1772812408089696300,4.5556962890625,-0.1041107177734375,0.028375625610351562,0.05730350315570831
1772812408099396900,4.56539697265625,-0.12224769592285156,0.05710551142692566,0.030256792902946472
1772812408109097500,4.575097412109375,-0.10944366455078125,0.016341358423233032,-0.0038665980100631714
1772812408118798300,4.58479833984375,-0.06154155731201172,-0.04182597994804382,-0.008553281426429749
1772812408128499000,4.5944990234375,0.004361152648925781,-0.061751753091812134,0.017867788672447205
1772812408138199800,4.60419970703125,0.09030914306640625,-0.07305115461349487,0.01384630799293518
1772812408147900400,4.613900390625,0.1312694549560547,-0.028800368309020996,-0.008698850870132446
1772812408157601000,4.62360107421875,0.15857219696044922,0.03143879771232605,-0.019392386078834534
1772812408167302000,4.633302001953125,0.13714122772216797,0.05807557702064514,-0.015592217445373535
1772812408177002500,4.64300244140625,0.1266040802001953,0.049613237380981445,0.006925895810127258
1772812408186703400,4.652703369140625,0.08677387237548828,0.047828346490859985,0.05740934610366821
1772812408196404000,4.662404052734375,0.09934425354003906,0.025592118501663208,0.0649055540561676
1772812408206104600,4.6721044921875,0.08579158782958984,0.050073087215423584,0.08057059347629547
1772812408215805400,4.681805419921875,0.05594062805175781,0.048499464988708496,0.09998632967472076
1772812408225506000,4.691506103515625,0.04774188995361328,0.013451725244522095,0.05904579162597656
1772812408235207000,4.70120703125,0.02087688446044922,0.02851763367652893,0.022935867309570312
1772812408244907500,4.710907470703125,-0.031380653381347656,0.04988443851470947,-0.032966360449790955
1772812408254608100,4.720608154296875,-0.0780181884765625,0.023674458265304565,-0.05739609897136688
1772812408264309000,4.73030908203125,-0.08383941650390625,-0.018846184015274048,-0.04611869156360626
1772812408274009600,4.740009521484375,-0.061326026916503906,-0.047708660364151,-0.024541154503822327
1772812408283710200,4.749710205078125,-0.026262283325195312,-0.07899105548858643,-0.024771690368652344
1772812408293411000,4.7594111328125,0.018770217895507812,-0.069491446018219,-0.008656591176986694
1772812408303111700,4.769111572265625,0.034759521484375,-0.0731343924999237,0.0003572702407836914
1772812408312812300,4.778812255859375,0.0257415771484375,-0.04358232021331787,-0.01802000403404236
1772812408322513200,4.78851318359375,-0.005457878112792969,-0.00051116943359375,-0.015921130776405334
1772812408332213800,4.7982138671875,-0.05843830108642578,0.004879385232925415,-0.042935073375701904
1772812408341914600,4.80791455078125,-0.11869239807128906,0.020115196704864502,-0.031045198440551758
1772812408351615200,4.817615234375,-0.1672677993774414,0.03156888484954834,-0.015395939350128174
1772812408361315800,4.82731591796875,-0.19611835479736328,0.031290143728256226,-0.017119422554969788
1772812408371016700,4.8370166015625,-0.13264083862304688,0.07443621754646301,-0.04440222680568695
1772812408390418200,4.856418212890625,-0.007496833801269531,0.08570641279220581,0.012116044759750366
1772812408400118800,4.866118896484375,0.06575965881347656,0.010133922100067139,0.03224426507949829
1772812408409819400,4.8758193359375,0.13533878326416016,-0.022994160652160645,0.06398749351501465
1772812408419520300,4.885520263671875,0.17774200439453125,-0.053764522075653076,0.06739866733551025
1772812408429220900,4.895220947265625,0.24521732330322266,-0.06327912211418152,0.023054838180541992
1772812408438921700,4.904921630859375,0.22797107696533203,-0.05910554528236389,-0.03840319812297821
1772812408448622300,4.914622314453125,0.16037845611572266,-0.05933946371078491,-0.07238736748695374
1772812408458323000,4.924322998046875,0.09626579284667969,-0.03215298056602478,-0.09447501599788666
1772812408468023800,4.93402392578125,0.00264739990234375,-0.025875061750411987,-0.11193423718214035
1772812408477724400,4.943724365234375,-0.06466197967529297,-0.025671392679214478,-0.11364807188510895
1772812408487425300,4.95342529296875,-0.0872650146484375,-0.04344812035560608,-0.12550030648708344
1772812408497126000,4.9631259765625,-0.1071014404296875,-0.04037114977836609,-0.13074634969234467
1772812408506826500,4.972826416015625,-0.1395101547241211,-0.043992459774017334,-0.10043057054281235
1772812408516527400,4.98252734375,-0.11838436126708984,-0.052947551012039185,-0.10146765410900116
1772812408526228000,4.99222802734375,-0.11755180358886719,-0.02431488037109375,-0.07044628262519836
1772812408535928800,5.0019287109375,-0.13432693481445312,-0.010051816701889038,-0.0645114928483963
1772812408545629400,5.01162939453125,-0.12255001068115234,0.04296499490737915,-0.034414589405059814
1772812408555330000,5.021330078125,-0.08270835876464844,0.011496573686599731,0.0018851757049560547
1772812408565031000,5.031031005859375,-0.0117950439453125,-0.006624490022659302,0.03988185524940491
1772812408574731500,5.0407314453125,0.049635887145996094,-0.01970648765563965,0.0663653016090393
1772812408584432400,5.050432373046875,0.1181936264038086,-0.02863273024559021,0.0690145343542099
1772812408594133000,5.060133056640625,0.14081764221191406,-0.0456865131855011,0.06646370887756348
1772812408603833600,5.06983349609375,0.13242721557617188,-0.036067843437194824,0.047548532485961914
1772812408613534500,5.079534423828125,0.0771036148071289,-0.0003718435764312744,0.012893036007881165
1772812408623235000,5.089235107421875,-0.013751029968261719,-0.007138073444366455,0.005995526909828186
1772812408632936000,5.09893603515625,-0.07949352264404297,-0.006056666374206543,-0.010989785194396973
1772812408642636500,5.108636474609375,-0.12406253814697266,-0.019157052040100098,-0.020161807537078857
1772812408652337200,5.118337158203125,-0.12664508819580078,-0.01835659146308899,-0.03819213807582855
1772812408662038000,5.1280380859375,-0.11031436920166016,-0.023424476385116577,-0.07001486420631409
1772812408671738600,5.137738525390625,-0.06363964080810547,-0.02212199568748474,-0.057097166776657104
1772812408681439500,5.147439453125,-0.010700225830078125,-0.029641568660736084,-0.0222642719745636
1772812408691140000,5.15714013671875,0.015444755554199219,-0.044953495264053345,0.02359570562839508
1772812408700840700,5.1668408203125,0.024660110473632812,-0.017344534397125244,0.026951715350151062
1772812408710541600,5.17654150390625,0.034865379333496094,-0.01225396990776062,0.04901178181171417
1772812408720242200,5.1862421875,0.0189971923828125,0.0394379198551178,0.04968951642513275
1772812408729943000,5.195943115234375,0.024583816528320312,0.05849963426589966,0.06754277646541595
1772812408739643600,5.2056435546875,0.04770660400390625,0.040444761514663696,0.07462304830551147
1772812408749344300,5.21534423828125,0.03045654296875,0.05025124549865723,0.06899859011173248
1772812408759045000,5.225045166015625,0.03347492218017578,0.0697067379951477,0.08259502053260803
1772812408768745700,5.234745849609375,0.021140098571777344,0.05144384503364563,0.060284197330474854
1772812408778446600,5.244446533203125,0.06548881530761719,0.011179476976394653,0.05454489588737488
1772812408788147200,5.254147216796875,0.04909801483154297,-0.011193037033081055,0.023541465401649475
1772812408797847800,5.263847900390625,0.02475261688232422,-0.022911429405212402,-0.024229660630226135
1772812408807548700,5.273548583984375,-0.009758949279785156,-0.018952518701553345,-0.045746028423309326
1772812408817249300,5.283249267578125,-0.07544422149658203,-0.023123741149902344,-0.049604251980781555
1772812408826950100,5.2929501953125,-0.07411479949951172,-0.026698172092437744,-0.045813992619514465
1772812408836650800,5.302650634765625,-0.06810760498046875,-0.03956666588783264,0.012430205941200256
1772812408846351400,5.312351318359375,-0.05164909362792969,-0.06198611855506897,0.0753217339515686
1772812408856052200,5.32205224609375,-0.034313201904296875,-0.06907713413238525,0.1140710711479187
1772812408865752800,5.3317529296875,-0.012559890747070312,-0.0429973304271698,0.09938172996044159
1772812408875453400,5.341453369140625,-0.013490676879882812,0.01487472653388977,0.07389253377914429
1772812408885154300,5.351154296875,-0.0037679672241210938,0.060810983180999756,-0.002467140555381775
1772812408894855000,5.36085498046875,-0.005917549133300781,0.10346758365631104,-0.03214193880558014
1772812408904555500,5.370555419921875,-0.004481315612792969,0.10015356540679932,-0.05875350534915924
1772812408914256400,5.38025634765625,0.013384819030761719,0.0534341037273407,-0.025256603956222534
1772812408923957000,5.38995703125,0.060294151306152344,-0.02288922667503357,0.02759721875190735
1772812408933657600,5.39965771484375,0.1192770004272461,-0.06568381190299988,0.022343069314956665
1772812408943358500,5.4093583984375,0.13720417022705078,-0.10979366302490234,0.015461772680282593
1772812408953059000,5.41905908203125,0.13128280639648438,-0.0792420506477356,-0.011528611183166504
1772812408962760000,5.428760009765625,0.07368850708007812,-0.013224899768829346,-0.07393361628055573
1772812408972460500,5.43846044921875,0.0006113052368164062,0.02430272102355957,-0.06080074608325958
1772812408982161200,5.4481611328125,-0.050052642822265625,0.00010848045349121094,-0.04659600555896759
1772812408991862000,5.457862060546875,-0.10337257385253906,-0.028122782707214355,-0.026765838265419006
1772812409001562600,5.467562744140625,-0.09575462341308594,-0.0017755329608917236,-0.017789751291275024
1772812409011263500,5.477263427734375,-0.06471061706542969,0.020886242389678955,-0.010649904608726501
1772812409020964000,5.486964111328125,-0.04242229461669922,0.02856937050819397,-0.0031349509954452515
1772812409030664700,5.496664794921875,-0.027548789978027344,-0.0006655752658843994,-0.018067896366119385
1772812409040365600,5.506365478515625,-0.0235137939453125,0.004588305950164795,0.009511396288871765
1772812409050066200,5.516066162109375,-0.010182380676269531,0.02677777409553528,0.03988930583000183
1772812409059767000,5.52576708984375,0.021735191345214844,0.01177835464477539,0.05562916398048401
1772812409069467600,5.535467529296875,0.04490375518798828,0.03232094645500183,0.002187952399253845
1772812409079168300,5.545168212890625,0.03947639465332031,0.06816372275352478,-0.02147504687309265
1772812409088869000,5.554869140625,0.04474163055419922,0.0756712555885315,-0.022025123238563538
1772812409098569700,5.56456982421875,0.02518463134765625,0.0419904887676239,0.020976871252059937
1772812409108270600,5.5742705078125,0.02359294891357422,0.006584584712982178,0.03085733950138092
1772812409117971200,5.58397119140625,0.00437164306640625,-0.00821712613105774,0.030330002307891846
1772812409127671800,5.593671875,0.019556045532226562,-0.0020554065704345703,0.03619331121444702
1772812409137372700,5.60337255859375,0.03090667724609375,-0.006574153900146484,0.050385668873786926
1772812409147073300,5.6130732421875,0.036170005798339844,-0.026051312685012817,0.01638925075531006
1772812409156774000,5.62277392578125,0.023693084716796875,-0.03521442413330078,0.008099421858787537
1772812409166474800,5.632474853515625,-0.019158363342285156,-0.0017232298851013184,-0.012924879789352417
1772812409176175400,5.64217529296875,-0.06713199615478516,-0.00887686014175415,-0.03607255220413208
1772812409185876200,5.651876220703125,-0.10011959075927734,-0.04375013709068298,-0.06606872379779816
1772812409195576800,5.661576904296875,-0.10779666900634766,0.0010778307914733887,-0.07890668511390686
1772812409205277400,5.67127734375,-0.06825828552246094,0.01760008931159973,-0.06557697057723999
1772812409214978300,5.680978271484375,-0.019949913024902344,-0.007046222686767578,-0.050369784235954285
1772812409224679000,5.690678955078125,0.00045299530029296875,-0.007115721702575684,0.0018458515405654907
1772812409234379800,5.7003798828125,0.06516456604003906,0.013997852802276611,0.06886576116085052
1772812409244080400,5.710080322265625,0.1146383285522461,-0.0018109679222106934,0.06373225152492523
1772812409253781000,5.719781005859375,0.12559032440185547,0.010752350091934204,0.05731809139251709
1772812409263481900,5.72948193359375,0.09631633758544922,0.029361635446548462,0.06671400368213654
1772812409273182500,5.739182373046875,0.06751823425292969,0.03899770975112915,0.02880650758743286
1772812409282883300,5.74888330078125,0.03922557830810547,0.045195817947387695,-0.016184091567993164
1772812409292584000,5.758583984375,-0.007382392883300781,0.04623928666114807,-0.03231601417064667
1772812409302284500,5.768284423828125,-0.03906536102294922,0.04695788025856018,-0.022039055824279785
1772812409311985400,5.7779853515625,-0.057267189025878906,0.007177978754043579,-0.01955755054950714
1772812409321686000,5.78768603515625,-0.04928302764892578,-0.040926188230514526,-0.011704057455062866
1772812409331387000,5.797386962890625,-0.05084991455078125,-0.05184906721115112,-0.002673596143722534
1772812409341087500,5.80708740234375,-0.025331497192382812,-0.07366132736206055,-0.009883776307106018
1772812409350788000,5.8167880859375,-0.033171653747558594,-0.04128950834274292,-0.010853558778762817
1772812409360489000,5.826489013671875,-0.04322624206542969,-0.014545857906341553,0.0037521272897720337
1772812409370189600,5.836189453125,-0.06719398498535156,-0.04193630814552307,-0.011020869016647339
1772812409379890200,5.84589013671875,-0.06955528259277344,0.002510279417037964,0.027504906058311462
1772812409389591000,5.855591064453125,-0.048325538635253906,0.048547446727752686,0.06054331362247467
1772812409408992500,5.874992431640625,0.016716957092285156,0.08071252703666687,0.05336669087409973
1772812409418693000,5.884693115234375,0.0741739273071289,0.09642970561981201,0.037296488881111145
1772812409428393700,5.894393798828125,0.11770820617675781,0.09691986441612244,-0.014193087816238403
1772812409438094600,5.904094482421875,0.11460113525390625,0.07635939121246338,-0.0028870999813079834
1772812409447795200,5.913795166015625,0.10091114044189453,0.027781307697296143,-0.01669853925704956
1772812409457496000,5.92349609375,0.08153629302978516,-0.021955877542495728,-0.011567220091819763
1772812409467196700,5.93319677734375,0.050675392150878906,-0.043480128049850464,-0.008478552103042603
1772812409476897300,5.942897216796875,0.026189804077148438,-0.06045091152191162,-0.025272294878959656
1772812409486598100,5.95259814453125,-0.00025463104248046875,-0.0799441933631897,-0.0396575927734375
1772812409496298800,5.962298828125,-0.022721290588378906,-0.06389948725700378,-0.06716276705265045
1772812409505999600,5.97199951171875,-0.056550025939941406,-0.047682344913482666,-0.0769912600517273
1772812409525400800,5.99140087890625,-0.08281707763671875,0.01029437780380249,-0.07939572632312775
1772812409535101700,6.001101806640625,-0.09548473358154297,0.021432548761367798,-0.028414204716682434
1772812409544802300,6.01080224609375,-0.08319759368896484,0.01113864779472351,0.0055627524852752686
1772812409554503000,6.0205029296875,-0.05815410614013672,0.015269309282302856,0.012571603059768677
1772812409564203800,6.030203857421875,-0.02766132354736328,0.03737708926200867,0.05517643690109253
1772812409573904400,6.039904296875,-0.0000400543212890625,0.020521700382232666,0.053590670228004456
1772812409583605200,6.049605224609375,0.001224517822265625,0.01621997356414795,0.05384443700313568
1772812409593305900,6.059305908203125,-0.0034189224243164062,0.002539902925491333,0.04130545258522034
1772812409603006500,6.06900634765625,-0.019762039184570312,-0.008079588413238525,0.029070332646369934
1772812409612707300,6.078707275390625,0.014745712280273438,-0.012011051177978516,0.03510543704032898
1772812409622408000,6.088407958984375,0.06866645812988281,-0.030855447053909302,-0.0038437992334365845
1772812409632108500,6.098108642578125,0.09696102142333984,-0.04744812846183777,-0.03960411250591278
1772812409641809400,6.107809326171875,0.12475395202636719,-0.01782405376434326,-0.06598180532455444
1772812409651510000,6.117510009765625,0.14969158172607422,-0.0032426118850708008,-0.05665351450443268
1772812409661210600,6.127210693359375,0.1106414794921875,-0.0068433284759521484,-0.056442826986312866
1772812409670911500,6.136911376953125,0.058094024658203125,-0.006501048803329468,-0.043465420603752136
1772812409680612000,6.146612060546875,0.025241851806640625,0.00676843523979187,0.02244897186756134
1772812409690312700,6.156312744140625,-0.016449928283691406,0.030011922121047974,0.02058383822441101
1772812409700013600,6.166013671875,-0.06212902069091797,0.051531434059143066,0.021860092878341675
1772812409709714200,6.175714111328125,-0.07996654510498047,0.07383131980895996,0.036999717354774475
1772812409719415000,6.1854150390625,-0.06101036071777344,0.082437664270401,0.039289116859436035
1772812409729115600,6.19511572265625,-0.05999469757080078,0.06049993634223938,0.03504422307014465
1772812409738816300,6.204816162109375,-0.05661296844482422,0.03099113702774048,0.058317214250564575
1772812409748517000,6.21451708984375,-0.07093238830566406,0.007760792970657349,0.062162235379219055
1772812409758217700,6.2242177734375,-0.0673675537109375,-0.014165759086608887,0.040747493505477905
1772812409767918600,6.233918701171875,-0.04736804962158203,-0.02506372332572937,0.015349820256233215
1772812409777619200,6.243619140625,-0.05003833770751953,-0.022187352180480957,0.0025935322046279907
1772812409787319800,6.25331982421875,-0.03505134582519531,-0.040238648653030396,0.029646381735801697
1772812409797020700,6.263020751953125,-0.008571624755859375,-0.06986057758331299,0.01814451813697815
1772812409806721300,6.27272119140625,0.04218482971191406,-0.10630735754966736,-0.03872956335544586
1772812409816422000,6.282421875,0.049727439880371094,-0.06407400965690613,-0.07298636436462402
1772812409826122800,6.292122802734375,0.06653404235839844,-0.041306525468826294,-0.0747465044260025
1772812409835823400,6.3018232421875,0.06893634796142578,-0.02175334095954895,-0.04654093086719513
1772812409845524200,6.311524169921875,0.04188728332519531,-0.01877462863922119,-0.030153512954711914
1772812409855224800,6.321224853515625,0.0305633544921875,0.01038011908531189,-0.01141156256198883
1772812409864925400,6.330925537109375,0.02763652801513672,0.04379534721374512,0.010668575763702393
1772812409874626300,6.340626220703125,0.025925636291503906,0.08704891800880432,0.0018027424812316895
1772812409884327000,6.350326904296875,0.028936386108398438,0.09825009107589722,0.01942393183708191
1772812409894027800,6.36002783203125,0.02013397216796875,0.07801061868667603,0.03671260178089142
1772812409903728400,6.369728271484375,-0.0002593994140625,0.08518090844154358,0.05613866448402405
1772812409913429000,6.379428955078125,-0.052051544189453125,0.09880918264389038,0.05645023286342621
1772812409923129900,6.3891298828125,-0.08528900146484375,0.1054915189743042,0.03049531579017639
1772812409932830500,6.39883056640625,-0.099090576171875,0.11429694294929504,0.030833259224891663
1772812409942531000,6.408531005859375,-0.09496307373046875,0.0941285490989685,0.016729190945625305
1772812409952232000,6.41823193359375,-0.02147388458251953,0.07235050201416016,-0.02664618194103241
1772812409961932500,6.4279326171875,0.05311298370361328,0.04746130108833313,-0.04398973286151886
1772812409971633400,6.43763330078125,0.10989761352539062,0.005178302526473999,-0.03571586310863495
1772812409981334000,6.447333984375,0.169158935546875,-0.0700262188911438,-0.012891128659248352
1772812409991034600,6.45703466796875,0.17204666137695312,-0.10541927814483643,-0.007473185658454895
1772812410000735500,6.466735595703125,0.141876220703125,-0.11029991507530212,-0.03875374794006348
1772812410010436000,6.47643603515625,0.06397151947021484,-0.09055116772651672,-0.08483989536762238
1772812410020137000,6.486136962890625,-0.026683807373046875,-0.07078030705451965,-0.12334083020687103
1772812410029837600,6.495837646484375,-0.11221599578857422,-0.006654322147369385,-0.14088797569274902
1772812410039538200,6.5055380859375,-0.17034530639648438,0.011123716831207275,-0.12443339824676514
1772812410049239000,6.515239013671875,-0.16391277313232422,0.009464651346206665,-0.06523466110229492
1772812410058939600,6.524939697265625,-0.12697315216064453,-0.0009074211120605469,0.00478711724281311
1772812410068640300,6.53464013671875,-0.07300567626953125,-0.00702512264251709,0.05980151891708374
1772812410078341000,6.544341064453125,-0.010546684265136719,0.011738359928131104,0.09400898218154907
1772812410088041700,6.554041748046875,-0.0033016204833984375,0.027212709188461304,0.11293445527553558
1772812410097742600,6.56374267578125,0.007328033447265625,0.03192940354347229,0.08613725006580353
1772812410107443200,6.573443115234375,0.0012979507446289062,0.04697737097740173,0.06590831279754639
1772812410117143800,6.583143798828125,-0.03992176055908203,0.06368553638458252,0.07179434597492218
1772812410126844700,6.5928447265625,-0.05573558807373047,0.05668070912361145,0.05087040364742279
1772812410136545300,6.602545166015625,-0.048926353454589844,0.06493085622787476,0.0528324693441391
1772812410146246000,6.612245849609375,-0.03516197204589844,0.06757378578186035,0.047938570380210876
1772812410155946800,6.62194677734375,0.008977890014648438,0.03942456841468811,0.023310482501983643
1772812410165647400,6.6316474609375,-0.004077911376953125,0.020840048789978027,-0.0077317506074905396
1772812410175348200,6.64134814453125,-0.019260406494140625,-0.010504871606826782,-0.04233214259147644
1772812410185048800,6.651048828125,-0.011839866638183594,-0.027202337980270386,-0.04449424147605896
1772812410194749400,6.66074951171875,-0.01630687713623047,-0.05975699424743652,-0.02138368785381317
1772812410204450300,6.6704501953125,-0.005419731140136719,-0.06476962566375732,0.0019322633743286133
1772812410214151000,6.68015087890625,0.038234710693359375,-0.033027857542037964,-0.024633750319480896
1772812410223851800,6.689851806640625,0.05644512176513672,-0.02903991937637329,-0.02226005494594574
1772812410233552400,6.699552490234375,0.041393280029296875,-0.012479037046432495,-0.01620979607105255
1772812410243253000,6.7092529296875,0.0712900161743164,-0.00857892632484436,-0.007348537445068359
1772812410252953900,6.718953857421875,0.08653450012207031,-0.007091164588928223,0.01621866226196289
1772812410262654500,6.728654541015625,0.06617069244384766,-0.057649165391922,0.013795867562294006
1772812410272355000,6.73835498046875,0.04729175567626953,-0.04902637004852295,0.006064072251319885
1772812410282056000,6.748055908203125,-0.018350601196289062,0.0262414813041687,0.0435868501663208
1772812410291756500,6.757756591796875,0.0006427764892578125,0.04343375563621521,0.004038751125335693
1772812410301457400,6.76745751953125,-0.05008506774902344,-0.01016014814376831,-0.01603884994983673
1772812410311158000,6.777157958984375,-0.13640975952148438,-0.03478527069091797,-0.00009700655937194824
1772812410320858600,6.786858642578125,-0.15533447265625,0.02061203122138977,-0.010458454489707947
1772812410330559500,6.7965595703125,-0.14681243896484375,0.039261817932128906,-0.029150038957595825
1772812410340260000,6.806260009765625,-0.12308406829833984,0.05578315258026123,0.0011512041091918945
1772812410349960700,6.815960693359375,-0.062073707580566406,0.04220464825630188,0.0191260427236557
1772812410359661600,6.82566162109375,0.008513450622558594,-0.020601600408554077,0.011931315064430237
1772812410369362200,6.835362060546875,0.0061588287353515625,-0.037772953510284424,-0.022379934787750244
1772812410379063000,6.84506298828125,0.0038585662841796875,-0.02049410343170166,-0.06127585470676422
1772812410388763600,6.854763671875,-0.03604698181152344,0.043561309576034546,-0.04195879399776459
1772812410398464300,6.86446435546875,-0.010562896728515625,0.056092411279678345,-0.009463965892791748
1772812410408165000,6.8741650390625,-0.018430709838867188,0.015316039323806763,0.02175411581993103
1772812410417865700,6.88386572265625,-0.06263256072998047,-0.011624455451965332,0.06796018779277802
1772812410427566600,6.893566650390625,-0.08137989044189453,0.033239901065826416,0.10949698090553284
1772812410437267200,6.90326708984375,-0.09036731719970703,0.05928128957748413,0.0856378823518753
1772812410446967800,6.9129677734375,-0.05910968780517578,0.10632124543190002,-0.008637651801109314
1772812410456668700,6.922668701171875,-0.050658226013183594,0.12223711609840393,-0.036672934889793396
1772812410466369300,6.932369384765625,-0.005871772766113281,0.11370345950126648,0.006043091416358948
1772812410476070000,6.94206982421875,0.080474853515625,0.02103760838508606,0.05011208355426788
1772812410485770800,6.951770751953125,0.15706253051757812,-0.04110023379325867,0.07887615263462067
1772812410495471400,6.961471435546875,0.18049907684326172,-0.03627204895019531,0.054644301533699036
1772812410505172200,6.971172119140625,0.17288780212402344,-0.050838619470596313,0.011796444654464722
1772812410514872800,6.980872802734375,0.11362266540527344,-0.047094911336898804,-0.026410460472106934
1772812410524573400,6.990573486328125,0.05535888671875,-0.04807478189468384,-0.08670052886009216
1772812410534274300,7.0002744140625,0.006285667419433594,-0.06428706645965576,-0.08650818467140198
1772812410543975000,7.009974853515625,-0.0019826889038085938,-0.09800869226455688,-0.058960169553756714
1772812410553675500,7.019675537109375,0.021676063537597656,-0.08169913291931152,-0.05742557346820831
1772812410563376400,7.02937646484375,0.04143238067626953,-0.04216161370277405,-0.06500427424907684
1772812410573077000,7.039076904296875,0.043190956115722656,-0.02698233723640442,-0.04138721525669098
1772812410582777600,7.048777587890625,0.04609870910644531,-0.0025005042552948,-0.0026108771562576294
1772812410592478500,7.058478515625,0.057213783264160156,0.013527333736419678,0.0033118128776550293
1772812410602179000,7.068178955078125,0.08465576171875,0.03232014179229736,-0.05123409628868103
1772812410611880000,7.0778798828125,0.05991935729980469,0.05820503830909729,-0.06940825283527374
1772812410621580500,7.08758056640625,0.08507156372070312,0.06537899374961853,-0.12050680816173553
1772812410631281200,7.09728125,-0.06318950653076172,0.10431542992591858,-0.015455573797225952
1772812410640982000,7.10698193359375,0.028647422790527344,0.028506070375442505,0.040474191308021545
1772812410650682600,7.1166826171875,0.052939414978027344,-0.06529709696769714,0.08231405913829803
1772812410660383200,7.12638330078125,0.09786319732666016,-0.1145087480545044,0.0998869389295578
1772812410670084000,7.136083984375,0.17602062225341797,-0.12996715307235718,0.003855973482131958
1772812410679784700,7.14578466796875,0.1433420181274414,-0.12713158130645752,-0.060067176818847656
1772812410689485300,7.1554853515625,0.12292957305908203,-0.05842864513397217,-0.08554790914058685
1772812410699186200,7.165186279296875,0.06638622283935547,-0.029471993446350098,-0.07337349653244019
1772812410708886800,7.17488671875,0.013159751892089844,-0.030075758695602417,-0.06844517588615417
1772812410718587400,7.18458740234375,-0.017908096313476562,-0.0509662926197052,-0.11841042339801788
1772812410728288300,7.194288330078125,-0.05657386779785156,0.005224257707595825,-0.14478622376918793
1772812410747689500,7.213689453125,-0.18002033233642578,0.08523577451705933,-0.07921189069747925
1772812410757390300,7.223390380859375,-0.3014354705810547,0.034176409244537354,-0.021995991468429565
1772812410767091000,7.233091064453125,-0.34185218811035156,0.009001761674880981,-0.009464651346206665
1772812410776791800,7.242791748046875,-0.31795406341552734,0.0601746141910553,0.038169801235198975
1772812410786492400,7.252492431640625,-0.23564910888671875,0.013422399759292603,0.12937289476394653
1772812410796193000,7.262193115234375,-0.0336761474609375,-0.040333718061447144,0.22225061058998108
1772812410805894000,7.271893798828125,0.14939117431640625,-0.10251694917678833,0.26734861731529236
1772812410815594500,7.281594482421875,0.2515230178833008,-0.148718923330307,0.24203985929489136
1772812410825295000,7.291295166015625,0.31412696838378906,-0.08633798360824585,0.19656908512115479
1772812410834996000,7.300995849609375,0.27674293518066406,-0.0026993751525878906,0.09914842247962952
1772812410844696600,7.310696533203125,0.14705467224121094,0.0172959566116333,0.0008689761161804199
1772812410854397400,7.3203974609375,0.07139873504638672,0.08466589450836182,-0.07391691207885742
1772812410864098000,7.33009814453125,-0.024071693420410156,0.11690902709960938,-0.07042801380157471
1772812410873798700,7.339798583984375,-0.10961437225341797,0.05481398105621338,-0.05440223217010498
1772812410883499500,7.34949951171875,-0.13010597229003906,0.025344163179397583,-0.02671569585800171
1772812410893200100,7.3592001953125,-0.1701822280883789,-0.017766326665878296,-0.051878154277801514
1772812410902900700,7.368900634765625,-0.18950366973876953,-0.014545589685440063,-0.08874750137329102
1772812410912601600,7.3786015625,-0.19901752471923828,-0.029647529125213623,-0.08309395611286163
1772812410922302200,7.38830224609375,-0.1695556640625,-0.03688383102416992,-0.026536375284194946
1772812410932003000,7.398003173828125,-0.12420940399169922,-0.08707258105278015,0.03277966380119324
1772812410941703700,7.40770361328125,-0.11612987518310547,-0.12486320734024048,0.04557335376739502
1772812410951404300,7.417404296875,-0.11872291564941406,-0.036989420652389526,0.027620941400527954
1772812410961105200,7.427105224609375,-0.15997314453125,0.08553186058998108,0.043403565883636475
1772812410970805800,7.4368056640625,-0.18749427795410156,0.16272369027137756,0.037485092878341675
1772812410980506400,7.44650634765625,-0.20625019073486328,0.1622723639011383,0.10772287845611572
1772812410990207200,7.456207275390625,-0.07290172576904297,0.14844048023223877,0.14746564626693726
1772812410999907800,7.465907958984375,0.06171894073486328,0.14571020007133484,0.294175922870636
1772812411009608700,7.475608642578125,0.14100360870361328,0.009551584720611572,0.3442615568637848
1772812411019309300,7.485309326171875,0.2270822525024414,-0.0748375654220581,0.30544278025627136
1772812411029010000,7.495010009765625,0.29163169860839844,-0.07771885395050049,0.17242586612701416
1772812411038710800,7.504710693359375,0.27268028259277344,-0.008081436157226562,0.03644898533821106
1772812411048411400,7.514411376953125,0.2375640869140625,0.010490357875823975,-0.0612296462059021
1772812411058112000,7.524112060546875,0.16657066345214844,0.004049777984619141,-0.16572816669940948
1772812411067812900,7.533812744140625,0.10738468170166016,0.0006666779518127441,-0.18737804889678955
1772812411077513500,7.543513427734375,0.012750625610351562,0.010635137557983398,-0.15521113574504852
1772812411087214300,7.55321435546875,-0.07788753509521484,-0.0002726912498474121,-0.02953951060771942
1772812411096915000,7.5629150390625,-0.026902198791503906,0.022643864154815674,0.04346475005149841
1772812411106615600,7.572615478515625,0.07157039642333984,-0.008343875408172607,-0.04592190682888031
1772812411116316400,7.58231640625,0.057761192321777344,-0.030685782432556152,-0.1779622733592987
1772812411126017000,7.59201708984375,-0.03937816619873047,-0.04298907518386841,-0.1884312927722931
1772812411135717600,7.601717529296875,0.05101299285888672,-0.021120429039001465,-0.21751859784126282
1772812411145418500,7.61141845703125,0.048171043395996094,-0.019684195518493652,-0.2743551731109619
1772812411155119000,7.621119140625,0.1206350326538086,-0.04111909866333008,-0.2086065113544464
1772812411164820000,7.630820068359375,0.22001266479492188,-0.0535353422164917,-0.04623204469680786
1772812411174520600,7.6405205078125,0.36336708068847656,-0.06785345077514648,0.03270880877971649
1772812411184221200,7.65022119140625,0.41097164154052734,-0.1837531328201294,0.027646496891975403
1772812411193922000,7.659922119140625,0.36805248260498047,-0.16427487134933472,0.028630048036575317
1772812411203622700,7.66962255859375,0.37856578826904297,-0.06250113248825073,-0.018330633640289307
1772812411213323300,7.6793232421875,0.19821453094482422,0.05901411175727844,-0.07236342132091522
1772812411223024000,7.689024169921875,0.019826889038085938,0.06680101156234741,-0.0690125823020935
1772812411232724700,7.698724853515625,-0.08596992492675781,0.019601821899414062,-0.07271997630596161
1772812411242425300,7.70842529296875,-0.3015708923339844,-0.026733815670013428,-0.06062610447406769
1772812411252126200,7.718126220703125,-0.32277679443359375,-0.06734117865562439,-0.03157782554626465
1772812411261826800,7.727826904296875,-0.38819026947021484,-0.07619056105613708,-0.03592024743556976
1772812411271527700,7.737527587890625,-0.3147115707397461,-0.1061796247959137,-0.012371629476547241
1772812411281228300,7.747228271484375,-0.38239192962646484,-0.1341433823108673,-0.0028928667306900024
1772812411290929000,7.756928955078125,-0.28174495697021484,-0.10432997345924377,0.00961393117904663
1772812411300629800,7.766629638671875,-0.2897453308105469,-0.057183682918548584,0.004737600684165955
1772812411310330400,7.776330322265625,-0.21869564056396484,-0.016842186450958252,-0.030865594744682312
1772812411320031000,7.786031005859375,-0.12877655029296875,-0.019376099109649658,-0.01923125982284546
1772812411329731800,7.79573193359375,-0.0862894058227539,-0.014317870140075684,0.06240341067314148
1772812411339432400,7.805432373046875,0.11769390106201172,-0.046871960163116455,0.14039653539657593
1772812411349133300,7.81513330078125,0.10036277770996094,-0.07623261213302612,0.1629686951637268
1772812411358834000,7.824833984375,0.25266456604003906,-0.03975272178649902,0.09623625874519348
1772812411368534500,7.834534423828125,0.19645118713378906,0.11267167329788208,0.026025712490081787
1772812411378235400,7.8442353515625,0.22002029418945312,0.15369373559951782,-0.03441900014877319
1772812411387936000,7.85393603515625,0.18553543090820312,0.13251906633377075,-0.03410482406616211
1772812411397636600,7.86363671875,0.1468791961669922,0.07725265622138977,0.02464592456817627
1772812411407337500,7.87333740234375,0.14058303833007812,0.03489041328430176,0.048259884119033813
1772812411417038000,7.8830380859375,0.13317584991455078,0.049004197120666504,0.05425328016281128
1772812411426738700,7.89273876953125,0.1529073715209961,0.03608906269073486,0.03222155570983887
1772812411436439600,7.902439453125,0.061676025390625,0.019717097282409668,0.010136842727661133
1772812411446140200,7.91214013671875,-0.045623779296875,0.035319358110427856,-0.007723614573478699
1772812411455841000,7.921841064453125,-0.1933584213256836,0.07628330588340759,-0.00133591890335083
1772812411465541600,7.931541748046875,-0.3643360137939453,0.06571725010871887,0.03962567448616028
1772812411475242200,7.9412421875,-0.47699546813964844,0.04110068082809448,0.1319712996482849
1772812411484943000,7.950943115234375,-0.4793863296508789,0.0559028685092926,0.17719978094100952
1772812411494643700,7.960643798828125,-0.35930824279785156,0.006407678127288818,0.23358669877052307
1772812411504344300,7.97034423828125,-0.25063037872314453,0.0056369006633758545,0.23380839824676514
1772812411514045200,7.980045166015625,-0.0860738754272461,0.03893864154815674,0.17727020382881165
1772812411523745800,7.989745849609375,-0.0019092559814453125,0.07542270421981812,0.13683253526687622
1772812411533446700,7.99944677734375,-0.006211280822753906,0.05545485019683838,0.11521944403648376
1772812411543147300,8.009147216796874,0.014272689819335938,-0.017248332500457764,0.07951343059539795
1772812411552848000,8.018847900390625,0.02617645263671875,-0.016719400882720947,0.02516576647758484
1772812411562548700,8.028548828125,0.08374214172363281,-0.019891023635864258,-0.016972362995147705
1772812411572249300,8.038249267578125,0.10618209838867188,-0.030660688877105713,-0.04588395357131958
1772812411581950000,8.047949951171875,0.16933536529541016,-0.03206139802932739,-0.04422867298126221
1772812411591650800,8.05765087890625,0.19724559783935547,-0.036000072956085205,-0.08140307664871216
1772812411601351400,8.067351318359375,0.19993019104003906,-0.009339690208435059,-0.09948356449604034
1772812411611052000,8.077052001953126,0.17310047149658203,0.012185275554656982,-0.14794500172138214
1772812411620753000,8.0867529296875,0.18196964263916016,-0.025062203407287598,-0.15448717772960663
1772812411630453500,8.09645361328125,0.16003990173339844,-0.034333109855651855,-0.16142235696315765
1772812411640154400,8.106154296875,0.1572265625,-0.024758219718933105,-0.12463842332363129
1772812411649855000,8.11585498046875,0.18502140045166016,-0.034202754497528076,-0.10995727777481079
1772812411659555600,8.1255556640625,0.13231658935546875,0.007261753082275391,-0.09976939857006073
1772812411669256400,8.13525634765625,0.05576515197753906,0.036955952644348145,-0.05943158268928528
1772812411678957000,8.14495703125,-0.02299785614013672,0.01246798038482666,-0.04861272871494293
1772812411688657700,8.15465771484375,-0.059246063232421875,-0.012413978576660156,-0.03460271656513214
1772812411708059100,8.17405908203125,-0.06669044494628906,-0.022674739360809326,-0.009901821613311768
1772812411717759700,8.183759765625,-0.066864013671875,-0.013989925384521484,0.010998934507369995
1772812411727460600,8.193460693359375,-0.08347225189208984,-0.041303157806396484,0.032742828130722046
1772812411737161200,8.2031611328125,-0.09503173828125,-0.020089805126190186,0.011273562908172607
1772812411746862000,8.212862060546875,-0.12400627136230469,0.010189592838287354,0.008675843477249146
1772812411756562700,8.222562744140625,-0.11955451965332031,-0.04541414976119995,0.023486629128456116
1772812411766263300,8.23226318359375,-0.11513900756835938,-0.05249309539794922,-0.008197203278541565
1772812411775964200,8.241964111328125,-0.11420154571533203,0.017324984073638916,-0.03875702619552612
1772812411785664800,8.251664794921876,-0.11904335021972656,0.08899793028831482,-0.08138488233089447
1772812411795365400,8.261365478515625,-0.12138175964355469,0.08815044164657593,-0.04025898873806
1772812411805066200,8.271066162109374,-0.08713912963867188,0.07492810487747192,0.0035641640424728394
1772812411814766800,8.280766845703125,-0.011137008666992188,-0.0027756690979003906,0.05959226191043854
1772812411824467500,8.290467529296874,0.07175159454345703,-0.04997819662094116,0.09388419985771179
1772812411834168300,8.300168212890625,0.15903854370117188,-0.06573021411895752,0.059777915477752686
1772812411843869000,8.309868896484375,0.23416423797607422,-0.028560757637023926,0.016833871603012085
1772812411853569800,8.31956982421875,0.28081321716308594,-0.033532559871673584,0.01986086368560791
1772812411863270400,8.3292705078125,0.2617931365966797,-0.02345067262649536,0.04652482271194458
