time,seconds_elapsed,z,y,x
1772812199505361400,0.030361328125,-0.018402300775051117,-0.018096869811415672,0.13484840095043182
1772812199524762400,0.049762451171875,-0.0019089524867013097,-0.06177370250225067,-0.064598947763443
1772812199534463000,0.059462890625,0.002672533504664898,-0.04283689334988594,-0.1305723488330841
1772812199544163600,0.06916357421875,0.00022907429956831038,-0.011377356946468353,-0.14767655730247498
1772812199553864200,0.0788642578125,-0.002825249684974551,-0.015042545273900032,-0.13454297184944153
1772812199563564500,0.088564453125,-0.0012980876490473747,-0.04192059487104416,-0.11163553595542908
1772812199573265200,0.09826513671875,-0.005268708802759647,-0.049861837178468704,-0.09330959618091583
1772812199582965800,0.1079658203125,-0.02328922040760517,-0.03306305781006813,-0.08414662629365921
1772812199592666400,0.117666259765625,-0.0345902182161808,-0.01718057133257389,-0.07131846249103546
1772812199602366700,0.12736669921875,-0.03428478538990021,-0.010766491293907166,-0.06062832847237587
1772812199612067300,0.1370673828125,-0.025121813639998436,0.013973532244563103,-0.03252854943275452
1772812199621768000,0.146767822265625,-0.0193185992538929,0.020387612283229828,-0.010537417605519295
1772812199631468500,0.156468505859375,-0.021456625312566757,0.013362666592001915,0.007177661173045635
1772812199641169000,0.1661689453125,-0.03611737862229347,-0.008628465235233307,0.019394956529140472
1772812199650869500,0.175869384765625,-0.05474875494837761,-0.018096869811415672,0.03711003437638283
1772812199660570000,0.185570068359375,-0.06177370250225067,-0.01718057133257389,0.05329795181751251
1772812199670270700,0.195270751953125,-0.04558578506112099,-0.02084576152265072,0.05818486958742142
1772812199679971000,0.20497119140625,-0.01259908638894558,-0.02756527252495289,0.05635227635502815
1772812199689671700,0.214671630859375,0.014889828860759735,-0.043142326176166534,0.04627300798892975
1772812199699372300,0.224372314453125,0.023136503994464874,-0.05841394513845444,0.04046979174017906
1772812199709073000,0.234072998046875,0.020082179456949234,-0.0553596206009388,0.039248060435056686
1772812199718773500,0.2437734375,0.013973532244563103,-0.036422811448574066,0.03955349326133728
1772812199728474000,0.25347412109375,-0.005574141163378954,-0.022983787581324577,0.03711003437638283
1772812199738174500,0.263174560546875,-0.03764454275369644,-0.01107192412018776,0.027947064489126205
1772812199747875000,0.272875,-0.054443322122097015,0.010919207707047462,0.013286309316754341
1772812199757575700,0.28257568359375,-0.051389001309871674,0.017944153398275375,-0.004734201822429895
1772812199767276300,0.2922763671875,-0.02848157100379467,0.011530072428286076,-0.01908952370285988
1772812199776976600,0.3019765625,-0.0031306820455938578,-0.0034361144062131643,-0.017562363296747208
1772812199786677200,0.31167724609375,0.01977674663066864,-0.022678354755043983,-0.004734201822429895
1772812199796377900,0.3213779296875,0.03168861195445061,-0.030314164236187935,0.012675444595515728
1772812199806078500,0.331078369140625,0.032910339534282684,-0.02848157100379467,0.02916879393160343
1772812199815778800,0.34077880859375,0.025274530053138733,-0.029703300446271896,0.03711003437638283
1772812199825479400,0.3504794921875,0.022220205515623093,-0.03214675933122635,0.0386371985077858
1772812199835180000,0.360179931640625,0.018860450014472008,-0.024205517023801804,0.041386090219020844
1772812199844880600,0.369880615234375,0.012751801870763302,-0.011377356946468353,0.04474584385752678
1772812199854581000,0.3795810546875,0.005421424750238657,0.001450803829357028,0.042913250625133514
1772812199864281600,0.389281494140625,-0.004046979360282421,0.008781181648373604,0.04230238497257233
1772812199873982200,0.398982177734375,-0.013515383005142212,0.005421424750238657,0.04230238497257233
1772812199883682800,0.408682861328125,-0.02023489587008953,-0.008017600513994694,0.039248060435056686
1772812199893383400,0.418383544921875,-0.021151192486286163,-0.014126247726380825,0.03283398225903511
1772812199903083800,0.428083740234375,-0.01779143698513508,-0.007406735327094793,0.02306014485657215
1772812199912784400,0.437784423828125,-0.011682788841426373,0.0029779658652842045,0.01511890348047018
1772812199922485000,0.447485107421875,-0.005574141163378954,0.008781181648373604,0.014813470654189587
1772812199932185600,0.457185546875,-0.006185005884617567,0.004505127668380737,0.022754713892936707
1772812199941886000,0.466885986328125,-0.006185005884617567,0.000839939049910754,0.03558287397027016
1772812199951586600,0.476586669921875,-0.0022143847309052944,-0.004657844081521034,0.04810560122132301
1772812199961287200,0.486287109375,0.002672533504664898,-0.014431680552661419,0.052076224237680435
1772812199970987800,0.49598779296875,0.0057268571108579636,-0.019929463043808937,0.04932733252644539
1772812199980688400,0.5056884765625,0.011224640533328056,-0.023594651371240616,0.04169152304530144
1772812199990389000,0.515388916015625,0.014889828860759735,-0.02023489587008953,0.03222311660647392
1772812200000089300,0.52508935546875,0.01672242395579815,-0.013209951110184193,0.02611446939408779
1772812200009790000,0.5347900390625,0.013668099418282509,-0.010766491293907166,0.023976443335413933
1772812200019490600,0.544490478515625,0.010919207707047462,-0.013515383005142212,0.0206166859716177
1772812200029191200,0.554191162109375,0.010919207707047462,-0.01259908638894558,0.0154243353754282
1772812200038891500,0.5638916015625,0.010919207707047462,-0.011988221667706966,0.006872228812426329
1772812200048592100,0.573592041015625,0.006948587018996477,-0.012904518283903599,0.0001527161948615685
1772812200058292700,0.583292724609375,0.0005345066892914474,-0.01259908638894558,-0.008399390615522861
1772812200067993300,0.592993408203125,-0.00007635809743078426,-0.006490438245236874,-0.015729768201708794
1772812200077693700,0.602693603515625,-0.0012980876490473747,0.00022907429956831038,-0.019394956529140472
1772812200087394300,0.612394287109375,-0.004657844081521034,-0.0022143847309052944,-0.021838415414094925
1772812200097095000,0.622094970703125,-0.008323032408952713,-0.0058795735239982605,-0.018784092739224434
1772812200106795500,0.63179541015625,-0.006490438245236874,-0.009850194677710533,-0.009010255336761475
1772812200116496000,0.641495849609375,-0.004657844081521034,-0.01565340906381607,-0.003512472379952669
1772812200126196500,0.651196533203125,-0.004963276442140341,-0.015042545273900032,0.0007635809597559273
1772812200135897000,0.66089697265625,-0.004657844081521034,-0.003741546766832471,0.005650499369949102
1772812200145597700,0.67059765625,-0.005574141163378954,-0.0006872228696011007,0.012980876490473747
1772812200155298300,0.68029833984375,-0.011377356946468353,-0.015042545273900032,0.01511890348047018
1772812200164998700,0.68999853515625,-0.00954476185142994,-0.010766491293907166,0.015729768201708794
1772812200174699300,0.69969921875,-0.0058795735239982605,-0.002825249684974551,0.014508038759231567
1772812200184400000,0.70939990234375,-0.006185005884617567,-0.0012980876490473747,0.005039634648710489
1772812200194100500,0.7191005859375,-0.0019089524867013097,0.01000291109085083,0.0013744457392022014
1772812200203801000,0.728801025390625,-0.004657844081521034,0.018555017188191414,0.009010255336761475
1772812200213501400,0.73850146484375,-0.008933897130191326,0.009392046369612217,0.01695149764418602
1772812200223202000,0.7482021484375,-0.00679587060585618,-0.0022143847309052944,0.0206166859716177
1772812200232902700,0.757902587890625,-0.0006872228696011007,-0.005574141163378954,0.01695149764418602
1772812200242603300,0.767603271484375,-0.00038179047987796366,-0.0058795735239982605,0.008399390615522861
1772812200252304000,0.777303955078125,-0.008933897130191326,-0.019624030217528343,-0.012980876490473747
1772812200262004200,0.787004150390625,-0.00923932995647192,-0.02695440873503685,-0.0383317656815052
1772812200271704800,0.796704833984375,-0.007101302966475487,-0.018402300775051117,-0.06215549260377884
1772812200281405400,0.806405517578125,-0.010155626572668552,-0.015958841890096664,-0.08109229803085327
1772812200291106000,0.81610595703125,-0.0077121676877141,-0.00954476185142994,-0.08200860023498535
1772812200300806400,0.825806396484375,-0.0025198173243552446,-0.004046979360282421,-0.06612611562013626
1772812200310507000,0.835507080078125,0.00022907429956831038,-0.01626427471637726,-0.04505127668380737
1772812200320207600,0.84520751953125,0.002061668550595641,-0.02084576152265072,-0.023365577682852745
1772812200329908200,0.854908203125,0.003283398225903511,-0.01259908638894558,-0.005955931730568409
1772812200339608600,0.864608642578125,0.003894262947142124,-0.008933897130191326,0.0013744457392022014
1772812200349309200,0.87430908203125,0.00755945174023509,-0.010155626572668552,0.0032070400193333626
1772812200359009800,0.884009765625,0.00847574882209301,-0.010461059398949146,0.0025961752980947495
1772812200368710400,0.89371044921875,0.004505127668380737,-0.008017600513994694,0.0025961752980947495
1772812200378411000,0.903410888671875,-0.0012980876490473747,0.0011453714687377214,0.0007635809597559273
1772812200388111600,0.913111572265625,-0.01107192412018776,0.010919207707047462,0.0019853105768561363
1772812200397812000,0.92281201171875,-0.01565340906381607,0.009392046369612217,0.003512472379952669
1772812200407512600,0.9325126953125,-0.017486004158854485,0.00603228947147727,0.001679878099821508
1772812200417213200,0.942213134765625,-0.016875140368938446,0.0035888305865228176,-0.004428769461810589
1772812200426913800,0.951913818359375,-0.018096869811415672,-0.0016035200096666813,-0.017867794260382652
1772812200436614400,0.961614501953125,-0.01870773360133171,-0.010766491293907166,-0.0334448479115963
1772812200446314800,0.971314697265625,-0.015042545273900032,-0.014431680552661419,-0.050549060106277466
1772812200456015400,0.981015380859375,-0.01107192412018776,-0.010461059398949146,-0.060322895646095276
1772812200465716000,0.990716064453125,-0.011682788841426373,-0.012293653562664986,-0.06490438431501389
1772812200475416600,1.00041650390625,-0.01259908638894558,-0.009850194677710533,-0.06062832847237587
1772812200485117000,1.010116943359375,-0.014737112447619438,-0.00954476185142994,-0.052076224237680435
1772812200494817500,1.019817626953125,-0.019929463043808937,-0.02023489587008953,-0.04199695214629173
1772812200504518100,1.02951806640625,-0.0193185992538929,-0.02695440873503685,-0.0386371985077858
1772812200514218800,1.03921875,-0.013515383005142212,-0.01779143698513508,-0.031612250953912735
1772812200523919000,1.048919189453125,-0.01626427471637726,-0.00954476185142994,-0.02367101050913334
1772812200533619700,1.05861962890625,-0.01870773360133171,-0.004963276442140341,-0.013286309316754341
1772812200543320300,1.0683203125,-0.016875140368938446,-0.0019089524867013097,0.0001527161948615685
1772812200553021000,1.07802099609375,-0.01565340906381607,0.004199695307761431,0.014202605932950974
1772812200562721500,1.087721435546875,-0.01870773360133171,0.007254019379615784,0.02611446939408779
1772812200572422000,1.097421875,-0.021151192486286163,0.018555017188191414,0.039248060435056686
1772812200582122500,1.10712255859375,-0.022983787581324577,0.019471315667033195,0.049632761627435684
1772812200591823000,1.116822998046875,-0.02237292192876339,0.0035888305865228176,0.051159925758838654
1772812200601523700,1.126523681640625,-0.016875140368938446,-0.00923932995647192,0.039858926087617874
1772812200611224300,1.136224365234375,-0.011988221667706966,-0.011988221667706966,0.020922118797898293
1772812200620925000,1.145925048828125,-0.008323032408952713,-0.01626427471637726,-0.006566796451807022
1772812200630625300,1.155625244140625,-0.003741546766832471,-0.01779143698513508,-0.027336198836565018
1772812200640326000,1.165325927734375,0.00022907429956831038,-0.022983787581324577,-0.0435241162776947
1772812200650026500,1.175026611328125,0.0035888305865228176,-0.021456625312566757,-0.05299251899123192
1772812200659727000,1.18472705078125,0.00022907429956831038,-0.010461059398949146,-0.05329795181751251
1772812200669427500,1.194427490234375,-0.00954476185142994,-0.0031306820455938578,-0.04627300798892975
1772812200679128000,1.204128173828125,-0.019624030217528343,0.004810560029000044,-0.03222311660647392
1772812200688828700,1.21382861328125,-0.026038112118840218,0.01672242395579815,-0.010537417605519295
1772812200698529300,1.223529296875,-0.030314164236187935,0.026190826669335365,0.014508038759231567
1772812200708230000,1.23322998046875,-0.03000873140990734,0.02588539570569992,0.036804601550102234
1772812200717930200,1.24293017578125,-0.02909243479371071,0.020998476073145866,0.051159925758838654
1772812200727630800,1.252630859375,-0.02756527252495289,0.010919207707047462,0.0539088174700737
1772812200737331500,1.26233154296875,-0.019624030217528343,0.0005345066892914474,0.04474584385752678
1772812200747032000,1.272031982421875,-0.004963276442140341,0.0005345066892914474,0.03436114266514778
1772812200756732400,1.281732421875,0.000839939049910754,-0.0034361144062131643,0.02519817277789116
1772812200766433300,1.291433349609375,-0.0077121676877141,-0.003741546766832471,0.014508038759231567
1772812200776133600,1.301133544921875,-0.022983787581324577,0.0035888305865228176,0.0019853105768561363
1772812200785834200,1.310834228515625,-0.034895651042461395,0.01977674663066864,-0.011148282326757908
1772812200795534800,1.320534912109375,-0.039477135986089706,0.025274530053138733,-0.02764163166284561
1772812200805235500,1.3302353515625,-0.033979352563619614,0.017944153398275375,-0.04046979174017906
1772812200814935800,1.339935791015625,-0.022678354755043983,-0.00007635809743078426,-0.049021899700164795
1772812200824636400,1.349636474609375,-0.009850194677710533,-0.00954476185142994,-0.05451968312263489
1772812200834337000,1.3593369140625,-0.004352411720901728,-0.0031306820455938578,-0.05177079141139984
1772812200844037600,1.36903759765625,-0.01259908638894558,0.0057268571108579636,-0.042913250625133514
1772812200853738200,1.37873828125,-0.022067490965127945,0.013057234697043896,-0.024892739951610565
1772812200863438600,1.3884384765625,-0.026038112118840218,0.015500693581998348,-0.007483093533664942
1772812200873139200,1.39813916015625,-0.027870705351233482,0.015500693581998348,0.008704823441803455
1772812200882839800,1.40783984375,-0.026648975908756256,0.011530072428286076,0.01847865991294384
1772812200892540400,1.41754052734375,-0.024205517023801804,0.012140937149524689,0.02519817277789116
1772812200902240800,1.42724072265625,-0.02390008419752121,0.017027854919433594,0.03252854943275452
1772812200911941400,1.43694140625,-0.02237292192876339,0.014584396965801716,0.03405570983886719
1772812200921642000,1.44664208984375,-0.017486004158854485,0.0057268571108579636,0.03130681812763214
1772812200931342600,1.456342529296875,-0.014737112447619438,0.004199695307761431,0.028863361105322838
1772812200941043200,1.466043212890625,-0.017486004158854485,0.012751801870763302,0.031612250953912735
1772812200950743600,1.47574365234375,-0.024510949850082397,0.022220205515623093,0.03252854943275452
1772812200960444200,1.485444091796875,-0.028176138177514076,0.01824958436191082,0.033139415085315704
1772812200970144800,1.495144775390625,-0.024510949850082397,0.0057268571108579636,0.028557928279042244
1772812200979845400,1.504845458984375,-0.01626427471637726,-0.005268708802759647,0.01847865991294384
1772812200989546000,1.5145458984375,-0.0012980876490473747,-0.012904518283903599,0.004428769461810589
1772812200999246600,1.52424658203125,0.01030834298580885,-0.014737112447619438,-0.009315688163042068
1772812201008947000,1.533947021484375,0.019471315667033195,-0.016875140368938446,-0.017867794260382652
1772812201018647600,1.5436474609375,0.03321577236056328,-0.02390008419752121,-0.01695149764418602
1772812201028348200,1.55334814453125,0.033826638013124466,-0.03061959706246853,-0.01695149764418602
1772812201038048800,1.563048828125,0.030772313475608826,-0.015042545273900032,-0.011759147047996521
1772812201047749000,1.5727490234375,0.02283107116818428,0.00022907429956831038,-0.0038179049734026194
1772812201057449700,1.58244970703125,0.017944153398275375,-0.007101302966475487,0.001679878099821508
1772812201067150300,1.592150390625,0.017944153398275375,-0.01259908638894558,0.007483093533664942
1772812201076851000,1.601850830078125,0.01824958436191082,-0.00679587060585618,0.013286309316754341
1772812201086551600,1.611551513671875,0.014889828860759735,-0.0022143847309052944,0.01695149764418602
1772812201096252000,1.621251953125,0.008781181648373604,0.0017562361899763346,0.023365577682852745
1772812201105952500,1.630952392578125,0.0029779658652842045,0.002061668550595641,0.02825249545276165
1772812201115653000,1.640653076171875,0.000839939049910754,0.0066431546583771706,0.030085090547800064
1772812201125353700,1.650353759765625,0.00022907429956831038,0.00603228947147727,0.02367101050913334
1772812201135054300,1.660054443359375,0.003894262947142124,0.007864884100854397,0.019394956529140472
1772812201144755000,1.6697548828125,0.005421424750238657,0.007254019379615784,0.014508038759231567
1772812201154455300,1.679455322265625,0.008781181648373604,0.0023671009112149477,0.005345067009329796
1772812201164156000,1.689156005859375,0.01000291109085083,-0.004657844081521034,-0.008399390615522861
1772812201173856500,1.6988564453125,0.01000291109085083,-0.014737112447619438,-0.020311253145337105
1772812201183557000,1.70855712890625,0.01672242395579815,-0.02756527252495289,-0.02825249545276165
1772812201193257700,1.7182578125,0.029856016859412193,-0.031841326504945755,-0.039858926087617874
1772812201202958000,1.7279580078125,0.042073313146829605,-0.017486004158854485,-0.045967575162649155
1772812201212658700,1.73765869140625,0.043600473552942276,0.003283398225903511,-0.04046979174017906
1772812201222359300,1.747359375,0.03107774630188942,0.0017562361899763346,-0.02306014485657215
1772812201232060000,1.757059814453125,0.013973532244563103,-0.007406735327094793,-0.004734201822429895
1772812201241760300,1.76676025390625,0.006337722297757864,-0.004046979360282421,0.009315688163042068
1772812201251460900,1.7764609375,-0.00038179047987796366,0.00022907429956831038,0.012980876490473747
1772812201261161500,1.786161376953125,-0.0022143847309052944,0.000839939049910754,0.009926552884280682
1772812201270862000,1.795862060546875,0.004505127668380737,0.005421424750238657,0.009621120058000088
1772812201280562700,1.805562744140625,0.012446369975805283,0.010919207707047462,0.017256930470466614
1772812201290263000,1.815262939453125,0.0066431546583771706,0.022525638341903687,0.028863361105322838
1772812201299964000,1.8249638671875,-0.009850194677710533,0.02741255611181259,0.03375028073787689
1772812201309664300,1.834664306640625,-0.02084576152265072,0.026190826669335365,0.024281874299049377
1772812201319364900,1.84436474609375,-0.025121813639998436,0.02741255611181259,0.002901607658714056
1772812201329065500,1.8540654296875,-0.020540328696370125,0.017027854919433594,-0.0206166859716177
1772812201338766000,1.86376611328125,-0.00679587060585618,0.00755945174023509,-0.03497200831770897
1772812201348466400,1.873466552734375,0.00847574882209301,0.002061668550595641,-0.03588830679655075
1772812201358167000,1.8831669921875,0.0191658828407526,-0.01107192412018776,-0.0334448479115963
1772812201367867600,1.89286767578125,0.027717988938093185,-0.00954476185142994,-0.030390523374080658
1772812201377568300,1.902568359375,0.0319940410554409,0.012446369975805283,-0.028557928279042244
1772812201387268900,1.912268798828125,0.023136503994464874,0.02130390889942646,-0.021838415414094925
1772812201396969200,1.92196923828125,0.01611155830323696,0.01611155830323696,-0.005955931730568409
1772812201406669800,1.931669921875,0.014584396965801716,0.007864884100854397,0.008399390615522861
1772812201416370400,1.941370361328125,0.011530072428286076,-0.004963276442140341,0.019394956529140472
1772812201426071000,1.951071044921875,0.01000291109085083,-0.01107192412018776,0.017867794260382652
1772812201435771600,1.960771728515625,0.015500693581998348,-0.0012980876490473747,0.003512472379952669
1772812201445472000,1.970471923828125,0.026801692321896553,0.016416991129517555,-0.02306014485657215
1772812201455172600,1.980172607421875,0.024663666263222694,0.010613775812089443,-0.04046979174017906
1772812201464873200,1.989873291015625,0.01000291109085083,0.013973532244563103,-0.03283398225903511
1772812201474573800,1.99957373046875,0.0011453714687377214,0.01672242395579815,-0.020311253145337105
1772812201484274200,2.009274169921875,-0.008017600513994694,0.009392046369612217,-0.012980876490473747
1772812201493975000,2.01897509765625,-0.011988221667706966,-0.005574141163378954,-0.012370011769235134
1772812201503675400,2.02867529296875,-0.00954476185142994,0.002061668550595641,-0.01847865991294384
1772812201513376000,2.0383759765625,-0.00923932995647192,0.018860450014472008,-0.02214384824037552
1772812201523076600,2.04807666015625,-0.010461059398949146,0.02741255611181259,-0.013286309316754341
1772812201532777200,2.057777099609375,-0.0077121676877141,0.026801692321896553,0.006566796451807022
1772812201542477800,2.067477783203125,-0.0012980876490473747,0.01183550525456667,0.024892739951610565
1772812201552178200,2.07717822265625,0.014278964139521122,0.0029779658652842045,0.031001387163996696
1772812201561878800,2.086878662109375,0.02283107116818428,-0.01565340906381607,0.02306014485657215
1772812201571579400,2.096579345703125,0.025579962879419327,-0.012904518283903599,0.012980876490473747
1772812201581280000,2.106280029296875,0.03107774630188942,-0.00007635809743078426,0.002290742937475443
1772812201590980400,2.11598046875,0.028328854590654373,0.008781181648373604,-0.009315688163042068
1772812201600681000,2.125680908203125,0.025274530053138733,0.009086613543331623,-0.01847865991294384
1772812201610381600,2.135381591796875,0.02130390889942646,0.017027854919433594,-0.02825249545276165
1772812201620082200,2.145082275390625,0.0191658828407526,0.009086613543331623,-0.039248060435056686
1772812201629782800,2.15478271484375,0.017944153398275375,0.0017562361899763346,-0.04413498193025589
1772812201639483100,2.164483154296875,0.015500693581998348,-0.0009926552884280682,-0.043829549103975296
1772812201649184000,2.17418408203125,0.010613775812089443,-0.0034361144062131643,-0.043829549103975296
1772812201658884400,2.18388427734375,0.008781181648373604,0.002672533504664898,-0.04199695214629173
1772812201668585000,2.1935849609375,0.007864884100854397,0.013973532244563103,-0.03894263133406639
1772812201678285600,2.20328564453125,0.006948587018996477,0.015500693581998348,-0.03130681812763214
1772812201687986200,2.212986083984375,0.009392046369612217,0.013668099418282509,-0.02611446939408779
1772812201697686500,2.2226865234375,0.011224640533328056,0.016416991129517555,-0.017256930470466614
1772812201707387100,2.23238720703125,0.007254019379615784,0.020387612283229828,-0.007483093533664942
1772812201717087700,2.242087646484375,0.004505127668380737,0.01183550525456667,-0.002290742937475443
1772812201726788400,2.251788330078125,0.009086613543331623,0.005421424750238657,-0.0032070400193333626
1772812201736489000,2.261489013671875,0.018555017188191414,0.0011453714687377214,-0.013897174037992954
1772812201746189300,2.271189208984375,0.02649625949561596,0.004505127668380737,-0.021227551624178886
1772812201755890000,2.280889892578125,0.030466880649328232,-0.005574141163378954,-0.03222311660647392
1772812201765590500,2.290590576171875,0.030466880649328232,-0.01779143698513508,-0.040775224566459656
1772812201775291100,2.300291015625,0.028634287416934967,-0.00954476185142994,-0.039858926087617874
1772812201784991700,2.30999169921875,0.01977674663066864,0.009086613543331623,-0.028863361105322838
1772812201794692000,2.319692138671875,0.00847574882209301,0.01611155830323696,-0.01206457894295454
1772812201804393000,2.32939306640625,0.00603228947147727,0.015806125476956367,0.009315688163042068
1772812201814093300,2.33909326171875,0.007254019379615784,0.013973532244563103,0.028557928279042244
1772812201823794000,2.3487939453125,0.00511599238961935,0.008170315995812416,0.03741546720266342
1772812201833494500,2.35849462890625,0.0023671009112149477,0.012751801870763302,0.03527744114398956
1772812201843195100,2.368195068359375,0.0035888305865228176,0.01824958436191082,0.022449281066656113
1772812201852895500,2.3778955078125,0.009086613543331623,0.00755945174023509,0.005955931730568409
1772812201862596000,2.38759619140625,0.022220205515623093,-0.00954476185142994,-0.009315688163042068
1772812201872296700,2.397296630859375,0.0371863916516304,-0.019929463043808937,-0.02000582218170166
1772812201881997300,2.406997314453125,0.04787652567028999,-0.020540328696370125,-0.021227551624178886
1772812201891698000,2.416697998046875,0.04940368980169296,-0.018096869811415672,-0.01847865991294384
1772812201901398300,2.426398193359375,0.04604393243789673,-0.014126247726380825,-0.013286309316754341
1772812201911099000,2.436098876953125,0.03779725730419159,-0.012904518283903599,-0.011148282326757908
1772812201920799500,2.445799560546875,0.02802342176437378,-0.016569707542657852,-0.016646064817905426
1772812201930500000,2.4555,0.023441936820745468,-0.006185005884617567,-0.017256930470466614
1772812201940200700,2.46520068359375,0.019471315667033195,0.00603228947147727,-0.014508038759231567
1772812201949901000,2.474901123046875,0.009697478264570236,0.003283398225903511,-0.006872228812426329
1772812201959602000,2.484601806640625,0.00511599238961935,0.00022907429956831038,-0.0013744457392022014
1772812201969302300,2.49430224609375,-0.0006872228696011007,-0.0022143847309052944,0.002901607658714056
1772812201979003000,2.5040029296875,-0.006490438245236874,-0.010766491293907166,0.0010690133785828948
1772812201988703500,2.513703369140625,-0.007406735327094793,-0.002825249684974551,-0.002901607658714056
1772812201998404000,2.523404052734375,-0.008017600513994694,0.011530072428286076,-0.005039634648710489
1772812202008104700,2.533104736328125,-0.01107192412018776,0.011224640533328056,-0.002290742937475443
1772812202017805000,2.54280517578125,-0.00954476185142994,0.01030834298580885,0.0019853105768561363
1772812202027505700,2.552505615234375,-0.0031306820455938578,0.01000291109085083,0.007788525894284248
1772812202037206300,2.562206298828125,-0.004046979360282421,-0.002825249684974551,0.009010255336761475
1772812202046907000,2.571906982421875,-0.005574141163378954,-0.013209951110184193,0.005650499369949102
1772812202056607200,2.581607177734375,-0.00038179047987796366,-0.0034361144062131643,-0.00045814859913662076
1772812202066307800,2.591307861328125,0.003894262947142124,0.0057268571108579636,-0.0038179049734026194
1772812202076008400,2.601008544921875,0.0005345066892914474,0.000839939049910754,-0.0010690133785828948
1772812202085709000,2.610708984375,0.000839939049910754,0.002672533504664898,0.004428769461810589
1772812202095409700,2.62040966796875,0.0023671009112149477,0.007864884100854397,0.013897174037992954
1772812202105110000,2.630110107421875,0.003283398225903511,0.0005345066892914474,0.01695149764418602
1772812202114811000,2.639810791015625,0.008781181648373604,-0.00954476185142994,0.021838415414094925
1772812202124511200,2.64951123046875,0.01824958436191082,-0.013209951110184193,0.02214384824037552
1772812202134211800,2.6592119140625,0.021609341725707054,-0.01718057133257389,0.017867794260382652
1772812202143912400,2.668912353515625,0.02283107116818428,-0.0193185992538929,0.010537417605519295
1772812202153613000,2.678613037109375,0.023136503994464874,-0.008628465235233307,0.0038179049734026194
1772812202163313700,2.688313720703125,0.021609341725707054,0.006948587018996477,0.008399390615522861
1772812202173014000,2.698013916015625,0.01824958436191082,0.011530072428286076,0.012980876490473747
1772812202182714600,2.707714599609375,0.012751801870763302,0.01611155830323696,0.027336198836565018
1772812202192415200,2.717415283203125,0.0066431546583771706,0.014278964139521122,0.04260781779885292
1772812202202115800,2.72711572265625,0.004505127668380737,0.00511599238961935,0.05238165333867073
1772812202211816400,2.73681640625,0.005421424750238657,-0.0034361144062131643,0.05177079141139984
1772812202221516800,2.746516845703125,0.004810560029000044,-0.004046979360282421,0.04108065739274025
1772812202231217400,2.756217529296875,0.00022907429956831038,-0.00679587060585618,0.026419902220368385
1772812202240918000,2.76591796875,-0.005574141163378954,-0.005574141163378954,0.012675444595515728
1772812202250618600,2.77561865234375,-0.010766491293907166,-0.00038179047987796366,0.002901607658714056
1772812202260319200,2.7853193359375,-0.015042545273900032,-0.0016035200096666813,-0.005955931730568409
1772812202270019800,2.795019775390625,-0.012293653562664986,-0.010155626572668552,-0.013286309316754341
1772812202279720200,2.80472021484375,-0.00923932995647192,-0.015958841890096664,-0.024281874299049377
1772812202289420800,2.8144208984375,-0.00923932995647192,-0.012904518283903599,-0.03222311660647392
1772812202299121400,2.824121337890625,-0.0193185992538929,-0.01107192412018776,-0.043829549103975296
1772812202308822000,2.833822021484375,-0.026648975908756256,-0.0016035200096666813,-0.047494735568761826
1772812202318522600,2.843522705078125,-0.02237292192876339,0.01000291109085083,-0.040775224566459656
1772812202328223000,2.853222900390625,-0.02084576152265072,0.000839939049910754,-0.023976443335413933
1772812202337923600,2.862923583984375,-0.01870773360133171,-0.008628465235233307,-0.00045814859913662076
1772812202347624200,2.872624267578125,-0.021151192486286163,-0.008933897130191326,0.017562363296747208
1772812202357324800,2.88232470703125,-0.027259841561317444,-0.01565340906381607,0.02153298258781433
1772812202367025400,2.892025390625,-0.02756527252495289,-0.018096869811415672,0.0102319847792387
1772812202376725800,2.901725830078125,-0.016875140368938446,-0.013209951110184193,-0.007483093533664942
1772812202386426400,2.91142626953125,-0.0022143847309052944,-0.012293653562664986,-0.023976443335413933
1772812202396127000,2.921126953125,0.007254019379615784,-0.013820815831422806,-0.028863361105322838
1772812202405827600,2.93082763671875,0.011224640533328056,-0.01565340906381607,-0.025503603741526604
1772812202415528200,2.940528076171875,0.005421424750238657,-0.016875140368938446,-0.015729768201708794
1772812202425228800,2.950228759765625,-0.0025198173243552446,-0.0345902182161808,-0.006566796451807022
1772812202434929400,2.959929443359375,-0.00038179047987796366,-0.04222602769732475,-0.005345067009329796
1772812202444629800,2.969629638671875,0.003894262947142124,-0.03153589367866516,-0.009010255336761475
1772812202454330400,2.979330322265625,-0.0012980876490473747,-0.031230462715029716,-0.019700389355421066
1772812202464031000,2.989031005859375,-0.006490438245236874,-0.024816380813717842,-0.019394956529140472
1772812202473731600,2.998731689453125,-0.011377356946468353,-0.01779143698513508,-0.008704823441803455
1772812202483432200,3.00843212890625,-0.01718057133257389,-0.021151192486286163,0.0102319847792387
1772812202493132500,3.018132568359375,-0.019929463043808937,-0.024205517023801804,0.029474224895238876
1772812202502833200,3.027833251953125,-0.019624030217528343,-0.02176205813884735,0.04169152304530144
1772812202512533800,3.03753369140625,-0.0193185992538929,-0.019929463043808937,0.046883873641490936
1772812202522234400,3.047234375,-0.020540328696370125,-0.022983787581324577,0.04016435891389847
1772812202531935000,3.05693505859375,-0.022067490965127945,-0.027259841561317444,0.025809036567807198
1772812202541635300,3.06663525390625,-0.021456625312566757,-0.025732679292559624,0.006872228812426329
1772812202551336200,3.076336181640625,-0.019624030217528343,-0.01626427471637726,-0.013897174037992954
1772812202561036500,3.08603662109375,-0.018096869811415672,-0.011682788841426373,-0.027030766010284424
1772812202570737200,3.095737060546875,-0.015347977168858051,-0.015958841890096664,-0.03588830679655075
1772812202580437800,3.105437744140625,-0.0077121676877141,-0.016875140368938446,-0.04016435891389847
1772812202590138400,3.115138427734375,-0.00038179047987796366,-0.019013166427612305,-0.03649916872382164
1772812202599839000,3.1248388671875,0.005421424750238657,-0.027259841561317444,-0.03191768378019333
1772812202609539300,3.134539306640625,0.008781181648373604,-0.03306305781006813,-0.027030766010284424
1772812202619240000,3.144239990234375,0.009697478264570236,-0.03306305781006813,-0.021838415414094925
1772812202628940500,3.1539404296875,0.007254019379615784,-0.026648975908756256,-0.01695149764418602
1772812202638641200,3.16364111328125,0.003283398225903511,-0.017486004158854485,-0.005039634648710489
1772812202648341800,3.173341796875,0.001450803829357028,-0.010155626572668552,0.01206457894295454
1772812202658042000,3.1830419921875,-0.004963276442140341,-0.02084576152265072,0.029474224895238876
1772812202667742700,3.19274267578125,-0.004963276442140341,-0.03000873140990734,0.044440411031246185
1772812202677443300,3.202443359375,-0.0009926552884280682,-0.02542724646627903,0.050549060106277466
1772812202687144000,3.21214404296875,0.0017562361899763346,-0.01870773360133171,0.047494735568761826
1772812202696844500,3.221844482421875,0.0005345066892914474,-0.008323032408952713,0.04932733252644539
1772812202706545200,3.231545166015625,-0.0019089524867013097,-0.0022143847309052944,0.052076224237680435
1772812202716245800,3.241245849609375,-0.0019089524867013097,-0.008933897130191326,0.05177079141139984
1772812202725946000,3.250946044921875,0.00511599238961935,-0.01259908638894558,0.054214250296354294
1772812202735646700,3.260646728515625,0.008781181648373604,-0.009850194677710533,0.055741410702466965
1772812202745347300,3.270347412109375,0.006337722297757864,-0.01107192412018776,0.05238165333867073
1772812202755048000,3.2800478515625,0.004505127668380737,-0.015042545273900032,0.04657844081521034
1772812202764748500,3.28974853515625,0.013057234697043896,-0.025121813639998436,0.030390523374080658
1772812202774449000,3.299448974609375,0.024052800610661507,-0.03000873140990734,0.011148282326757908
1772812202784149500,3.3091494140625,0.0322994738817215,-0.029703300446271896,-0.0032070400193333626
1772812202793850000,3.31885009765625,0.03657552972435951,-0.028176138177514076,-0.009010255336761475
1772812202803550700,3.32855078125,0.03535379841923714,-0.033368486911058426,-0.0102319847792387
1772812202813251300,3.338251220703125,0.033826638013124466,-0.04192059487104416,-0.005955931730568409
1772812202822951700,3.34795166015625,0.027717988938093185,-0.03245219215750694,-0.004734201822429895
1772812202832652300,3.35765234375,0.01977674663066864,-0.011682788841426373,-0.004428769461810589
1772812202842353000,3.367352783203125,0.012446369975805283,0.000839939049910754,-0.0013744457392022014
1772812202852053500,3.377053466796875,0.01000291109085083,0.004199695307761431,0.005955931730568409
1772812202861754000,3.386754150390625,0.005421424750238657,-0.0009926552884280682,0.012980876490473747
1772812202871454700,3.396454833984375,-0.004046979360282421,-0.002825249684974551,0.01359174121171236
1772812202881155300,3.4061552734375,-0.014737112447619438,0.01183550525456667,0.010842849500477314
1772812202890855700,3.415855712890625,-0.027870705351233482,0.027717988938093185,0.004734201822429895
1772812202900556300,3.425556396484375,-0.02909243479371071,0.03321577236056328,-0.0019853105768561363
1772812202910257000,3.4352568359375,-0.019929463043808937,0.02283107116818428,0.0025961752980947495
1772812202919957500,3.44495751953125,-0.004046979360282421,0.007254019379615784,0.008704823441803455
1772812202929658000,3.454658203125,0.013362666592001915,-0.004963276442140341,0.0102319847792387
1772812202939358500,3.4643583984375,0.02588539570569992,-0.006490438245236874,0.0025961752980947495
1772812202949059000,3.47405908203125,0.03138317912817001,-0.0025198173243552446,-0.01511890348047018
1772812202958759700,3.483759765625,0.02893971838057041,0.0023671009112149477,-0.0383317656815052
1772812202968460300,3.493460205078125,0.025274530053138733,0.01672242395579815,-0.05604684352874756
1772812202978161000,3.503160888671875,0.020998476073145866,0.029245151206851006,-0.06215549260377884
1772812202987861500,3.512861572265625,0.017333287745714188,0.01977674663066864,-0.061850059777498245
1772812202997562000,3.52256201171875,0.020082179456949234,0.002061668550595641,-0.05940660089254379
1772812203007262500,3.532262451171875,0.02496909722685814,-0.002825249684974551,-0.05696314200758934
1772812203016963000,3.541963134765625,0.024052800610661507,-0.0012980876490473747,-0.05604684352874756
1772812203026663700,3.55166357421875,0.0191658828407526,0.0057268571108579636,-0.052076224237680435
1772812203036364300,3.5613642578125,0.013973532244563103,0.016416991129517555,-0.03558287397027016
1772812203046065000,3.57106494140625,0.006337722297757864,0.011224640533328056,-0.012370011769235134
1772812203055765200,3.58076513671875,0.000839939049910754,0.0005345066892914474,0.009621120058000088
1772812203065465900,3.5904658203125,0.000839939049910754,-0.0019089524867013097,0.02367101050913334
1772812203075166500,3.60016650390625,-0.0006872228696011007,-0.0019089524867013097,0.02611446939408779
1772812203084867000,3.6098671875,-0.0009926552884280682,-0.0019089524867013097,0.019700389355421066
1772812203094567700,3.619567626953125,0.007254019379615784,0.0023671009112149477,0.012675444595515728
1772812203104268000,3.62926806640625,0.018555017188191414,0.002672533504664898,0.007483093533664942
1772812203113969000,3.638968994140625,0.023747367784380913,-0.0034361144062131643,0.007788525894284248
1772812203123669200,3.648669189453125,0.025274530053138733,-0.003741546766832471,0.010537417605519295
1772812203133369900,3.658369873046875,0.02283107116818428,-0.0012980876490473747,0.007177661173045635
1772812203143070500,3.668070556640625,0.020387612283229828,0.003894262947142124,-0.0025961752980947495
1772812203152771000,3.67777099609375,0.020082179456949234,0.012446369975805283,-0.009621120058000088
1772812203162471700,3.6874716796875,0.023747367784380913,0.009392046369612217,-0.016035201027989388
1772812203172172000,3.697172119140625,0.02741255611181259,-0.0022143847309052944,-0.02458730712532997
1772812203181872600,3.70687255859375,0.029856016859412193,-0.010155626572668552,-0.0334448479115963
1772812203191573200,3.7165732421875,0.02893971838057041,-0.004046979360282421,-0.037720900028944016
1772812203201273900,3.72627392578125,0.018555017188191414,0.002061668550595641,-0.039248060435056686
1772812203210974500,3.735974365234375,0.006337722297757864,0.01000291109085083,-0.02764163166284561
1772812203220674800,3.7456748046875,-0.0009926552884280682,0.020082179456949234,-0.007788525894284248
1772812203230375700,3.755375732421875,-0.008933897130191326,0.021609341725707054,0.011453714221715927
1772812203240076000,3.765075927734375,-0.01718057133257389,0.01977674663066864,0.022754713892936707
1772812203249776600,3.774776611328125,-0.01870773360133171,0.016416991129517555,0.02306014485657215
1772812203259477200,3.784477294921875,-0.015347977168858051,0.015500693581998348,0.017256930470466614
1772812203269177900,3.794177734375,-0.00679587060585618,0.012751801870763302,0.012370011769235134
1772812203278878500,3.80387841796875,0.008170315995812416,0.0029779658652842045,0.009010255336761475
1772812203288578800,3.813578857421875,0.020693045109510422,-0.003741546766832471,0.005955931730568409
1772812203298279400,3.823279541015625,0.0243582334369421,-0.004963276442140341,0.0032070400193333626
1772812203307980000,3.83297998046875,0.020082179456949234,-0.0031306820455938578,-0.0032070400193333626
1772812203317680600,3.8426806640625,0.017944153398275375,-0.0006872228696011007,-0.007177661173045635
1772812203327381200,3.85238134765625,0.018555017188191414,-0.005574141163378954,-0.012675444595515728
1772812203337081600,3.86208154296875,0.018555017188191414,-0.009850194677710533,-0.018784092739224434
1772812203346782200,3.8717822265625,0.014584396965801716,-0.008323032408952713,-0.021838415414094925
1772812203356482800,3.88148291015625,0.004810560029000044,-0.002825249684974551,-0.02000582218170166
1772812203366183400,3.891183349609375,-0.0058795735239982605,0.01030834298580885,-0.009621120058000088
1772812203375884000,3.900884033203125,-0.010766491293907166,0.014278964139521122,0.0019853105768561363
1772812203385584600,3.910584716796875,-0.008017600513994694,0.012446369975805283,0.018173227086663246
1772812203395285200,3.92028515625,-0.010155626572668552,0.00755945174023509,0.02916879393160343
1772812203404985600,3.929985595703125,-0.020540328696370125,0.004505127668380737,0.033139415085315704
1772812203414686200,3.939686279296875,-0.028787001967430115,0.005421424750238657,0.026419902220368385
1772812203424386800,3.94938671875,-0.03245219215750694,0.013057234697043896,0.018173227086663246
1772812203434087400,3.95908740234375,-0.029397867619991302,0.012446369975805283,0.012675444595515728
1772812203443788000,3.9687880859375,-0.02084576152265072,0.0066431546583771706,0.014813470654189587
1772812203453488600,3.978488525390625,-0.012904518283903599,-0.0022143847309052944,0.016646064817905426
1772812203463189000,3.98818896484375,-0.010461059398949146,-0.003741546766832471,0.016340631991624832
1772812203472889600,3.9978896484375,-0.009850194677710533,-0.0009926552884280682,0.011148282326757908
1772812203482590200,4.007590087890625,-0.01107192412018776,-0.005574141163378954,0.002290742937475443
1772812203492290800,4.017290771484375,-0.006490438245236874,-0.005268708802759647,-0.006566796451807022
1772812203501991400,4.026991455078125,-0.0019089524867013097,-0.004352411720901728,-0.014202605932950974
1772812203511692000,4.036692138671875,-0.00007635809743078426,-0.007406735327094793,-0.017562363296747208
1772812203521392600,4.046392578125,-0.0012980876490473747,-0.004046979360282421,-0.015729768201708794
1772812203531093000,4.056093017578125,-0.0034361144062131643,-0.0006872228696011007,-0.016646064817905426
1772812203540793600,4.065793701171875,-0.008628465235233307,0.00603228947147727,-0.021227551624178886
1772812203550494200,4.075494140625,-0.016569707542657852,0.017333287745714188,-0.028863361105322838
1772812203560194800,4.08519482421875,-0.02542724646627903,0.02283107116818428,-0.041386090219020844
1772812203569895400,4.0948955078125,-0.02695440873503685,0.014584396965801716,-0.05451968312263489
1772812203579595800,4.104595703125,-0.021456625312566757,-0.00038179047987796366,-0.06215549260377884
1772812203589296400,4.11429638671875,-0.010461059398949146,-0.00923932995647192,-0.06368265300989151
1772812203598997000,4.1239970703125,-0.008323032408952713,-0.006185005884617567,-0.049632761627435684
1772812203608697600,4.133697509765625,-0.014126247726380825,-0.006185005884617567,-0.027947064489126205
1772812203618398200,4.143398193359375,-0.022067490965127945,-0.0031306820455938578,0.00045814859913662076
1772812203628098600,4.1530986328125,-0.026648975908756256,0.0023671009112149477,0.027030766010284424
1772812203637799400,4.16279931640625,-0.024816380813717842,0.006337722297757864,0.04993819445371628
1772812203647499800,4.172499755859375,-0.018402300775051117,0.012751801870763302,0.06826414167881012
1772812203657200400,4.182200439453125,-0.013515383005142212,0.013973532244563103,0.08109229803085327
1772812203666901000,4.19190087890625,-0.010155626572668552,0.00847574882209301,0.08078686892986298
1772812203676601600,4.2016015625,-0.004046979360282421,0.00603228947147727,0.07345648854970932
1772812203686302200,4.21130224609375,0.00847574882209301,-0.0034361144062131643,0.05299251899123192
1772812203696002800,4.2210029296875,0.02130390889942646,-0.01626427471637726,0.019700389355421066
1772812203705703200,4.230703125,0.03657552972435951,-0.015958841890096664,-0.01206457894295454
1772812203715403800,4.24040380859375,0.04329504072666168,-0.007101302966475487,-0.0334448479115963
1772812203725104400,4.2501044921875,0.041157014667987823,-0.008628465235233307,-0.04505127668380737
1772812203734805000,4.259804931640625,0.03504836559295654,-0.009850194677710533,-0.047494735568761826
1772812203744505600,4.269505615234375,0.024663666263222694,-0.004046979360282421,-0.039858926087617874
1772812203754206000,4.2792060546875,0.01030834298580885,-0.0009926552884280682,-0.02825249545276165
1772812203763906800,4.28890673828125,-0.0006872228696011007,0.0017562361899763346,-0.0154243353754282
1772812203773607200,4.298607177734375,-0.0022143847309052944,0.013362666592001915,-0.0032070400193333626
1772812203783307800,4.308307861328125,-0.0022143847309052944,0.020998476073145866,0.008704823441803455
1772812203793008400,4.31800830078125,-0.004963276442140341,0.014278964139521122,0.01908952370285988
1772812203802709000,4.327708984375,-0.0034361144062131643,0.009697478264570236,0.02458730712532997
1772812203812409600,4.33740966796875,-0.0016035200096666813,0.0066431546583771706,0.01908952370285988
1772812203822110000,4.34710986328125,0.0023671009112149477,0.00511599238961935,0.005039634648710489
1772812203831810600,4.356810546875,0.009697478264570236,0.008170315995812416,-0.004428769461810589
1772812203841511200,4.36651123046875,0.013362666592001915,0.008170315995812416,-0.006872228812426329
1772812203851211800,4.376211669921875,0.01000291109085083,-0.003741546766832471,-0.004428769461810589
1772812203860912400,4.385912353515625,0.012140937149524689,-0.0012980876490473747,-0.001679878099821508
1772812203870613000,4.395613037109375,0.012751801870763302,0.005421424750238657,-0.001679878099821508
1772812203880313300,4.405313232421875,0.00847574882209301,0.004199695307761431,-0.0025961752980947495
1772812203890014200,4.41501416015625,0.010919207707047462,0.008170315995812416,-0.0019853105768561363
1772812203899714600,4.424714599609375,0.014889828860759735,0.016416991129517555,0.006566796451807022
1772812203909415200,4.434415283203125,0.00847574882209301,0.0243582334369421,0.022754713892936707
1772812203919115800,4.44411572265625,-0.0034361144062131643,0.020082179456949234,0.03405570983886719
1772812203928816400,4.45381640625,-0.007101302966475487,0.01611155830323696,0.03222311660647392
1772812203938517000,4.46351708984375,-0.004352411720901728,0.016416991129517555,0.014508038759231567
1772812203948217300,4.47321728515625,-0.00038179047987796366,0.013057234697043896,-0.011453714221715927
1772812203957918000,4.48291796875,0.009697478264570236,0.006337722297757864,-0.031001387163996696
1772812203967618600,4.49261865234375,0.020387612283229828,-0.008017600513994694,-0.03283398225903511
1772812203977319200,4.502319091796875,0.02130390889942646,-0.007406735327094793,-0.01695149764418602
1772812203987019800,4.512019775390625,0.01824958436191082,0.002061668550595641,0.001679878099821508
1772812203996720400,4.521720458984375,0.013057234697043896,0.014584396965801716,0.021838415414094925
1772812204006421000,4.5314208984375,0.01030834298580885,0.01672242395579815,0.03497200831770897
1772812204016121300,4.541121337890625,0.007864884100854397,0.008781181648373604,0.04199695214629173
1772812204025822000,4.550822021484375,0.007864884100854397,0.0017562361899763346,0.03741546720266342
1772812204035522600,4.5605224609375,0.009086613543331623,-0.00007635809743078426,0.02672533318400383
1772812204045223200,4.57022314453125,0.01000291109085083,0.0017562361899763346,0.013286309316754341
1772812204054923800,4.579923828125,0.014889828860759735,0.005421424750238657,-0.0013744457392022014
1772812204064624400,4.589624267578125,0.020998476073145866,0.01030834298580885,-0.01206457894295454
1772812204074324700,4.59932470703125,0.021914774551987648,0.0057268571108579636,-0.025503603741526604
1772812204084025300,4.609025390625,0.020387612283229828,-0.00007635809743078426,-0.03527744114398956
1772812204093726000,4.618725830078125,0.019471315667033195,-0.00007635809743078426,-0.04474584385752678
1772812204103426600,4.628426513671875,0.01672242395579815,-0.0009926552884280682,-0.04932733252644539
1772812204113127200,4.638127197265625,0.01183550525456667,-0.00007635809743078426,-0.046883873641490936
1772812204122827500,4.64782763671875,0.01030834298580885,0.0005345066892914474,-0.031612250953912735
1772812204132528400,4.6575283203125,0.009086613543331623,0.004810560029000044,-0.008093958720564842
1772812204142228700,4.667228759765625,0.008170315995812416,0.009392046369612217,0.021838415414094925
1772812204151929300,4.676929443359375,0.0035888305865228176,0.008170315995812416,0.052687086164951324
1772812204161630000,4.6866298828125,-0.00038179047987796366,0.007254019379615784,0.07895427197217941
1772812204171330600,4.69633056640625,-0.003741546766832471,0.007254019379615784,0.09544762223958969
1772812204181031200,4.70603125,-0.0058795735239982605,0.009086613543331623,0.09758564829826355
1772812204190731800,4.715731689453125,-0.005268708802759647,0.010613775812089443,0.08659008145332336
1772812204200432000,4.72543212890625,-0.0019089524867013097,0.01030834298580885,0.06826414167881012
1772812204210132700,4.7351328125,0.0011453714687377214,0.0057268571108579636,0.04718930274248123
1772812204219833300,4.744833251953125,0.0023671009112149477,-0.0016035200096666813,0.023365577682852745
1772812204229534000,4.754533935546875,0.006948587018996477,-0.007406735327094793,-0.001679878099821508
1772812204239234600,4.764234619140625,0.009697478264570236,-0.008933897130191326,-0.02458730712532997
1772812204248935000,4.773934814453125,0.007864884100854397,-0.008933897130191326,-0.04718930274248123
1772812204258635800,4.7836357421875,0.006948587018996477,-0.006185005884617567,-0.06001746281981468
1772812204268336000,4.793336181640625,0.005421424750238657,-0.004352411720901728,-0.058795735239982605
1772812204278036700,4.80303662109375,0.003894262947142124,-0.002825249684974551,-0.047494735568761826
1772812204287737300,4.8127373046875,0.0011453714687377214,0.004199695307761431,-0.02367101050913334
1772812204297438000,4.82243798828125,-0.006490438245236874,0.004810560029000044,0.007177661173045635
1772812204307138600,4.832138671875,-0.016875140368938446,-0.005574141163378954,0.031001387163996696
1772812204316839200,4.841839111328125,-0.021151192486286163,-0.0022143847309052944,0.05146535858511925
1772812204326539500,4.85153955078125,-0.02084576152265072,0.010613775812089443,0.06643154472112656
1772812204336240000,4.861240234375,-0.0193185992538929,0.015806125476956367,0.07406735420227051
1772812204345940700,4.870940673828125,-0.01779143698513508,0.0029779658652842045,0.07589995115995407
1772812204355641300,4.880641357421875,-0.01259908638894558,-0.008628465235233307,0.06795870512723923
1772812204365342000,4.890342041015625,-0.007406735327094793,-0.009850194677710533,0.05146535858511925
1772812204375042300,4.900042236328125,-0.005574141163378954,-0.005268708802759647,0.033139415085315704
1772812204384743200,4.9097431640625,-0.004963276442140341,-0.014126247726380825,0.01359174121171236
1772812204394443500,4.919443603515625,-0.00038179047987796366,-0.026648975908756256,-0.008704823441803455
1772812204404144000,4.92914404296875,0.00755945174023509,-0.02328922040760517,-0.025503603741526604
1772812204413844700,4.9388447265625,0.009697478264570236,-0.00954476185142994,-0.029474224895238876
1772812204423545300,4.94854541015625,0.00022907429956831038,-0.007406735327094793,-0.02611446939408779
1772812204433246000,4.958245849609375,-0.015958841890096664,-0.0012980876490473747,-0.01695149764418602
1772812204442946600,4.967946533203125,-0.03275762498378754,0.017333287745714188,-0.0062613640911877155
1772812204452647000,4.97764697265625,-0.046807512640953064,0.028634287416934967,-0.008399390615522861
1772812204462347500,4.987347412109375,-0.046196650713682175,0.029245151206851006,-0.017562363296747208
1772812204472048000,4.997048095703125,-0.03061959706246853,0.021609341725707054,-0.02519817277789116
1772812204481748700,5.006748779296875,-0.00923932995647192,0.000839939049910754,-0.02916879393160343
1772812204491449300,5.016449462890625,0.01000291109085083,-0.020540328696370125,-0.020311253145337105
1772812204501150000,5.02614990234375,0.01977674663066864,-0.027259841561317444,0.0001527161948615685
1772812204510850600,5.0358505859375,0.018555017188191414,-0.02390008419752121,0.019700389355421066
1772812204520551000,5.045551025390625,0.009392046369612217,-0.012904518283903599,0.03497200831770897
1772812204530251500,5.05525146484375,-0.0025198173243552446,-0.0031306820455938578,0.04321868345141411
1772812204539952000,5.0649521484375,-0.013515383005142212,0.003283398225903511,0.04566214233636856
1772812204549652700,5.07465283203125,-0.021456625312566757,0.00511599238961935,0.04230238497257233
1772812204559353300,5.084353271484375,-0.02695440873503685,0.009392046369612217,0.03649916872382164
1772812204569054000,5.094053955078125,-0.029703300446271896,0.012751801870763302,0.02764163166284561
1772812204578754300,5.10375439453125,-0.031230462715029716,0.01030834298580885,0.01847865991294384
1772812204588455000,5.113454833984375,-0.0345902182161808,0.007254019379615784,0.008093958720564842
1772812204598155500,5.123155517578125,-0.037949975579977036,0.00511599238961935,-0.004428769461810589
1772812204607856000,5.132856201171875,-0.0345902182161808,0.011224640533328056,-0.016646064817905426
1772812204617556700,5.142556640625,-0.03153589367866516,0.015500693581998348,-0.0206166859716177
1772812204627257300,5.15225732421875,-0.028787001967430115,0.006948587018996477,-0.0206166859716177
1772812204636958000,5.1619580078125,-0.022678354755043983,-0.0009926552884280682,-0.017256930470466614
1772812204646658600,5.171658447265625,-0.01870773360133171,-0.0019089524867013097,-0.011759147047996521
1772812204656359000,5.18135888671875,-0.019013166427612305,-0.0012980876490473747,-0.007788525894284248
1772812204666059500,5.1910595703125,-0.017486004158854485,0.000839939049910754,-0.0013744457392022014
1772812204675760000,5.200760009765625,-0.01626427471637726,0.002061668550595641,0.009621120058000088
1772812204685460700,5.210460693359375,-0.01259908638894558,0.004199695307761431,0.023976443335413933
1772812204695161300,5.220161376953125,-0.010461059398949146,0.006337722297757864,0.04016435891389847
1772812204714562300,5.239562255859375,-0.0019089524867013097,0.00511599238961935,0.0487164668738842
1772812204724263000,5.249262939453125,0.0011453714687377214,0.00511599238961935,0.041386090219020844
1772812204733963500,5.258963623046875,0.005421424750238657,-0.007101302966475487,0.021838415414094925
1772812204743664000,5.2686640625,0.014584396965801716,-0.017486004158854485,-0.002290742937475443
1772812204753364700,5.27836474609375,0.0243582334369421,-0.028787001967430115,-0.027947064489126205
1772812204763065300,5.2880654296875,0.034437503665685654,-0.043753188103437424,-0.05146535858511925
1772812204772766000,5.297765869140625,0.04329504072666168,-0.0397825688123703,-0.06337722390890121
1772812204782466300,5.30746630859375,0.04634936526417732,-0.02695440873503685,-0.058795735239982605
1772812204792167000,5.3171669921875,0.03840812295675278,-0.025121813639998436,-0.03497200831770897
1772812204801867500,5.326867431640625,0.02802342176437378,-0.024816380813717842,-0.0025961752980947495
1772812204811568000,5.336568115234375,0.015500693581998348,-0.01259908638894558,0.026419902220368385
1772812204821268700,5.346268798828125,-0.0019089524867013097,0.006948587018996477,0.04535670951008797
1772812204830969300,5.35596923828125,-0.019013166427612305,0.02802342176437378,0.060322895646095276
1772812204840669700,5.365669677734375,-0.03153589367866516,0.03138317912817001,0.07070759683847427
1772812204850370600,5.37537060546875,-0.03428478538990021,0.0371863916516304,0.07559451460838318
1772812204860071000,5.38507080078125,-0.028787001967430115,0.03779725730419159,0.07498364895582199
1772812204869771500,5.394771484375,-0.016875140368938446,0.02283107116818428,0.06887500733137131
1772812204879472000,5.40447216796875,0.004199695307761431,0.002672533504664898,0.052687086164951324
1772812204889172700,5.4141728515625,0.02649625949561596,-0.015042545273900032,0.02916879393160343
1772812204898873300,5.423873291015625,0.03962985426187515,-0.028176138177514076,-0.0010690133785828948
1772812204908573700,5.43357373046875,0.040546149015426636,-0.029397867619991302,-0.02672533318400383
1772812204918274300,5.4432744140625,0.03535379841923714,-0.028787001967430115,-0.05085449293255806
1772812204927975000,5.452974853515625,0.03138317912817001,-0.026038112118840218,-0.06612611562013626
1772812204937675500,5.462675537109375,0.03107774630188942,-0.019929463043808937,-0.07192932814359665
1772812204947376000,5.472376220703125,0.023747367784380913,-0.008323032408952713,-0.06337722390890121
1772812204957076700,5.48207666015625,0.004199695307761431,-0.005574141163378954,-0.0487164668738842
1772812204966777300,5.49177734375,-0.014737112447619438,0.002061668550595641,-0.03130681812763214
1772812204976478000,5.50147802734375,-0.029397867619991302,0.010613775812089443,-0.018784092739224434
1772812204986178300,5.51117822265625,-0.03581194952130318,0.014889828860759735,-0.012370011769235134
1772812204995879000,5.52087890625,-0.02848157100379467,0.01763872057199478,-0.007177661173045635
1772812205005579500,5.53057958984375,-0.013820815831422806,0.010613775812089443,-0.0010690133785828948
1772812205015280000,5.540280029296875,0.00022907429956831038,-0.002825249684974551,0.014202605932950974
1772812205024980700,5.549980712890625,0.012751801870763302,-0.019929463043808937,0.029474224895238876
1772812205034681300,5.559681396484375,0.02588539570569992,-0.028787001967430115,0.043829549103975296
1772812205044381700,5.569381591796875,0.03321577236056328,-0.03367391973733902,0.03955349326133728
1772812205054082300,5.579082275390625,0.03657552972435951,-0.03520108386874199,0.0334448479115963
1772812205063783000,5.588782958984375,0.03321577236056328,-0.03245219215750694,0.02519817277789116
1772812205073483500,5.5984833984375,0.025274530053138733,-0.025732679292559624,0.021227551624178886
1772812205083184000,5.60818408203125,0.013973532244563103,-0.02084576152265072,0.016035201027989388
1772812205092884700,5.617884765625,0.001450803829357028,-0.0077121676877141,0.012370011769235134
1772812205102585300,5.62758544921875,-0.012293653562664986,-0.00007635809743078426,0.009926552884280682
1772812205112286000,5.637285888671875,-0.019929463043808937,-0.0022143847309052944,0.008093958720564842
1772812205121986300,5.646986328125,-0.02023489587008953,-0.005574141163378954,0.0025961752980947495
1772812205131687000,5.65668701171875,-0.019624030217528343,-0.010155626572668552,-0.006566796451807022
1772812205141387500,5.666387451171875,-0.0193185992538929,-0.010461059398949146,-0.013897174037992954
1772812205151088000,5.676088134765625,-0.018096869811415672,-0.00007635809743078426,-0.014508038759231567
1772812205160788700,5.685788818359375,-0.0193185992538929,0.002672533504664898,-0.014202605932950974
1772812205170489300,5.6954892578125,-0.014737112447619438,0.002061668550595641,-0.009010255336761475
1772812205180189700,5.705189697265625,-0.006185005884617567,-0.003741546766832471,-0.003512472379952669
1772812205189890600,5.714890625,0.002672533504664898,-0.01718057133257389,0.0010690133785828948
1772812205199591000,5.7245908203125,0.012140937149524689,-0.016569707542657852,0.008704823441803455
1772812205209291500,5.73429150390625,0.014889828860759735,-0.01718057133257389,0.011453714221715927
1772812205218992000,5.7439921875,0.013057234697043896,-0.015042545273900032,0.01206457894295454
1772812205228692700,5.753692626953125,0.012751801870763302,-0.006490438245236874,0.016646064817905426
1772812205238393300,5.763393310546875,0.008781181648373604,-0.0019089524867013097,0.022449281066656113
1772812205248094000,5.773093994140625,-0.0016035200096666813,-0.003741546766832471,0.020922118797898293
1772812205257794300,5.782794189453125,-0.0077121676877141,-0.0019089524867013097,0.012675444595515728
1772812205267495000,5.792494873046875,-0.00954476185142994,-0.0019089524867013097,-0.0007635809597559273
1772812205277195500,5.802195556640625,-0.012904518283903599,-0.0009926552884280682,-0.01206457894295454
1772812205286896000,5.811896240234375,-0.011682788841426373,0.0011453714687377214,-0.021838415414094925
1772812205296596700,5.8215966796875,-0.008017600513994694,-0.00007635809743078426,-0.023976443335413933
1772812205306297300,5.83129736328125,-0.010155626572668552,-0.0077121676877141,-0.02825249545276165
1772812205315998000,5.840998046875,-0.014126247726380825,-0.004046979360282421,-0.03252854943275452
1772812205325698600,5.850698486328125,-0.012293653562664986,0.011224640533328056,-0.027947064489126205
1772812205335399000,5.86039892578125,-0.00923932995647192,0.013973532244563103,-0.016035201027989388
1772812205345099500,5.870099609375,-0.010766491293907166,0.005421424750238657,-0.001679878099821508
1772812205354800000,5.879800048828125,-0.01107192412018776,0.00022907429956831038,0.015729768201708794
1772812205364500700,5.889500732421875,-0.007406735327094793,0.005421424750238657,0.028863361105322838
1772812205374201300,5.899201416015625,-0.006490438245236874,0.008170315995812416,0.03497200831770897
1772812205383901700,5.908901611328125,-0.005574141163378954,0.006337722297757864,0.0383317656815052
1772812205393602300,5.918602294921875,0.00022907429956831038,0.002061668550595641,0.03802633285522461
1772812205403303000,5.928302978515625,0.004199695307761431,-0.0025198173243552446,0.03130681812763214
1772812205413003500,5.93800341796875,0.0035888305865228176,0.0005345066892914474,0.017867794260382652
1772812205422704000,5.9477041015625,0.008781181648373604,-0.0025198173243552446,0.0025961752980947495
1772812205432404700,5.95740478515625,0.01611155830323696,-0.004963276442140341,-0.005345067009329796
1772812205442105300,5.967105224609375,0.016416991129517555,-0.007406735327094793,-0.007788525894284248
1772812205451806000,5.976805908203125,0.008781181648373604,-0.015042545273900032,-0.010537417605519295
1772812205461506300,5.98650634765625,0.004505127668380737,-0.0077121676877141,-0.012980876490473747
1772812205471207000,5.99620703125,0.0005345066892914474,0.0057268571108579636,-0.012980876490473747
1772812205480907500,6.005907470703125,-0.0031306820455938578,0.015806125476956367,-0.009621120058000088
1772812205490608000,6.015608154296875,-0.008628465235233307,0.019471315667033195,-0.001679878099821508
1772812205500308700,6.025308837890625,-0.019929463043808937,0.012446369975805283,0.004428769461810589
1772812205510009300,6.03500927734375,-0.030314164236187935,0.00847574882209301,0.005955931730568409
1772812205519709700,6.044709716796875,-0.03275762498378754,0.014584396965801716,-0.003512472379952669
1772812205529410600,6.05441064453125,-0.027870705351233482,0.017027854919433594,-0.012675444595515728
1772812205539111000,6.06411083984375,-0.020540328696370125,0.006337722297757864,-0.020311253145337105
1772812205548811500,6.0738115234375,-0.005574141163378954,-0.010155626572668552,-0.023976443335413933
1772812205558512000,6.08351220703125,0.012751801870763302,-0.01718057133257389,-0.023365577682852745
1772812205568212700,6.093212646484375,0.025579962879419327,-0.015042545273900032,-0.017256930470466614
1772812205577913300,6.102913330078125,0.025274530053138733,-0.01779143698513508,-0.013286309316754341
1772812205587614000,6.112614013671875,0.020693045109510422,-0.021151192486286163,-0.0102319847792387
1772812205597314300,6.122314208984375,0.015806125476956367,-0.013209951110184193,-0.007177661173045635
1772812205607015000,6.132014892578125,0.006337722297757864,0.0005345066892914474,0.0010690133785828948
1772812205616715500,6.141715576171875,-0.0019089524867013097,0.012140937149524689,0.017562363296747208
1772812205626416000,6.151416015625,-0.012293653562664986,0.01672242395579815,0.03222311660647392
1772812205636116700,6.16111669921875,-0.021456625312566757,0.01183550525456667,0.04199695214629173
1772812205645817300,6.1708173828125,-0.02084576152265072,0.00847574882209301,0.03741546720266342
1772812205655518000,6.18051806640625,-0.014737112447619438,0.007864884100854397,0.022754713892936707
1772812205665218600,6.190218505859375,-0.013515383005142212,0.005421424750238657,0.007788525894284248
1772812205674919000,6.1999189453125,-0.019624030217528343,0.00847574882209301,0.0007635809597559273
1772812205684619500,6.20961962890625,-0.02848157100379467,0.010613775812089443,-0.0010690133785828948
1772812205694320000,6.219320068359375,-0.028787001967430115,0.00847574882209301,-0.005039634648710489
1772812205704020700,6.229020751953125,-0.02176205813884735,0.006948587018996477,-0.0154243353754282
1772812205713721300,6.238721435546875,-0.009850194677710533,-0.00038179047987796366,-0.028863361105322838
1772812205723422000,6.248421875,0.0029779658652842045,-0.01259908638894558,-0.042913250625133514
1772812205733122300,6.258122314453125,0.012446369975805283,-0.0193185992538929,-0.04993819445371628
1772812205752523800,6.277523681640625,0.023441936820745468,-0.013820815831422806,-0.03283398225903511
1772812205762224000,6.28722412109375,0.025274530053138733,-0.005574141163378954,-0.009010255336761475
1772812205771924700,6.2969248046875,0.023441936820745468,0.008170315995812416,0.018784092739224434
1772812205781625300,6.306625244140625,0.013668099418282509,0.00847574882209301,0.0386371985077858
1772812205791326000,6.316325927734375,0.006948587018996477,-0.00038179047987796366,0.04413498193025589
1772812205801026600,6.326026611328125,0.007864884100854397,0.0035888305865228176,0.039248060435056686
1772812205810727200,6.33572705078125,0.008170315995812416,0.008781181648373604,0.027947064489126205
1772812205820427500,6.345427490234375,0.003894262947142124,0.003894262947142124,0.016035201027989388
1772812205830128400,6.35512841796875,0.0011453714687377214,-0.0016035200096666813,0.008093958720564842
1772812205839828700,6.364828857421875,-0.0009926552884280682,0.0011453714687377214,-0.002290742937475443
1772812205849529300,6.374529296875,-0.00007635809743078426,0.004810560029000044,-0.010537417605519295
1772812205859230000,6.38422998046875,0.00022907429956831038,-0.0006872228696011007,-0.021227551624178886
1772812205868930600,6.3939306640625,0.0035888305865228176,-0.0058795735239982605,-0.02977965772151947
1772812205878631200,6.403631103515625,0.004199695307761431,-0.004963276442140341,-0.037720900028944016
1772812205888331800,6.413331787109375,0.001450803829357028,-0.0034361144062131643,-0.04260781779885292
1772812205898032000,6.4230322265625,-0.0012980876490473747,-0.0012980876490473747,-0.04474584385752678
1772812205907732700,6.432732666015625,-0.007406735327094793,0.0005345066892914474,-0.040775224566459656
1772812205917433300,6.442433349609375,-0.015347977168858051,0.0035888305865228176,-0.0334448479115963
1772812205927134000,6.452134033203125,-0.021151192486286163,0.010919207707047462,-0.025503603741526604
1772812205936834600,6.46183447265625,-0.023594651371240616,0.008170315995812416,-0.02367101050913334
1772812205946535200,6.47153515625,-0.01779143698513508,0.004199695307761431,-0.020311253145337105
1772812205956235800,6.48123583984375,-0.007101302966475487,0.003283398225903511,-0.011453714221715927
1772812205965936400,6.490936279296875,0.0057268571108579636,-0.00038179047987796366,0.001679878099821508
1772812205975636700,6.50063671875,0.015500693581998348,-0.0031306820455938578,0.016340631991624832
1772812205985337300,6.51033740234375,0.019471315667033195,-0.0031306820455938578,0.02977965772151947
1772812205995038000,6.520037841796875,0.01977674663066864,-0.0012980876490473747,0.0435241162776947
1772812206004738600,6.529738525390625,0.019471315667033195,0.0029779658652842045,0.05024362727999687
1772812206014439200,6.539439208984375,0.015806125476956367,0.003894262947142124,0.05238165333867073
1772812206024139800,6.549139892578125,0.012446369975805283,-0.0012980876490473747,0.047494735568761826
1772812206033840000,6.558840087890625,0.006948587018996477,-0.004352411720901728,0.034666575491428375
1772812206043541000,6.568541015625,-0.0031306820455938578,-0.003741546766832471,0.012675444595515728
1772812206053241300,6.578241455078125,-0.015347977168858051,-0.002825249684974551,-0.0206166859716177
1772812206062942000,6.58794189453125,-0.022983787581324577,0.01183550525456667,-0.049632761627435684
1772812206072642600,6.597642578125,-0.02176205813884735,0.030772313475608826,-0.06612611562013626
1772812206082343200,6.60734326171875,-0.01565340906381607,0.0191658828407526,-0.06887500733137131
1772812206092043800,6.617043701171875,-0.0009926552884280682,-0.0025198173243552446,-0.057268574833869934
1772812206101744400,6.626744384765625,0.015195261687040329,-0.014737112447619438,-0.03955349326133728
1772812206111444700,6.63644482421875,0.023441936820745468,-0.018096869811415672,-0.023365577682852745
1772812206121145300,6.646145263671875,0.023441936820745468,-0.016569707542657852,-0.0102319847792387
1772812206130846000,6.655845947265625,0.019471315667033195,-0.01259908638894558,-0.0013744457392022014
1772812206140546600,6.665546630859375,0.014584396965801716,-0.002825249684974551,0.0038179049734026194
1772812206150247200,6.6752470703125,0.006948587018996477,0.006948587018996477,0.008704823441803455
1772812206159947800,6.68494775390625,-0.0006872228696011007,0.010919207707047462,0.012370011769235134
1772812206169648400,6.6946484375,-0.007101302966475487,0.015195261687040329,0.018784092739224434
1772812206179349000,6.704348876953125,-0.013515383005142212,0.01977674663066864,0.024892739951610565
1772812206189049600,6.714049560546875,-0.019013166427612305,0.019471315667033195,0.025503603741526604
1772812206198750000,6.72375,-0.02237292192876339,0.015195261687040329,0.017562363296747208
1772812206208450600,6.733450439453125,-0.019624030217528343,0.016416991129517555,0.005345067009329796
1772812206218151200,6.743151123046875,-0.012293653562664986,0.013057234697043896,-0.009926552884280682
1772812206227851800,6.752851806640625,-0.0034361144062131643,0.0005345066892914474,-0.025809036567807198
1772812206237552400,6.762552490234375,0.0029779658652842045,-0.007101302966475487,-0.037720900028944016
1772812206247253000,6.7722529296875,0.006948587018996477,-0.0058795735239982605,-0.042913250625133514
1772812206256953300,6.781953369140625,0.009392046369612217,-0.0019089524867013097,-0.04169152304530144
1772812206266654200,6.791654296875,0.01000291109085083,0.007254019379615784,-0.03222311660647392
1772812206276354600,6.8013544921875,0.007254019379615784,0.017333287745714188,-0.0206166859716177
1772812206286055200,6.81105517578125,0.001450803829357028,0.018555017188191414,-0.009621120058000088
1772812206295755800,6.820755859375,0.001450803829357028,0.010613775812089443,-0.0032070400193333626
1772812206305456400,6.830456298828125,0.006948587018996477,0.00603228947147727,0.0007635809597559273
1772812206315157000,6.840156982421875,0.008781181648373604,0.0066431546583771706,0.0010690133785828948
1772812206324857600,6.849857666015625,0.008170315995812416,0.009392046369612217,0.004123337101191282
1772812206334558000,6.859557861328125,0.008170315995812416,0.006337722297757864,0.006872228812426329
1772812206344258600,6.869258544921875,0.007864884100854397,0.001450803829357028,0.005650499369949102
1772812206353959200,6.878959228515625,0.006337722297757864,-0.00007635809743078426,0.004123337101191282
1772812206363659800,6.88865966796875,0.003894262947142124,-0.00007635809743078426,0.004123337101191282
1772812206373360400,6.8983603515625,0.002672533504664898,-0.0025198173243552446,0.006566796451807022
1772812206383061000,6.90806103515625,0.0029779658652842045,-0.0025198173243552446,0.009315688163042068
1772812206392761600,6.91776171875,-0.00038179047987796366,0.003283398225903511,0.010842849500477314
1772812206402462200,6.927462158203125,-0.0058795735239982605,0.009086613543331623,0.011759147047996521
1772812206412162800,6.937162841796875,-0.010461059398949146,0.012751801870763302,0.008093958720564842
1772812206421863200,6.94686328125,-0.013209951110184193,0.011530072428286076,0.0032070400193333626
1772812206431563800,6.956563720703125,-0.013820815831422806,0.009086613543331623,-0.0025961752980947495
1772812206441264400,6.966264404296875,-0.015958841890096664,0.000839939049910754,-0.0102319847792387
1772812206450965000,6.975965087890625,-0.013820815831422806,0.00022907429956831038,-0.01847865991294384
1772812206460665600,6.98566552734375,-0.008933897130191326,0.003283398225903511,-0.02000582218170166
1772812206470366200,6.9953662109375,-0.008628465235233307,0.00022907429956831038,-0.016035201027989388
1772812206480066800,7.00506689453125,-0.008933897130191326,-0.0019089524867013097,-0.008704823441803455
1772812206489767400,7.014767333984375,-0.0077121676877141,0.0017562361899763346,-0.002290742937475443
1772812206499467800,7.0244677734375,-0.0031306820455938578,0.0029779658652842045,0.001679878099821508
1772812206509168400,7.03416845703125,-0.0022143847309052944,0.006948587018996477,0.005345067009329796
1772812206518869000,7.043868896484375,-0.004963276442140341,0.00847574882209301,0.009315688163042068
1772812206528569600,7.053569580078125,-0.008323032408952713,0.007254019379615784,0.012370011769235134
1772812206538270200,7.063270263671875,-0.004963276442140341,0.004199695307761431,0.015729768201708794
1772812206547970800,7.072970703125,0.0005345066892914474,0.002061668550595641,0.019394956529140472
1772812206557671200,7.082671142578125,-0.00038179047987796366,0.00603228947147727,0.022754713892936707
1772812206567372000,7.0923720703125,-0.010766491293907166,0.013362666592001915,0.022754713892936707
1772812206577072600,7.10207275390625,-0.022678354755043983,0.013057234697043896,0.012675444595515728
1772812206586773000,7.11177294921875,-0.024816380813717842,0.012140937149524689,-0.009315688163042068
1772812206596473600,7.1214736328125,-0.01779143698513508,0.009086613543331623,-0.03222311660647392
1772812206606174200,7.13117431640625,-0.007406735327094793,-0.004657844081521034,-0.049632761627435684
1772812206615874800,7.140874755859375,0.005421424750238657,-0.01870773360133171,-0.051159925758838654
1772812206625575400,7.150575439453125,0.013057234697043896,-0.0193185992538929,-0.03375028073787689
1772812206635276000,7.160276123046875,0.009697478264570236,-0.0077121676877141,-0.007788525894284248
1772812206644976400,7.169976318359375,-0.00038179047987796366,0.003283398225903511,0.02214384824037552
1772812206654677000,7.179677001953125,-0.008628465235233307,0.01000291109085083,0.04566214233636856
1772812206664377600,7.189377685546875,-0.015347977168858051,0.011530072428286076,0.05787943676114082
1772812206674078200,7.199078125,-0.019013166427612305,0.009392046369612217,0.05513054504990578
1772812206683778800,7.20877880859375,-0.015042545273900032,0.011224640533328056,0.044440411031246185
1772812206693479400,7.2184794921875,-0.00679587060585618,0.00847574882209301,0.028557928279042244
1772812206703180000,7.228179931640625,0.0011453714687377214,0.0017562361899763346,0.013897174037992954
1772812206712880600,7.237880615234375,0.006948587018996477,-0.004963276442140341,0.002290742937475443
1772812206722581200,7.247581298828125,0.0066431546583771706,-0.011377356946468353,-0.0062613640911877155
1772812206732281600,7.257281494140625,0.002672533504664898,-0.015042545273900032,-0.013286309316754341
1772812206741982200,7.266982177734375,-0.0016035200096666813,-0.013820815831422806,-0.021227551624178886
1772812206751682800,7.276682861328125,-0.004963276442140341,-0.007101302966475487,-0.028863361105322838
1772812206761383400,7.286383544921875,-0.010155626572668552,-0.00007635809743078426,-0.028557928279042244
1772812206771084000,7.296083984375,-0.010766491293907166,0.003283398225903511,-0.021227551624178886
1772812206780784600,7.30578466796875,-0.008628465235233307,-0.0031306820455938578,-0.01206457894295454
1772812206790485200,7.3154853515625,-0.0022143847309052944,-0.004352411720901728,-0.005955931730568409
1772812206800185900,7.325185791015625,0.0023671009112149477,0.00022907429956831038,-0.0019853105768561363
1772812206809886200,7.33488623046875,0.0029779658652842045,0.0017562361899763346,-0.003512472379952669
1772812206819586800,7.3445869140625,0.002061668550595641,-0.0016035200096666813,-0.008093958720564842
1772812206829287400,7.354287353515625,0.003283398225903511,-0.0034361144062131643,-0.014813470654189587
1772812206838988000,7.363988037109375,0.0035888305865228176,-0.007406735327094793,-0.019700389355421066
1772812206848688600,7.373688720703125,0.00511599238961935,-0.01259908638894558,-0.022754713892936707
1772812206858389200,7.38338916015625,0.009086613543331623,-0.011682788841426373,-0.024281874299049377
1772812206868089900,7.39308984375,0.011530072428286076,-0.007101302966475487,-0.020311253145337105
1772812206877790500,7.40279052734375,0.011224640533328056,-0.005268708802759647,-0.009010255336761475
1772812206887491000,7.412490966796875,0.012751801870763302,-0.0034361144062131643,0.0001527161948615685
1772812206897191400,7.42219140625,0.012446369975805283,-0.0022143847309052944,0.01511890348047018
1772812206906892000,7.43189208984375,0.005421424750238657,0.0023671009112149477,0.03405570983886719
1772812206916592600,7.441592529296875,-0.00679587060585618,0.0057268571108579636,0.039858926087617874
1772812206926293200,7.451293212890625,-0.01259908638894558,0.007864884100854397,0.039248060435056686
1772812206935993900,7.460993896484375,-0.010766491293907166,0.01763872057199478,0.0386371985077858
1772812206945694500,7.470694580078125,-0.009850194677710533,0.007864884100854397,0.03375028073787689
1772812206955394800,7.480394775390625,-0.00923932995647192,-0.004352411720901728,0.021838415414094925
1772812206965095700,7.490095703125,-0.00923932995647192,-0.01107192412018776,0.007483093533664942
1772812206974796000,7.499796142578125,-0.00679587060585618,-0.010766491293907166,-0.008704823441803455
1772812206984496600,7.50949658203125,-0.004963276442140341,-0.003741546766832471,-0.021838415414094925
1772812206994197200,7.519197265625,-0.0016035200096666813,0.00511599238961935,-0.024892739951610565
1772812207003897900,7.52889794921875,-0.0022143847309052944,0.001450803829357028,-0.024892739951610565
1772812207013598500,7.538598388671875,-0.0034361144062131643,-0.004657844081521034,-0.02214384824037552
1772812207023299000,7.548299072265625,-0.0031306820455938578,-0.002825249684974551,-0.020311253145337105
1772812207032999700,7.557999755859375,-0.0077121676877141,0.0017562361899763346,-0.016340631991624832
1772812207042700000,7.567699951171875,-0.012293653562664986,0.011224640533328056,-0.006872228812426329
1772812207052400600,7.577400634765625,-0.01259908638894558,0.01672242395579815,0.006872228812426329
1772812207062101200,7.587101318359375,-0.004352411720901728,0.014278964139521122,0.022449281066656113
1772812207071801900,7.5968017578125,0.001450803829357028,0.00755945174023509,0.0386371985077858
1772812207081502500,7.60650244140625,0.000839939049910754,0.0017562361899763346,0.05146535858511925
1772812207091203000,7.616203125,-0.008017600513994694,0.0011453714687377214,0.052076224237680435
1772812207100903700,7.625903564453125,-0.019013166427612305,0.00603228947147727,0.041386090219020844
1772812207110604300,7.635604248046875,-0.02176205813884735,0.012446369975805283,0.018784092739224434
1772812207120305000,7.645304931640625,-0.01626427471637726,0.01183550525456667,-0.004428769461810589
1772812207130005200,7.655005126953125,-0.0034361144062131643,-0.0009926552884280682,-0.02519817277789116
1772812207139705900,7.664705810546875,0.012446369975805283,-0.013515383005142212,-0.03436114266514778
1772812207149406500,7.674406494140625,0.023441936820745468,-0.017486004158854485,-0.037720900028944016
1772812207159107000,7.684107177734375,0.020998476073145866,-0.014737112447619438,-0.031612250953912735
1772812207168807700,7.6938076171875,0.01000291109085083,-0.004046979360282421,-0.019394956529140472
1772812207178508300,7.70350830078125,-0.00007635809743078426,0.006337722297757864,-0.005345067009329796
1772812207188209000,7.713208984375,-0.007406735327094793,0.00511599238961935,0.004428769461810589
1772812207197909500,7.722909423828125,-0.010461059398949146,0.000839939049910754,0.012370011769235134
1772812207207610000,7.732610107421875,-0.00923932995647192,0.004199695307761431,0.01847865991294384
1772812207217310500,7.742310546875,-0.011682788841426373,0.009392046369612217,0.021838415414094925
1772812207227011000,7.752010986328125,-0.018096869811415672,0.00755945174023509,0.02306014485657215
1772812207236711700,7.761711669921875,-0.022983787581324577,0.013362666592001915,0.023365577682852745
1772812207246412300,7.771412353515625,-0.021456625312566757,0.020082179456949234,0.02214384824037552
1772812207256113000,7.78111279296875,-0.021151192486286163,0.012751801870763302,0.019394956529140472
1772812207265813500,7.7908134765625,-0.019013166427612305,-0.002825249684974551,0.014813470654189587
1772812207275514000,7.80051416015625,-0.012904518283903599,-0.0058795735239982605,0.011453714221715927
1772812207285214700,7.810214599609375,-0.0077121676877141,-0.0009926552884280682,0.01359174121171236
1772812207294915000,7.8199150390625,-0.008323032408952713,-0.003741546766832471,0.014202605932950974
1772812207304615700,7.82961572265625,-0.014737112447619438,-0.011682788841426373,0.014202605932950974
1772812207314316300,7.83931640625,-0.018402300775051117,-0.008323032408952713,0.0102319847792387
1772812207324017000,7.849016845703125,-0.01565340906381607,0.010613775812089443,0.009926552884280682
1772812207333717500,7.858717529296875,-0.01718057133257389,0.015195261687040329,0.012980876490473747
1772812207343418000,7.868418212890625,-0.019013166427612305,0.003894262947142124,0.017562363296747208
1772812207353118700,7.87811865234375,-0.01259908638894558,-0.0016035200096666813,0.020922118797898293
1772812207362819000,7.887819091796875,-0.006185005884617567,0.00022907429956831038,0.016646064817905426
1772812207372520000,7.89752001953125,-0.0031306820455938578,-0.0034361144062131643,0.005039634648710489
1772812207382220300,7.90722021484375,0.0011453714687377214,-0.010766491293907166,-0.0025961752980947495
1772812207391921000,7.9169208984375,0.0023671009112149477,-0.012904518283903599,-0.006872228812426329
1772812207401621500,7.92662158203125,0.0005345066892914474,-0.011988221667706966,-0.009010255336761475
1772812207411322000,7.936322021484375,-0.004657844081521034,-0.004657844081521034,-0.009926552884280682
1772812207421022700,7.946022705078125,-0.012293653562664986,-0.0012980876490473747,-0.009621120058000088
1772812207430723300,7.955723388671875,-0.014126247726380825,-0.00679587060585618,-0.010842849500477314
1772812207440424000,7.965423828125,-0.007406735327094793,-0.00923932995647192,-0.007483093533664942
1772812207450124300,7.975124267578125,-0.004046979360282421,-0.0058795735239982605,-0.0019853105768561363
1772812207459825200,7.9848251953125,-0.007101302966475487,-0.0022143847309052944,0.0102319847792387
1772812207469525500,7.994525390625,-0.01565340906381607,0.002672533504664898,0.025503603741526604
1772812207479226000,8.00422607421875,-0.02328922040760517,0.0029779658652842045,0.03405570983886719
1772812207488926700,8.0139267578125,-0.021456625312566757,0.009697478264570236,0.03558287397027016
1772812207498627300,8.02362744140625,-0.013209951110184193,0.011530072428286076,0.02916879393160343
1772812207508328000,8.033327880859375,-0.004963276442140341,0.004505127668380737,0.02519817277789116
1772812207527729200,8.052729248046875,0.0066431546583771706,-0.008933897130191326,0.012370011769235134
1772812207537429500,8.062429443359376,0.01000291109085083,-0.005574141163378954,0.011453714221715927
1772812207547130400,8.07213037109375,0.01183550525456667,-0.002825249684974551,0.013286309316754341
1772812207556830700,8.081830810546874,0.012751801870763302,-0.006490438245236874,0.013897174037992954
1772812207566531300,8.09153125,0.01183550525456667,-0.0058795735239982605,0.01847865991294384
1772812207576232000,8.10123193359375,0.01000291109085083,-0.0022143847309052944,0.026419902220368385
1772812207585932500,8.1109326171875,0.009086613543331623,0.0005345066892914474,0.029474224895238876
1772812207595633200,8.120633056640624,0.0057268571108579636,-0.00007635809743078426,0.0334448479115963
1772812207605333800,8.130333740234375,0.00022907429956831038,0.002672533504664898,0.036804601550102234
1772812207615034400,8.140034423828125,-0.00679587060585618,-0.0012980876490473747,0.027947064489126205
1772812207624734700,8.149734619140625,-0.007406735327094793,-0.008628465235233307,0.004428769461810589
1772812207634435300,8.159435302734375,0.000839939049910754,-0.00679587060585618,-0.02519817277789116
1772812207644136000,8.169135986328126,0.011530072428286076,-0.003741546766832471,-0.049021899700164795
1772812207653836500,8.17883642578125,0.020998476073145866,-0.011682788841426373,-0.060933761298656464
1772812207663537200,8.188537109375,0.02588539570569992,-0.022067490965127945,-0.05818486958742142
1772812207673237800,8.19823779296875,0.02649625949561596,-0.031230462715029716,-0.0539088174700737
1772812207682938400,8.2079384765625,0.026190826669335365,-0.03367391973733902,-0.0487164668738842
1772812207692639000,8.217638916015625,0.025274530053138733,-0.025732679292559624,-0.04535670951008797
1772812207702339600,8.227339599609374,0.023136503994464874,-0.01259908638894558,-0.03527744114398956
1772812207712040000,8.2370400390625,0.015500693581998348,-0.0034361144062131643,-0.012675444595515728
1772812207721740500,8.246740478515624,0.004810560029000044,-0.0019089524867013097,0.01511890348047018
1772812207731441200,8.256441162109375,-0.0012980876490473747,0.00022907429956831038,0.04199695214629173
1772812207741141800,8.266141845703125,-0.0077121676877141,0.008170315995812416,0.057268574833869934
1772812207750842400,8.27584228515625,-0.011682788841426373,0.017333287745714188,0.06368265300989151
1772812207760543000,8.28554296875,-0.013820815831422806,0.022220205515623093,0.060933761298656464
1772812207770243600,8.29524365234375,-0.014126247726380825,0.021609341725707054,0.05177079141139984
1772812207779944200,8.304944091796875,-0.012904518283903599,0.023747367784380913,0.03955349326133728
1772812207789644800,8.314644775390626,-0.013515383005142212,0.01672242395579815,0.01847865991294384
1772812207799345200,8.32434521484375,-0.012293653562664986,0.004505127668380737,-0.006872228812426329
1772812207809045800,8.334045654296874,-0.00923932995647192,0.00022907429956831038,-0.02611446939408779
1772812207818746400,8.343746337890625,-0.00679587060585618,0.0005345066892914474,-0.04260781779885292
1772812207828447000,8.353447021484374,-0.008628465235233307,0.000839939049910754,-0.049632761627435684
1772812207838147600,8.363147705078125,-0.010461059398949146,0.008170315995812416,-0.049632761627435684
1772812207847848200,8.37284814453125,-0.011988221667706966,0.023441936820745468,-0.03252854943275452
1772812207867249400,8.39224951171875,-0.021456625312566757,0.01672242395579815,0.002290742937475443
1772812207876950000,8.401949951171876,-0.011682788841426373,0.009697478264570236,0.01511890348047018
1772812207886650400,8.411650390625,0.006948587018996477,0.005421424750238657,0.0206166859716177
1772812207896351000,8.42135107421875,0.025579962879419327,0.009086613543331623,0.02367101050913334
1772812207906051600,8.431051513671875,0.037491824477910995,0.017333287745714188,0.02458730712532997
1772812207915752200,8.440752197265626,0.03627009689807892,0.02588539570569992,0.025503603741526604
1772812207925452800,8.450452880859375,0.024052800610661507,0.03352120518684387,0.028863361105322838
1772812207935153400,8.4601533203125,0.009392046369612217,0.0423787422478199,0.03375028073787689
1772812207944854000,8.46985400390625,0.004810560029000044,0.054901473224163055,0.036804601550102234
1772812207954554600,8.4795546875,-0.00038179047987796366,0.061620984226465225,0.040775224566459656
1772812207964255200,8.489255126953125,-0.007406735327094793,0.04818195849657059,0.049632761627435684
1772812207973955600,8.49895556640625,-0.004657844081521034,0.041157014667987823,0.064598947763443
1772812207983656200,8.50865625,-0.005268708802759647,0.030772313475608826,0.07895427197217941
1772812207993356800,8.518356689453125,-0.010766491293907166,0.023136503994464874,0.09086613357067108
1772812208003057400,8.528057373046876,-0.011377356946468353,0.01824958436191082,0.09392046183347702
1772812208012758000,8.537758056640625,-0.007101302966475487,0.004505127668380737,0.07620538026094437
1772812208022458600,8.547458740234376,0.001450803829357028,-0.013209951110184193,0.04169152304530144
1772812208032159200,8.5571591796875,0.009086613543331623,-0.037033677101135254,-0.005955931730568409
1772812208041859800,8.56685986328125,0.021609341725707054,-0.04711294546723366,-0.05971203371882439
1772812208051560400,8.576560546875,0.03627009689807892,-0.02237292192876339,-0.10155627131462097
1772812208061261000,8.586260986328124,0.03779725730419159,0.000839939049910754,-0.12751802802085876
1772812208070961400,8.59596142578125,0.024052800610661507,0.001450803829357028,-0.13209950923919678
1772812208080662000,8.605662109375,0.0066431546583771706,-0.0077121676877141,-0.12660172581672668
1772812208090362600,8.615362548828125,-0.0058795735239982605,-0.007101302966475487,-0.11896591633558273
1772812208100063200,8.625063232421875,-0.01626427471637726,-0.005574141163378954,-0.10949750989675522
1772812208109763800,8.634763916015626,-0.008933897130191326,-0.010461059398949146,-0.09819651395082474
1772812208119464400,8.64446435546875,0.006337722297757864,-0.00679587060585618,-0.0792597085237503
1772812208129165000,8.6541650390625,0.00603228947147727,0.006948587018996477,-0.04474584385752678
1772812208138865700,8.66386572265625,-0.005268708802759647,0.02802342176437378,0.0032070400193333626
1772812208148566300,8.673566162109376,-0.0193185992538929,0.03810269013047218,0.04780016839504242
1772812208158266600,8.6832666015625,-0.031841326504945755,0.02588539570569992,0.07773254066705704
1772812208167967200,8.69296728515625,-0.03581194952130318,0.022525638341903687,0.09666935354471207
1772812208177667800,8.702667724609375,-0.03061959706246853,0.025579962879419327,0.10583232343196869
1772812208187368400,8.712368408203124,-0.02023489587008953,0.02130390889942646,0.1055268943309784
1772812208197069000,8.722069091796875,-0.0006872228696011007,0.0023671009112149477,0.09728021919727325
1772812208206769700,8.731769775390624,0.01611155830323696,-0.0058795735239982605,0.08323032408952713
1772812208216470300,8.74147021484375,0.021609341725707054,-0.0031306820455938578,0.06582067906856537
1772812208226171000,8.7511708984375,0.014584396965801716,0.000839939049910754,0.04566214233636856
1772812208235871500,8.76087158203125,-0.0019089524867013097,-0.005574141163378954,0.023976443335413933
1772812208245571800,8.77057177734375,-0.02023489587008953,-0.03886627033352852,0.0062613640911877155
1772812208255272400,8.7802724609375,-0.021456625312566757,-0.07338013499975204,-0.008704823441803455
1772812208264973000,8.78997314453125,0.009086613543331623,-0.022678354755043983,-0.029474224895238876
1772812208274673700,8.799673583984376,0.014278964139521122,-0.029703300446271896,-0.07223475724458694
1772812208284374300,8.809374267578125,0.017027854919433594,-0.03214675933122635,-0.10277800261974335
1772812208294075000,8.819074951171874,0.013973532244563103,-0.03367391973733902,-0.11407899856567383
1772812208303775500,8.828775390625,0.003894262947142124,-0.027259841561317444,-0.10888664424419403
1772812208313476000,8.83847607421875,-0.008017600513994694,-0.014737112447619438,-0.09697478264570236
1772812208323176700,8.8481767578125,-0.014126247726380825,-0.0022143847309052944,-0.07803797721862793
1772812208332877000,8.857876953125,-0.015042545273900032,0.022525638341903687,-0.044440411031246185
1772812208342577700,8.86757763671875,-0.028176138177514076,0.02802342176437378,-0.006872228812426329
1772812208352278300,8.8772783203125,-0.03520108386874199,0.03352120518684387,0.036804601550102234
1772812208361979000,8.886978759765626,-0.028176138177514076,0.02588539570569992,0.07131846249103546
1772812208371679500,8.896679443359375,-0.019013166427612305,0.004810560029000044,0.09056070446968079
1772812208381380000,8.906380126953126,-0.007406735327094793,0.00847574882209301,0.10980294644832611
1772812208391080700,8.916080810546875,-0.0009926552884280682,0.013973532244563103,0.12140937149524689
1772812208400781000,8.925781005859376,-0.0025198173243552446,-0.0012980876490473747,0.12018764764070511
1772812208410482000,8.93548193359375,0.0035888305865228176,-0.00679587060585618,0.10705405473709106
1772812208420182500,8.9451826171875,0.014889828860759735,-0.007406735327094793,0.08231402933597565
1772812208429883000,8.9548828125,0.017333287745714188,-0.02176205813884735,0.042913250625133514
1772812208439583500,8.96458349609375,0.020082179456949234,-0.018096869811415672,0.0038179049734026194
1772812208449284000,8.9742841796875,0.020082179456949234,-0.0016035200096666813,-0.027947064489126205
1772812208458984700,8.983984619140625,0.010919207707047462,0.01030834298580885,-0.05849030241370201
1772812208468685300,8.993685302734375,0.0023671009112149477,0.020082179456949234,-0.07834340631961823
1772812208478386000,9.003385986328125,-0.006185005884617567,0.022220205515623093,-0.09117157012224197
1772812208488086500,9.01308642578125,-0.00923932995647192,0.014584396965801716,-0.10155627131462097
1772812208497787100,9.022787109375,-0.007101302966475487,0.019471315667033195,-0.09789107739925385
1772812208507487700,9.03248779296875,-0.010766491293907166,0.011530072428286076,-0.09086613357067108
1772812208517188000,9.04218798828125,-0.011377356946468353,0.00511599238961935,-0.07376192510128021
1772812208526888700,9.051888671875,-0.006490438245236874,-0.00038179047987796366,-0.05177079141139984
1772812208536589300,9.06158935546875,-0.004352411720901728,-0.004046979360282421,-0.03497200831770897
1772812208546290000,9.0712900390625,-0.0058795735239982605,0.004199695307761431,-0.02214384824037552
1772812208555990500,9.080990478515625,-0.0034361144062131643,0.017027854919433594,-0.009010255336761475
1772812208565691100,9.090691162109374,-0.004963276442140341,0.009086613543331623,0.005039634648710489
1772812208575391700,9.100391845703125,-0.007406735327094793,-0.0006872228696011007,0.011148282326757908
1772812208585092000,9.110092041015625,-0.0019089524867013097,0.0035888305865228176,0.009926552884280682
1772812208594793000,9.11979296875,-0.0022143847309052944,-0.004963276442140341,0.001679878099821508
1772812208604493600,9.12949365234375,0.002061668550595641,-0.014431680552661419,-0.008399390615522861
1772812208614194000,9.13919384765625,0.011530072428286076,-0.008933897130191326,-0.02000582218170166
1772812208623894500,9.14889453125,0.014584396965801716,-0.0077121676877141,-0.03283398225903511
1772812208633595100,9.15859521484375,0.012751801870763302,-0.00007635809743078426,-0.03527744114398956
1772812208643295700,9.168295654296875,0.010919207707047462,0.00755945174023509,-0.027336198836565018
1772812208652996400,9.177996337890624,0.00511599238961935,0.004505127668380737,-0.018173227086663246
1772812208662697000,9.187697021484375,-0.010155626572668552,0.0035888305865228176,-0.011453714221715927
1772812208672397600,9.1973974609375,-0.026038112118840218,0.008170315995812416,-0.014508038759231567
1772812208682098200,9.20709814453125,-0.030925029888749123,0.012140937149524689,-0.022754713892936707
1772812208691798800,9.216798828125,-0.026648975908756256,0.021609341725707054,-0.02672533318400383
1772812208701499100,9.2264990234375,-0.019929463043808937,0.022220205515623093,-0.022754713892936707
1772812208711199700,9.23619970703125,-0.011988221667706966,0.014889828860759735,-0.014202605932950974
1772812208720900400,9.245900390625,-0.002825249684974551,0.000839939049910754,-0.0025961752980947495
1772812208730601000,9.25560107421875,0.003894262947142124,-0.008933897130191326,-0.00045814859913662076
1772812208740301600,9.265301513671876,0.009086613543331623,-0.004046979360282421,-0.00045814859913662076
1772812208750002200,9.275002197265625,0.011530072428286076,0.0011453714687377214,-0.0032070400193333626
1772812208759702800,9.284702880859374,0.009697478264570236,-0.0077121676877141,-0.009315688163042068
1772812208769403100,9.294403076171875,0.00847574882209301,0.0011453714687377214,-0.002901607658714056
1772812208779104000,9.30410400390625,0.0035888305865228176,-0.00954476185142994,0.005955931730568409
1772812208788804600,9.3138046875,0.004199695307761431,-0.025732679292559624,0.011759147047996521
1772812208798505000,9.3235048828125,0.008781181648373604,-0.03764454275369644,0.010537417605519295
1772812208808205600,9.33320556640625,0.012751801870763302,-0.03153589367866516,-0.00045814859913662076
1772812208817906200,9.34290625,0.015195261687040329,-0.013820815831422806,-0.013897174037992954
1772812208827606800,9.352606689453125,0.012751801870763302,-0.005574141163378954,-0.024281874299049377
1772812208837307400,9.362307373046875,0.007254019379615784,-0.0058795735239982605,-0.0334448479115963
1772812208847008000,9.372008056640626,0.004199695307761431,0.0011453714687377214,-0.03497200831770897
1772812208856708600,9.38170849609375,-0.003741546766832471,-0.0016035200096666813,-0.033139415085315704
1772812208866409200,9.3914091796875,-0.00923932995647192,-0.00007635809743078426,-0.013286309316754341
1772812208876109800,9.40110986328125,-0.009850194677710533,0.012446369975805283,0.023976443335413933
1772812208885810400,9.410810546875,-0.026038112118840218,0.000839939049910754,0.06154462695121765
