time,seconds_elapsed,z,y,x
1772812461278429000,0.085428955078125,0,0,0
1772812461288129500,0.095129638671875,-0.0007352828979492188,-0.03431963920593262,-0.10037296265363693
1772812461297830100,0.104830078125,0.025678634643554688,0.13388341665267944,-0.18652628362178802
1772812461307530800,0.11453076171875,-0.007788658142089844,0.19144415855407715,-0.2300143837928772
1772812461317231600,0.124231689453125,-0.08199119567871094,0.09153729677200317,-0.15403443574905396
1772812461326932200,0.13393212890625,-0.10139656066894531,-0.007512986660003662,-0.010989428497850895
1772812461336632800,0.1436328125,-0.07174205780029297,0.032888948917388916,-0.018710458651185036
1772812461346333400,0.15333349609375,-0.1749897003173828,0.08277022838592529,0.0391676127910614
1772812461356034000,0.163033935546875,-0.17162513732910156,0.11061066389083862,0.12980444729328156
1772812461365734700,0.172734619140625,-0.1728372573852539,0.09928691387176514,0.11651817709207535
1772812461375435300,0.182435302734375,-0.1332263946533203,0.06365284323692322,0.10150814056396484
1772812461385135900,0.192135986328125,-0.09251785278320312,0.05066943168640137,0.09166614711284637
1772812461394836500,0.20183642578125,-0.034603118896484375,0.07661795616149902,0.08039835095405579
1772812461404537000,0.211537109375,0.0033884048461914062,0.1128021776676178,0.05955381318926811
1772812461414237700,0.22123779296875,-0.013640403747558594,0.06286591291427612,0.07124511897563934
1772812461423938300,0.230938232421875,-0.01174163818359375,0.024871766567230225,0.11181752383708954
1772812461433639000,0.240638916015625,-0.04152965545654297,0.06363824009895325,0.18862539529800415
1772812461443339500,0.250339599609375,-0.004305839538574219,0.06701788306236267,0.2058556079864502
1772812461453040000,0.2600400390625,0.017317771911621094,-0.0017081499099731445,0.19441461563110352
1772812461462741000,0.269740966796875,-0.009830474853515625,-0.054871708154678345,0.08850008249282837
1772812461472441600,0.279441650390625,-0.0869598388671875,0.004329860210418701,0.043635182082653046
1772812461482142200,0.28914208984375,-0.15041732788085938,0.09809082746505737,-0.021778643131256104
1772812461491842800,0.2988427734375,-0.13694000244140625,0.12066742777824402,-0.0032192394137382507
1772812461501543400,0.30854345703125,-0.12423515319824219,0.07190364599227905,0.07777103781700134
1772812461511244000,0.318244140625,-0.051387786865234375,-0.012782007455825806,0.10772962123155594
1772812461520944600,0.327944580078125,-0.013655662536621094,-0.03298261761665344,0.03810529410839081
1772812461530645200,0.337645263671875,0.00766754150390625,0.04121190309524536,-0.01943979412317276
1772812461540345900,0.347345947265625,0.053580284118652344,0.09715819358825684,-0.00012896209955215454
1772812461550046500,0.35704638671875,0.07365036010742188,0.04745951294898987,0.0692579373717308
1772812461559747000,0.3667470703125,0.1381692886352539,-0.028644591569900513,0.12645503878593445
1772812461569447700,0.37644775390625,0.14165115356445312,-0.00794246792793274,0.06690098345279694
1772812461579148300,0.386148193359375,0.10112953186035156,0.07187175750732422,-0.031079202890396118
1772812461588849000,0.395848876953125,0.003968238830566406,0.10596621036529541,-0.08731084316968918
1772812461598549500,0.405549560546875,-0.0682210922241211,0.07772272825241089,-0.05982225015759468
1772812461608250000,0.41525,-0.10585212707519531,-0.0011637210845947266,0.02484888583421707
1772812461617950700,0.42495068359375,-0.08204936981201172,-0.06737446784973145,0.08743638545274734
1772812461627651300,0.4346513671875,-0.07177543640136719,-0.05780380964279175,0.07718919217586517
1772812461637352000,0.44435205078125,-0.07812118530273438,-0.008943319320678711,0.01681283861398697
1772812461647052500,0.454052490234375,-0.10413169860839844,0.02402031421661377,-0.04640095680952072
1772812461656753200,0.463753173828125,-0.14813709259033203,0.06945553421974182,-0.060826193541288376
1772812461666454000,0.4734541015625,-0.1385641098022461,0.02442142367362976,-0.05756668746471405
1772812461676154600,0.483154541015625,-0.1736469268798828,-0.04740247130393982,-0.0043676793575286865
1772812461685855200,0.492855224609375,-0.11217308044433594,-0.0608193576335907,0.06440635770559311
1772812461705256400,0.51225634765625,0.057430267333984375,0.042630016803741455,0.1004125252366066
1772812461714957000,0.52195703125,0.0960245132446289,0.03917527198791504,0.11423378437757492
1772812461724657700,0.53165771484375,0.09867286682128906,0.03727099299430847,0.13248904049396515
1772812461734358300,0.541358154296875,0.061492919921875,0.0894705057144165,0.09967100620269775
1772812461744059000,0.551058837890625,0.0626211166381836,0.12233510613441467,0.05012543499469757
1772812461753759500,0.560759521484375,0.053218841552734375,0.12470024824142456,0.01744958758354187
1772812461763460000,0.570460205078125,0.08272171020507812,0.09425535798072815,0.012020692229270935
1772812461773160700,0.58016064453125,0.10695171356201172,0.061238259077072144,-0.016282297670841217
1772812461782861300,0.589861328125,0.0861215591430664,0.02086484432220459,-0.04572882503271103
1772812461792562000,0.59956201171875,0.07506752014160156,0.001426100730895996,-0.05299358814954758
1772812461802262500,0.609262451171875,0.00666046142578125,-0.04518234729766846,-0.04715265333652496
1772812461811963400,0.61896337890625,-0.018212318420410156,-0.09544649720191956,-0.03776341676712036
1772812461821664000,0.6286640625,-0.08142948150634766,-0.14216682314872742,-0.047239385545253754
1772812461831364600,0.638364501953125,-0.10825920104980469,-0.11881628632545471,-0.08263104408979416
1772812461841065200,0.648065185546875,-0.11345291137695312,-0.06201058626174927,-0.09752017259597778
1772812461850765800,0.657765869140625,-0.11619758605957031,-0.020711421966552734,-0.10818596929311752
1772812461860466400,0.667466552734375,-0.06358909606933594,-0.022307157516479492,-0.054768212139606476
1772812461870167000,0.6771669921875,-0.021285057067871094,-0.033771783113479614,-0.00040490180253982544
1772812461879867600,0.68686767578125,0.015570640563964844,-0.025816410779953003,0.028746843338012695
1772812461889568300,0.696568359375,0.038849830627441406,0.012198477983474731,0.0601639449596405
1772812461899268900,0.706268798828125,0.06762218475341797,0.058934181928634644,0.047324299812316895
1772812461918670000,0.725670166015625,0.03659248352050781,0.08207583427429199,0.04412229359149933
1772812461928370700,0.73537060546875,0.008967399597167969,0.07921555638313293,0.023972176015377045
1772812461938071300,0.7450712890625,0.014741897583007812,0.0646359920501709,0.017515532672405243
1772812461947772000,0.75477197265625,0.02862834930419922,0.040433913469314575,0.03512125462293625
1772812461957472500,0.764472412109375,0.057544708251953125,0.030015289783477783,0.04072422534227371
1772812461967173000,0.774173095703125,0.05181884765625,0.013035982847213745,0.0347772091627121
1772812461976873700,0.783873779296875,0.03204345703125,-0.0031948089599609375,0.033486977219581604
1772812461986574300,0.79357421875,0.020806312561035156,-0.024515986442565918,0.0320107638835907
1772812461996275000,0.80327490234375,-0.023189544677734375,-0.0339188277721405,0.005586639046669006
1772812462005975600,0.8129755859375,-0.09582710266113281,-0.08248400688171387,-0.018554888665676117
1772812462015676400,0.822676513671875,-0.13897037506103516,-0.09612604975700378,-0.05744147300720215
1772812462025377000,0.832376953125,-0.17544174194335938,-0.07017877697944641,-0.055404625833034515
1772812462035077600,0.84207763671875,-0.1641836166381836,-0.051469773054122925,-0.03212185204029083
1772812462044778200,0.8517783203125,-0.12366104125976562,-0.04521903395652771,0.00926518440246582
1772812462054478800,0.861478759765625,-0.0814352035522461,-0.04683127999305725,0.04728175699710846
1772812462064179500,0.871179443359375,-0.043456077575683594,-0.000383228063583374,0.07098913937807083
1772812462073880000,0.880880126953125,0.009163856506347656,0.027188122272491455,0.08031738549470901
1772812462083580700,0.89058056640625,0.05735206604003906,0.041903674602508545,0.09046494215726852
1772812462093281300,0.90028125,0.078826904296875,0.05565673112869263,0.08236496150493622
1772812462102982000,0.90998193359375,0.09992504119873047,0.06760060787200928,0.08384242653846741
1772812462112682500,0.9196826171875,0.09591484069824219,0.04196357727050781,0.08021770417690277
1772812462122383000,0.929383056640625,0.07898902893066406,-0.004996120929718018,0.06350444257259369
1772812462132083700,0.939083740234375,0.06585407257080078,-0.002073615789413452,0.04416279494762421
1772812462141784300,0.948784423828125,0.04586315155029297,-0.0018329918384552002,0.0288831889629364
1772812462151485000,0.95848486328125,0.015619277954101562,-0.008793503046035767,0.010951295495033264
1772812462161185800,0.968185791015625,-0.037650108337402344,-0.027515053749084473,-0.01648659259080887
1772812462170886400,0.977886474609375,-0.10060596466064453,-0.04925549030303955,-0.0003347620368003845
1772812462180587000,0.9875869140625,-0.1459798812866211,-0.012971580028533936,-0.007426217198371887
1772812462190287600,0.99728759765625,-0.17876911163330078,0.0028662383556365967,0.006505250930786133
1772812462199988200,1.00698828125,-0.20506000518798828,0.007030755281448364,0.03668444603681564
1772812462209688800,1.016688720703125,-0.16145801544189453,0.000382840633392334,0.04338148981332779
1772812462219389400,1.026389404296875,-0.09153366088867188,-0.0063256919384002686,0.03854108601808548
1772812462229090000,1.036090087890625,-0.04042625427246094,0.01382485032081604,0.07405377924442291
1772812462238790700,1.045790771484375,-0.02075481414794922,0.04988253116607666,0.05977337062358856
1772812462248491300,1.0554912109375,-0.04374885559082031,0.05379948019981384,0.04673263430595398
1772812462258192000,1.06519189453125,-0.07455825805664062,0.0667896568775177,0.04732389748096466
1772812462267892500,1.074892578125,-0.09186363220214844,0.08783859014511108,0.06772102415561676
1772812462277593000,1.084593017578125,-0.05945396423339844,0.11022177338600159,0.07571575045585632
1772812462287293700,1.094293701171875,-0.03700447082519531,0.06613829731941223,0.06950023770332336
1772812462296994300,1.103994384765625,0.01917266845703125,0.04909607768058777,0.04785405099391937
1772812462306695200,1.113695068359375,0.0120697021484375,0.08028623461723328,-0.023067183792591095
1772812462316395500,1.1233955078125,0.0027627944946289062,0.1065136194229126,-0.10334683954715729
1772812462326096100,1.13309619140625,-0.02042675018310547,0.10538682341575623,-0.18537172675132751
1772812462335796700,1.142796630859375,-0.019622802734375,0.1011277437210083,-0.224412739276886
1772812462345497300,1.152497314453125,-0.0023012161254882812,0.1218518614768982,-0.213338702917099
1772812462355198000,1.162197998046875,0.07711315155029297,0.05919367074966431,-0.18676286935806274
1772812462364898800,1.17189892578125,0.16928386688232422,-0.014918267726898193,-0.13198672235012054
1772812462374599400,1.181599365234375,0.26920318603515625,-0.05255472660064697,-0.04600396752357483
1772812462384300000,1.191300048828125,0.3625659942626953,-0.10489845275878906,-0.06224556267261505
1772812462394000600,1.201000732421875,0.3824186325073242,-0.10467147827148438,-0.06232132017612457
1772812462403701200,1.210701171875,0.3547229766845703,-0.06486141681671143,-0.05266144871711731
1772812462413401900,1.22040185546875,0.28856754302978516,-0.03317195177078247,-0.011726990342140198
1772812462423102500,1.2301025390625,0.20348358154296875,-0.0364949107170105,0.030651405453681946
1772812462432803000,1.239802978515625,0.11627197265625,-0.05276590585708618,0.08747412264347076
1772812462442503700,1.249503662109375,0.07287025451660156,-0.005133509635925293,0.1319148689508438
1772812462452204300,1.259204345703125,0.0313873291015625,0.06653684377670288,0.17963461577892303
1772812462461905000,1.26890478515625,-0.0023317337036132812,0.11246657371520996,0.20993180572986603
1772812462471605500,1.27860546875,-0.06369495391845703,0.10524487495422363,0.22813688218593597
1772812462481306000,1.28830615234375,-0.11575698852539062,0.1201266348361969,0.22847189009189606
1772812462491006700,1.2980068359375,-0.1492443084716797,0.1372244954109192,0.22798754274845123
1772812462500707300,1.307707275390625,-0.16328907012939453,0.13190880417823792,0.2070416808128357
1772812462510408200,1.317408203125,-0.146453857421875,0.1397894024848938,0.20712360739707947
1772812462520108800,1.32710888671875,-0.1357574462890625,0.0998198390007019,0.17915527522563934
1772812462529809400,1.336809326171875,-0.06170368194580078,0.08394303917884827,0.1331305354833603
1772812462539510000,1.346510009765625,-0.04890632629394531,0.0548115074634552,0.05573524534702301
1772812462549210600,1.356210693359375,-0.059866905212402344,0.004617750644683838,0.018275022506713867
1772812462558911200,1.3659111328125,-0.06712055206298828,-0.0022711753845214844,-0.01678505539894104
1772812462568611800,1.37561181640625,-0.05188751220703125,-0.029904276132583618,-0.0451379120349884
1772812462578312400,1.3853125,-0.04511451721191406,-0.06840896606445312,-0.10406915098428726
1772812462588013000,1.395012939453125,-0.04664802551269531,-0.09278088808059692,-0.15342488884925842
1772812462597713700,1.404713623046875,-0.04576683044433594,-0.09257465600967407,-0.17501001060009003
1772812462607414300,1.414414306640625,0.0033426284790039062,-0.09803539514541626,-0.15005908906459808
1772812462617115000,1.424114990234375,0.024545669555664062,-0.16382110118865967,-0.15895983576774597
1772812462626815500,1.4338154296875,0.05242156982421875,-0.192651629447937,-0.14767108857631683
1772812462636516000,1.44351611328125,0.08802032470703125,-0.13856369256973267,-0.15366880595684052
1772812462646216700,1.453216796875,0.09473228454589844,-0.13851964473724365,-0.16894689202308655
1772812462655917300,1.462917236328125,0.06364250183105469,-0.13489288091659546,-0.14852729439735413
1772812462665618000,1.472617919921875,0.00952911376953125,-0.10806936025619507,-0.0993286743760109
1772812462675318500,1.482318603515625,-0.022500038146972656,-0.0615156888961792,-0.045987680554389954
1772812462685019100,1.49201904296875,-0.05634593963623047,-0.04728120565414429,0.01891486346721649
1772812462694719700,1.5017197265625,-0.06020927429199219,-0.06956887245178223,0.09246192872524261
1772812462704420400,1.51142041015625,-0.08636093139648438,-0.08082133531570435,0.1109936386346817
1772812462714121200,1.521121337890625,-0.07558250427246094,-0.04328656196594238,0.08291792869567871
1772812462723821800,1.53082177734375,-0.09317398071289062,-0.022164642810821533,0.07354903221130371
1772812462733522400,1.5405224609375,-0.11276435852050781,-0.013255774974822998,0.05927415192127228
1772812462743223000,1.55022314453125,-0.12140274047851562,-0.015408754348754883,0.07886314392089844
1772812462752923600,1.559923583984375,-0.13103389739990234,-0.010686516761779785,0.14228461682796478
1772812462762624300,1.569624267578125,-0.08399105072021484,0.0005106329917907715,0.14898556470870972
1772812462772324900,1.579324951171875,-0.05301475524902344,0.03851160407066345,0.1417142003774643
1772812462782025500,1.589025390625,0.0021429061889648438,0.05435001850128174,0.15860188007354736
1772812462791726000,1.59872607421875,0.053989410400390625,0.05637127161026001,0.18507003784179688
1772812462801426700,1.6084267578125,0.07666492462158203,0.025519460439682007,0.1919129192829132
1772812462811127300,1.618127197265625,0.0942220687866211,-0.017062127590179443,0.16741767525672913
1772812462820828000,1.627827880859375,0.1114645004272461,0.033885657787323,0.11606350541114807
1772812462830528500,1.637528564453125,0.0813446044921875,0.043962299823760986,0.05355204641819
1772812462840229000,1.64722900390625,0.043487548828125,0.027909427881240845,0.010895028710365295
1772812462849929700,1.6569296875,-0.0019693374633789062,0.003858804702758789,0.009778335690498352
1772812462859630300,1.66663037109375,-0.0278472900390625,-0.02473050355911255,0.01626819372177124
1772812462869331200,1.676331298828125,-0.05916118621826172,-0.0693826675415039,-0.004376739263534546
1772812462879031800,1.68603173828125,-0.058152198791503906,-0.05410265922546387,-0.0751202255487442
1772812462888732400,1.695732421875,-0.06887245178222656,-0.019358038902282715,-0.14482571184635162
1772812462898433000,1.70543310546875,-0.07111454010009766,-0.008622527122497559,-0.211954265832901
1772812462908133600,1.715133544921875,-0.049742698669433594,-0.03242415189743042,-0.22831302881240845
1772812462917834200,1.724834228515625,-0.01927661895751953,-0.04233109951019287,-0.1894650161266327
1772812462927534800,1.734534912109375,0.037693023681640625,-0.06694698333740234,-0.12627571821212769
1772812462937235500,1.7442353515625,0.06307697296142578,-0.09794396162033081,-0.0594729483127594
1772812462946936000,1.75393603515625,0.1173715591430664,-0.07706737518310547,-0.042666956782341
1772812462956636700,1.76363671875,0.13775157928466797,-0.03447997570037842,-0.05283866822719574
1772812462966337300,1.773337158203125,0.10951042175292969,-0.027559876441955566,-0.07683944702148438
1772812462976038000,1.783037841796875,0.06525421142578125,-0.016064822673797607,-0.058482080698013306
1772812462985738500,1.792738525390625,0.04291248321533203,0.012116312980651855,-0.03200450539588928
1772812462995439000,1.802439208984375,-0.006127357482910156,0.005881190299987793,-0.009281381964683533
1772812463005139700,1.8121396484375,-0.020242691040039062,-0.04157990217208862,0.02137221395969391
1772812463014840300,1.82184033203125,-0.0341033935546875,-0.018794536590576172,0.04932963848114014
1772812463024541000,1.831541015625,-0.07004737854003906,0.028620362281799316,0.043694958090782166
1772812463034241500,1.841241455078125,-0.08180618286132812,0.03836393356323242,0.03139679133892059
1772812463043942100,1.850942138671875,-0.12155914306640625,0.0311470627784729,0.019442394375801086
1772812463053642800,1.860642822265625,-0.11825084686279297,0.025124311447143555,0.028444617986679077
1772812463063343400,1.87034326171875,-0.0926046371459961,0.03321433067321777,0.0408252477645874
1772812463073044200,1.880044189453125,-0.039109230041503906,0.010184526443481445,0.05318531394004822
1772812463082744800,1.889744873046875,0.034659385681152344,-0.012643635272979736,0.036029502749443054
1772812463092445400,1.899445556640625,0.07186412811279297,-0.01577019691467285,0.015971064567565918
1772812463102146000,1.90914599609375,0.1130971908569336,0.002588927745819092,-0.04000629484653473
1772812463111846700,1.9188466796875,0.12413692474365234,0.029632508754730225,-0.03362332284450531
1772812463121547300,1.92854736328125,0.12197113037109375,-0.014825940132141113,-0.032692745327949524
1772812463131247900,1.938247802734375,0.09273529052734375,-0.010300636291503906,-0.026853978633880615
1772812463140948500,1.947948486328125,0.05457782745361328,0.008034944534301758,-0.03388485312461853
1772812463150649000,1.957649169921875,-0.0028791427612304688,0.041322529315948486,-0.07492274791002274
1772812463160349700,1.967349609375,-0.06636905670166016,0.04274410009384155,-0.07863063365221024
1772812463170050300,1.97705029296875,-0.0581512451171875,0.038603514432907104,-0.09037928283214569
1772812463179751000,1.9867509765625,0.004063606262207031,0.047880977392196655,-0.09090646356344223
1772812463189451500,1.996451416015625,0.0628814697265625,0.02374875545501709,-0.060344524681568146
1772812463199152000,2.006152099609375,0.11242961883544922,-0.014234185218811035,-0.02195657789707184
1772812463208852700,2.015852783203125,0.12341690063476562,-0.04500383138656616,0.014377355575561523
1772812463218553600,2.0255537109375,0.11770820617675781,-0.0725296139717102,-0.0005835741758346558
1772812463228254000,2.03525390625,0.07795143127441406,-0.042415618896484375,-0.021093443036079407
1772812463237954600,2.04495458984375,0.044732093811035156,-0.0223081111907959,-0.02693133056163788
1772812463247655200,2.0546552734375,0.05438804626464844,-0.011100411415100098,0.01630985736846924
1772812463257355800,2.064355712890625,0.033211708068847656,-0.0578654408454895,0.10555657744407654
1772812463267056400,2.074056396484375,0.0711355209350586,-0.08308559656143188,0.17885002493858337
1772812463276757200,2.08375732421875,0.06836986541748047,-0.05053412914276123,0.1992584466934204
1772812463286457900,2.093457763671875,-0.0037431716918945312,-0.02459859848022461,0.16860370337963104
1772812463296158500,2.103158447265625,-0.0839681625366211,-0.003455251455307007,0.12349182367324829
1772812463305859000,2.112859130859375,-0.18862152099609375,0.017398715019226074,0.09153307974338531
1772812463315559700,2.1225595703125,-0.23730754852294922,0.0006101429462432861,0.08788937330245972
1772812463325260300,2.13226025390625,-0.21923160552978516,-0.03286564350128174,0.05399654805660248
1772812463334961000,2.1419609375,-0.1414318084716797,-0.06156912446022034,0.08365893363952637
1772812463344661500,2.15166162109375,-0.07555389404296875,-0.07065576314926147,0.10054822266101837
1772812463354362000,2.161362060546875,-0.050830841064453125,-0.09635153412818909,0.11492538452148438
1772812463364062700,2.171062744140625,-0.08066749572753906,-0.09319344162940979,0.09383176267147064
1772812463373763300,2.180763427734375,-0.12526321411132812,-0.0660618245601654,0.08422338962554932
1772812463383464000,2.1904638671875,-0.1702260971069336,-0.0026709139347076416,0.030386686325073242
1772812463393164500,2.20016455078125,-0.1896495819091797,0.0027720630168914795,-0.0004784911870956421
1772812463402865200,2.209865234375,-0.18041419982910156,0.005491495132446289,-0.02923549711704254
1772812463412565800,2.219565673828125,-0.13007259368896484,0.027203917503356934,-0.07327188551425934
1772812463422266600,2.2292666015625,-0.054640769958496094,0.04207262396812439,-0.15030092000961304
1772812463431967200,2.23896728515625,0.007782936096191406,0.05541872978210449,-0.17278869450092316
1772812463441667800,2.248667724609375,0.0632944107055664,0.050627291202545166,-0.20436543226242065
1772812463451368400,2.258368408203125,0.09313011169433594,0.05105012655258179,-0.1867951601743698
1772812463461069000,2.268069091796875,0.09179496765136719,0.010405182838439941,-0.1337743103504181
1772812463470769700,2.277769775390625,0.1115732192993164,-0.05074799060821533,-0.06282198429107666
1772812463480470300,2.28747021484375,0.12270450592041016,-0.07109659910202026,-0.05269935727119446
1772812463490171000,2.2971708984375,0.11123847961425781,-0.09109431505203247,-0.04421846568584442
1772812463499871500,2.30687158203125,0.08933353424072266,-0.09981131553649902,-0.033739566802978516
1772812463509572000,2.316572021484375,0.033664703369140625,-0.05803871154785156,-0.05191735923290253
1772812463519272700,2.326272705078125,-0.044556617736816406,-0.041034996509552,-0.07167011499404907
1772812463528973300,2.335973388671875,-0.115509033203125,-0.015799403190612793,-0.058251090347766876
1772812463538674000,2.345673828125,-0.18753814697265625,0.033106088638305664,-0.003726944327354431
1772812463548374500,2.35537451171875,-0.15827274322509766,0.058045536279678345,0.020222187042236328
1772812463558075100,2.3650751953125,-0.1423807144165039,0.06332284212112427,0.05132704973220825
1772812463567775700,2.374775634765625,-0.076141357421875,0.07693824172019958,0.08362402021884918
1772812463577476400,2.384476318359375,-0.022782325744628906,0.10536235570907593,0.11427830159664154
1772812463587177000,2.394177001953125,0.059075355529785156,0.11176156997680664,0.12927228212356567
1772812463596877600,2.403877685546875,0.06775760650634766,0.12220343947410583,0.1507948637008667
1772812463606578200,2.413578125,0.07154464721679688,0.10375779867172241,0.16821683943271637
1772812463616278800,2.42327880859375,0.10466670989990234,0.09357595443725586,0.13356424868106842
1772812463625979600,2.432979736328125,0.10427284240722656,0.13371175527572632,0.0640038549900055
1772812463635680300,2.44268017578125,0.09095287322998047,0.11440631747245789,-0.00228726863861084
1772812463645380900,2.452380859375,0.056710243225097656,0.1230614185333252,-0.05446279048919678
1772812463655081500,2.46208154296875,0.046608924865722656,0.10762891173362732,-0.09607906639575958
1772812463664782000,2.471781982421875,0.0614013671875,0.06696063280105591,-0.13447025418281555
1772812463674482700,2.481482666015625,0.05122184753417969,0.013673663139343262,-0.1121823713183403
1772812463684183300,2.491183349609375,0.05762481689453125,-0.05270648002624512,-0.09626708924770355
1772812463693884000,2.5008837890625,0.0909109115600586,-0.0545804500579834,-0.05884300172328949
1772812463703584500,2.51058447265625,0.06828498840332031,-0.07521170377731323,-0.030506566166877747
1772812463713285000,2.52028515625,0.041291236877441406,-0.0866897702217102,-0.023731306195259094
1772812463722985700,2.52998583984375,0.0512237548828125,-0.036544084548950195,-0.008292213082313538
1772812463732686300,2.539686279296875,0.058638572692871094,0.018793582916259766,-0.022028744220733643
1772812463742387000,2.549386962890625,0.08590126037597656,0.0057492852210998535,-0.03532359004020691
1772812463752087600,2.559087646484375,0.11739730834960938,0.008936762809753418,-0.0536227822303772
1772812463761788200,2.5687880859375,0.13539505004882812,0.05621826648712158,-0.04935157299041748
1772812463771488800,2.57848876953125,0.1236581802368164,0.08938717842102051,-0.03227926790714264
1772812463781189400,2.588189453125,0.10973262786865234,0.05914562940597534,-0.028386205434799194
1772812463790890000,2.597889892578125,0.08071231842041016,0.019545555114746094,-0.03826943039894104
1772812463800590600,2.607590576171875,0.04156017303466797,0.03326660394668579,-0.007408067584037781
1772812463810291200,2.617291259765625,0.026569366455078125,0.03596407175064087,0.0329199880361557
1772812463819991800,2.62699169921875,0.014116287231445312,0.0013275742530822754,0.07937109470367432
1772812463829692700,2.636692626953125,-0.016966819763183594,-0.02260148525238037,0.10451595485210419
1772812463839393300,2.646393310546875,-0.016951560974121094,-0.017164111137390137,0.0270969420671463
1772812463849094000,2.656093994140625,-0.10515975952148438,-0.02343827486038208,-0.03983946144580841
1772812463858794500,2.66579443359375,-0.16355609893798828,0.00841522216796875,-0.07579843699932098
1772812463868495000,2.6754951171875,-0.18909072875976562,0.019419074058532715,-0.11748212575912476
1772812463878195700,2.68519580078125,-0.20818805694580078,-0.022752046585083008,-0.08298230916261673
1772812463887896300,2.694896240234375,-0.19629383087158203,-0.0824388861656189,-0.04090018570423126
1772812463897597000,2.704596923828125,-0.13397502899169922,-0.08952891826629639,0.026617377996444702
1772812463907297500,2.714297607421875,-0.05036640167236328,-0.10387641191482544,0.041767582297325134
1772812463916998100,2.723998046875,0.05532646179199219,-0.11329364776611328,0.01933884620666504
1772812463926698800,2.73369873046875,0.11564445495605469,-0.10421687364578247,0.013964414596557617
1772812463936399400,2.7433994140625,0.13956928253173828,-0.06779241561889648,0.0005312860012054443
1772812463946100000,2.753099853515625,0.1277170181274414,-0.04873323440551758,0.016339600086212158
1772812463955800600,2.762800537109375,0.11362361907958984,-0.04190993309020996,0.06410686671733856
1772812463965501200,2.772501220703125,0.04443931579589844,-0.04970371723175049,0.11514259874820709
1772812463975201800,2.782201904296875,-0.0012235641479492188,-0.047530531883239746,0.14484846591949463
1772812463984902400,2.79190234375,-0.05195903778076172,-0.03509676456451416,0.11197279393672943
1772812463994603000,2.80160302734375,-0.07469749450683594,0.015011489391326904,0.0508815199136734
1772812464004303600,2.8113037109375,-0.07341670989990234,0.06131559610366821,-0.015695393085479736
1772812464014004200,2.821004150390625,-0.06145763397216797,0.06990981101989746,-0.03634515404701233
1772812464023704800,2.830704833984375,-0.024950027465820312,0.007482647895812988,0.002769172191619873
1772812464033405400,2.840405517578125,0.0226593017578125,-0.04756075143814087,0.04205569624900818
1772812464043106300,2.850106201171875,0.09410381317138672,-0.09002876281738281,0.07253310084342957
1772812464052807000,2.859806884765625,0.10188674926757812,-0.09966033697128296,0.07992759346961975
1772812464062507500,2.869507568359375,0.10706424713134766,-0.11599475145339966,0.07516416907310486
1772812464072208100,2.8792080078125,0.04383277893066406,-0.13935738801956177,0.04008746147155762
1772812464081908700,2.88890869140625,0.0063571929931640625,-0.11072814464569092,0.01940220594406128
1772812464091609300,2.898609375,-0.057524681091308594,-0.028193533420562744,-0.0063452571630477905
1772812464101310000,2.90831005859375,-0.10730266571044922,-0.01161491870880127,-0.005687981843948364
1772812464111010600,2.918010498046875,-0.14319610595703125,0.018408358097076416,0.012552335858345032
1772812464120711200,2.927711181640625,-0.17365455627441406,0.05619478225708008,0.022939950227737427
1772812464130411800,2.937411865234375,-0.13055992126464844,0.06345653533935547,0.02529209852218628
1772812464140112400,2.9471123046875,-0.07637977600097656,0.040795326232910156,0.05512627959251404
1772812464149813000,2.95681298828125,-0.009011268615722656,-0.0017842650413513184,0.09453806281089783
1772812464159513600,2.966513671875,0.04894256591796875,-0.06466031074523926,0.07777377963066101
1772812464169214200,2.976214111328125,0.10231685638427734,-0.041049957275390625,0.057082027196884155
1772812464178914800,2.985914794921875,0.12649059295654297,-0.012243032455444336,0.0029280781745910645
1772812464188615400,2.995615478515625,0.09142875671386719,0.01222461462020874,-0.04852886497974396
1772812464198316000,3.00531591796875,0.0722360610961914,0.017446577548980713,-0.04806537926197052
1772812464208016600,3.0150166015625,0.06629085540771484,0.003705739974975586,-0.03285333514213562
1772812464217717200,3.02471728515625,0.058081626892089844,-0.04969555139541626,-0.027501747012138367
1772812464227417900,3.03441796875,0.014692306518554688,-0.04113781452178955,-0.010638922452926636
1772812464237118500,3.044118408203125,0.02140522003173828,-0.06617027521133423,-0.0385526567697525
1772812464246819300,3.0538193359375,-0.009670257568359375,-0.10328125953674316,-0.06344273686408997
1772812464256520000,3.06352001953125,-0.024953842163085938,-0.08287942409515381,-0.10228626430034637
1772812464266220500,3.073220458984375,-0.057602882385253906,-0.034564852714538574,-0.132760688662529
1772812464275921200,3.082921142578125,-0.11198711395263672,-0.0013737082481384277,-0.09896521270275116
1772812464285621800,3.092621826171875,-0.1583385467529297,-0.011124670505523682,-0.05503225326538086
1772812464295322400,3.102322265625,-0.15206241607666016,-0.002543151378631592,-0.0005344897508621216
1772812464305023000,3.11202294921875,-0.12462329864501953,0.014816701412200928,0.039126917719841
1772812464314723600,3.1217236328125,-0.03290748596191406,-0.0002409219741821289,0.08192703127861023
1772812464324424200,3.131424072265625,0.058419227600097656,-0.007274508476257324,0.07986822724342346
1772812464334124800,3.141124755859375,0.1269702911376953,-0.001581430435180664,0.044021040201187134
1772812464343825400,3.150825439453125,0.16723251342773438,0.04344046115875244,0.013330444693565369
1772812464353526000,3.160526123046875,0.14322185516357422,0.07232290506362915,0.00528794527053833
1772812464363226600,3.1702265625,0.110137939453125,0.06213486194610596,0.04581318795681
1772812464372927200,3.17992724609375,0.0599212646484375,0.015205800533294678,0.044076189398765564
1772812464382627800,3.1896279296875,0.0034999847412109375,0.006112039089202881,0.0504307746887207
1772812464392328400,3.199328369140625,-0.035488128662109375,0.01070326566696167,0.044748157262802124
1772812464402029000,3.209029052734375,-0.040848731994628906,0.02278977632522583,-0.01195603609085083
1772812464411729700,3.218729736328125,-0.07314777374267578,-0.006268441677093506,-0.05565667152404785
1772812464421430300,3.22843017578125,-0.10603141784667969,0.01991492509841919,-0.10082057863473892
1772812464431131000,3.238130859375,-0.10535621643066406,0.04782140254974365,-0.10944899916648865
1772812464440831500,3.24783154296875,-0.110504150390625,0.0528186559677124,-0.08520933985710144
1772812464450532400,3.257532470703125,-0.07200050354003906,0.03844112157821655,-0.04214799404144287
1772812464460233000,3.26723291015625,-0.041192054748535156,0.02813822031021118,0.02108149230480194
1772812464469933600,3.27693359375,0.04436016082763672,0.01398003101348877,0.07790745794773102
1772812464479634200,3.28663427734375,0.1307373046875,0.01610201597213745,0.09402681887149811
1772812464489334800,3.296334716796875,0.1767292022705078,0.019666075706481934,0.07550820708274841
1772812464499035100,3.30603515625,0.17479515075683594,0.0002327561378479004,0.023940309882164
1772812464508736000,3.315736083984375,0.14340591430664062,0.02935159206390381,-0.01231074333190918
1772812464518436600,3.3254365234375,0.0689840316772461,0.029446899890899658,0.0008541494607925415
1772812464528137200,3.33513720703125,-0.02887439727783203,0.01598525047302246,-0.002204015851020813
1772812464537837800,3.344837890625,-0.09912681579589844,-0.00981813669204712,0.0019041895866394043
1772812464547538400,3.354538330078125,-0.14223003387451172,0.015917479991912842,-0.011433407664299011
1772812464557239000,3.364239013671875,-0.13393020629882812,0.04396253824234009,-0.05058816075325012
1772812464566939600,3.373939697265625,-0.10216045379638672,0.043302297592163086,-0.10369449853897095
1772812464576640300,3.38364013671875,-0.09912872314453125,0.06301295757293701,-0.13398835062980652
1772812464586340900,3.3933408203125,-0.06906986236572266,0.09185153245925903,-0.12472353875637054
1772812464596041500,3.40304150390625,-0.03719615936279297,0.06298321485519409,-0.09160223603248596
1772812464605742000,3.4127421875,-0.04469776153564453,0.03517550230026245,-0.048325419425964355
1772812464615442700,3.422442626953125,-0.02972126007080078,0.009976744651794434,-0.0007486939430236816
1772812464625143300,3.432143310546875,-0.035002708435058594,0.024013996124267578,0.021946445107460022
1772812464634844000,3.441843994140625,-0.014325141906738281,0.020245075225830078,0.06546606123447418
1772812464644544500,3.45154443359375,0.051878929138183594,0.0012599825859069824,0.0690264105796814
1772812464654245400,3.461245361328125,0.07224845886230469,0.0022758841514587402,0.04226163029670715
1772812464663946000,3.470946044921875,0.1157999038696289,0.008910596370697021,-0.009098276495933533
1772812464673646300,3.480646240234375,0.11034584045410156,0.028886616230010986,-0.032318562269210815
1772812464683347000,3.490346923828125,0.10023975372314453,0.04550975561141968,-0.03188253194093704
1772812464693047600,3.500047607421875,0.09027099609375,0.0271756649017334,-0.024519778788089752
1772812464702748200,3.509748046875,0.042769432067871094,0.015467226505279541,0.004340857267379761
1772812464712449000,3.519448974609375,-0.023932456970214844,-0.0031424760818481445,0.029763147234916687
1772812464722149600,3.529149658203125,-0.031836509704589844,0.04138296842575073,0.043426141142845154
1772812464731850200,3.538850341796875,-0.074859619140625,0.08000925183296204,0.034491077065467834
1772812464741550800,3.54855078125,-0.08769416809082031,0.07208681106567383,0.038177475333213806
1772812464751251500,3.55825146484375,-0.08966255187988281,0.050334393978118896,0.029800787568092346
1772812464760952000,3.5679521484375,-0.09152793884277344,0.06776189804077148,-0.01598803699016571
1772812464770652700,3.577652587890625,-0.04746437072753906,0.056986451148986816,-0.03603389859199524
1772812464780353300,3.587353271484375,-0.012422561645507812,0.010370254516601562,-0.012813940644264221
1772812464790054000,3.597053955078125,0.041945457458496094,-0.031369686126708984,-0.01581701636314392
1772812464799754500,3.60675439453125,0.06474018096923828,-0.021261096000671387,-0.029036983847618103
1772812464819155700,3.62615576171875,-0.001750946044921875,-0.02821582555770874,0.05648088455200195
1772812464828856300,3.635856201171875,-0.053475379943847656,-0.026861190795898438,0.04310142993927002
1772812464838557000,3.645556884765625,-0.06660175323486328,0.021019458770751953,0.039549320936203
1772812464848257500,3.655257568359375,-0.07592105865478516,0.044934093952178955,0.04888984560966492
1772812464857958100,3.664958251953125,-0.030954360961914062,0.015992164611816406,0.05084007978439331
1772812464867658800,3.67465869140625,0.06263923645019531,-0.0003821253776550293,0.016617313027381897
1772812464877359400,3.684359375,0.07695770263671875,-0.02852421998977661,0.022745370864868164
1772812464887060000,3.69406005859375,0.08508777618408203,-0.01402592658996582,-0.007511690258979797
1772812464896760600,3.703760498046875,0.056568145751953125,0.006528735160827637,-0.007952123880386353
1772812464906461200,3.713461181640625,0.016747474670410156,0.019516944885253906,-0.03772149235010147
1772812464916162000,3.723162109375,-0.03649711608886719,-0.00019788742065429688,-0.05071544647216797
1772812464925862700,3.732862548828125,-0.06645393371582031,0.03647792339324951,-0.056476838886737823
1772812464935563300,3.742563232421875,-0.06292343139648438,0.0580143928527832,-0.01972562074661255
1772812464945263900,3.752263916015625,-0.06414031982421875,0.03137660026550293,0.008613482117652893
1772812464954964500,3.761964599609375,-0.04649066925048828,0.011424481868743896,0.034094616770744324
1772812464964665000,3.7716650390625,-0.02324962615966797,0.023623526096343994,0.02984212338924408
1772812464974365700,3.78136572265625,0.017246246337890625,0.06500518321990967,0.0422264039516449
1772812464984066300,3.79106640625,0.06524467468261719,0.06366878747940063,0.06075549125671387
1772812464993767000,3.800766845703125,0.09355449676513672,0.024822771549224854,0.077659010887146
1772812465003467500,3.810467529296875,0.11780357360839844,-0.002671480178833008,0.07641392946243286
1772812465013168000,3.820168212890625,0.11569976806640625,0.0009749531745910645,0.06113481521606445
1772812465032569300,3.8395693359375,0.057969093322753906,0.01349705457687378,0.010919198393821716
1772812465042270000,3.84927001953125,0.006282806396484375,-0.01931130886077881,-0.00977344810962677
1772812465051970600,3.858970458984375,-0.0033712387084960938,-0.0384257435798645,-0.010023891925811768
1772812465061671200,3.868671142578125,-0.011700630187988281,-0.03973734378814697,-0.011194378137588501
1772812465071371800,3.878371826171875,-0.014039039611816406,-0.06288188695907593,-0.03775417059659958
1772812465081072400,3.888072265625,-0.04220867156982422,-0.08242654800415039,-0.05160968005657196
1772812465090773000,3.89777294921875,-0.07692909240722656,-0.05200231075286865,-0.08459033071994781
1772812465100473600,3.9074736328125,-0.11685752868652344,0.029847323894500732,-0.09440573304891586
1772812465110174200,3.91717431640625,-0.15364360809326172,0.05356335639953613,-0.10643786936998367
1772812465119874800,3.926874755859375,-0.1473531723022461,0.09792816638946533,-0.09350166469812393
1772812465129575700,3.93657568359375,-0.09523200988769531,0.08655941486358643,-0.028076067566871643
1772812465139276300,3.9462763671875,-0.008713722229003906,0.06466913223266602,0.0625743418931961
1772812465148977000,3.955976806640625,0.07979106903076172,0.0014495849609375,0.11047089099884033
1772812465158677200,3.96567724609375,0.1396503448486328,-0.01949906349182129,0.0770529955625534
1772812465168377900,3.9753779296875,0.18310832977294922,-0.020045578479766846,0.023530185222625732
1772812465178078500,3.985078369140625,0.13405323028564453,-0.03901934623718262,-0.026884928345680237
1772812465187779300,3.994779296875,0.09759044647216797,-0.019704699516296387,-0.04883754253387451
1772812465197480000,4.00447998046875,0.020613670349121094,-0.03701668977737427,-0.042914003133773804
1772812465207180500,4.0141806640625,0.029671669006347656,-0.07772320508956909,-0.018495634198188782
1772812465216881200,4.023881103515625,0.07037162780761719,-0.07626646757125854,-0.023467838764190674
1772812465226581800,4.033581787109375,0.043292999267578125,-0.0283050537109375,-0.021792873740196228
1772812465236282400,4.043282470703125,0.044831275939941406,-0.05392080545425415,0.022742420434951782
1772812465245983000,4.05298291015625,0.02158355712890625,-0.07887256145477295,0.022962510585784912
1772812465255683600,4.06268359375,-0.01661205291748047,-0.06423074007034302,0.02860616147518158
1772812465265384200,4.07238427734375,-0.05065345764160156,-0.03140735626220703,0.029941126704216003
1772812465275084800,4.082084716796875,-0.09468746185302734,0.00806039571762085,0.061908408999443054
1772812465284785400,4.091785400390625,-0.0814666748046875,0.03000319004058838,0.06953908503055573
1772812465294486000,4.101486083984375,-0.10726547241210938,0.019447743892669678,0.08667843043804169
1772812465304186600,4.1111865234375,-0.08903980255126953,0.015348553657531738,0.09566707909107208
1772812465313887200,4.12088720703125,-0.0828256607055664,0.04679065942764282,0.07293885946273804
1772812465323587800,4.130587890625,-0.04254627227783203,0.04108399152755737,0.03463776409626007
1772812465333288400,4.140288330078125,-0.029961585998535156,-0.0017462968826293945,0.00936087965965271
1772812465342989000,4.149989013671875,-0.008164405822753906,-0.0052051544189453125,-0.029697224497795105
1772812465352689700,4.159689697265625,-0.004398345947265625,-0.020961105823516846,-0.012326866388320923
1772812465362390300,4.169390380859375,-0.020734786987304688,-0.059459805488586426,-0.005783021450042725
1772812465372091000,4.1790908203125,-0.015680313110351562,-0.09932470321655273,0.03532490134239197
1772812465381791500,4.18879150390625,-0.011915206909179688,-0.1059618592262268,0.033753469586372375
1772812465391492400,4.198492431640625,-0.024704933166503906,-0.09144914150238037,-0.018692746758461
1772812465401193000,4.20819287109375,-0.03608226776123047,-0.07914930582046509,-0.065538689494133
1772812465410893600,4.2178935546875,-0.022502899169921875,-0.056971073150634766,-0.12935534119606018
1772812465420594200,4.22759423828125,-0.010294914245605469,-0.006624460220336914,-0.14702680706977844
1772812465430294800,4.237294677734375,-0.007708549499511719,-0.018538594245910645,-0.12257745116949081
1772812465439995400,4.246995361328125,-0.015769004821777344,-0.03532683849334717,-0.11797641217708588
1772812465449696000,4.256696044921875,-0.027217864990234375,0.01634204387664795,-0.07993359118700027
1772812465459396600,4.266396728515625,-0.014935493469238281,0.035526275634765625,-0.0309315025806427
1772812465469097200,4.27609716796875,-0.024005889892578125,0.03271472454071045,-0.017199844121932983
1772812465478797800,4.2857978515625,-0.01878833770751953,0.012951135635375977,0.041236937046051025
1772812465488498400,4.29549853515625,0.046349525451660156,0.024355530738830566,0.04277792572975159
1772812465498199000,4.305198974609375,0.07392406463623047,0.04833674430847168,0.027605697512626648
1772812465507899600,4.314899658203125,0.08922004699707031,0.0380401611328125,0.041886329650878906
1772812465517600300,4.324600341796875,0.10184574127197266,0.03271716833114624,0.051004260778427124
1772812465527300900,4.33430078125,0.06832122802734375,-0.016984879970550537,0.05409899353981018
1772812465537001500,4.34400146484375,0.04826545715332031,-0.045251429080963135,0.02987314760684967
1772812465546702000,4.3537021484375,0.032042503356933594,-0.024055778980255127,0.03226222097873688
1772812465556402700,4.363402587890625,0.020763397216796875,-0.022484123706817627,0.010326176881790161
1772812465566103300,4.373103271484375,0.002613067626953125,-0.05275982618331909,-0.0019439905881881714
1772812465575804000,4.382803955078125,-0.01050567626953125,-0.03518790006637573,-0.013311132788658142
1772812465585504500,4.39250439453125,-0.03986167907714844,0.010475516319274902,-0.023678161203861237
1772812465595205000,4.402205078125,-0.04634666442871094,0.02398848533630371,-0.03776949644088745
1772812465604905700,4.41190576171875,-0.07855033874511719,0.04398602247238159,-0.005023196339607239
1772812465614606300,4.4216064453125,-0.08899593353271484,0.03379243612289429,0.04944996535778046
1772812465624307000,4.431306884765625,-0.10039329528808594,0.02471303939819336,0.09645001590251923
1772812465634007600,4.441007568359375,-0.09392547607421875,-0.005771040916442871,0.12975788116455078
1772812465643708200,4.450708251953125,-0.05343341827392578,-0.00469595193862915,0.11292748153209686
1772812465653409000,4.460408935546875,0.032271385192871094,0.037534892559051514,0.0454103946685791
1772812465663109600,4.470109619140625,0.09537506103515625,0.08240443468093872,-0.06318897008895874
1772812465672810200,4.479810302734375,0.1315135955810547,0.08942559361457825,-0.08796948194503784
1772812465682510800,4.4895107421875,0.1587505340576172,0.05417531728744507,-0.07214586436748505
1772812465692211500,4.49921142578125,0.14429092407226562,-0.02041846513748169,-0.02007228136062622
1772812465701912000,4.508912109375,0.119415283203125,-0.07023268938064575,-0.010133638978004456
1772812465711612700,4.51861279296875,0.08548736572265625,-0.1059538722038269,0.00466667115688324
1772812465721313300,4.528313232421875,0.03915882110595703,-0.08259177207946777,-0.026388205587863922
1772812465731014000,4.538013916015625,-0.006367683410644531,-0.05815094709396362,-0.0752451941370964
1772812465740714500,4.547714599609375,-0.024039268493652344,-0.020680248737335205,-0.10740993916988373
1772812465750415000,4.5574150390625,-0.07196807861328125,0.013216555118560791,-0.10514891147613525
1772812465760115700,4.56711572265625,-0.0861043930053711,0.027346134185791016,-0.08912961184978485
1772812465769816300,4.57681640625,-0.08467864990234375,0.01586616039276123,-0.04999619722366333
1772812465779517000,4.586516845703125,-0.04680442810058594,0.01283884048461914,-0.01855548471212387
1772812465789217500,4.596217529296875,-0.03429126739501953,0.018850862979888916,-0.021834760904312134
1772812465798918100,4.605918212890625,-0.0019893646240234375,0.04456794261932373,-0.01743389666080475
1772812465808618800,4.61561865234375,-0.013718605041503906,0.0738983154296875,-0.007610812783241272
1772812465818319400,4.6253193359375,-0.0087738037109375,0.06411117315292358,0.015286028385162354
1772812465828020000,4.63502001953125,0.0031633377075195312,0.05724900960922241,0.07359877228736877
1772812465837720600,4.644720458984375,0.010187149047851562,0.021271944046020508,0.10044470429420471
1772812465847421200,4.654421142578125,0.019428253173828125,-0.016468524932861328,0.09399016201496124
1772812465857121800,4.664121826171875,0.034384727478027344,-0.012690544128417969,0.04849332571029663
1772812465866822400,4.673822509765625,0.060848236083984375,0.0023447275161743164,0.01444806158542633
1772812465876523000,4.68352294921875,0.03858470916748047,-0.01682180166244507,-0.020764753222465515
1772812465886223600,4.6932236328125,0.02136707305908203,-0.06578278541564941,-0.01008017361164093
1772812465895924200,4.70292431640625,0.013807296752929688,-0.06402063369750977,0.008769869804382324
1772812465905624800,4.712624755859375,-0.02538299560546875,-0.062098681926727295,0.042935386300086975
1772812465915325400,4.722325439453125,-0.03917121887207031,-0.0404590368270874,0.06168799102306366
1772812465925026300,4.7320263671875,-0.0467987060546875,0.003040313720703125,0.058638572692871094
1772812465934727000,4.741726806640625,-0.044816017150878906,0.024875938892364502,0.03858116269111633
1772812465944427500,4.751427490234375,-0.012246131896972656,0.04604834318161011,0.03648631274700165
1772812465954128100,4.761128173828125,0.0068340301513671875,0.03271663188934326,0.032336875796318054
1772812465963828700,4.770828857421875,0.05029487609863281,0.007469654083251953,0.008565366268157959
1772812465973529300,4.780529296875,0.062419891357421875,0.016055822372436523,-0.021787047386169434
1772812465983230000,4.79022998046875,0.050759315490722656,0.006959795951843262,-0.049819231033325195
1772812465992930600,4.7999306640625,0.05688285827636719,-0.034793078899383545,-0.04109540581703186
1772812466002631200,4.809631103515625,0.0063838958740234375,-0.060173869132995605,-0.014476433396339417
1772812466012331800,4.819331787109375,0.008477210998535156,-0.07947981357574463,-0.007167428731918335
1772812466022032400,4.829032470703125,-0.022426605224609375,-0.0668414831161499,-0.0071686506271362305
1772812466031733000,4.83873291015625,-0.006908416748046875,-0.06695544719696045,-0.022680774331092834
1772812466041433600,4.84843359375,0.014239311218261719,-0.021090149879455566,-0.04730897396802902
1772812466051134200,4.85813427734375,-0.0026082992553710938,0.004127919673919678,-0.017281100153923035
1772812466060834800,4.867834716796875,0.013772010803222656,-0.017018020153045654,0.009365841746330261
1772812466070535400,4.877535400390625,-0.014821052551269531,-0.01891183853149414,0.018979787826538086
1772812466080236000,4.887236083984375,-0.06056976318359375,-0.03931552171707153,0.009662032127380371
1772812466089936600,4.8969365234375,-0.0643463134765625,-0.021326005458831787,-0.02244170755147934
1772812466099637200,4.90663720703125,-0.06334209442138672,-0.004687905311584473,-0.02139471471309662
1772812466109337900,4.916337890625,-0.07762813568115234,-0.02338773012161255,-0.020878054201602936
1772812466119038500,4.92603857421875,-0.08225345611572266,-0.02272176742553711,-0.013183623552322388
1772812466128739000,4.935739013671875,-0.1067800521850586,-0.0027617812156677246,0.0006331652402877808
1772812466138439700,4.945439697265625,-0.0955801010131836,-0.002683579921722412,0.022560417652130127
1772812466148140300,4.955140380859375,-0.09630584716796875,0.024790287017822266,0.047192513942718506
1772812466157841000,4.9648408203125,-0.08638954162597656,0.04415878653526306,0.0507962703704834
1772812466167541500,4.97454150390625,-0.12717437744140625,0.024100542068481445,0.051869213581085205
1772812466177242000,4.9842421875,-0.129547119140625,0.02713191509246826,0.034366533160209656
1772812466186943000,4.99394287109375,-0.1259164810180664,0.06015816330909729,0.007956475019454956
1772812466196643600,5.0036435546875,-0.05403614044189453,0.06581538915634155,-0.011579647660255432
1772812466206344200,5.01334423828125,0.06839179992675781,0.028548777103424072,-0.03931884467601776
1772812466216044800,5.023044921875,0.1451873779296875,-0.007233798503875732,-0.10428088903427124
1772812466225745400,5.032745361328125,0.21238422393798828,0.005227386951446533,-0.11643221974372864
1772812466235445800,5.04244580078125,0.24775409698486328,0.02246147394180298,-0.10143937170505524
1772812466245146600,5.052146728515625,0.21181583404541016,-0.04839879274368286,-0.04212254285812378
1772812466254847200,5.06184716796875,0.18344783782958984,-0.08995169401168823,-0.01581326127052307
1772812466264547800,5.0715478515625,0.1507883071899414,-0.08558332920074463,-0.02408061921596527
1772812466274248400,5.08124853515625,0.07865142822265625,-0.026095688343048096,-0.03817471116781235
1772812466283949000,5.090948974609375,0.020668983459472656,0.023173153400421143,-0.06371166557073593
1772812466293649700,5.100649658203125,-0.04217338562011719,0.05692434310913086,-0.025351926684379578
1772812466303350300,5.110350341796875,-0.07097244262695312,0.07778692245483398,0.01918335258960724
1772812466313051000,5.12005078125,-0.11568641662597656,0.0863649845123291,0.05363073945045471
1772812466322751500,5.12975146484375,-0.09490394592285156,0.0779045820236206,0.06616277992725372
1772812466332452000,5.1394521484375,-0.11329364776611328,0.05117291212081909,0.09425345063209534
1772812466342152700,5.149152587890625,-0.08193588256835938,0.009059727191925049,0.10112528502941132
1772812466351853300,5.158853271484375,-0.009927749633789062,0.04171115159988403,0.08912205696105957
1772812466361554000,5.168553955078125,-0.003833770751953125,0.058297693729400635,0.06403793394565582
1772812466371254500,5.178254638671875,0.0503692626953125,0.03983616828918457,0.024593442678451538
1772812466380955100,5.187955078125,0.0718841552734375,0.0648384690284729,0.04091291129589081
1772812466390655700,5.19765576171875,0.11185836791992188,0.09395045042037964,0.07098940014839172
1772812466400356400,5.2073564453125,0.14050960540771484,0.04980891942977905,0.04008480906486511
1772812466410057000,5.217056884765625,0.11333465576171875,0.00100630521774292,0.039950937032699585
1772812466419757600,5.226757568359375,0.12069988250732422,0.0066530704498291016,0.006044015288352966
1772812466429458200,5.236458251953125,0.04793834686279297,0.027623891830444336,-0.04072650521993637
1772812466439158800,5.24615869140625,-0.04122161865234375,-0.008766412734985352,-0.07367993891239166
1772812466448859600,5.255859619140625,-0.07707786560058594,-0.018894195556640625,-0.08620581775903702
1772812466458560300,5.265560302734375,-0.11815071105957031,-0.030176162719726562,-0.07914221286773682
1772812466468260900,5.2752607421875,-0.09143638610839844,-0.06431573629379272,-0.047524720430374146
1772812466477961200,5.284961181640625,-0.07578182220458984,-0.11487144231796265,-0.04936257004737854
1772812466487661800,5.294661865234375,-0.061583518981933594,-0.18719953298568726,-0.046290695667266846
1772812466497362400,5.304362548828125,-0.021772384643554688,-0.18829107284545898,-0.056008145213127136
1772812466507063300,5.314063232421875,-0.00028133392333984375,-0.13898473978042603,-0.09160745143890381
1772812466516764000,5.323763916015625,-0.0026750564575195312,-0.09165310859680176,-0.13263463973999023
1772812466526464500,5.333464599609375,-0.01677417755126953,-0.07657212018966675,-0.12733207643032074
1772812466545865700,5.35286572265625,0.020798683166503906,-0.025616466999053955,-0.003824964165687561
1772812466555566300,5.36256640625,0.01918315887451172,-0.04804772138595581,0.05730137228965759
1772812466565267000,5.372266845703125,0.011693954467773438,0.009569942951202393,0.10917900502681732
1772812466574967600,5.381967529296875,-0.0050830841064453125,0.10036516189575195,0.12495055794715881
1772812466584668200,5.391668212890625,-0.060375213623046875,0.09723234176635742,0.15117263793945312
1772812466594368800,5.40136865234375,-0.06645488739013672,0.09986269474029541,0.1781655251979828
1772812466604069400,5.4110693359375,-0.09473609924316406,0.07171618938446045,0.1815759837627411
1772812466613770000,5.42077001953125,-0.07898521423339844,0.030416667461395264,0.16367794573307037
1772812466623470600,5.430470703125,-0.05524921417236328,0.012378275394439697,0.13994890451431274
1772812466633171200,5.440171142578125,-0.01896953582763672,0.012204110622406006,0.1012706309556961
1772812466642871800,5.449871826171875,0.011994361877441406,0.0002092123031616211,0.048077940940856934
1772812466652572400,5.459572509765625,0.027116775512695312,-0.05204123258590698,0.037364885210990906
1772812466662273000,5.46927294921875,0.02668285369873047,-0.047004759311676025,0.02244187891483307
1772812466671973600,5.4789736328125,0.015659332275390625,-0.03036940097808838,-0.006029412150382996
1772812466681674200,5.48867431640625,0.01541900634765625,-0.020955681800842285,-0.021393373608589172
1772812466691374800,5.498374755859375,0.016370773315429688,-0.00923144817352295,-0.04851780831813812
1772812466701075500,5.508075439453125,-0.0026988983154296875,0.00003463029861450195,-0.05113379657268524
1772812466710776000,5.517776123046875,-0.01911163330078125,0.011276304721832275,-0.02285212278366089
1772812466720476700,5.5274765625,0.02589893341064453,-0.025351762771606445,-0.041465334594249725
1772812466730177300,5.53717724609375,-0.0028123855590820312,-0.04076123237609863,-0.0328872948884964
1772812466739878000,5.5468779296875,0.0054264068603515625,-0.030228614807128906,-0.021570801734924316
1772812466749578500,5.55657861328125,0.028830528259277344,-0.008080661296844482,-0.02264024317264557
1772812466759279000,5.566279052734375,0.02011394500732422,0.008410334587097168,-0.046101413667201996
1772812466768979700,5.575979736328125,0.03036975860595703,0.0236818790435791,-0.07222883403301239
1772812466778680600,5.5856806640625,0.04048347473144531,0.08398491144180298,-0.08820487558841705
1772812466788381200,5.595381103515625,0.022177696228027344,0.07251155376434326,-0.08831007033586502
1772812466798081800,5.605081787109375,0.024181365966796875,0.02002394199371338,-0.05458065867424011
1772812466807782100,5.6147822265625,0.021409988403320312,-0.035742998123168945,-0.03789032995700836
1772812466817482800,5.624482666015625,0.030399322509765625,-0.05857282876968384,-0.01676751673221588
1772812466827183400,5.634183349609375,0.03685188293457031,-0.06769686937332153,-0.03807644546031952
1772812466836884200,5.64388427734375,0.05023956298828125,-0.028939485549926758,-0.06437194347381592
1772812466846584800,5.653584716796875,-0.0024852752685546875,0.0020975470542907715,-0.0533701553940773
1772812466856285400,5.663285400390625,-0.01314544677734375,-0.003618597984313965,-0.035235390067100525
1772812466865986000,5.672986083984375,-0.04946708679199219,0.002284407615661621,-0.023920752108097076
1772812466875686700,5.682686767578125,-0.06040000915527344,0.027199923992156982,-0.006691887974739075
1772812466885387300,5.69238720703125,-0.07697391510009766,0.030477583408355713,0.010637030005455017
1772812466895087900,5.702087890625,-0.03794384002685547,0.0625905990600586,0.017103105783462524
1772812466904788500,5.71178857421875,0.013377189636230469,0.09164655208587646,0.026429355144500732
1772812466914489000,5.721489013671875,0.05438709259033203,0.08395332098007202,0.03729875385761261
1772812466924189700,5.731189697265625,0.05701923370361328,0.052051842212677,0.08451583981513977
1772812466933890300,5.740890380859375,0.032502174377441406,0.03648799657821655,0.08351023495197296
1772812466943591000,5.7505908203125,-0.0068912506103515625,0.02504861354827881,0.06774993240833282
1772812466953291500,5.76029150390625,-0.025595664978027344,0.04624730348587036,-0.0014296025037765503
1772812466962992000,5.7699921875,-0.02982616424560547,0.02557063102722168,-0.05527438223361969
1772812466972692700,5.779692626953125,-0.008100509643554688,0.02645784616470337,-0.058810457587242126
1772812466982393300,5.789393310546875,0.05088233947753906,0.03842702507972717,-0.06059572100639343
1772812466992094000,5.799093994140625,0.08764266967773438,0.025311410427093506,-0.06080414354801178
1772812467001794600,5.808794677734375,0.08253955841064453,0.0061498284339904785,-0.05345571041107178
1772812467011495200,5.8184951171875,0.043361663818359375,0.027576744556427002,-0.059853337705135345
1772812467021195800,5.82819580078125,-0.010433197021484375,0.057135969400405884,-0.07133599370718002
1772812467030896400,5.837896484375,-0.10559654235839844,0.033674150705337524,-0.05799795687198639
1772812467040597000,5.847596923828125,-0.16728591918945312,0.034249454736709595,-0.05715484917163849
1772812467050297600,5.857297607421875,-0.17255783081054688,0.05218270421028137,-0.03631570190191269
1772812467059998200,5.866998291015625,-0.10123729705810547,0.023749709129333496,-0.00031019747257232666
1772812467069698800,5.87669873046875,-0.03465461730957031,-0.022144854068756104,0.0392046719789505
1772812467079399400,5.8863994140625,0.06016731262207031,-0.014461815357208252,0.05631011724472046
1772812467089100000,5.89610009765625,0.11329841613769531,-0.005505263805389404,0.0796317607164383
1772812467098801000,5.90580078125,0.11251068115234375,-0.01498568058013916,0.11376960575580597
1772812467108501500,5.91550146484375,0.1081247329711914,-0.023491382598876953,0.1177566647529602
1772812467118202000,5.9252021484375,0.06139087677001953,0.004567503929138184,0.11241163313388824
1772812467127902700,5.93490283203125,0.04247474670410156,0.022399723529815674,0.11082839965820312
1772812467137603000,5.94460302734375,0.0015201568603515625,0.10012507438659668,0.14082211256027222
1772812467147303700,5.9543037109375,-0.05284404754638672,0.13816392421722412,0.19500310719013214
1772812467157004500,5.964004638671875,-0.07565689086914062,0.10940688848495483,0.18298861384391785
1772812467166705200,5.973705078125,-0.14388561248779297,0.10394454002380371,0.1677636355161667
1772812467176405800,5.98340576171875,-0.16027355194091797,0.13962137699127197,0.1092241108417511
1772812467186106400,5.9931064453125,-0.16923046112060547,0.09329396486282349,0.028858020901679993
1772812467195807000,6.002806884765625,-0.16030311584472656,0.02241256833076477,-0.037009432911872864
1772812467205507600,6.012507568359375,-0.07734966278076172,-0.01924920082092285,-0.09959518909454346
1772812467215208200,6.022208251953125,-0.009893417358398438,-0.0545651912689209,-0.15008576214313507
1772812467224908800,6.03190869140625,0.11165618896484375,-0.10746783018112183,-0.1665063500404358
1772812467234609400,6.041609375,0.19339752197265625,-0.14566558599472046,-0.13135729730129242
1772812467244310000,6.05131005859375,0.23009586334228516,-0.14723551273345947,-0.06644357740879059
1772812467254010600,6.0610107421875,0.2754659652709961,-0.1629328727722168,-0.01926274597644806
1772812467263711200,6.070711181640625,0.24349021911621094,-0.12977540493011475,-0.014296352863311768
1772812467273411800,6.080411865234375,0.22255516052246094,-0.12771964073181152,-0.0396784245967865
1772812467283112400,6.090112548828125,0.14076519012451172,-0.08238112926483154,-0.0700979232788086
1772812467292813000,6.09981298828125,0.10740375518798828,0.005635976791381836,-0.09808827191591263
1772812467302513700,6.109513671875,0.06166839599609375,0.03434506058692932,-0.08324810862541199
1772812467312214300,6.11921435546875,-0.00208282470703125,0.01579985022544861,-0.0446721613407135
1772812467321915000,6.128914794921875,-0.04118156433105469,0.05830198526382446,0.0037232115864753723
1772812467331615500,6.138615478515625,-0.07370281219482422,0.11623948812484741,0.03968217968940735
1772812467341316000,6.148316162109375,-0.051512718200683594,0.08375221490859985,0.08284345269203186
1772812467351016700,6.1580166015625,-0.07203388214111328,0.06074321269989014,0.11292658746242523
1772812467360717300,6.16771728515625,-0.07689666748046875,0.03999495506286621,0.12120264768600464
1772812467370418000,6.17741796875,-0.022874832153320312,0.05448654294013977,0.11426204442977905
1772812467380118500,6.187118408203125,-0.056835174560546875,0.010511636734008789,0.09311194717884064
1772812467389819100,6.196819091796875,-0.06787300109863281,-0.041090816259384155,0.0834428071975708
1772812467399519700,6.206519775390625,-0.10695266723632812,-0.05869612097740173,0.04238778352737427
1772812467409220400,6.216220458984375,-0.12532901763916016,-0.03742256760597229,0.014370173215866089
1772812467418921000,6.2259208984375,-0.12569522857666016,-0.06127628684043884,-0.028944283723831177
1772812467428621800,6.235621826171875,-0.15305519104003906,-0.04813021421432495,-0.03861108422279358
1772812467438322400,6.245322509765625,-0.13167190551757812,-0.10588797926902771,-0.08247947692871094
1772812467448022800,6.255022705078125,-0.09648990631103516,-0.08776381611824036,-0.11267631500959396
1772812467457723400,6.264723388671875,-0.058348655700683594,-0.06493809819221497,-0.14730767905712128
1772812467467424000,6.274424072265625,-0.017304420471191406,-0.039928168058395386,-0.13534516096115112
1772812467477124600,6.28412451171875,0.012445449829101562,-0.05924898386001587,-0.126754030585289
1772812467486825500,6.293825439453125,0.06991386413574219,-0.0565948486328125,-0.11811719089746475
1772812467496526000,6.303526123046875,0.10403728485107422,-0.01384735107421875,-0.15554051101207733
1772812467506226700,6.313226806640625,0.09876155853271484,0.004328399896621704,-0.18124303221702576
1772812467515927300,6.32292724609375,0.06765556335449219,0.007524728775024414,-0.13034099340438843
1772812467525628000,6.3326279296875,0.05704021453857422,-0.006087183952331543,-0.08279892057180405
1772812467535328500,6.34232861328125,0.04069709777832031,0.004799962043762207,-0.03672073036432266
1772812467545029000,6.352029052734375,0.02695465087890625,0.004374802112579346,-0.03145526349544525
1772812467554729700,6.361729736328125,-0.041843414306640625,0.021630287170410156,-0.030352696776390076
1772812467564430300,6.371430419921875,-0.06943035125732422,0.032562464475631714,-0.05784803628921509
1772812467574131000,6.381130859375,-0.09062385559082031,0.050194740295410156,-0.034947723150253296
1772812467583831600,6.39083154296875,-0.1349468231201172,0.009874612092971802,0.006999783217906952
1772812467593532200,6.4005322265625,-0.10554313659667969,-0.007239967584609985,0.0859827771782875
1772812467603232800,6.410232666015625,-0.06366443634033203,-0.016226142644882202,0.14693275094032288
1772812467612933400,6.419933349609375,0.0033884048461914062,-0.0545729398727417,0.16990505158901215
1772812467622634000,6.429634033203125,0.03513908386230469,-0.060454100370407104,0.18776273727416992
1772812467632334600,6.43933447265625,0.08630943298339844,-0.05449375510215759,0.17918266355991364
1772812467642035200,6.44903515625,0.06129741668701172,-0.03436252474784851,0.10861903429031372
1772812467651735800,6.45873583984375,0.014340400695800781,0.0049537718296051025,0.0581064373254776
1772812467661436400,6.4684365234375,-0.07180213928222656,0.016926348209381104,0.010981589555740356
1772812467671137000,6.478136962890625,-0.12940216064453125,0.03196513652801514,-0.012230880558490753
1772812467680837600,6.487837646484375,-0.18124675750732422,0.04755815863609314,-0.016150139272212982
1772812467690538200,6.497538330078125,-0.14861583709716797,0.0553668737411499,0.029832392930984497
1772812467700238800,6.50723876953125,-0.07532119750976562,0.015899747610092163,0.04135233163833618
1772812467709939500,6.516939453125,-0.0538330078125,-0.0497286319732666,0.0429486483335495
1772812467719640000,6.52664013671875,0.06139564514160156,-0.050038039684295654,-0.03217730671167374
1772812467729340700,6.536340576171875,0.0852499008178711,-0.006583660840988159,-0.06129700690507889
1772812467739041300,6.546041259765625,0.18160152435302734,-0.0026422441005706787,-0.08695989847183228
1772812467748742000,6.555741943359375,0.1880321502685547,0.017275869846343994,-0.08154932409524918
1772812467758442500,6.5654423828125,0.1837024688720703,-0.010379999876022339,-0.014020167291164398
1772812467768143000,6.57514306640625,0.1911334991455078,0.04674842953681946,0.01593707501888275
1772812467777843700,6.58484375,0.17365550994873047,0.042451322078704834,0.03727932274341583
1772812467787544300,6.59454443359375,0.115264892578125,0.032915085554122925,0.05453518033027649
1772812467797245000,6.604244873046875,0.0648965835571289,0.0491294264793396,0.05156591534614563
1772812467806945800,6.61394580078125,-0.021066665649414062,0.0482424795627594,0.06056152284145355
1772812467816646400,6.623646484375,-0.0926065444946289,0.04729774594306946,0.04517720639705658
1772812467826347000,6.633346923828125,-0.16056251525878906,0.021534204483032227,0.03425408899784088
1772812467836047400,6.64304736328125,-0.18496990203857422,-0.020082473754882812,0.06344079971313477
1772812467845748000,6.652748046875,-0.16539955139160156,-0.005058974027633667,0.06787708401679993
1772812467855448600,6.662448486328125,-0.13436317443847656,-0.014714419841766357,0.07579238712787628
1772812467865149400,6.6721494140625,-0.0696868896484375,-0.0025346577167510986,0.11531643569469452
1772812467874850000,6.68185009765625,-0.05314350128173828,0.017969131469726562,0.10661894083023071
1772812467884550700,6.691550537109375,-0.02393817901611328,-0.023867279291152954,0.08302497863769531
1772812467894251300,6.701251220703125,0.03653526306152344,-0.006033986806869507,0.01308499276638031
1772812467903952000,6.710951904296875,0.08185100555419922,0.06625038385391235,-0.04945777356624603
1772812467913652500,6.720652587890625,0.11459827423095703,0.06892764568328857,-0.09430753439664841
1772812467923353000,6.73035302734375,0.11732101440429688,0.05795904994010925,-0.08580739051103592
1772812467933053700,6.7400537109375,0.07879924774169922,0.010938942432403564,-0.062440939247608185
1772812467942754300,6.74975439453125,0.02093791961669922,0.0003241002559661865,-0.03384998440742493
1772812467952455000,6.759454833984375,-0.03943920135498047,-0.031198233366012573,-0.03669925034046173
1772812467962155500,6.769155517578125,-0.07167530059814453,-0.016651034355163574,-0.05244552344083786
1772812467971856100,6.778856201171875,-0.04445838928222656,-0.02152380347251892,-0.1147623211145401
1772812467981556700,6.788556640625,-0.04115867614746094,-0.03552722930908203,-0.13606500625610352
1772812467991257300,6.79825732421875,-0.02610015869140625,-0.05187422037124634,-0.12997034192085266
1772812468000958000,6.8079580078125,0.045157432556152344,-0.04595199227333069,-0.043644294142723083
1772812468010658600,6.817658447265625,0.13395309448242188,-0.07384920120239258,0.017152860760688782
1772812468020359200,6.827359130859375,0.22698974609375,-0.10331729054450989,0.07958175987005234
1772812468030059800,6.837059814453125,0.2606849670410156,-0.064890056848526,0.06710951030254364
1772812468039760400,6.846760498046875,0.2560720443725586,0.012747436761856079,0.016678713262081146
1772812468049461000,6.8564609375,0.19031810760498047,0.058434635400772095,-0.05987589806318283
1772812468059161600,6.86616162109375,0.06450653076171875,0.09800150990486145,-0.1053173765540123
1772812468068862200,6.8758623046875,-0.016773223876953125,0.14117810130119324,-0.1195385530591011
1772812468078562800,6.885562744140625,-0.056616783142089844,0.16918686032295227,-0.07006309181451797
1772812468088263400,6.895263427734375,-0.058129310607910156,0.10922321677207947,-0.027110479772090912
1772812468097964000,6.904964111328125,-0.06548881530761719,0.05876624584197998,0.037605151534080505
1772812468107664600,6.91466455078125,-0.059795379638671875,0.061661213636398315,0.051131173968315125
1772812468117365200,6.924365234375,-0.0789031982421875,0.06180945038795471,0.04913053661584854
1772812468127065900,6.93406591796875,-0.12119007110595703,0.04949057102203369,0.0757298469543457
1772812468136766500,6.943766357421875,-0.12509727478027344,0.027492403984069824,0.10679763555526733
1772812468146467000,6.953467041015625,-0.1712493896484375,-0.032901614904403687,0.11715622246265411
1772812468156167700,6.963167724609375,-0.13073062896728516,-0.018530219793319702,0.12865912914276123
1772812468165868300,6.972868408203125,-0.032052040100097656,0.03359094262123108,0.11449283361434937
1772812468175569000,6.98256884765625,0.017867088317871094,-0.004502207040786743,0.0857597216963768
1772812468185269500,6.99226953125,0.012799263000488281,-0.04284316301345825,0.0668446347117424
1772812468194970400,7.001970458984375,0.07719707489013672,-0.008622467517852783,0.046024978160858154
1772812468204670700,7.011670654296875,0.03224658966064453,0.004205524921417236,0.0046586692333221436
1772812468214371300,7.021371337890625,-0.02725982666015625,-0.06906479597091675,-0.02209288626909256
1772812468224072000,7.031072021484375,-0.08571910858154297,-0.052571624517440796,-0.03465908765792847
1772812468233772500,7.0407724609375,-0.07373523712158203,0.012914061546325684,-0.060905374586582184
1772812468243473200,7.05047314453125,-0.07250118255615234,0.017933636903762817,-0.07105831801891327
1772812468253174000,7.060174072265625,-0.07128524780273438,0.013426452875137329,-0.02142280340194702
1772812468262874600,7.06987451171875,-0.04539775848388672,-0.032557278871536255,-0.005896896123886108
1772812468272575200,7.0795751953125,-0.045821189880371094,-0.015337973833084106,-0.024555444717407227
1772812468282275800,7.08927587890625,-0.06621074676513672,0.00942540168762207,-0.032864730805158615
1772812468291976200,7.09897607421875,-0.00033473968505859375,0.002470254898071289,-0.04688984528183937
1772812468301676800,7.1086767578125,0.032683372497558594,0.014113306999206543,-0.10488109290599823
1772812468311377700,7.118377685546875,-0.0077972412109375,0.016098201274871826,-0.04734485596418381
1772812468321078300,7.128078369140625,0.04886341094970703,-0.024385064840316772,-0.012938126921653748
1772812468330779000,7.13777880859375,0.044548988342285156,-0.015204846858978271,-0.0028120502829551697
1772812468340479500,7.1474794921875,0.08144664764404297,-0.02094632387161255,0.03497007489204407
1772812468350180000,7.15718017578125,0.0988607406616211,-0.009936302900314331,0.05243535339832306
1772812468359880700,7.166880615234375,0.11827278137207031,-0.040499746799468994,0.047646962106227875
1772812468369581300,7.176581298828125,0.07964420318603516,-0.037854015827178955,0.05801834166049957
1772812468379282000,7.186281982421875,0.01808643341064453,-0.02812427282333374,0.05039485543966293
1772812468388982500,7.195982421875,-0.01421356201171875,-0.023778587579727173,0.03276919573545456
1772812468398683100,7.20568310546875,-0.0835866928100586,-0.008608758449554443,-0.002663351595401764
1772812468408383700,7.2153837890625,-0.16821002960205078,0.033690690994262695,0.026042215526103973
1772812468418084400,7.22508447265625,-0.2113037109375,0.02760988473892212,0.016683429479599
1772812468427785000,7.234784912109375,-0.2664804458618164,0.06278753280639648,-0.018990986049175262
1772812468437485600,7.244485595703125,-0.24294471740722656,0.07621404528617859,-0.06786277890205383
1772812468447186200,7.254186279296875,-0.1879405975341797,0.09521424770355225,-0.0896141529083252
1772812468456886800,7.26388671875,-0.0703134536743164,0.04482969641685486,-0.051245056092739105
1772812468466587400,7.27358740234375,0.03235912322998047,-0.00730443000793457,-0.02538195252418518
1772812468476288000,7.2832880859375,0.18970298767089844,-0.014031708240509033,-0.003065645694732666
1772812468485988600,7.292988525390625,0.25017547607421875,-0.008550524711608887,-0.0029591023921966553
1772812468495689200,7.302689208984375,0.24363327026367188,-0.008002758026123047,0.03455313295125961
1772812468505389800,7.312389892578125,0.200653076171875,-0.005467891693115234,0.03560500591993332
1772812468515090400,7.32209033203125,0.16896533966064453,0.001329272985458374,-0.022454485297203064
1772812468524791000,7.331791015625,0.09662151336669922,0.04104563593864441,-0.0620848573744297
1772812468534491600,7.34149169921875,0.01256561279296875,0.03496140241622925,-0.05529991537332535
1772812468544192300,7.351192138671875,-0.0018367767333984375,-0.03054174780845642,-0.04952865466475487
1772812468553892900,7.360892822265625,-0.02070140838623047,-0.012603610754013062,-0.03008967638015747
1772812468563593500,7.370593505859375,-0.049823760986328125,-0.030147075653076172,-0.02723982185125351
1772812468573294000,7.380294189453125,-0.11371898651123047,-0.0362701416015625,-0.04918048530817032
1772812468582994700,7.38999462890625,-0.18001365661621094,-0.0057145655155181885,-0.0809873640537262
1772812468592695300,7.3996953125,-0.19689083099365234,0.004749298095703125,-0.0882333293557167
1772812468602396000,7.40939599609375,-0.18635082244873047,0.01318463683128357,-0.05685209482908249
1772812468612096500,7.419096435546875,-0.14418315887451172,0.012051165103912354,-0.013844504952430725
1772812468631498000,7.438498046875,0.0245361328125,-0.035754770040512085,0.048914775252342224
1772812468641198300,7.4481982421875,0.10074138641357422,0.012702614068984985,0.03532963991165161
1772812468650899000,7.45789892578125,0.11797618865966797,0.020198464393615723,0.004760637879371643
1772812468660599600,7.467599609375,0.11017417907714844,0.022880852222442627,-0.041353389620780945
1772812468670300200,7.477300048828125,0.08831024169921875,0.02041187882423401,-0.0725782960653305
1772812468680000800,7.487000732421875,0.03146553039550781,-0.04600489139556885,-0.10285884886980057
1772812468689701600,7.49670166015625,0.12142562866210938,-0.05834361910820007,-0.15481749176979065
1772812468699402200,7.50640234375,0.042794227600097656,-0.018505841493606567,-0.16777591407299042
1772812468709102800,7.516102783203125,0.06899452209472656,-0.05752047896385193,-0.18016524612903595
1772812468718803500,7.525803466796875,0.07007980346679688,-0.010561168193817139,-0.15196657180786133
1772812468728503800,7.53550390625,0.02764606475830078,-0.0019181668758392334,-0.11602072417736053
1772812468738204400,7.545204345703125,-0.012792587280273438,0.022901952266693115,-0.03902117908000946
1772812468747905000,7.554905029296875,-0.06891822814941406,0.10141262412071228,0.026047617197036743
1772812468757606000,7.56460595703125,-0.048691749572753906,0.14785343408584595,0.07097236812114716
1772812468767306500,7.574306396484375,0.06295490264892578,0.13719147443771362,0.1848880648612976
1772812468777007000,7.584007080078125,0.12201881408691406,0.06746196746826172,0.3142479658126831
1772812468786707700,7.593707763671875,0.21288299560546875,0.09598809480667114,0.3005000948905945
1772812468796408300,7.603408203125,0.29030323028564453,0.08173900842666626,0.2633773684501648
