time,seconds_elapsed,z,y,x
1772812392326017500,0.087017578125,-0.04558578506112099,-0.021456625312566757,-0.083306685090065
1772812392335718100,0.09671826171875,-0.04436405375599861,-0.016569707542657852,-0.12301289290189743
1772812392345419000,0.1064189453125,-0.04222602769732475,-0.005574141163378954,-0.15233440697193146
1772812392355119600,0.11611962890625,-0.0397825688123703,-0.008017600513994694,-0.16699515283107758
1772812392364820500,0.125820556640625,-0.02848157100379467,0.007864884100854397,-0.16363540291786194
1772812392374521300,0.135521240234375,-0.01718057133257389,0.02802342176437378,-0.15111267566680908
1772812392384222000,0.145221923828125,-0.01565340906381607,0.05062541738152504,-0.13339759409427643
1772812392393922800,0.1549228515625,-0.0077121676877141,0.05154171586036682,-0.11049016565084457
1772812392403623400,0.16462353515625,0.0057268571108579636,0.01977674663066864,-0.07933606207370758
1772812392413324300,0.17432421875,0.02741255611181259,-0.0009926552884280682,-0.04696023091673851
1772812392423025000,0.18402490234375,0.05948295816779137,-0.01565340906381607,-0.02283107116818428
1772812392432725800,0.193725830078125,0.08483384549617767,-0.010461059398949146,-0.006337722297757864
1772812392442426400,0.20342626953125,0.06772962957620621,-0.029703300446271896,-0.007254019379615784
1772812392452127200,0.213127197265625,0.04696023091673851,-0.03000873140990734,-0.015195261687040329
1772812392461827800,0.222827880859375,0.025274530053138733,-0.0009926552884280682,-0.021914774551987648
1772812392471528700,0.23252880859375,0.008170315995812416,0.008170315995812416,-0.033826638013124466
1772812392481229300,0.242229248046875,0.00022907429956831038,0.00755945174023509,-0.04298960790038109
1772812392490930200,0.25193017578125,-0.0031306820455938578,0.013973532244563103,-0.04024071618914604
1772812392500630800,0.261630859375,-0.0016035200096666813,0.015806125476956367,-0.02649625949561596
1772812392510331600,0.27133154296875,0.006337722297757864,0.015500693581998348,-0.0029779658652842045
1772812392520032300,0.2810322265625,0.00847574882209301,0.01611155830323696,0.02176205813884735
1772812392529733000,0.290733154296875,0.00511599238961935,0.014278964139521122,0.04283689334988594
1772812392539434000,0.30043408203125,0.005421424750238657,0.014278964139521122,0.0602465383708477
1772812392549134600,0.310134521484375,0.009086613543331623,0.009086613543331623,0.07215840369462967
1772812392558835500,0.31983544921875,0.012446369975805283,-0.005574141163378954,0.07154753804206848
1772812392568536000,0.3295361328125,0.017027854919433594,-0.019929463043808937,0.055970486253499985
1772812392578236700,0.339236572265625,0.02496909722685814,-0.021151192486286163,0.03428478538990021
1772812392587937500,0.3489375,0.033826638013124466,-0.015958841890096664,0.010461059398949146
1772812392597638100,0.35863818359375,0.03474293276667595,-0.014126247726380825,-0.01030834298580885
1772812392607339000,0.368339111328125,0.028634287416934967,0.002672533504664898,-0.020387612283229828
1772812392617040000,0.378039794921875,0.020998476073145866,0.01763872057199478,-0.017027854919433594
1772812392626740500,0.387740478515625,0.012140937149524689,0.015195261687040329,-0.005421424750238657
1772812392636441300,0.39744140625,0.0057268571108579636,-0.0009926552884280682,0.01107192412018776
1772812392646142000,0.407141845703125,0.007254019379615784,-0.021456625312566757,0.025121813639998436
1772812392655842800,0.4168427734375,0.012446369975805283,-0.037033677101135254,0.03245219215750694
1772812392665543400,0.42654345703125,0.01763872057199478,-0.043142326176166534,0.028176138177514076
1772812392675244300,0.436244384765625,0.0191658828407526,-0.03733910992741585,0.013820815831422806
1772812392684945000,0.44594482421875,0.018860450014472008,-0.019929463043808937,-0.004199695307761431
1772812392694645800,0.455645751953125,0.013057234697043896,0.002061668550595641,-0.017333287745714188
1772812392704346400,0.465346435546875,0.006337722297757864,0.016416991129517555,-0.02649625949561596
1772812392714047200,0.475047119140625,0.0029779658652842045,0.015195261687040329,-0.0243582334369421
1772812392723747800,0.484747802734375,0.00847574882209301,-0.010766491293907166,-0.013668099418282509
1772812392733448700,0.49444873046875,0.01672242395579815,-0.03917170315980911,-0.0017562361899763346
1772812392743149300,0.5041494140625,0.019471315667033195,-0.051389001309871674,0.009850194677710533
1772812392752850200,0.51385009765625,0.015195261687040329,-0.03886627033352852,0.014431680552661419
1772812392762550800,0.52355078125,-0.0006872228696011007,-0.013209951110184193,0.019624030217528343
1772812392772251600,0.533251708984375,-0.011682788841426373,0.003894262947142124,0.021151192486286163
1772812392781952500,0.542952392578125,-0.016875140368938446,0.01824958436191082,0.026038112118840218
1772812392791653000,0.552653076171875,-0.016569707542657852,0.021914774551987648,0.03214675933122635
1772812392801354000,0.56235400390625,-0.01259908638894558,0.01000291109085083,0.03550651669502258
1772812392811054600,0.5720546875,-0.013820815831422806,-0.002825249684974551,0.033368486911058426
1772812392820755500,0.58175537109375,-0.016875140368938446,-0.003741546766832471,0.023594651371240616
1772812392830456000,0.5914560546875,-0.016875140368938446,0.002672533504664898,0.007101302966475487
1772812392840156700,0.60115673828125,-0.011682788841426373,0.006337722297757864,-0.011530072428286076
1772812392849857500,0.610857421875,-0.003741546766832471,0.003283398225903511,-0.027717988938093185
1772812392859558100,0.62055810546875,0.0066431546583771706,-0.004657844081521034,-0.03871355578303337
1772812392869259000,0.630259033203125,0.015195261687040329,-0.014126247726380825,-0.042073313146829605
1772812392878959900,0.6399599609375,0.022220205515623093,-0.02176205813884735,-0.03779725730419159
1772812392888660500,0.649660400390625,0.020693045109510422,-0.022067490965127945,-0.0243582334369421
1772812392898361300,0.659361328125,0.014278964139521122,-0.01718057133257389,-0.0057268571108579636
1772812392908062000,0.66906201171875,0.009697478264570236,-0.012293653562664986,0.010155626572668552
1772812392917762800,0.6787626953125,0.008781181648373604,-0.010461059398949146,0.021456625312566757
1772812392927463400,0.68846337890625,0.01030834298580885,-0.010461059398949146,0.025732679292559624
1772812392937164300,0.698164306640625,0.015500693581998348,-0.0034361144062131643,0.024205517023801804
1772812392946865000,0.707864990234375,0.021914774551987648,0.0029779658652842045,0.01779143698513508
1772812392956565800,0.717565673828125,0.02588539570569992,0.00022907429956831038,0.008323032408952713
1772812392966266400,0.727266357421875,0.023441936820745468,-0.0016035200096666813,0.0012980876490473747
1772812392975967200,0.73696728515625,0.012751801870763302,0.00603228947147727,0.004352411720901728
1772812392985667800,0.746667724609375,0.003283398225903511,0.011224640533328056,0.011377356946468353
1772812392995368700,0.75636865234375,-0.0012980876490473747,0.004199695307761431,0.015347977168858051
1772812393005069300,0.7660693359375,-0.00007635809743078426,-0.009850194677710533,0.014737112447619438
1772812393014770200,0.775770263671875,0.00847574882209301,-0.00923932995647192,0.007406735327094793
1772812393024470800,0.785470703125,0.010919207707047462,0.0029779658652842045,0.00038179047987796366
1772812393034171600,0.795171630859375,0.002672533504664898,0.009697478264570236,-0.0023671009112149477
1772812393043872500,0.80487255859375,-0.005574141163378954,0.0029779658652842045,0.0019089524867013097
1772812393053573000,0.814572998046875,-0.005574141163378954,-0.01779143698513508,0.004352411720901728
1772812393063274000,0.82427392578125,0.004199695307761431,-0.028787001967430115,0.00038179047987796366
1772812393072974600,0.833974609375,0.019471315667033195,-0.026648975908756256,-0.007254019379615784
1772812393082675500,0.843675537109375,0.027107125148177147,-0.022678354755043983,-0.01977674663066864
1772812393092376000,0.8533759765625,0.03107774630188942,-0.013209951110184193,-0.03168861195445061
1772812393102076700,0.86307666015625,0.0322994738817215,-0.0009926552884280682,-0.0322994738817215
1772812393111777500,0.872777587890625,0.02496909722685814,0.001450803829357028,-0.025274530053138733
1772812393121478100,0.88247802734375,0.013057234697043896,-0.004963276442140341,-0.011530072428286076
1772812393131179000,0.892178955078125,0.007864884100854397,-0.011682788841426373,-0.0005345066892914474
1772812393140880000,0.9018798828125,0.00847574882209301,-0.014126247726380825,0.0034361144062131643
1772812393150580500,0.91158056640625,0.011530072428286076,-0.010461059398949146,0.0031306820455938578
1772812393160281300,0.92128125,0.017027854919433594,-0.00954476185142994,-0.006948587018996477
1772812393169982000,0.93098193359375,0.018860450014472008,-0.008017600513994694,-0.017333287745714188
1772812393179682800,0.940682861328125,0.0191658828407526,0.002061668550595641,-0.02283107116818428
1772812393189383400,0.950383544921875,0.014889828860759735,0.014584396965801716,-0.02130390889942646
1772812393199084300,0.960084228515625,0.00755945174023509,0.01977674663066864,-0.01030834298580885
1772812393208785000,0.969784912109375,0.0005345066892914474,0.013668099418282509,0.003741546766832471
1772812393218485800,0.97948583984375,-0.004046979360282421,0.006337722297757864,0.01870773360133171
1772812393228186400,0.989186279296875,-0.004352411720901728,-0.008323032408952713,0.022983787581324577
1772812393237887200,0.99888720703125,-0.0006872228696011007,-0.02084576152265072,0.02176205813884735
1772812393247587800,1.008587890625,0.006337722297757864,-0.027259841561317444,0.01107192412018776
1772812393257288700,1.018288818359375,0.014584396965801716,-0.02084576152265072,-0.004199695307761431
1772812393266989300,1.0279892578125,0.02130390889942646,-0.0016035200096666813,-0.015195261687040329
1772812393276690200,1.037690185546875,0.01672242395579815,0.020693045109510422,-0.013973532244563103
1772812393286390800,1.047390869140625,0.00755945174023509,0.027107125148177147,-0.007254019379615784
1772812393296091600,1.057091552734375,0.0057268571108579636,0.018860450014472008,0.004963276442140341
1772812393305792500,1.06679248046875,0.012446369975805283,0.004810560029000044,0.016875140368938446
1772812393315493000,1.0764931640625,0.019471315667033195,-0.0019089524867013097,0.026038112118840218
1772812393325194000,1.086194091796875,0.015500693581998348,-0.005574141163378954,0.033979352563619614
1772812393334894600,1.09589453125,0.004199695307761431,-0.007101302966475487,0.0345902182161808
1772812393344595500,1.105595458984375,-0.00679587060585618,-0.009850194677710533,0.024510949850082397
1772812393354296000,1.115296142578125,-0.01565340906381607,-0.011988221667706966,0.005574141163378954
1772812393363996700,1.12499658203125,-0.013209951110184193,-0.004352411720901728,-0.01183550525456667
1772812393373697500,1.134697509765625,-0.0034361144062131643,0.0066431546583771706,-0.023441936820745468
1772812393383398100,1.144398193359375,0.006337722297757864,0.008781181648373604,-0.02649625949561596
1772812393393099000,1.15409912109375,0.010919207707047462,0.008170315995812416,-0.020693045109510422
1772812393402799900,1.1637998046875,0.014889828860759735,0.004810560029000044,-0.01000291109085083
1772812393412500500,1.17350048828125,0.015500693581998348,-0.0009926552884280682,0.0012980876490473747
1772812393422201300,1.183201416015625,0.009392046369612217,-0.006185005884617567,0.00923932995647192
1772812393431902000,1.19290185546875,0.0066431546583771706,-0.008017600513994694,0.0077121676877141
1772812393441602800,1.202602783203125,0.012751801870763302,0.005421424750238657,0.004963276442140341
1772812393451303400,1.212303466796875,0.017333287745714188,0.015806125476956367,0.006185005884617567
1772812393470705000,1.231704833984375,0.00847574882209301,0.0035888305865228176,0.021151192486286163
1772812393480405800,1.24140576171875,-0.00038179047987796366,-0.007406735327094793,0.02909243479371071
1772812393490106400,1.2511064453125,-0.007101302966475487,-0.018402300775051117,0.031230462715029716
1772812393499807200,1.26080712890625,-0.013209951110184193,-0.014737112447619438,0.026648975908756256
1772812393509507800,1.2705078125,-0.015958841890096664,-0.008933897130191326,0.007101302966475487
1772812393519208700,1.280208740234375,-0.011988221667706966,-0.0006872228696011007,-0.015500693581998348
1772812393528909300,1.289909423828125,-0.005574141163378954,0.015806125476956367,-0.03413207083940506
1772812393538610200,1.299610107421875,-0.0058795735239982605,0.023747367784380913,-0.04176788032054901
1772812393548310800,1.309310791015625,-0.01259908638894558,0.022220205515623093,-0.033826638013124466
1772812393558011600,1.31901171875,-0.01718057133257389,0.013057234697043896,-0.0191658828407526
1772812393567712500,1.32871240234375,-0.01870773360133171,0.006337722297757864,0.002825249684974551
1772812393577413000,1.3384130859375,-0.0193185992538929,0.002061668550595641,0.015958841890096664
1772812393587114000,1.348114013671875,-0.018096869811415672,0.0023671009112149477,0.022067490965127945
1772812393596814600,1.357814697265625,-0.013209951110184193,0.00603228947147727,0.0193185992538929
1772812393606515500,1.367515380859375,-0.004046979360282421,0.004810560029000044,0.01107192412018776
1772812393616216000,1.377216064453125,0.002061668550595641,0.0017562361899763346,0.002825249684974551
1772812393625916700,1.386916748046875,0.004199695307761431,0.00511599238961935,0.00038179047987796366
1772812393635617500,1.396617431640625,0.007864884100854397,0.002672533504664898,0.0025198173243552446
1772812393645318100,1.406318115234375,0.011224640533328056,-0.00923932995647192,0.002825249684974551
1772812393655019000,1.41601904296875,0.01763872057199478,-0.012293653562664986,0.008628465235233307
1772812393664720000,1.425719970703125,0.020998476073145866,-0.01565340906381607,0.007406735327094793
1772812393674420500,1.43542041015625,0.021609341725707054,-0.010766491293907166,0.0009926552884280682
1772812393684121300,1.445121337890625,0.017027854919433594,0.006337722297757864,-0.0029779658652842045
1772812393693822000,1.454822021484375,0.009086613543331623,0.023441936820745468,-0.002061668550595641
1772812393703522800,1.464522705078125,-0.0022143847309052944,0.021914774551987648,0.00679587060585618
1772812393713223400,1.474223388671875,-0.007406735327094793,0.006948587018996477,0.01626427471637726
1772812393722924300,1.48392431640625,-0.0006872228696011007,-0.0009926552884280682,0.022067490965127945
1772812393732625000,1.493625,0.008781181648373604,-0.00038179047987796366,0.021151192486286163
1772812393742325800,1.50332568359375,0.012140937149524689,-0.0058795735239982605,0.01107192412018776
1772812393752026400,1.5130263671875,0.011224640533328056,-0.012293653562664986,-0.0011453714687377214
1772812393761727200,1.522727294921875,0.014584396965801716,-0.008323032408952713,-0.01611155830323696
1772812393771427800,1.532427734375,0.020998476073145866,-0.004046979360282421,-0.02741255611181259
1772812393781128700,1.542128662109375,0.022525638341903687,-0.012293653562664986,-0.0319940410554409
1772812393790829300,1.551829345703125,0.020387612283229828,-0.01870773360133171,-0.03107774630188942
1772812393800530200,1.5615302734375,0.020387612283229828,-0.008933897130191326,-0.020693045109510422
1772812393810230800,1.571230712890625,0.020387612283229828,-0.0012980876490473747,-0.009392046369612217
1772812393819931600,1.580931640625,0.01672242395579815,-0.0058795735239982605,-0.0011453714687377214
1772812393829632300,1.59063232421875,0.017944153398275375,-0.011377356946468353,0.0019089524867013097
1772812393839333000,1.6003330078125,0.025579962879419327,0.012140937149524689,0.00679587060585618
1772812393849033700,1.61003369140625,0.028328854590654373,0.04512763395905495,0.022678354755043983
1772812393858734600,1.619734619140625,0.012140937149524689,0.043600473552942276,0.049250971525907516
1772812393868435500,1.629435546875,-0.007406735327094793,0.014584396965801716,0.07124210149049759
1772812393878136000,1.639135986328125,-0.013820815831422806,-0.01779143698513508,0.0758235901594162
1772812393887836700,1.648836669921875,-0.006490438245236874,-0.03428478538990021,0.05688678100705147
1772812393897537500,1.65853759765625,0.006337722297757864,-0.029397867619991302,0.01565340906381607
1772812393907238100,1.668238037109375,0.023747367784380913,-0.002825249684974551,-0.022220205515623093
1772812393916939000,1.67793896484375,0.03504836559295654,0.027717988938093185,-0.04146244749426842
1772812393926639600,1.6876396484375,0.034437503665685654,0.0295505840331316,-0.043600473552942276
1772812393936340500,1.697340576171875,0.02649625949561596,0.00603228947147727,-0.02130390889942646
1772812393946041000,1.707041015625,0.018555017188191414,-0.03367391973733902,0.0025198173243552446
1772812393955742000,1.716741943359375,0.01183550525456667,-0.06452259421348572,0.019013166427612305
1772812393975143400,1.736143310546875,0.015806125476956367,-0.05413788929581642,-0.011224640533328056
1772812393984844300,1.74584423828125,0.02130390889942646,-0.00923932995647192,-0.03932442143559456
1772812393994545000,1.755544921875,0.0191658828407526,0.03474293276667595,-0.0524580143392086
1772812394004245800,1.765245849609375,0.01030834298580885,0.045738499611616135,-0.04940368980169296
1772812394013946400,1.7749462890625,0.0011453714687377214,0.028634287416934967,-0.03107774630188942
1772812394023647000,1.78464697265625,-0.007101302966475487,0.003283398225903511,-0.004199695307761431
1772812394033347800,1.794347900390625,-0.01107192412018776,-0.0058795735239982605,0.02390008419752121
1772812394043048400,1.80404833984375,-0.014431680552661419,-0.002825249684974551,0.04405862092971802
1772812394052749300,1.813749267578125,-0.01870773360133171,0.000839939049910754,0.0501672700047493
1772812394062450200,1.8234501953125,-0.021456625312566757,-0.0006872228696011007,0.043753188103437424
1772812394072150800,1.83315087890625,-0.01565340906381607,0.00022907429956831038,0.028787001967430115
1772812394081851600,1.8428515625,-0.006490438245236874,0.003283398225903511,0.010155626572668552
1772812394091552300,1.85255224609375,0.002672533504664898,0.00511599238961935,-0.004810560029000044
1772812394101253000,1.862253173828125,0.009697478264570236,0.008781181648373604,-0.015806125476956367
1772812394110953700,1.87195361328125,0.015806125476956367,0.014584396965801716,-0.020693045109510422
1772812394120654600,1.881654541015625,0.01611155830323696,0.009697478264570236,-0.014584396965801716
1772812394130355200,1.891355224609375,0.014584396965801716,-0.005268708802759647,-0.006337722297757864
1772812394140056000,1.90105615234375,0.014889828860759735,-0.020540328696370125,-0.0011453714687377214
1772812394149756700,1.910756591796875,0.01824958436191082,-0.019929463043808937,0.002825249684974551
1772812394159457500,1.92045751953125,0.021914774551987648,-0.007406735327094793,0.007101302966475487
1772812394169158100,1.930158203125,0.017333287745714188,-0.009850194677710533,0.011988221667706966
1772812394178859000,1.93985888671875,0.00847574882209301,-0.018402300775051117,0.012293653562664986
1772812394188559600,1.9495595703125,0.009392046369612217,-0.01107192412018776,0.004963276442140341
1772812394198260500,1.959260498046875,0.01763872057199478,-0.00007635809743078426,-0.0017562361899763346
1772812394207961000,1.968961181640625,0.013362666592001915,0.002061668550595641,-0.008170315995812416
1772812394217662000,1.978661865234375,0.0005345066892914474,0.009697478264570236,-0.010613775812089443
1772812394227362600,1.988362548828125,-0.007101302966475487,0.03107774630188942,-0.0035888305865228176
1772812394237063400,1.9980634765625,-0.008017600513994694,0.029856016859412193,0.008628465235233307
1772812394246764000,2.007763916015625,-0.00923932995647192,0.003894262947142124,0.019929463043808937
1772812394256465000,2.01746484375,-0.0034361144062131643,-0.01259908638894558,0.02909243479371071
1772812394266165500,2.02716552734375,0.006948587018996477,-0.014737112447619438,0.03214675933122635
1772812394275866400,2.036866455078125,0.011530072428286076,-0.017486004158854485,0.02756527252495289
1772812394285567000,2.04656689453125,0.010919207707047462,-0.022678354755043983,0.013820815831422806
1772812394295267800,2.056267822265625,0.011224640533328056,-0.019624030217528343,-0.007254019379615784
1772812394304968400,2.065968505859375,0.013057234697043896,0.004810560029000044,-0.02741255611181259
1772812394314669300,2.07566943359375,0.009697478264570236,0.03260490670800209,-0.029856016859412193
1772812394324370000,2.085369873046875,0.0005345066892914474,0.03565923124551773,-0.012751801870763302
1772812394334070800,2.09507080078125,-0.004963276442140341,0.013362666592001915,0.01626427471637726
1772812394343771400,2.104771484375,-0.005574141163378954,-0.020540328696370125,0.039477135986089706
1772812394353472300,2.11447216796875,0.00511599238961935,-0.028787001967430115,0.05413788929581642
1772812394363172900,2.1241728515625,0.012140937149524689,-0.008933897130191326,0.05474875494837761
1772812394372873700,2.133873779296875,0.000839939049910754,0.02588539570569992,0.04802924394607544
1772812394382574600,2.14357470703125,-0.02695440873503685,0.04329504072666168,0.041004300117492676
1772812394392275200,2.153275146484375,-0.052916161715984344,0.037491824477910995,0.03306305781006813
1772812394401976000,2.16297607421875,-0.05658135190606117,0.017027854919433594,0.017486004158854485
1772812394411676700,2.1726767578125,-0.041004300117492676,-0.0022143847309052944,0.0022143847309052944
1772812394421377500,2.18237744140625,-0.01779143698513508,-0.013515383005142212,-0.00847574882209301
1772812394431078100,2.192078125,-0.00038179047987796366,-0.017486004158854485,-0.010613775812089443
1772812394440778800,2.20177880859375,0.005421424750238657,-0.018096869811415672,-0.00755945174023509
1772812394450479600,2.211479736328125,0.006948587018996477,-0.012904518283903599,-0.00022907429956831038
1772812394460180200,2.22118017578125,0.009086613543331623,-0.01259908638894558,0.004352411720901728
1772812394469881000,2.230881103515625,0.009392046369612217,-0.00954476185142994,0.007101302966475487
1772812394479581700,2.240581787109375,0.01763872057199478,0.012751801870763302,0.014431680552661419
1772812394489282600,2.250282470703125,0.020693045109510422,0.01611155830323696,0.026648975908756256
1772812394498983400,2.2599833984375,0.01000291109085083,-0.0019089524867013097,0.03428478538990021
1772812394508684000,2.26968408203125,0.000839939049910754,-0.010461059398949146,0.04039343446493149
1772812394518385000,2.279385009765625,-0.0022143847309052944,-0.006185005884617567,0.04253146052360535
1772812394528085500,2.28908544921875,-0.00038179047987796366,0.000839939049910754,0.041615162044763565
1772812394537786400,2.298786376953125,0.0029779658652842045,-0.004046979360282421,0.03245219215750694
1772812394547487000,2.308487060546875,0.0057268571108579636,-0.010155626572668552,0.014431680552661419
1772812394557187800,2.318187744140625,0.008170315995812416,-0.01107192412018776,-0.006948587018996477
1772812394566888400,2.327888427734375,0.006948587018996477,-0.004046979360282421,-0.024663666263222694
1772812394576589000,2.337589111328125,-0.003741546766832471,0.00511599238961935,-0.03474293276667595
1772812394595990500,2.356990478515625,-0.03764454275369644,0.017027854919433594,-0.02588539570569992
1772812394605691400,2.36669140625,-0.04955640435218811,0.015806125476956367,-0.009086613543331623
1772812394615392300,2.376392333984375,-0.05688678100705147,0.006948587018996477,0.0077121676877141
1772812394625092900,2.3860927734375,-0.05658135190606117,-0.0006872228696011007,0.02084576152265072
1772812394634793700,2.395793701171875,-0.046196650713682175,-0.0022143847309052944,0.02328922040760517
1772812394644494300,2.405494384765625,-0.03611737862229347,0.0011453714687377214,0.017486004158854485
1772812394654195200,2.4151953125,-0.02695440873503685,0.008170315995812416,0.010155626572668552
1772812394663895800,2.424895751953125,-0.01718057133257389,0.014584396965801716,0.002825249684974551
1772812394673596700,2.4345966796875,-0.0077121676877141,0.013057234697043896,0.0022143847309052944
1772812394683297300,2.44429736328125,-0.0016035200096666813,0.003283398225903511,0.004657844081521034
1772812394692998100,2.453998046875,0.004810560029000044,-0.010766491293907166,0.007406735327094793
1772812394712399600,2.473399658203125,0.009697478264570236,-0.03550651669502258,0.00954476185142994
1772812394722100200,2.483100341796875,0.012751801870763302,-0.03917170315980911,0.004657844081521034
1772812394731800800,2.49280078125,0.017027854919433594,-0.03000873140990734,0.003741546766832471
1772812394741501700,2.502501708984375,0.021609341725707054,-0.026038112118840218,0.0019089524867013097
1772812394751202600,2.51220263671875,0.02130390889942646,-0.030314164236187935,0.004657844081521034
1772812394760903200,2.521903076171875,0.019471315667033195,-0.03306305781006813,0.010461059398949146
1772812394770604000,2.53160400390625,0.019471315667033195,-0.03153589367866516,0.015347977168858051
1772812394780304600,2.5413046875,0.017944153398275375,-0.02328922040760517,0.0193185992538929
1772812394790005500,2.551005615234375,0.014278964139521122,-0.011988221667706966,0.02084576152265072
1772812394799706000,2.5607060546875,0.007864884100854397,0.00022907429956831038,0.024510949850082397
1772812394809407000,2.570406982421875,-0.003741546766832471,0.00603228947147727,0.026343543082475662
1772812394819107600,2.580107666015625,-0.011988221667706966,0.00603228947147727,0.029703300446271896
1772812394828808400,2.589808349609375,-0.01779143698513508,-0.002825249684974551,0.030925029888749123
1772812394838509000,2.599509033203125,-0.0193185992538929,-0.01107192412018776,0.03061959706246853
1772812394848210000,2.6092099609375,-0.016875140368938446,-0.015958841890096664,0.02695440873503685
1772812394857910500,2.61891064453125,-0.016569707542657852,-0.0193185992538929,0.019624030217528343
1772812394867611400,2.628611328125,-0.014737112447619438,-0.017486004158854485,0.011377356946468353
1772812394877312000,2.63831201171875,-0.013515383005142212,-0.01779143698513508,0.004352411720901728
1772812394887012900,2.648012939453125,-0.00954476185142994,-0.019013166427612305,0.0006872228696011007
1772812394896713500,2.65771337890625,-0.00679587060585618,-0.012904518283903599,-0.001450803829357028
1772812394906414300,2.667414306640625,-0.005268708802759647,-0.0025198173243552446,-0.002672533504664898
1772812394916115000,2.677114990234375,-0.008323032408952713,0.008781181648373604,-0.003894262947142124
1772812394925815800,2.68681591796875,-0.015042545273900032,0.017027854919433594,-0.0029779658652842045
1772812394935516400,2.696516357421875,-0.02084576152265072,0.014584396965801716,-0.0023671009112149477
1772812394945217300,2.70621728515625,-0.015042545273900032,0.00755945174023509,0.00038179047987796366
1772812394954918000,2.71591796875,-0.0009926552884280682,-0.0006872228696011007,0.005574141163378954
1772812394964618800,2.72561865234375,0.014584396965801716,-0.007101302966475487,0.008628465235233307
1772812394974319400,2.7353193359375,0.02802342176437378,-0.00679587060585618,0.00679587060585618
1772812394984020200,2.745020263671875,0.03260490670800209,-0.01107192412018776,0.004963276442140341
1772812394993720800,2.754720947265625,0.030161447823047638,-0.014126247726380825,-0.0011453714687377214
1772812395003421700,2.764421630859375,0.022220205515623093,-0.008628465235233307,-0.007254019379615784
1772812395013122300,2.774122314453125,0.01183550525456667,-0.0025198173243552446,-0.014889828860759735
1772812395022823200,2.7838232421875,0.0066431546583771706,0.003283398225903511,-0.019471315667033195
1772812395032523800,2.793523681640625,0.003283398225903511,0.0023671009112149477,-0.020998476073145866
1772812395042224600,2.803224609375,-0.0022143847309052944,-0.0025198173243552446,-0.020998476073145866
1772812395051925200,2.81292529296875,-0.008628465235233307,-0.008628465235233307,-0.020387612283229828
1772812395061626000,2.822626220703125,-0.018402300775051117,-0.010766491293907166,-0.020387612283229828
1772812395071326700,2.83232666015625,-0.029703300446271896,-0.0058795735239982605,-0.01977674663066864
1772812395081027600,2.842027587890625,-0.04130972921848297,0.004505127668380737,-0.020387612283229828
1772812395090728200,2.851728271484375,-0.05352702736854553,0.014889828860759735,-0.020693045109510422
1772812395100429000,2.861428955078125,-0.06330086290836334,0.028328854590654373,-0.015195261687040329
1772812395110129700,2.871129638671875,-0.06757691502571106,0.03504836559295654,-0.007864884100854397
1772812395119830500,2.88083056640625,-0.06666062027215958,0.03260490670800209,-0.0017562361899763346
1772812395129531400,2.890531494140625,-0.059024810791015625,0.028634287416934967,0.009850194677710533
1772812395139232000,2.90023193359375,-0.05261072888970375,0.015806125476956367,0.02023489587008953
1772812395148932600,2.9099326171875,-0.04802924394607544,0.003894262947142124,0.026343543082475662
1772812395158633500,2.919633544921875,-0.043753188103437424,0.000839939049910754,0.02542724646627903
1772812395168334000,2.929333984375,-0.04069886729121208,0.003283398225903511,0.020540328696370125
1772812395178035000,2.939034912109375,-0.03550651669502258,0.00511599238961935,0.012904518283903599
1772812395187735600,2.948735595703125,-0.02756527252495289,0.01030834298580885,0.0022143847309052944
1772812395197436400,2.9584365234375,-0.016875140368938446,0.014889828860759735,-0.009086613543331623
1772812395207137000,2.968136962890625,-0.0077121676877141,0.007864884100854397,-0.0191658828407526
1772812395216838000,2.977837890625,0.0017562361899763346,-0.0034361144062131643,-0.02496909722685814
1772812395226538500,2.98753857421875,0.009392046369612217,-0.008323032408952713,-0.022220205515623093
1772812395236239400,2.9972392578125,0.0066431546583771706,-0.014126247726380825,-0.016416991129517555
1772812395245940000,3.00693994140625,0.00022907429956831038,-0.010461059398949146,-0.01000291109085083
1772812395255640800,3.016640869140625,-0.0025198173243552446,0.007254019379615784,-0.0005345066892914474
1772812395265341400,3.026341552734375,-0.004352411720901728,0.01611155830323696,0.0077121676877141
1772812395275042300,3.036042236328125,-0.004963276442140341,0.014584396965801716,0.015958841890096664
1772812395284743000,3.045742919921875,0.0017562361899763346,0.01030834298580885,0.02176205813884735
1772812395294443800,3.05544384765625,0.00755945174023509,0.008170315995812416,0.026648975908756256
1772812395304144400,3.065144287109375,0.003283398225903511,0.006948587018996477,0.03000873140990734
1772812395313845200,3.07484521484375,-0.0077121676877141,0.004505127668380737,0.033979352563619614
1772812395323545900,3.0845458984375,-0.01565340906381607,-0.00038179047987796366,0.03061959706246853
1772812395333246700,3.094246826171875,-0.016875140368938446,-0.0058795735239982605,0.023594651371240616
1772812395342947300,3.103947265625,-0.017486004158854485,-0.007406735327094793,0.010461059398949146
1772812395352648200,3.113648193359375,-0.017486004158854485,-0.004352411720901728,-0.007254019379615784
1772812395362348800,3.123348876953125,-0.01565340906381607,0.000839939049910754,-0.030161447823047638
1772812395372049700,3.133049560546875,-0.003741546766832471,0.009697478264570236,-0.04909825697541237
1772812395381750300,3.142750244140625,0.008781181648373604,0.015806125476956367,-0.05520690605044365
1772812395391451100,3.152451171875,0.009697478264570236,0.010613775812089443,-0.043600473552942276
1772812395401151700,3.16215185546875,-0.00038179047987796366,-0.00038179047987796366,-0.022525638341903687
1772812395410852600,3.1718525390625,-0.00923932995647192,-0.0031306820455938578,0.0016035200096666813
1772812395420553500,3.181553466796875,-0.016569707542657852,-0.0012980876490473747,0.019929463043808937
1772812395430254000,3.191254150390625,-0.02084576152265072,-0.00923932995647192,0.023594651371240616
1772812395439954700,3.20095458984375,-0.014126247726380825,-0.022983787581324577,0.013209951110184193
1772812395449655600,3.210655517578125,0.00603228947147727,-0.028176138177514076,-0.00603228947147727
1772812395459356200,3.220356201171875,0.030772313475608826,-0.027870705351233482,-0.02893971838057041
1772812395469057000,3.23005712890625,0.04818195849657059,-0.02237292192876339,-0.05154171586036682
1772812395478757600,3.239757568359375,0.048792824149131775,-0.013209951110184193,-0.06528617441654205
1772812395488458500,3.24945849609375,0.03932442143559456,-0.0031306820455938578,-0.06711876392364502
1772812395498159000,3.2591591796875,0.025274530053138733,0.009697478264570236,-0.04909825697541237
1772812395507860000,3.26885986328125,0.013057234697043896,0.009392046369612217,-0.015195261687040329
1772812395517560600,3.278560546875,0.006337722297757864,-0.004352411720901728,0.02542724646627903
1772812395527261400,3.288261474609375,0.01183550525456667,-0.019013166427612305,0.05994110554456711
1772812395536962000,3.297962158203125,0.021914774551987648,-0.029397867619991302,0.07918334752321243
1772812395546663000,3.307662841796875,0.027717988938093185,-0.030314164236187935,0.07887791097164154
1772812395556363500,3.317363525390625,0.024663666263222694,-0.014431680552661419,0.06635518372058868
1772812395566064400,3.327064453125,0.013973532244563103,0.011224640533328056,0.0501672700047493
1772812395575765000,3.336764892578125,-0.002825249684974551,0.02741255611181259,0.03306305781006813
1772812395585465900,3.3464658203125,-0.016875140368938446,0.03352120518684387,0.022678354755043983
1772812395595166500,3.35616650390625,-0.022678354755043983,0.02649625949561596,0.012293653562664986
1772812395604867300,3.365867431640625,-0.022067490965127945,0.010613775812089443,0.003741546766832471
1772812395614568000,3.37556787109375,-0.02084576152265072,-0.0012980876490473747,-0.006337722297757864
1772812395624268800,3.385268798828125,-0.018096869811415672,-0.00679587060585618,-0.017333287745714188
1772812395633969400,3.394969482421875,-0.01626427471637726,-0.007101302966475487,-0.0322994738817215
1772812395643670300,3.404670166015625,-0.014431680552661419,-0.004046979360282421,-0.04482220485806465
1772812395653371000,3.414370849609375,-0.014126247726380825,0.004199695307761431,-0.050930850207805634
1772812395663071700,3.42407177734375,-0.02023489587008953,0.02588539570569992,-0.04329504072666168
1772812395672772400,3.4337724609375,-0.027259841561317444,0.04848739132285118,-0.02130390889942646
1772812395682473200,3.44347314453125,-0.03275762498378754,0.05612320080399513,0.009850194677710533
1772812395692173800,3.453173828125,-0.030925029888749123,0.04176788032054901,0.04069886729121208
1772812395701874700,3.462874755859375,-0.02176205813884735,0.011530072428286076,0.06604975461959839
1772812395711575300,3.4725751953125,-0.006490438245236874,-0.01565340906381607,0.07399099320173264
1772812395721276200,3.482276123046875,0.011224640533328056,-0.028787001967430115,0.0654388889670372
1772812395730976800,3.491976806640625,0.023136503994464874,-0.03061959706246853,0.03886627033352852
1772812395740677600,3.501677734375,0.02893971838057041,-0.013515383005142212,0.007406735327094793
1772812395750378200,3.511378173828125,0.029245151206851006,0.012140937149524689,-0.020387612283229828
1772812395760079000,3.5210791015625,0.02649625949561596,0.03321577236056328,-0.0319940410554409
1772812395769779700,3.53077978515625,0.01763872057199478,0.030161447823047638,-0.028328854590654373
1772812395779480600,3.54048046875,0.008781181648373604,0.01000291109085083,-0.012751801870763302
1772812395789181200,3.55018115234375,0.004810560029000044,-0.006185005884617567,0.006185005884617567
1772812395798882000,3.559882080078125,0.005421424750238657,-0.014126247726380825,0.02176205813884735
1772812395808582700,3.569582763671875,0.007254019379615784,-0.006490438245236874,0.026648975908756256
1772812395818283500,3.579283447265625,0.009086613543331623,0.010613775812089443,0.024205517023801804
1772812395827984100,3.588984130859375,0.006948587018996477,0.015195261687040329,0.01779143698513508
1772812395837685000,3.59868505859375,0.00603228947147727,0.00603228947147727,0.008017600513994694
1772812395847385600,3.608385498046875,0.007254019379615784,-0.008017600513994694,0.0022143847309052944
1772812395857086500,3.61808642578125,0.003283398225903511,-0.02023489587008953,-0.00847574882209301
1772812395866787000,3.627787109375,-0.004657844081521034,-0.015042545273900032,-0.015500693581998348
1772812395876488000,3.637488037109375,-0.01718057133257389,-0.0031306820455938578,-0.024663666263222694
1772812395886188500,3.6471884765625,-0.024205517023801804,0.005421424750238657,-0.030772313475608826
1772812395895889400,3.656889404296875,-0.022983787581324577,0.004505127668380737,-0.034437503665685654
1772812395905590000,3.666590087890625,-0.02084576152265072,0.0023671009112149477,-0.0322994738817215
1772812395915290600,3.67629052734375,-0.021456625312566757,0.00511599238961935,-0.028328854590654373
1772812395924991500,3.685991455078125,-0.024205517023801804,0.015500693581998348,-0.020387612283229828
1772812395934692400,3.6956923828125,-0.02909243479371071,0.024663666263222694,-0.009697478264570236
1772812395944393000,3.70539306640625,-0.028787001967430115,0.019471315667033195,-0.001450803829357028
1772812395954093800,3.71509375,-0.020540328696370125,0.006948587018996477,0.008017600513994694
1772812395963794400,3.72479443359375,-0.002825249684974551,-0.0034361144062131643,0.017486004158854485
1772812395973495300,3.734495361328125,0.014584396965801716,-0.006490438245236874,0.024510949850082397
1772812395983196000,3.74419580078125,0.02893971838057041,0.00022907429956831038,0.031841326504945755
1772812395992896800,3.753896728515625,0.03657552972435951,0.0023671009112149477,0.036422811448574066
1772812396002597400,3.763597412109375,0.03565923124551773,0.002672533504664898,0.04069886729121208
1772812396012298200,3.77329833984375,0.03474293276667595,-0.004657844081521034,0.038560837507247925
1772812396021998800,3.782998779296875,0.039018988609313965,-0.011377356946468353,0.03367391973733902
1772812396031699700,3.79269970703125,0.047265663743019104,-0.008628465235233307,0.029703300446271896
1772812396041400300,3.802400390625,0.04940368980169296,0.002672533504664898,0.025121813639998436
1772812396051101200,3.81210107421875,0.042073313146829605,0.0066431546583771706,0.021151192486286163
1772812396060801800,3.8218017578125,0.030772313475608826,-0.0022143847309052944,0.013515383005142212
1772812396070502400,3.83150244140625,0.020998476073145866,-0.013515383005142212,0.0016035200096666813
1772812396080203300,3.841203369140625,0.014584396965801716,-0.015958841890096664,-0.013973532244563103
1772812396089903900,3.85090380859375,0.010919207707047462,-0.011377356946468353,-0.030772313475608826
1772812396099604700,3.860604736328125,0.0066431546583771706,-0.0012980876490473747,-0.04451677203178406
1772812396109305300,3.870305419921875,-0.0012980876490473747,0.012751801870763302,-0.04634936526417732
1772812396119006200,3.880006103515625,-0.013515383005142212,0.013362666592001915,-0.04024071618914604
1772812396128706800,3.889706787109375,-0.024205517023801804,0.003283398225903511,-0.025274530053138733
1772812396138407700,3.89940771484375,-0.028787001967430115,-0.004963276442140341,-0.012751801870763302
1772812396148108500,3.909108642578125,-0.026038112118840218,-0.010766491293907166,-0.0057268571108579636
1772812396157809200,3.91880908203125,-0.02176205813884735,-0.009850194677710533,-0.007864884100854397
1772812396167510000,3.928510009765625,-0.0193185992538929,-0.0009926552884280682,-0.013362666592001915
1772812396177210600,3.938210693359375,-0.015958841890096664,0.008170315995812416,-0.020082179456949234
1772812396186911500,3.947911376953125,-0.012904518283903599,0.013057234697043896,-0.020082179456949234
1772812396196612000,3.957612060546875,-0.010766491293907166,0.008781181648373604,-0.011224640533328056
1772812396206312700,3.967312744140625,-0.008933897130191326,-0.002825249684974551,-0.000839939049910754
1772812396216013600,3.977013671875,-0.006490438245236874,-0.010461059398949146,0.00923932995647192
1772812396225714200,3.986714111328125,-0.004046979360282421,-0.008628465235233307,0.015347977168858051
1772812396235415000,3.9964150390625,-0.0031306820455938578,0.004199695307761431,0.015347977168858051
1772812396245115600,4.00611572265625,0.001450803829357028,0.015500693581998348,0.014431680552661419
1772812396254816500,4.01581640625,0.01000291109085083,0.009697478264570236,0.010766491293907166
1772812396264517000,4.02551708984375,0.019471315667033195,-0.0058795735239982605,0.008628465235233307
1772812396274218000,4.035218017578125,0.02893971838057041,-0.016569707542657852,0.009850194677710533
1772812396283918600,4.044918701171875,0.029245151206851006,-0.019624030217528343,0.01107192412018776
1772812396293619500,4.054619384765625,0.026801692321896553,-0.016569707542657852,0.00679587060585618
1772812396303320000,4.064320068359375,0.02130390889942646,-0.00923932995647192,0.0058795735239982605
1772812396313021000,4.07402099609375,0.015195261687040329,-0.00007635809743078426,0.004963276442140341
1772812396322721500,4.083721435546875,0.004199695307761431,0.004810560029000044,0.005574141163378954
1772812396332422400,4.09342236328125,-0.008933897130191326,0.00022907429956831038,0.005268708802759647
1772812396342123000,4.103123046875,-0.01779143698513508,0.006337722297757864,0.007101302966475487
1772812396351824000,4.112823974609375,-0.016875140368938446,0.014584396965801716,0.008323032408952713
1772812396361524500,4.1225244140625,-0.010766491293907166,0.01000291109085083,0.01107192412018776
1772812396371225300,4.132225341796875,-0.007406735327094793,-0.0034361144062131643,0.008017600513994694
1772812396380926000,4.141926025390625,-0.004657844081521034,-0.011988221667706966,0.0009926552884280682
1772812396390626800,4.151626708984375,0.003894262947142124,-0.008323032408952713,-0.007254019379615784
1772812396400327400,4.161327392578125,0.014584396965801716,-0.0077121676877141,-0.012140937149524689
1772812396410028300,4.1710283203125,0.020082179456949234,-0.010461059398949146,-0.017333287745714188
1772812396419729000,4.18072900390625,0.023747367784380913,-0.0034361144062131643,-0.0191658828407526
1772812396429429800,4.1904296875,0.0243582334369421,0.002061668550595641,-0.016416991129517555
1772812396439130400,4.20013037109375,0.01672242395579815,-0.007101302966475487,-0.008781181648373604
1772812396448831200,4.209831298828125,0.0035888305865228176,-0.015042545273900032,0.00007635809743078426
1772812396458531800,4.21953173828125,-0.0006872228696011007,-0.014737112447619438,0.00038179047987796366
1772812396468232700,4.229232666015625,0.00511599238961935,-0.005574141163378954,-0.0005345066892914474
1772812396477933300,4.238933349609375,0.013668099418282509,0.0005345066892914474,-0.0017562361899763346
1772812396487634200,4.24863427734375,0.01611155830323696,0.0035888305865228176,-0.0035888305865228176
1772812396497334800,4.258334716796875,0.020998476073145866,0.008781181648373604,0.0009926552884280682
1772812396507035600,4.26803564453125,0.02649625949561596,0.0005345066892914474,0.009850194677710533
1772812396516736300,4.277736328125,0.028328854590654373,-0.00954476185142994,0.0193185992538929
1772812396526437000,4.28743701171875,0.030161447823047638,-0.010766491293907166,0.024510949850082397
1772812396536137700,4.2971376953125,0.0319940410554409,-0.0019089524867013097,0.030925029888749123
1772812396545838300,4.30683837890625,0.02741255611181259,0.0023671009112149477,0.033368486911058426
1772812396555539200,4.316539306640625,0.020998476073145866,0.00022907429956831038,0.034895651042461395
1772812396565239800,4.32623974609375,0.020082179456949234,-0.008323032408952713,0.02756527252495289
1772812396574940700,4.335940673828125,0.021914774551987648,-0.01565340906381607,0.016875140368938446
1772812396584641300,4.345641357421875,0.023747367784380913,-0.019929463043808937,0.004046979360282421
1772812396594342100,4.355342041015625,0.024663666263222694,-0.015347977168858051,-0.008170315995812416
1772812396604042800,4.365042724609375,0.022220205515623093,-0.010766491293907166,-0.01977674663066864
1772812396613743600,4.37474365234375,0.015195261687040329,-0.004657844081521034,-0.024052800610661507
1772812396623444200,4.3844443359375,0.003894262947142124,0.0005345066892914474,-0.023747367784380913
1772812396633145000,4.39414501953125,-0.00679587060585618,0.0057268571108579636,-0.017333287745714188
1772812396642846000,4.403845947265625,-0.012904518283903599,0.003283398225903511,-0.008170315995812416
1772812396652546600,4.413546630859375,-0.014431680552661419,-0.0012980876490473747,-0.002672533504664898
1772812396662247400,4.423247314453125,-0.010766491293907166,-0.00038179047987796366,-0.0011453714687377214
1772812396671948000,4.432947998046875,-0.007406735327094793,0.00022907429956831038,-0.0029779658652842045
1772812396681648600,4.442648681640625,-0.0031306820455938578,-0.0031306820455938578,-0.008170315995812416
1772812396691349500,4.452349609375,-0.0022143847309052944,-0.008323032408952713,-0.015500693581998348
1772812396701050000,4.462050048828125,-0.004657844081521034,-0.011682788841426373,-0.019471315667033195
1772812396710751000,4.4717509765625,-0.0019089524867013097,-0.012904518283903599,-0.023441936820745468
1772812396720451600,4.48145166015625,0.008781181648373604,-0.016875140368938446,-0.026801692321896553
1772812396730152400,4.49115234375,0.024052800610661507,-0.025732679292559624,-0.03138317912817001
1772812396739853000,4.50085302734375,0.03932442143559456,-0.028787001967430115,-0.03168861195445061
1772812396749554000,4.510553955078125,0.04818195849657059,-0.018402300775051117,-0.024052800610661507
1772812396759254500,4.520254638671875,0.044211339205503464,-0.006490438245236874,-0.002672533504664898
1772812396768955400,4.529955322265625,0.028634287416934967,-0.0022143847309052944,0.027870705351233482
1772812396778656000,4.539656005859375,0.01183550525456667,-0.0016035200096666813,0.05688678100705147
1772812396788356900,4.54935693359375,-0.0012980876490473747,-0.003741546766832471,0.0758235901594162
1772812396798057500,4.559057373046875,-0.00923932995647192,-0.0031306820455938578,0.08193223923444748
1772812396807758300,4.56875830078125,-0.011377356946468353,0.0011453714687377214,0.06788235157728195
1772812396817459000,4.578458984375,-0.008628465235233307,0.00755945174023509,0.04039343446493149
1772812396827159800,4.588159912109375,-0.005268708802759647,0.01611155830323696,0.00954476185142994
1772812396836860400,4.5978603515625,-0.007406735327094793,0.01763872057199478,-0.01763872057199478
1772812396846561300,4.607561279296875,-0.01259908638894558,0.015195261687040329,-0.03627009689807892
1772812396856262000,4.617261962890625,-0.01626427471637726,0.0066431546583771706,-0.04451677203178406
1772812396865962500,4.62696240234375,-0.015958841890096664,-0.0025198173243552446,-0.03962985426187515
1772812396875663400,4.636663330078125,-0.01870773360133171,-0.015042545273900032,-0.030772313475608826
1772812396885364000,4.646364013671875,-0.023594651371240616,-0.019013166427612305,-0.024663666263222694
1772812396895064800,4.65606494140625,-0.024816380813717842,-0.010766491293907166,-0.020387612283229828
1772812396904765400,4.665765380859375,-0.024510949850082397,0.00022907429956831038,-0.01672242395579815
1772812396914466300,4.67546630859375,-0.025121813639998436,0.00603228947147727,-0.009697478264570236
1772812396924167000,4.6851669921875,-0.026038112118840218,0.009697478264570236,0.00038179047987796366
1772812396933867800,4.69486767578125,-0.02848157100379467,0.012140937149524689,0.013209951110184193
1772812396943568400,4.704568359375,-0.03214675933122635,0.006948587018996477,0.023594651371240616
1772812396953269200,4.714269287109375,-0.034895651042461395,0.00022907429956831038,0.028176138177514076
1772812396962970000,4.72397021484375,-0.03581194952130318,-0.0006872228696011007,0.02237292192876339
1772812396972670700,4.733670654296875,-0.03245219215750694,0.000839939049910754,0.008628465235233307
1772812396982371600,4.74337158203125,-0.022067490965127945,0.006337722297757864,-0.007864884100854397
1772812396992072200,4.753072265625,-0.010766491293907166,0.009086613543331623,-0.015195261687040329
1772812397001773000,4.76277294921875,-0.004963276442140341,0.003894262947142124,-0.017333287745714188
1772812397011473700,4.7724736328125,-0.00038179047987796366,-0.004046979360282421,-0.01030834298580885
1772812397021174300,4.78217431640625,0.0011453714687377214,-0.0077121676877141,0.0058795735239982605
1772812397030875100,4.791875244140625,-0.003741546766832471,-0.01107192412018776,0.026038112118840218
1772812397040575700,4.80157568359375,-0.011988221667706966,-0.013209951110184193,0.04344775900244713
1772812397050276600,4.811276611328125,-0.01779143698513508,-0.004657844081521034,0.051389001309871674
1772812397059977200,4.820977294921875,-0.019624030217528343,0.008781181648373604,0.05199986323714256
1772812397069678000,4.830677978515625,-0.01565340906381607,0.01000291109085083,0.043753188103437424
1772812397079378700,4.840378662109375,-0.012293653562664986,0.003283398225903511,0.030314164236187935
1772812397089079600,4.85007958984375,-0.008933897130191326,-0.0034361144062131643,0.015958841890096664
1772812397098780200,4.8597802734375,-0.005574141163378954,-0.009850194677710533,0.00007635809743078426
1772812397108481000,4.86948095703125,-0.005268708802759647,-0.013820815831422806,-0.013057234697043896
1772812397118181600,4.879181640625,-0.00954476185142994,-0.016875140368938446,-0.023441936820745468
1772812397127882500,4.888882568359375,-0.01626427471637726,-0.00679587060585618,-0.030772313475608826
1772812397137583000,4.8985830078125,-0.02542724646627903,0.009086613543331623,-0.028634287416934967
1772812397147284000,4.908283935546875,-0.034895651042461395,0.00847574882209301,-0.023747367784380913
1772812397156984600,4.917984619140625,-0.038560837507247925,0.000839939049910754,-0.017944153398275375
1772812397166685400,4.927685546875,-0.03520108386874199,-0.008323032408952713,-0.013057234697043896
1772812397176386000,4.937385986328125,-0.027259841561317444,-0.010461059398949146,-0.008781181648373604
1772812397186087000,4.9470869140625,-0.021456625312566757,-0.005268708802759647,-0.0005345066892914474
1772812397195787500,4.95678759765625,-0.01718057133257389,0.000839939049910754,0.004657844081521034
1772812397205488000,4.966488037109375,-0.011988221667706966,0.007254019379615784,0.008933897130191326
1772812397215189000,4.97618896484375,-0.007101302966475487,0.007864884100854397,0.013515383005142212
1772812397224889600,4.9858896484375,-0.007406735327094793,0.005421424750238657,0.013515383005142212
1772812397234590500,4.995590576171875,-0.008628465235233307,0.0057268571108579636,0.01107192412018776
1772812397244291000,5.005291015625,-0.0077121676877141,0.0023671009112149477,0.0034361144062131643
1772812397253992000,5.014991943359375,-0.00038179047987796366,-0.0034361144062131643,-0.006948587018996477
1772812397263692500,5.024692626953125,0.009697478264570236,-0.008323032408952713,-0.011530072428286076
1772812397273393400,5.034393310546875,0.015806125476956367,-0.009850194677710533,-0.010613775812089443
1772812397283094000,5.044093994140625,0.012751801870763302,-0.003741546766832471,-0.005421424750238657
1772812397292795000,5.053794921875,0.00511599238961935,-0.0012980876490473747,0.0031306820455938578
1772812397302495500,5.06349560546875,-0.004046979360282421,-0.0031306820455938578,0.008628465235233307
1772812397312196400,5.0731962890625,-0.015958841890096664,-0.004046979360282421,0.011988221667706966
1772812397321897000,5.08289697265625,-0.026038112118840218,-0.0034361144062131643,0.00954476185142994
1772812397331597800,5.092597900390625,-0.02756527252495289,-0.00007635809743078426,0.0031306820455938578
1772812397341298400,5.10229833984375,-0.023594651371240616,0.000839939049910754,-0.0035888305865228176
1772812397350999300,5.111999267578125,-0.015958841890096664,0.006337722297757864,-0.00755945174023509
1772812397360700000,5.121699951171875,-0.013515383005142212,0.012446369975805283,-0.008781181648373604
1772812397370400800,5.13140087890625,-0.015347977168858051,0.0066431546583771706,-0.004810560029000044
1772812397380101400,5.141101318359375,-0.01565340906381607,-0.0058795735239982605,-0.002061668550595641
1772812397389802200,5.15080224609375,-0.012904518283903599,-0.007406735327094793,-0.0023671009112149477
1772812397399502800,5.1605029296875,-0.009850194677710533,-0.004963276442140341,-0.0057268571108579636
1772812397409203700,5.17020361328125,-0.005574141163378954,-0.0031306820455938578,-0.011530072428286076
1772812397418904300,5.179904296875,-0.0006872228696011007,-0.0019089524867013097,-0.013362666592001915
1772812397428605200,5.189605224609375,0.0017562361899763346,-0.00007635809743078426,-0.012140937149524689
1772812397438305800,5.199305908203125,0.003283398225903511,-0.0016035200096666813,-0.0057268571108579636
1772812397448006700,5.209006591796875,0.0005345066892914474,-0.01107192412018776,-0.002061668550595641
1772812397457707300,5.218707275390625,-0.005268708802759647,-0.01718057133257389,-0.0005345066892914474
1772812397467408100,5.228408203125,-0.01107192412018776,-0.015042545273900032,-0.003894262947142124
1772812397477108700,5.238108642578125,-0.014126247726380825,-0.00923932995647192,-0.018860450014472008
1772812397486809600,5.2478095703125,-0.008933897130191326,-0.0019089524867013097,-0.029856016859412193
1772812397496510200,5.25751025390625,0.003894262947142124,0.0029779658652842045,-0.039018988609313965
1772812397506211000,5.267211181640625,0.017944153398275375,0.00603228947147727,-0.040546149015426636
1772812397515911700,5.27691162109375,0.026801692321896553,0.005421424750238657,-0.0319940410554409
1772812397525612300,5.2866123046875,0.0243582334369421,-0.0019089524867013097,-0.01672242395579815
1772812397535313200,5.296313232421875,0.01824958436191082,-0.008628465235233307,0.003741546766832471
1772812397545013800,5.306013671875,0.013973532244563103,-0.00954476185142994,0.02084576152265072
1772812397554714600,5.315714599609375,0.015806125476956367,-0.01107192412018776,0.03153589367866516
1772812397564415200,5.325415283203125,0.020998476073145866,-0.01259908638894558,0.03275762498378754
1772812397574116000,5.3351162109375,0.024663666263222694,-0.013209951110184193,0.026343543082475662
1772812397583816700,5.344816650390625,0.023747367784380913,-0.008628465235233307,0.014126247726380825
1772812397593517600,5.354517578125,0.023136503994464874,0.0017562361899763346,0.0012980876490473747
1772812397603218200,5.36421826171875,0.019471315667033195,0.0066431546583771706,-0.005421424750238657
1772812397612919000,5.3739189453125,0.01030834298580885,0.00511599238961935,-0.010613775812089443
1772812397622619600,5.38361962890625,0.002061668550595641,0.008170315995812416,-0.012751801870763302
1772812397632320500,5.393320556640625,-0.0022143847309052944,0.006337722297757864,-0.012140937149524689
1772812397642021000,5.403021240234375,-0.0031306820455938578,-0.0034361144062131643,-0.006948587018996477
1772812397651722000,5.412721923828125,-0.0019089524867013097,-0.018402300775051117,-0.00847574882209301
1772812397661422600,5.422422607421875,0.0035888305865228176,-0.024205517023801804,-0.013973532244563103
1772812397671123500,5.43212353515625,0.007254019379615784,-0.019929463043808937,-0.024663666263222694
1772812397680824000,5.441823974609375,0.007864884100854397,-0.0077121676877141,-0.03779725730419159
1772812397690525000,5.45152490234375,0.006337722297757864,0.007864884100854397,-0.04787652567028999
1772812397700225500,5.4612255859375,0.0017562361899763346,0.017027854919433594,-0.04787652567028999
1772812397709926100,5.470926025390625,-0.005574141163378954,0.017333287745714188,-0.03413207083940506
1772812397719627000,5.480626953125,-0.008933897130191326,0.001450803829357028,-0.013057234697043896
1772812397729327600,5.49032763671875,-0.00679587060585618,-0.0193185992538929,0.00679587060585618
1772812397739028500,5.500028564453125,0.0005345066892914474,-0.026343543082475662,0.018402300775051117
1772812397748729000,5.50972900390625,0.010919207707047462,-0.018402300775051117,0.01718057133257389
1772812397758430000,5.519429931640625,0.015500693581998348,-0.004963276442140341,0.008323032408952713
1772812397768130600,5.529130615234375,0.017027854919433594,0.003894262947142124,-0.0023671009112149477
1772812397777831400,5.53883154296875,0.017027854919433594,0.012446369975805283,-0.009086613543331623
1772812397787532000,5.548531982421875,0.014278964139521122,0.019471315667033195,-0.0029779658652842045
1772812397797233000,5.55823291015625,0.009086613543331623,0.01000291109085083,0.010766491293907166
1772812397806933500,5.56793359375,0.0029779658652842045,-0.008017600513994694,0.02390008419752121
1772812397816634400,5.57763427734375,0.0023671009112149477,-0.012904518283903599,0.02909243479371071
1772812397826335000,5.5873349609375,0.006337722297757864,-0.004352411720901728,0.02237292192876339
1772812397836035800,5.597035888671875,0.008170315995812416,0.00603228947147727,0.012904518283903599
1772812397845736400,5.606736328125,0.004810560029000044,0.0057268571108579636,0.0016035200096666813
1772812397855437300,5.616437255859375,0.000839939049910754,0.0011453714687377214,-0.008170315995812416
1772812397865138000,5.626137939453125,-0.0012980876490473747,0.004505127668380737,-0.010919207707047462
1772812397874838800,5.6358388671875,-0.008628465235233307,0.009086613543331623,-0.006948587018996477
1772812397884539400,5.645539306640625,-0.014126247726380825,0.004810560029000044,0.00007635809743078426
1772812397894240000,5.655239990234375,-0.01107192412018776,-0.00007635809743078426,0.0006872228696011007
1772812397913641500,5.674641357421875,0.006337722297757864,-0.004657844081521034,-0.0023671009112149477
1772812397923342300,5.68434228515625,0.004199695307761431,-0.008017600513994694,-0.009392046369612217
1772812397933043000,5.69404296875,0.00022907429956831038,-0.007101302966475487,-0.01763872057199478
1772812397942743800,5.703743896484375,0.0023671009112149477,0.002061668550595641,-0.01824958436191082
1772812397952444400,5.7134443359375,0.00511599238961935,0.00603228947147727,-0.013668099418282509
1772812397962145300,5.723145263671875,0.005421424750238657,0.008170315995812416,-0.00847574882209301
1772812397971846000,5.732845947265625,0.002061668550595641,0.018860450014472008,0.0019089524867013097
1772812397981546800,5.742546630859375,-0.009850194677710533,0.018860450014472008,0.015347977168858051
1772812397991247400,5.752247314453125,-0.025121813639998436,0.004810560029000044,0.02084576152265072
1772812398000948200,5.7619482421875,-0.03000873140990734,-0.00954476185142994,0.014126247726380825
1772812398010648800,5.77164892578125,-0.0193185992538929,-0.00954476185142994,-0.000839939049910754
1772812398020349700,5.781349609375,-0.005268708802759647,0.003283398225903511,-0.014889828860759735
1772812398030050300,5.79105029296875,0.003283398225903511,0.015806125476956367,-0.023441936820745468
1772812398039751200,5.800751220703125,0.003894262947142124,0.01672242395579815,-0.021914774551987648
1772812398049451800,5.81045166015625,-0.00007635809743078426,0.009086613543331623,-0.015806125476956367
1772812398059152600,5.820152587890625,-0.006185005884617567,-0.0006872228696011007,-0.0066431546583771706
1772812398068853200,5.829853271484375,-0.0077121676877141,-0.008323032408952713,-0.000839939049910754
1772812398078553900,5.839553955078125,-0.004046979360282421,-0.010155626572668552,0.004046979360282421
1772812398088254700,5.849254638671875,0.0011453714687377214,-0.015042545273900032,0.0019089524867013097
1772812398097955300,5.858955322265625,0.007254019379615784,-0.011682788841426373,-0.002672533504664898
1772812398107656200,5.86865625,0.01183550525456667,-0.0031306820455938578,-0.01000291109085083
1772812398117356800,5.878356689453125,0.013362666592001915,0.00603228947147727,-0.016416991129517555
1772812398127057700,5.8880576171875,0.006948587018996477,0.012751801870763302,-0.014584396965801716
1772812398136758300,5.89775830078125,-0.0058795735239982605,0.015500693581998348,-0.009392046369612217
1772812398146459100,5.907459228515625,-0.01779143698513508,0.007254019379615784,0.0009926552884280682
1772812398156159700,5.91715966796875,-0.024205517023801804,-0.003741546766832471,0.0058795735239982605
1772812398165860600,5.926860595703125,-0.01779143698513508,-0.005268708802759647,0.004963276442140341
1772812398175561200,5.936561279296875,-0.007406735327094793,0.0057268571108579636,0.00038179047987796366
1772812398185262000,5.946261962890625,-0.0025198173243552446,0.015195261687040329,-0.00511599238961935
1772812398194962700,5.955962646484375,-0.003741546766832471,0.015500693581998348,-0.01030834298580885
1772812398204663600,5.96566357421875,-0.0058795735239982605,0.013668099418282509,-0.01030834298580885
1772812398214364200,5.9753642578125,-0.0009926552884280682,0.004505127668380737,-0.009392046369612217
1772812398224065000,5.98506494140625,0.007864884100854397,-0.005268708802759647,-0.007864884100854397
1772812398233765600,5.994765625,0.022220205515623093,-0.019013166427612305,-0.005421424750238657
1772812398243466500,6.004466552734375,0.03871355578303337,-0.026343543082475662,0.00038179047987796366
1772812398262867700,6.02386767578125,0.050930850207805634,-0.022983787581324577,-0.00022907429956831038
1772812398272568600,6.033568603515625,0.04298960790038109,-0.007101302966475487,-0.006337722297757864
1772812398282269200,6.043269287109375,0.03138317912817001,0.002672533504664898,-0.01030834298580885
1772812398291970000,6.052969970703125,0.01824958436191082,0.00603228947147727,-0.007254019379615784
1772812398301670700,6.062670654296875,0.007254019379615784,0.009086613543331623,0.0012980876490473747
1772812398311371500,6.07237158203125,0.0057268571108579636,0.007864884100854397,0.007101302966475487
1772812398321072000,6.082072021484375,0.01030834298580885,-0.0025198173243552446,0.010461059398949146
1772812398330773000,6.09177294921875,0.013057234697043896,-0.015958841890096664,0.010766491293907166
1772812398340473600,6.1014736328125,0.00847574882209301,-0.011682788841426373,0.007406735327094793
1772812398350174500,6.111174560546875,0.0011453714687377214,0.002061668550595641,-0.0005345066892914474
1772812398359875000,6.120875,-0.009850194677710533,0.012446369975805283,-0.009392046369612217
1772812398369576000,6.130575927734375,-0.016569707542657852,0.017027854919433594,-0.01824958436191082
1772812398379276500,6.140276611328125,-0.011377356946468353,0.017333287745714188,-0.02496909722685814
1772812398388977400,6.149977294921875,0.002061668550595641,0.009697478264570236,-0.024663666263222694
1772812398398678000,6.159677978515625,0.013057234697043896,-0.00038179047987796366,-0.0191658828407526
1772812398408379000,6.16937890625,0.018860450014472008,-0.011377356946468353,-0.01000291109085083
1772812398418079500,6.17907958984375,0.02496909722685814,-0.01779143698513508,-0.004199695307761431
1772812398427780400,6.1887802734375,0.02496909722685814,-0.014431680552661419,0.0034361144062131643
1772812398437481000,6.19848095703125,0.017027854919433594,-0.00954476185142994,0.011377356946468353
1772812398447181600,6.208181640625,0.00603228947147727,-0.011988221667706966,0.013515383005142212
1772812398456882400,6.21788232421875,0.0057268571108579636,-0.00923932995647192,0.010461059398949146
1772812398466583000,6.2275830078125,0.018860450014472008,-0.00679587060585618,-0.000839939049910754
1772812398476284000,6.237283935546875,0.03168861195445061,-0.004657844081521034,-0.012446369975805283
1772812398485984500,6.246984619140625,0.03260490670800209,-0.0009926552884280682,-0.02283107116818428
1772812398495685400,6.256685302734375,0.023441936820745468,0.014889828860759735,-0.023136503994464874
1772812398505386000,6.266385986328125,0.001450803829357028,0.024663666263222694,-0.009392046369612217
1772812398515086800,6.2760869140625,-0.024816380813717842,0.00755945174023509,0.006490438245236874
1772812398524787500,6.285787353515625,-0.037033677101135254,-0.008017600513994694,0.012904518283903599
1772812398534488300,6.29548828125,-0.029703300446271896,-0.008933897130191326,0.0058795735239982605
1772812398544189000,6.30518896484375,-0.015958841890096664,-0.0019089524867013097,-0.007864884100854397
1772812398553889800,6.314889892578125,-0.002825249684974551,0.008781181648373604,-0.019471315667033195
1772812398563590400,6.32459033203125,0.007254019379615784,0.017027854919433594,-0.020387612283229828
1772812398573291300,6.334291259765625,0.00847574882209301,0.004810560029000044,-0.01183550525456667
1772812398582992000,6.343991943359375,0.009086613543331623,-0.01259908638894558,-0.000839939049910754
1772812398592692700,6.353692626953125,0.01000291109085083,-0.025121813639998436,0.004963276442140341
1772812398602393300,6.363393310546875,0.012140937149524689,-0.02176205813884735,0.0058795735239982605
1772812398612094000,6.373093994140625,0.014889828860759735,-0.00679587060585618,0.0022143847309052944
1772812398621794800,6.382794921875,0.017944153398275375,0.009086613543331623,-0.0029779658652842045
1772812398631495400,6.392495361328125,0.01611155830323696,0.015500693581998348,-0.002672533504664898
1772812398641196300,6.4021962890625,0.01763872057199478,0.011224640533328056,0.0019089524867013097
1772812398650897000,6.41189697265625,0.023747367784380913,-0.0016035200096666813,0.007406735327094793
1772812398660597800,6.42159765625,0.029245151206851006,-0.015042545273900032,0.010155626572668552
1772812398670298400,6.43129833984375,0.03321577236056328,-0.01870773360133171,0.008017600513994694
1772812398679999200,6.440999267578125,0.033826638013124466,-0.013820815831422806,0.0031306820455938578
1772812398689699800,6.450699951171875,0.02588539570569992,-0.0058795735239982605,-0.005421424750238657
1772812398699400700,6.460400634765625,0.014889828860759735,0.0057268571108579636,-0.013973532244563103
1772812398709101300,6.470101318359375,0.003894262947142124,0.018555017188191414,-0.014278964139521122
1772812398718802200,6.47980224609375,-0.004352411720901728,0.017027854919433594,-0.004810560029000044
1772812398728502800,6.489502685546875,-0.010155626572668552,0.003894262947142124,0.006490438245236874
1772812398738203600,6.49920361328125,-0.011682788841426373,-0.0034361144062131643,0.013820815831422806
1772812398747904300,6.508904296875,-0.0025198173243552446,0.002061668550595641,0.013820815831422806
1772812398757605000,6.518605224609375,0.00603228947147727,0.0057268571108579636,0.012293653562664986
1772812398767305700,6.5283056640625,0.009392046369612217,-0.004046979360282421,0.008323032408952713
1772812398777006600,6.538006591796875,0.009697478264570236,-0.016875140368938446,-0.004505127668380737
1772812398786707200,6.547707275390625,0.009392046369612217,-0.014431680552661419,-0.0191658828407526
1772812398796407800,6.55740771484375,0.006948587018996477,-0.0031306820455938578,-0.032910339534282684
1772812398806108700,6.567108642578125,-0.0016035200096666813,0.0066431546583771706,-0.041157014667987823
1772812398815809300,6.576809326171875,-0.00954476185142994,0.013362666592001915,-0.04024071618914604
1772812398825510100,6.58651025390625,-0.008628465235233307,0.014278964139521122,-0.027717988938093185
1772812398835210800,6.596210693359375,-0.004657844081521034,0.0023671009112149477,-0.01000291109085083
1772812398844911600,6.60591162109375,0.00022907429956831038,-0.013515383005142212,0.004352411720901728
1772812398854612200,6.6156123046875,0.0023671009112149477,-0.02084576152265072,0.015042545273900032
1772812398864312800,6.625312744140625,0.002061668550595641,-0.012904518283903599,0.019929463043808937
1772812398874013700,6.635013671875,-0.004352411720901728,-0.0006872228696011007,0.015958841890096664
1772812398883714300,6.64471435546875,-0.013515383005142212,0.012140937149524689,0.011377356946468353
1772812398893415200,6.654415283203125,-0.012904518283903599,0.020693045109510422,0.008933897130191326
1772812398903115800,6.66411572265625,-0.00679587060585618,0.015195261687040329,0.01107192412018776
1772812398912816600,6.673816650390625,0.0005345066892914474,-0.0016035200096666813,0.01626427471637726
1772812398922517200,6.683517333984375,0.006337722297757864,-0.010766491293907166,0.021151192486286163
1772812398932218000,6.693218017578125,0.011224640533328056,-0.011377356946468353,0.024816380813717842
1772812398941918700,6.702918701171875,0.009086613543331623,-0.014126247726380825,0.024510949850082397
1772812398951619600,6.71261962890625,0.0023671009112149477,-0.015042545273900032,0.012904518283903599
1772812398961320200,6.7223203125,0.000839939049910754,-0.004352411720901728,-0.003894262947142124
1772812398971021000,6.73202099609375,0.0011453714687377214,0.009697478264570236,-0.019471315667033195
1772812398980721700,6.7417216796875,-0.0009926552884280682,0.015500693581998348,-0.03321577236056328
1772812398990422500,6.751422607421875,-0.0022143847309052944,0.01824958436191082,-0.03413207083940506
1772812399000123100,6.761123046875,-0.0019089524867013097,0.011224640533328056,-0.020693045109510422
1772812399009823700,6.77082373046875,-0.008628465235233307,-0.00954476185142994,-0.0011453714687377214
1772812399019524600,6.780524658203125,-0.018402300775051117,-0.03153589367866516,0.008628465235233307
1772812399029225200,6.79022509765625,-0.020540328696370125,-0.039477135986089706,0.004963276442140341
1772812399038926000,6.799926025390625,-0.01718057133257389,-0.03275762498378754,-0.011530072428286076
1772812399048626700,6.809626708984375,-0.016569707542657852,-0.009850194677710533,-0.02893971838057041
1772812399058327600,6.81932763671875,-0.016569707542657852,0.01763872057199478,-0.03810269013047218
1772812399068028200,6.829028076171875,-0.01779143698513508,0.030161447823047638,-0.0319940410554409
1772812399077729000,6.83872900390625,-0.02084576152265072,0.026801692321896553,-0.011530072428286076
1772812399087429600,6.8484296875,-0.02084576152265072,0.011224640533328056,0.019624030217528343
1772812399097130500,6.858130615234375,-0.02023489587008953,-0.008323032408952713,0.04436405375599861
1772812399106831000,6.8678310546875,-0.013209951110184193,-0.013209951110184193,0.057497646659612656
1772812399116532000,6.877531982421875,-0.0019089524867013097,-0.011988221667706966,0.05566505342721939
1772812399126232600,6.887232666015625,0.006948587018996477,-0.008628465235233307,0.04253146052360535
1772812399135933400,6.896933349609375,0.009392046369612217,0.002672533504664898,0.02848157100379467
1772812399145634000,6.906634033203125,0.003894262947142124,0.01183550525456667,0.01565340906381607
1772812399155335000,6.9163349609375,-0.0006872228696011007,0.01030834298580885,0.0077121676877141
1772812399165035500,6.926035400390625,-0.0006872228696011007,0.00022907429956831038,0.004046979360282421
1772812399174736400,6.935736328125,0.004810560029000044,-0.010766491293907166,0.0016035200096666813
1772812399184437000,6.94543701171875,0.011224640533328056,-0.022067490965127945,-0.0011453714687377214
1772812399194137600,6.9551376953125,0.01183550525456667,-0.026648975908756256,-0.0057268571108579636
1772812399203838500,6.96483837890625,0.00847574882209301,-0.022983787581324577,-0.012140937149524689
1772812399213539000,6.9745390625,-0.00038179047987796366,-0.00679587060585618,-0.012446369975805283
1772812399223240000,6.984239990234375,-0.012904518283903599,0.00603228947147727,-0.006337722297757864
1772812399232940500,6.9939404296875,-0.024816380813717842,0.00603228947147727,0.0025198173243552446
1772812399242641400,7.003641357421875,-0.027870705351233482,0.01000291109085083,0.013515383005142212
1772812399252342000,7.013342041015625,-0.025121813639998436,0.010613775812089443,0.019929463043808937
1772812399262043000,7.02304296875,-0.022067490965127945,0.004199695307761431,0.021456625312566757
1772812399271743500,7.032743408203125,-0.016875140368938446,-0.00007635809743078426,0.017486004158854485
1772812399281444400,7.0424443359375,-0.014126247726380825,-0.0025198173243552446,0.014126247726380825
1772812399291145000,7.05214501953125,-0.017486004158854485,-0.005268708802759647,0.010461059398949146
1772812399300845800,7.061845703125,-0.02176205813884735,-0.008628465235233307,0.0058795735239982605
1772812399310546400,7.07154638671875,-0.023594651371240616,-0.011682788841426373,0.0016035200096666813
1772812399320247000,7.0812470703125,-0.02176205813884735,-0.016875140368938446,-0.001450803829357028
1772812399329948000,7.090947998046875,-0.016569707542657852,-0.014737112447619438,-0.004810560029000044
1772812399339648500,7.1006484375,-0.008323032408952713,-0.009850194677710533,-0.004810560029000044
1772812399349349400,7.110349365234375,-0.00007635809743078426,-0.01107192412018776,-0.003894262947142124
1772812399359050000,7.120050048828125,0.004199695307761431,-0.013515383005142212,-0.0017562361899763346
1772812399368750800,7.129750732421875,0.00511599238961935,-0.0077121676877141,0.011377356946468353
1772812399378451500,7.139451416015625,0.0017562361899763346,-0.0022143847309052944,0.02328922040760517
1772812399388152300,7.14915234375,-0.0022143847309052944,-0.00007635809743078426,0.03275762498378754
1772812399397853000,7.15885302734375,-0.0009926552884280682,0.002672533504664898,0.04130972921848297
1772812399407553500,7.168553466796875,0.0005345066892914474,0.001450803829357028,0.044669486582279205
1772812399417254400,7.17825439453125,0.00022907429956831038,-0.0019089524867013097,0.04405862092971802
1772812399426955000,7.187955078125,-0.002825249684974551,-0.002825249684974551,0.04039343446493149
1772812399436655900,7.19765576171875,-0.008933897130191326,-0.004352411720901728,0.033979352563619614
1772812399446356500,7.2073564453125,-0.013820815831422806,-0.011682788841426373,0.022678354755043983
1772812399456057300,7.217057373046875,-0.014126247726380825,-0.017486004158854485,0.010766491293907166
1772812399465758000,7.226758056640625,-0.01259908638894558,-0.014126247726380825,-0.001450803829357028
1772812399475458800,7.236458740234375,-0.011377356946468353,-0.011988221667706966,-0.008170315995812416
1772812399485159400,7.246159423828125,-0.01107192412018776,-0.00679587060585618,-0.011530072428286076
1772812399494860300,7.2558603515625,-0.0058795735239982605,0.004810560029000044,-0.007254019379615784
1772812399504561000,7.265560791015625,0.002061668550595641,0.013362666592001915,0.0016035200096666813
1772812399514261800,7.27526171875,0.004199695307761431,0.010919207707047462,0.016875140368938446
1772812399523962400,7.28496240234375,0.0017562361899763346,-0.0012980876490473747,0.027870705351233482
1772812399533663200,7.294663330078125,-0.0034361144062131643,-0.016875140368938446,0.03550651669502258
1772812399543363800,7.30436376953125,-0.00923932995647192,-0.028787001967430115,0.029397867619991302
1772812399553064700,7.314064697265625,-0.013209951110184193,-0.022983787581324577,0.011988221667706966
1772812399562765300,7.323765380859375,-0.013209951110184193,-0.0019089524867013097,-0.0066431546583771706
1772812399572466200,7.333466064453125,-0.008323032408952713,0.01763872057199478,-0.020387612283229828
1772812399582166800,7.343166748046875,-0.0019089524867013097,0.0191658828407526,-0.020082179456949234
1772812399591867400,7.352867431640625,0.004199695307761431,0.009392046369612217,-0.00603228947147727
1772812399601568300,7.362568359375,0.005421424750238657,-0.0058795735239982605,0.00923932995647192
1772812399611268900,7.372268798828125,0.00511599238961935,-0.01626427471637726,0.024205517023801804
1772812399620969700,7.3819697265625,0.006337722297757864,-0.008323032408952713,0.03214675933122635
1772812399630670300,7.39167041015625,0.01000291109085083,0.006337722297757864,0.0345902182161808
1772812399640371200,7.40137109375,0.009086613543331623,0.017333287745714188,0.03611737862229347
1772812399650071800,7.41107177734375,0.0035888305865228176,0.020387612283229828,0.03672824427485466
1772812399659772400,7.4207724609375,0.0017562361899763346,0.013973532244563103,0.03672824427485466
1772812399669473300,7.430473388671875,0.0035888305865228176,0.003894262947142124,0.040088001638650894
1772812399679174000,7.440173828125,0.00847574882209301,-0.002825249684974551,0.03672824427485466
1772812399688874800,7.449874755859375,0.015195261687040329,-0.002825249684974551,0.029397867619991302
1772812399698575400,7.459575439453125,0.013362666592001915,-0.003741546766832471,0.019624030217528343
1772812399708276200,7.469276123046875,0.008170315995812416,-0.0012980876490473747,0.012293653562664986
1772812399717976800,7.478976806640625,0.000839939049910754,-0.004046979360282421,0.00007635809743078426
1772812399727677700,7.488677734375,-0.005268708802759647,-0.00038179047987796366,-0.009392046369612217
1772812399737378300,7.49837841796875,-0.010766491293907166,0.00511599238961935,-0.019471315667033195
1772812399747079200,7.5080791015625,-0.011682788841426373,0.0066431546583771706,-0.027717988938093185
1772812399756779800,7.51777978515625,-0.011682788841426373,0.01030834298580885,-0.027717988938093185
1772812399766480600,7.527480712890625,-0.015958841890096664,0.013057234697043896,-0.014889828860759735
1772812399776181200,7.53718115234375,-0.021456625312566757,0.006948587018996477,-0.000839939049910754
1772812399785882000,7.546882080078125,-0.021456625312566757,0.00511599238961935,0.011682788841426373
1772812399795582700,7.556582763671875,-0.013515383005142212,0.003894262947142124,0.021151192486286163
1772812399805283300,7.566283447265625,-0.006185005884617567,-0.0025198173243552446,0.021456625312566757
1772812399814984200,7.575984130859375,0.00511599238961935,-0.014431680552661419,0.013820815831422806
1772812399824684800,7.585684814453125,0.017944153398275375,-0.024816380813717842,-0.001450803829357028
1772812399834385700,7.5953857421875,0.026801692321896553,-0.01779143698513508,-0.014889828860759735
1772812399844086300,7.605086181640625,0.02802342176437378,-0.004046979360282421,-0.023747367784380913
1772812399853787100,7.614787109375,0.018860450014472008,-0.0016035200096666813,-0.025274530053138733
1772812399863487700,7.62448779296875,0.007254019379615784,-0.002825249684974551,-0.020387612283229828
1772812399873188600,7.634188720703125,0.0023671009112149477,-0.0006872228696011007,-0.011530072428286076
1772812399882889200,7.64388916015625,-0.0006872228696011007,-0.003741546766832471,-0.006337722297757864
1772812399892590000,7.653590087890625,-0.0022143847309052944,-0.00679587060585618,-0.002672533504664898
1772812399902290700,7.663290771484375,-0.0009926552884280682,-0.004657844081521034,-0.002672533504664898
1772812399911991600,7.672991455078125,-0.00007635809743078426,-0.005268708802759647,-0.00603228947147727
1772812399921692200,7.682692138671875,-0.0012980876490473747,-0.004657844081521034,-0.008170315995812416
1772812399931392800,7.692392822265625,-0.003741546766832471,-0.0012980876490473747,-0.006948587018996477
1772812399941093600,7.70209375,-0.007101302966475487,-0.004657844081521034,-0.003283398225903511
1772812399950794200,7.711794189453125,-0.01259908638894558,-0.004963276442140341,0.0019089524867013097
1772812399960495000,7.7214951171875,-0.019013166427612305,-0.007406735327094793,0.008017600513994694
1772812399970195700,7.73119580078125,-0.024816380813717842,-0.01565340906381607,0.011682788841426373
1772812399979896600,7.740896484375,-0.027259841561317444,-0.015042545273900032,0.01107192412018776
1772812399989597200,7.75059716796875,-0.023594651371240616,-0.007406735327094793,0.008323032408952713
1772812399999298000,7.760298095703125,-0.020540328696370125,-0.0022143847309052944,0.0025198173243552446
1772812400008998700,7.76999853515625,-0.01259908638894558,0.0035888305865228176,-0.002061668550595641
1772812400018699300,7.77969921875,-0.0031306820455938578,0.006948587018996477,-0.00022907429956831038
1772812400028400000,7.789400146484375,-0.0006872228696011007,0.00755945174023509,0.010766491293907166
1772812400038100700,7.799100830078125,-0.00923932995647192,0.010919207707047462,0.02695440873503685
1772812400047801600,7.808801513671875,-0.02084576152265072,0.011224640533328056,0.04130972921848297
1772812400057502200,7.818502197265625,-0.031230462715029716,0.003894262947142124,0.04436405375599861
1772812400067203000,7.828203125,-0.033979352563619614,-0.0058795735239982605,0.03672824427485466
1772812400076903700,7.837903564453125,-0.02237292192876339,-0.01779143698513508,0.014431680552661419
1772812400086604500,7.8476044921875,-0.00007635809743078426,-0.0193185992538929,-0.013362666592001915
1772812400096305200,7.85730517578125,0.018555017188191414,-0.0077121676877141,-0.035964664071798325
1772812400106006000,7.867006103515625,0.026190826669335365,0.007254019379615784,-0.044211339205503464
1772812400115706600,7.87670654296875,0.021609341725707054,0.01183550525456667,-0.03932442143559456
1772812400125407500,7.886407470703125,0.01030834298580885,0.00847574882209301,-0.019471315667033195
1772812400135108000,7.896108154296875,0.0023671009112149477,-0.00007635809743078426,0.005574141163378954
1772812400144809000,7.90580908203125,0.0035888305865228176,-0.006185005884617567,0.027870705351233482
1772812400154509600,7.915509521484375,0.01030834298580885,-0.006490438245236874,0.043753188103437424
1772812400164210400,7.92521044921875,0.013668099418282509,-0.0031306820455938578,0.04955640435218811
1772812400173911000,7.9349111328125,0.011224640533328056,0.004810560029000044,0.043753188103437424
1772812400183611600,7.944611572265625,0.006948587018996477,0.011224640533328056,0.029703300446271896
1772812400193312500,7.9543125,0.0029779658652842045,0.013362666592001915,0.016569707542657852
1772812400203013000,7.96401318359375,-0.005574141163378954,0.009697478264570236,0.0031306820455938578
1772812400212714000,7.9737138671875,-0.01259908638894558,0.005421424750238657,-0.008170315995812416
1772812400222414600,7.98341455078125,-0.015958841890096664,0.0023671009112149477,-0.014278964139521122
1772812400232115500,7.993115478515625,-0.0193185992538929,0.0029779658652842045,-0.018555017188191414
1772812400241816000,8.002816162109376,-0.023594651371240616,0.006337722297757864,-0.01977674663066864
1772812400251516700,8.0125166015625,-0.026343543082475662,0.011530072428286076,-0.01763872057199478
1772812400261217500,8.022217529296874,-0.027259841561317444,0.013668099418282509,-0.017944153398275375
1772812400270918100,8.031918212890625,-0.024205517023801804,0.013057234697043896,-0.012446369975805283
1772812400280619000,8.041618896484374,-0.019013166427612305,0.01000291109085083,-0.0057268571108579636
1772812400290319600,8.051319580078125,-0.013515383005142212,0.0035888305865228176,0.004963276442140341
1772812400300020500,8.0610205078125,-0.00679587060585618,-0.0019089524867013097,0.013209951110184193
1772812400309721000,8.07072119140625,0.003894262947142124,-0.0019089524867013097,0.02176205813884735
1772812400319422000,8.080421875,0.010613775812089443,0.004505127668380737,0.02695440873503685
1772812400329122600,8.09012255859375,0.009392046369612217,0.003894262947142124,0.027259841561317444
1772812400338823400,8.099823486328125,0.0066431546583771706,-0.0019089524867013097,0.020540328696370125
1772812400348524000,8.10952392578125,0.00755945174023509,-0.0019089524867013097,0.013515383005142212
1772812400358225000,8.119224853515625,0.011224640533328056,-0.0031306820455938578,0.003741546766832471
1772812400367925500,8.128925537109374,0.015806125476956367,-0.0077121676877141,-0.00847574882209301
1772812400377626400,8.13862646484375,0.024052800610661507,-0.006185005884617567,-0.01824958436191082
1772812400387327000,8.148326904296875,0.030161447823047638,-0.00038179047987796366,-0.02649625949561596
1772812400397027600,8.158027587890626,0.026801692321896553,0.002672533504664898,-0.0295505840331316
1772812400406728400,8.167728515625,0.011530072428286076,0.007864884100854397,-0.02130390889942646
1772812400416429000,8.177428955078126,-0.004352411720901728,0.007864884100854397,-0.009697478264570236
1772812400426130000,8.1871298828125,-0.01565340906381607,0.0023671009112149477,0.0031306820455938578
1772812400435830500,8.19683056640625,-0.017486004158854485,-0.0019089524867013097,0.014126247726380825
1772812400445531400,8.206531494140625,-0.012904518283903599,-0.00038179047987796366,0.01779143698513508
1772812400455232000,8.21623193359375,-0.005574141163378954,0.002672533504664898,0.013820815831422806
1772812400464932600,8.2259326171875,0.003894262947142124,-0.00007635809743078426,0.006490438245236874
1772812400474633500,8.235633544921875,0.00847574882209301,0.005421424750238657,-0.002672533504664898
1772812400484334000,8.245333984375,0.013362666592001915,0.002672533504664898,-0.009392046369612217
1772812400494035000,8.255034912109375,0.01611155830323696,-0.00007635809743078426,-0.00847574882209301
1772812400503735600,8.264735595703126,0.013668099418282509,0.004505127668380737,0.0025198173243552446
1772812400513436400,8.2744365234375,0.0057268571108579636,0.001450803829357028,0.013820815831422806
1772812400523137000,8.284136962890624,0.0035888305865228176,-0.0058795735239982605,0.02084576152265072
1772812400532838000,8.293837890625,0.01000291109085083,-0.01107192412018776,0.02328922040760517
1772812400542538500,8.30353857421875,0.020082179456949234,-0.01259908638894558,0.014431680552661419
1772812400552239400,8.3132392578125,0.026190826669335365,-0.006185005884617567,0.0009926552884280682
1772812400561940000,8.32293994140625,0.0243582334369421,-0.0019089524867013097,-0.012446369975805283
1772812400571640800,8.332640869140626,0.014278964139521122,-0.004963276442140341,-0.024052800610661507
1772812400581341400,8.342341552734375,0.003283398225903511,-0.010766491293907166,-0.02802342176437378
1772812400591042000,8.3520419921875,-0.0025198173243552446,-0.018402300775051117,-0.030466880649328232
1772812400600743000,8.361742919921875,-0.0012980876490473747,-0.02237292192876339,-0.03657552972435951
1772812400610443500,8.371443603515624,0.00511599238961935,-0.01718057133257389,-0.044211339205503464
1772812400620144400,8.381144287109375,0.00603228947147727,-0.003741546766832471,-0.047265663743019104
1772812400629845000,8.390844970703125,0.0023671009112149477,0.012751801870763302,-0.045738499611616135
1772812400639545900,8.4005458984375,0.000839939049910754,0.015806125476956367,-0.036880962550640106
1772812400649246500,8.41024658203125,0.0011453714687377214,0.007864884100854397,-0.020387612283229828
1772812400658947300,8.419947265625,0.00511599238961935,-0.0006872228696011007,-0.0005345066892914474
1772812400668648000,8.42964794921875,0.01000291109085083,-0.004352411720901728,0.018096869811415672
1772812400678348500,8.4393486328125,0.014278964139521122,-0.00007635809743078426,0.022983787581324577
1772812400688049400,8.44904931640625,0.015806125476956367,0.011224640533328056,0.02176205813884735
1772812400697750000,8.45875,0.015500693581998348,0.015806125476956367,0.012904518283903599
1772812400707451000,8.468450927734375,0.012751801870763302,0.00847574882209301,0.003741546766832471
1772812400717151500,8.4781513671875,0.008170315995812416,-0.00007635809743078426,-0.004199695307761431
1772812400726852400,8.487852294921876,0.008170315995812416,-0.008933897130191326,-0.010919207707047462
1772812400736553000,8.497552978515625,0.013668099418282509,-0.01718057133257389,-0.015500693581998348
1772812400746253600,8.507253662109376,0.020082179456949234,-0.012904518283903599,-0.017333287745714188
1772812400755954400,8.516954345703125,0.020998476073145866,0.002672533504664898,-0.01672242395579815
1772812400765655000,8.526655029296874,0.01030834298580885,0.012140937149524689,-0.014889828860759735
1772812400775356000,8.53635595703125,-0.0058795735239982605,0.013057234697043896,-0.014278964139521122
1772812400785056500,8.546056396484374,-0.019624030217528343,0.013057234697043896,-0.0066431546583771706
1772812400794757400,8.55575732421875,-0.027870705351233482,0.01000291109085083,-0.0029779658652842045
1772812400804458000,8.5654580078125,-0.026038112118840218,0.007864884100854397,0.002825249684974551
1772812400814158800,8.575158935546876,-0.02176205813884735,0.0035888305865228176,0.0031306820455938578
1772812400823859500,8.584859375,-0.01626427471637726,-0.002825249684974551,-0.001450803829357028
1772812400833560300,8.594560302734376,-0.012904518283903599,0.0005345066892914474,-0.004810560029000044
1772812400843261000,8.604260986328125,-0.010461059398949146,0.010919207707047462,-0.010613775812089443
1772812400852961800,8.6139619140625,-0.010461059398949146,0.018860450014472008,-0.011224640533328056
1772812400862662400,8.623662353515625,-0.0077121676877141,0.020082179456949234,-0.00755945174023509
1772812400872363300,8.63336328125,-0.0009926552884280682,0.009697478264570236,0.00007635809743078426
1772812400882064000,8.64306396484375,0.007864884100854397,-0.005268708802759647,0.004657844081521034
1772812400891764500,8.652764404296875,0.014278964139521122,-0.01870773360133171,0.005268708802759647
1772812400901465300,8.66246533203125,0.017027854919433594,-0.029703300446271896,-0.0023671009112149477
1772812400911166000,8.672166015625,0.01824958436191082,-0.02756527252495289,-0.013668099418282509
1772812400920866600,8.681866455078126,0.01977674663066864,-0.014737112447619438,-0.025579962879419327
1772812400930567400,8.6915673828125,0.018860450014472008,-0.0012980876490473747,-0.03504836559295654
1772812400940268000,8.70126806640625,0.015195261687040329,0.006948587018996477,-0.03840812295675278
1772812400949969000,8.710968994140625,0.011224640533328056,0.006337722297757864,-0.0319940410554409
1772812400959669500,8.72066943359375,0.002061668550595641,0.00022907429956831038,-0.0191658828407526
1772812400969370400,8.730370361328125,-0.0077121676877141,-0.007101302966475487,-0.003894262947142124
1772812400979071000,8.740071044921875,-0.015958841890096664,-0.007101302966475487,0.010155626572668552
1772812400988771800,8.749771728515626,-0.02023489587008953,0.006337722297757864,0.01565340906381607
1772812400998472400,8.759472412109375,-0.0193185992538929,0.021914774551987648,0.01870773360133171
1772812401008173300,8.76917333984375,-0.014737112447619438,0.024663666263222694,0.02084576152265072
1772812401017874000,8.7788740234375,-0.017486004158854485,0.01763872057199478,0.028176138177514076
1772812401027574800,8.78857470703125,-0.02176205813884735,0.0243582334369421,0.03733910992741585
1772812401037275400,8.798275390625,-0.02023489587008953,0.028634287416934967,0.047723811119794846
1772812401046976300,8.807976318359374,-0.015958841890096664,0.023747367784380913,0.05199986323714256
1772812401056676900,8.8176767578125,-0.008017600513994694,0.01611155830323696,0.05047270283102989
1772812401066377700,8.827377685546875,0.001450803829357028,0.001450803829357028,0.041004300117492676
1772812401076078300,8.837078369140626,0.004505127668380737,-0.005574141163378954,0.022067490965127945
1772812401085779000,8.846779052734375,0.0011453714687377214,0.003283398225903511,0.0006872228696011007
1772812401095479800,8.856479736328126,-0.003741546766832471,0.015500693581998348,-0.025274530053138733
1772812401105180400,8.866180419921875,-0.006185005884617567,0.022525638341903687,-0.042684175074100494
1772812401114881300,8.87588134765625,-0.005268708802759647,0.016416991129517555,-0.04543306678533554
1772812401124582000,8.885581787109375,0.0005345066892914474,0.009392046369612217,-0.03413207083940506
1772812401134282500,8.895282470703124,0.009697478264570236,0.006337722297757864,-0.012751801870763302
1772812401143983400,8.9049833984375,0.017027854919433594,0.000839939049910754,0.006185005884617567
1772812401153684000,8.91468408203125,0.022525638341903687,0.00511599238961935,0.015042545273900032
1772812401163384800,8.924384765625,0.020082179456949234,0.014889828860759735,0.016875140368938446
1772812401173085400,8.93408544921875,0.003283398225903511,0.025579962879419327,0.027259841561317444
1772812401182786300,8.943786376953126,-0.02237292192876339,0.03260490670800209,0.04558578506112099
1772812401192487000,8.95348681640625,-0.03428478538990021,0.03840812295675278,0.0651334598660469
1772812401202187800,8.963187744140624,-0.02237292192876339,0.03504836559295654,0.07643445581197739
1772812401211888400,8.972888427734375,-0.004046979360282421,0.022220205515623093,0.07521272450685501
1772812401221589200,8.98258935546875,0.004199695307761431,0.00603228947147727,0.06299543380737305
1772812401231289900,8.992289794921875,-0.00038179047987796366,0.00022907429956831038,0.04039343446493149
1772812401240990500,9.001990478515625,-0.0058795735239982605,0.008170315995812416,0.013515383005142212
1772812401250691300,9.01169140625,-0.0058795735239982605,0.0005345066892914474,-0.013973532244563103
1772812401260392000,9.021391845703125,-0.006185005884617567,-0.011988221667706966,-0.03107774630188942
1772812401270092800,9.0310927734375,-0.010766491293907166,-0.015042545273900032,-0.0371863916516304
1772812401279793400,9.04079345703125,-0.023594651371240616,-0.0019089524867013097,-0.040546149015426636
1772812401289494300,9.050494384765624,-0.026038112118840218,0.01977674663066864,-0.039018988609313965
1772812401299195000,9.06019482421875,-0.016875140368938446,0.029245151206851006,-0.033826638013124466
1772812401308895700,9.069895751953124,-0.00954476185142994,0.020387612283229828,-0.02283107116818428
1772812401318596400,9.079596435546875,-0.0031306820455938578,0.010919207707047462,-0.0011453714687377214
1772812401328297200,9.089297119140625,-0.0006872228696011007,-0.0025198173243552446,0.02390008419752121
1772812401337997800,9.098997802734376,0.003894262947142124,-0.025732679292559624,0.046196650713682175
1772812401347698400,9.108698486328125,0.014889828860759735,-0.04436405375599861,0.05627591907978058
1772812401357399300,9.1183994140625,0.023747367784380913,-0.0553596206009388,0.0501672700047493
1772812401367100000,9.128099853515625,0.028328854590654373,-0.053832460194826126,0.028176138177514076
1772812401376800800,9.13780078125,0.0295505840331316,-0.04283689334988594,-0.0035888305865228176
1772812401386501400,9.14750146484375,0.0322994738817215,-0.031230462715029716,-0.03871355578303337
1772812401396202000,9.157201904296874,0.03871355578303337,-0.024816380813717842,-0.07658717036247253
1772812401405902800,9.16690283203125,0.05062541738152504,-0.016569707542657852,-0.10071633011102676
1772812401415603500,9.176603515625,0.06039925664663315,-0.014737112447619438,-0.11018473654985428
1772812401425304300,9.18630419921875,0.054901473224163055,-0.023594651371240616,-0.1037706509232521
1772812401435005000,9.1960048828125,0.03565923124551773,-0.02848157100379467,-0.09094249457120895
1772812401444705800,9.205705810546876,0.00847574882209301,-0.024510949850082397,-0.07689260691404343
1772812401454406400,9.215406494140625,-0.019929463043808937,-0.014737112447619438,-0.06620246917009354
1772812401464107300,9.225107177734374,-0.04436405375599861,0.00755945174023509,-0.05612320080399513
1772812401473808000,9.234807861328125,-0.06330086290836334,0.02130390889942646,-0.047265663743019104
1772812401483508700,9.2445087890625,-0.0703258067369461,0.027107125148177147,-0.04085158184170723
1772812401493209300,9.254209228515625,-0.0651334598660469,0.032910339534282684,-0.03260490670800209
1772812401502910200,9.26391015625,-0.04405862092971802,0.020693045109510422,-0.03138317912817001
1772812401512610800,9.27361083984375,-0.021151192486286163,0.00511599238961935,-0.030772313475608826
1772812401522311400,9.2833115234375,-0.007101302966475487,-0.0058795735239982605,-0.03107774630188942
1772812401532012300,9.29301220703125,-0.004352411720901728,-0.011682788841426373,-0.033826638013124466
1772812401541713000,9.302712890625,-0.01259908638894558,-0.0019089524867013097,-0.03932442143559456
1772812401551413800,9.312413818359374,-0.02023489587008953,-0.0031306820455938578,-0.04390590637922287
1772812401561114400,9.3221142578125,-0.025732679292559624,-0.01565340906381607,-0.042684175074100494
1772812401570815200,9.331815185546875,-0.02542724646627903,-0.02848157100379467,-0.04390590637922287
1772812401580515800,9.341515869140625,-0.02237292192876339,-0.04741837829351425,-0.04451677203178406
1772812401590216700,9.351216796875,-0.018096869811415672,-0.04436405375599861,-0.03840812295675278
1772812401599917300,9.360917236328126,-0.02084576152265072,-0.031841326504945755,-0.030466880649328232
1772812401609618000,9.370617919921875,-0.031230462715029716,-0.03520108386874199,-0.030161447823047638
1772812401619318800,9.38031884765625,-0.03733910992741585,-0.012293653562664986,-0.015500693581998348
1772812401629019400,9.390019287109375,-0.04283689334988594,0.019471315667033195,0.004046979360282421
1772812401638720000,9.399719970703124,-0.04589121788740158,0.02741255611181259,0.02542724646627903
1772812401648420900,9.4094208984375,-0.0501672700047493,0.01824958436191082,0.044669486582279205
1772812401658121500,9.41912158203125,-0.05352702736854553,0.00511599238961935,0.05566505342721939
1772812401667822300,9.428822265625,-0.05627591907978058,-0.016875140368938446,0.04864010959863663
1772812401677523000,9.43852294921875,-0.055970486253499985,-0.050778135657310486,0.023594651371240616
1772812401687223800,9.448223876953126,-0.04711294546723366,-0.06452259421348572,-0.004505127668380737
1772812401696924400,9.45792431640625,-0.03825540840625763,-0.09017891436815262,-0.04696023091673851
1772812401706625300,9.467625244140624,-0.03611737862229347,-0.12499820441007614,-0.08788817375898361
1772812401716326000,9.477325927734375,-0.04650207981467247,-0.15920662879943848,-0.11232276260852814
1772812401726026800,9.48702685546875,-0.03581194952130318,-0.1268308013677597,-0.1245400533080101
1772812401735727400,9.496727294921875,-0.031841326504945755,-0.08193223923444748,-0.12270746380090714
1772812401745428200,9.50642822265625,-0.03214675933122635,-0.012904518283903599,-0.09735657274723053
1772812401755128800,9.51612890625,-0.04222602769732475,0.011530072428286076,-0.057955797761678696
1772812401764829400,9.525829345703125,-0.03886627033352852,0.03321577236056328,-0.00755945174023509
1772812401774530300,9.5355302734375,-0.030925029888749123,0.01672242395579815,0.037033677101135254
1772812401784231000,9.54523095703125,-0.02390008419752121,-0.028787001967430115,0.06421715766191483
1772812401793931800,9.554931884765624,-0.010155626572668552,-0.05474875494837761,0.08040507882833481
1772812401803632400,9.56463232421875,0.008170315995812416,-0.044669486582279205,0.0862082913517952
1772812401813333200,9.574333251953124,0.01672242395579815,-0.011988221667706966,0.08223766833543777
1772812401823033900,9.584033935546875,0.006948587018996477,0.00847574882209301,0.06788235157728195
1772812401832734700,9.593734619140625,-0.014737112447619438,0.023441936820745468,0.05871937796473503
1772812401842435300,9.603435302734376,-0.033368486911058426,0.034437503665685654,0.05688678100705147
1772812401852136000,9.613135986328125,-0.03581194952130318,0.026190826669335365,0.05108356848359108
1772812401861836800,9.6228369140625,-0.02023489587008953,0.010919207707047462,0.033979352563619614
1772812401871537400,9.632537353515625,0.002061668550595641,-0.002825249684974551,0.011988221667706966
1772812401881238000,9.642238037109376,0.012140937149524689,-0.01259908638894558,-0.014889828860759735
1772812401890939000,9.65193896484375,0.013668099418282509,-0.009850194677710533,-0.037491824477910995
1772812401900639500,9.661639404296874,0.017333287745714188,0.009392046369612217,-0.049709122627973557
1772812401910340400,9.67134033203125,0.022220205515623093,0.015500693581998348,-0.05367974191904068
1772812401920041000,9.681041015625,0.023441936820745468,0.001450803829357028,-0.04848739132285118
1772812401929741800,9.690741943359376,0.023441936820745468,-0.015042545273900032,-0.03474293276667595
1772812401939442400,9.7004423828125,0.022525638341903687,-0.029703300446271896,-0.028328854590654373
1772812401949143300,9.710143310546876,0.0191658828407526,-0.04558578506112099,-0.030161447823047638
1772812401958844000,9.719843994140625,0.023136503994464874,-0.055970486253499985,-0.03107774630188942
1772812401968544800,9.729544677734374,0.03962985426187515,-0.06391172856092453,-0.022220205515623093
1772812401978245400,9.739245361328125,0.05581776797771454,-0.06635518372058868,-0.01030834298580885
1772812401987946200,9.7489462890625,0.051847148686647415,-0.06696604937314987,-0.013057234697043896
1772812401997646800,9.758646728515625,0.010919207707047462,-0.049861837178468704,-0.04298960790038109
1772812402007347500,9.768347412109375,-0.03611737862229347,-0.0501672700047493,-0.07353284955024719
1772812402017048300,9.77804833984375,-0.08132137358188629,0.017027854919433594,-0.0628427118062973
1772812402026749000,9.7877490234375,-0.1066722646355629,0.04543306678533554,-0.05367974191904068
1772812402036449800,9.79744970703125,-0.0910952091217041,0.043600473552942276,-0.042073313146829605
1772812402046150400,9.807150390625,-0.0501672700047493,0.060093823820352554,-0.02802342176437378
1772812402055851300,9.816851318359374,-0.02542724646627903,0.058566659688949585,-0.018555017188191414
1772812402065552000,9.8265517578125,-0.0193185992538929,0.060704685747623444,-0.006337722297757864
1772812402075252700,9.836252685546874,-0.016569707542657852,0.043600473552942276,0.004046979360282421
1772812402084953300,9.845953369140625,-0.014737112447619438,0.016416991129517555,0.016569707542657852
1772812402094654000,9.855654052734375,-0.00923932995647192,-0.00038179047987796366,0.02237292192876339
1772812402104354800,9.865354736328126,-0.00038179047987796366,-0.018402300775051117,0.01107192412018776
1772812402114055400,9.875055419921875,0.006337722297757864,-0.026648975908756256,-0.012446369975805283
1772812402123756300,9.88475634765625,0.003283398225903511,-0.025121813639998436,-0.036880962550640106
1772812402133457000,9.894456787109375,-0.00007635809743078426,-0.008933897130191326,-0.051847148686647415
1772812402143157500,9.904157470703124,-0.0025198173243552446,0.003894262947142124,-0.062537282705307
1772812402152858400,9.9138583984375,-0.010155626572668552,0.022525638341903687,-0.056428633630275726
1772812402162559000,9.92355908203125,-0.028787001967430115,0.044211339205503464,-0.04298960790038109
1772812402172259800,9.933259765625,-0.05352702736854553,0.06192641705274582,-0.020693045109510422
1772812402181960400,9.94296044921875,-0.07887791097164154,0.07903063297271729,-0.004810560029000044
1772812402191661300,9.952661376953126,-0.09414953738451004,0.08544471114873886,0.0019089524867013097
1772812402201362000,9.96236181640625,-0.10056361556053162,0.07231111824512482,-0.002672533504664898
1772812402211062800,9.972062744140626,-0.09842558950185776,0.06650790572166443,-0.014889828860759735
1772812402220763400,9.981763427734375,-0.08743002265691757,0.07170025259256363,-0.027717988938093185
1772812402230464300,9.99146435546875,-0.07643445581197739,0.08147408813238144,-0.03810269013047218
1772812402240164900,10.001164794921875,-0.05413788929581642,0.10468695312738419,-0.04024071618914604
1772812402249865500,10.010865478515624,-0.038560837507247925,0.11262819170951843,-0.032910339534282684
1772812402259566300,10.02056640625,-0.03275762498378754,0.104076087474823,-0.013973532244563103
1772812402269267000,10.030266845703125,-0.02848157100379467,0.06101011857390404,0.00923932995647192
1772812402278967800,10.0399677734375,-0.02328922040760517,0.009392046369612217,0.03550651669502258
1772812402288668400,10.04966845703125,-0.0058795735239982605,-0.012293653562664986,0.05169443041086197
1772812402298369300,10.059369384765626,0.012751801870763302,-0.02023489587008953,0.06207913160324097
1772812402308070000,10.06906982421875,0.025274530053138733,-0.01565340906381607,0.06391172856092453
1772812402317770800,10.078770751953124,0.033826638013124466,-0.004046979360282421,0.05841394513845444
1772812402327471400,10.088471435546875,0.03993528336286545,0.013668099418282509,0.05352702736854553
1772812402337172200,10.098172119140624,0.03321577236056328,0.018860450014472008,0.057497646659612656
1772812402346872800,10.107872802734375,0.018860450014472008,0.010613775812089443,0.06879864633083344
1772812402356573400,10.117573486328125,0.010919207707047462,-0.015958841890096664,0.08254310488700867
1772812402366274300,10.1272744140625,0.020387612283229828,-0.057497646659612656,0.09964732080698013
1772812402375975000,10.136974853515625,0.04818195849657059,-0.13385574519634247,0.10819942504167557
1772812402385675500,10.146675537109376,0.09430225193500519,-0.17447824776172638,0.10025817900896072
1772812402395376400,10.15637646484375,0.13248129189014435,-0.18089233338832855,0.07612902671098709
1772812402405077000,10.166076904296874,0.13584105670452118,-0.12499820441007614,0.03000873140990734
1772812402414777900,10.17577783203125,0.11568251997232437,-0.07521272450685501,-0.020998476073145866
1772812402424478500,10.185478515625,0.08666644245386124,-0.06177370250225067,-0.06772962957620621
1772812402434179300,10.195179443359375,0.057955797761678696,-0.04864010959863663,-0.11995857208967209
1772812402443880000,10.2048798828125,0.03565923124551773,0.00755945174023509,-0.1547778695821762
1772812402453580500,10.21458056640625,0.01611155830323696,0.06345357745885849,-0.15844304859638214
1772812402463281400,10.224281494140625,-0.018096869811415672,0.048792824149131775,-0.1404225379228592
