time,seconds_elapsed,z,y,x
1772812451150972000,0.106971923828125,0.023441936820745468,-0.004657844081521034,0.01779143698513508
1772812451170373000,0.126373046875,0.03504836559295654,0.002672533504664898,0.047723811119794846
1772812451180073700,0.13607373046875,0.023441936820745468,-0.0025198173243552446,0.0602465383708477
1772812451189774300,0.1457744140625,-0.008628465235233307,-0.023594651371240616,0.0654388889670372
1772812451199475000,0.155474853515625,-0.021151192486286163,-0.02084576152265072,0.07124210149049759
1772812451209175600,0.165175537109375,-0.02542724646627903,-0.026038112118840218,0.0550541877746582
1772812451218876400,0.17487646484375,-0.023594651371240616,0.007864884100854397,0.03520108386874199
1772812451228577000,0.184576904296875,-0.028176138177514076,0.003894262947142124,0.005574141163378954
1772812451238277600,0.194277587890625,-0.039477135986089706,0.013057234697043896,-0.009392046369612217
1772812451247978200,0.203978271484375,-0.04864010959863663,0.017944153398275375,-0.023747367784380913
1772812451257678800,0.213678955078125,-0.05658135190606117,0.007864884100854397,-0.035964664071798325
1772812451267379500,0.22337939453125,-0.046196650713682175,0.025274530053138733,-0.03932442143559456
1772812451277080000,0.233080078125,-0.029397867619991302,0.01977674663066864,-0.0423787422478199
1772812451286780700,0.24278076171875,-0.030925029888749123,-0.006185005884617567,-0.04176788032054901
1772812451296481300,0.252481201171875,-0.031841326504945755,-0.012904518283903599,-0.03260490670800209
1772812451306182100,0.26218212890625,-0.03520108386874199,-0.046196650713682175,-0.028328854590654373
1772812451315882800,0.2718828125,-0.030314164236187935,-0.059024810791015625,-0.025579962879419327
1772812451325583400,0.281583251953125,-0.00923932995647192,-0.0709366723895073,-0.0371863916516304
1772812451335284000,0.291283935546875,0.011530072428286076,-0.0602465383708477,-0.05612320080399513
1772812451344984600,0.300984619140625,0.02130390889942646,-0.037033677101135254,-0.07872519642114639
1772812451354685200,0.310685302734375,0.01824958436191082,-0.008933897130191326,-0.08697187155485153
1772812451364385800,0.3203857421875,0.0023671009112149477,0.007864884100854397,-0.08086322247982025
1772812451374086400,0.33008642578125,-0.008017600513994694,0.013362666592001915,-0.05673406645655632
1772812451383787000,0.339787109375,-0.005268708802759647,-0.003741546766832471,-0.027107125148177147
1772812451393488000,0.34948779296875,0.0029779658652842045,-0.028787001967430115,-0.0005345066892914474
1772812451403188500,0.3591884765625,0.008170315995812416,-0.034895651042461395,0.02328922040760517
1772812451412889000,0.36888916015625,0.010919207707047462,-0.0397825688123703,0.03245219215750694
1772812451422589700,0.378589599609375,0.010919207707047462,-0.0397825688123703,0.03275762498378754
1772812451432290300,0.388290283203125,0.010919207707047462,-0.033979352563619614,0.021151192486286163
1772812451441991000,0.397990966796875,0.01611155830323696,-0.026343543082475662,0.0077121676877141
1772812451451691500,0.40769140625,0.013668099418282509,-0.008017600513994694,-0.0011453714687377214
1772812451461392100,0.41739208984375,0.0029779658652842045,0.003283398225903511,-0.008781181648373604
1772812451471092700,0.4270927734375,-0.008017600513994694,0.011530072428286076,-0.009392046369612217
1772812451480793600,0.436793701171875,-0.00923932995647192,0.0243582334369421,-0.002061668550595641
1772812451490494200,0.446494140625,-0.003741546766832471,0.024663666263222694,0.00679587060585618
1772812451500194800,0.45619482421875,0.0029779658652842045,0.012751801870763302,0.014126247726380825
1772812451509895400,0.4658955078125,0.009392046369612217,-0.004657844081521034,0.019013166427612305
1772812451519596000,0.475595947265625,0.01763872057199478,-0.014431680552661419,0.019013166427612305
1772812451529296600,0.485296630859375,0.02130390889942646,-0.011377356946468353,0.015347977168858051
1772812451538997200,0.494997314453125,0.015806125476956367,0.0005345066892914474,0.010766491293907166
1772812451548697900,0.50469775390625,0.007254019379615784,0.017944153398275375,0.01107192412018776
1772812451558398500,0.5143984375,0.000839939049910754,0.022220205515623093,0.011988221667706966
1772812451568099300,0.524099365234375,0.00022907429956831038,0.02130390889942646,0.016569707542657852
1772812451577800000,0.533800048828125,0.00511599238961935,0.012446369975805283,0.022983787581324577
1772812451587500500,0.54350048828125,0.010919207707047462,-0.00679587060585618,0.026343543082475662
1772812451597201200,0.553201171875,0.009697478264570236,-0.02023489587008953,0.02390008419752121
1772812451606901800,0.56290185546875,-0.00038179047987796366,-0.012904518283903599,0.015347977168858051
1772812451616602400,0.572602294921875,-0.0193185992538929,0.01030834298580885,0.003741546766832471
1772812451626303000,0.582302978515625,-0.03367391973733902,0.022220205515623093,-0.009086613543331623
1772812451636003600,0.592003662109375,-0.03306305781006813,0.01672242395579815,-0.021914774551987648
1772812451645704200,0.6017041015625,-0.017486004158854485,0.0017562361899763346,-0.03627009689807892
1772812451655405000,0.611405029296875,0.003283398225903511,0.0017562361899763346,-0.04329504072666168
1772812451665105700,0.621105712890625,0.012446369975805283,0.01763872057199478,-0.03962985426187515
1772812451674806300,0.63080615234375,0.003283398225903511,0.0295505840331316,-0.020693045109510422
1772812451684507000,0.6405068359375,-0.012904518283903599,0.02130390889942646,0.007406735327094793
1772812451694207500,0.65020751953125,-0.02237292192876339,-0.004352411720901728,0.02909243479371071
1772812451703908000,0.659908203125,-0.01626427471637726,-0.026343543082475662,0.038560837507247925
1772812451713608700,0.669608642578125,-0.0016035200096666813,-0.0193185992538929,0.037033677101135254
1772812451723309300,0.679309326171875,0.007864884100854397,0.0023671009112149477,0.02756527252495289
1772812451733010000,0.689010009765625,0.011224640533328056,0.020693045109510422,0.018096869811415672
1772812451742710800,0.698710693359375,0.01000291109085083,0.01977674663066864,0.00954476185142994
1772812451752411400,0.708411376953125,0.013057234697043896,0.0011453714687377214,0.0019089524867013097
1772812451762112000,0.718112060546875,0.01611155830323696,-0.013820815831422806,-0.002672533504664898
1772812451771812600,0.7278125,0.014278964139521122,-0.010766491293907166,-0.00603228947147727
1772812451781513200,0.73751318359375,0.00511599238961935,0.013668099418282509,-0.006948587018996477
1772812451791213800,0.7472138671875,-0.008628465235233307,0.03657552972435951,-0.002061668550595641
1772812451800914400,0.75691455078125,-0.021151192486286163,0.033826638013124466,0.00923932995647192
1772812451810615000,0.766614990234375,-0.023594651371240616,0.008170315995812416,0.02176205813884735
1772812451820315600,0.776315673828125,-0.012293653562664986,-0.02176205813884735,0.02542724646627903
1772812451830016500,0.7860166015625,0.004505127668380737,-0.036422811448574066,0.018096869811415672
1772812451839717000,0.795717041015625,0.013973532244563103,-0.019013166427612305,0.0022143847309052944
1772812451849417700,0.805417724609375,0.010613775812089443,0.029856016859412193,-0.003283398225903511
1772812451859118300,0.815118408203125,-0.002825249684974551,0.05978839099407196,0.00038179047987796366
1772812451868819000,0.82481884765625,-0.015042545273900032,0.05306887626647949,0.018402300775051117
1772812451878519600,0.83451953125,-0.015347977168858051,0.017027854919433594,0.04130972921848297
1772812451888220200,0.84422021484375,-0.00007635809743078426,-0.014737112447619438,0.05688678100705147
1772812451897920800,0.853920654296875,0.020998476073145866,-0.0345902182161808,0.05658135190606117
1772812451907621600,0.86362158203125,0.034437503665685654,-0.04344775900244713,0.041004300117492676
1772812451917322200,0.873322265625,0.035964664071798325,-0.022067490965127945,0.014737112447619438
1772812451927022800,0.88302294921875,0.02893971838057041,0.030161447823047638,-0.00603228947147727
1772812451936723500,0.892723388671875,0.012751801870763302,0.06131555140018463,-0.013057234697043896
1772812451946424000,0.902424072265625,-0.0022143847309052944,0.055512335151433945,-0.004810560029000044
1772812451956124700,0.912124755859375,-0.0009926552884280682,0.021914774551987648,0.012293653562664986
1772812451965825300,0.9218251953125,0.015195261687040329,-0.013820815831422806,0.028787001967430115
1772812451975526000,0.93152587890625,0.029856016859412193,-0.039477135986089706,0.03367391973733902
1772812451985226500,0.9412265625,0.03260490670800209,-0.0553596206009388,0.02237292192876339
1772812451994927400,0.95092724609375,0.025579962879419327,-0.04650207981467247,-0.003283398225903511
1772812452004628000,0.9606279296875,0.014278964139521122,0.004810560029000044,-0.02130390889942646
1772812452014328600,0.97032861328125,-0.0019089524867013097,0.04146244749426842,-0.03107774630188942
1772812452024029200,0.980029296875,-0.018402300775051117,0.037491824477910995,-0.026801692321896553
1772812452033729800,0.989729736328125,-0.022067490965127945,0.007254019379615784,-0.01824958436191082
1772812452043430400,0.999430419921875,-0.013209951110184193,-0.022678354755043983,-0.013057234697043896
1772812452053131000,1.009131103515625,-0.00038179047987796366,-0.03000873140990734,-0.013057234697043896
1772812452062831600,1.01883154296875,0.006948587018996477,-0.024510949850082397,-0.017333287745714188
1772812452072532200,1.0285322265625,0.012751801870763302,-0.012904518283903599,-0.022525638341903687
1772812452082233000,1.038233154296875,0.014278964139521122,0.00511599238961935,-0.02283107116818428
1772812452091933700,1.04793359375,0.00847574882209301,0.015500693581998348,-0.012446369975805283
1772812452101634300,1.05763427734375,-0.006490438245236874,0.0057268571108579636,0.0006872228696011007
1772812452111335000,1.0673349609375,-0.016569707542657852,-0.0025198173243552446,0.014431680552661419
1772812452121035500,1.077035400390625,-0.010766491293907166,0.006337722297757864,0.02390008419752121
1772812452130736000,1.086736083984375,0.00022907429956831038,0.02130390889942646,0.030925029888749123
1772812452140436700,1.096436767578125,0.0005345066892914474,0.03107774630188942,0.03550651669502258
1772812452150137300,1.106137451171875,-0.007101302966475487,0.029245151206851006,0.041615162044763565
1772812452159838000,1.115837890625,-0.015347977168858051,0.018860450014472008,0.044669486582279205
1772812452169538800,1.125538818359375,-0.01779143698513508,0.003283398225903511,0.04344775900244713
1772812452179239400,1.135239501953125,-0.014431680552661419,-0.015958841890096664,0.029703300446271896
1772812452188940000,1.14493994140625,-0.0019089524867013097,-0.027259841561317444,0.00679587060585618
1772812452198640600,1.154640625,0.014889828860759735,-0.0193185992538929,-0.01824958436191082
1772812452208341200,1.16434130859375,0.025274530053138733,0.002061668550595641,-0.034437503665685654
1772812452218041900,1.174041748046875,0.020387612283229828,0.017333287745714188,-0.03413207083940506
1772812452227742500,1.183742431640625,0.004505127668380737,0.013668099418282509,-0.020387612283229828
1772812452237443000,1.193443115234375,-0.011988221667706966,-0.004352411720901728,-0.002672533504664898
1772812452247143700,1.203143798828125,-0.017486004158854485,-0.018096869811415672,0.008017600513994694
1772812452256844300,1.21284423828125,-0.012293653562664986,-0.019624030217528343,0.006490438245236874
1772812452266545200,1.222545166015625,-0.004352411720901728,-0.011988221667706966,-0.0029779658652842045
1772812452276245800,1.232245849609375,0.00022907429956831038,-0.002825249684974551,-0.014889828860759735
1772812452285946400,1.2419462890625,0.0017562361899763346,0.005421424750238657,-0.020998476073145866
1772812452305347600,1.26134765625,-0.012293653562664986,0.013362666592001915,-0.016416991129517555
1772812452315048200,1.271048095703125,-0.02023489587008953,0.015500693581998348,-0.0029779658652842045
1772812452324748800,1.280748779296875,-0.02390008419752121,0.011224640533328056,0.008628465235233307
1772812452334449400,1.290449462890625,-0.020540328696370125,0.00847574882209301,0.013820815831422806
1772812452344150000,1.30014990234375,-0.012293653562664986,0.0066431546583771706,0.012904518283903599
1772812452353850600,1.3098505859375,-0.006490438245236874,0.00511599238961935,0.012293653562664986
1772812452363551500,1.319551513671875,-0.006185005884617567,0.003283398225903511,0.015347977168858051
1772812452373252000,1.329252197265625,-0.00954476185142994,0.0023671009112149477,0.02390008419752121
1772812452382952700,1.33895263671875,-0.01107192412018776,-0.004046979360282421,0.031230462715029716
1772812452392653300,1.3486533203125,-0.008933897130191326,-0.008017600513994694,0.031841326504945755
1772812452402354000,1.35835400390625,-0.0034361144062131643,-0.005574141163378954,0.026343543082475662
1772812452412054500,1.368054443359375,0.002061668550595641,0.008781181648373604,0.011988221667706966
1772812452421755100,1.377755126953125,0.0066431546583771706,0.03260490670800209,0.0022143847309052944
1772812452431455700,1.387455810546875,0.009086613543331623,0.04146244749426842,-0.001450803829357028
1772812452441156400,1.39715625,0.006337722297757864,0.028634287416934967,0.004046979360282421
1772812452450857000,1.40685693359375,0.0017562361899763346,0.004199695307761431,0.018096869811415672
1772812452460557800,1.416557861328125,0.001450803829357028,-0.011377356946468353,0.030314164236187935
1772812452470258400,1.426258544921875,0.0035888305865228176,-0.015042545273900032,0.03886627033352852
1772812452479959000,1.435958984375,0.006337722297757864,-0.01870773360133171,0.039477135986089706
1772812452489659600,1.44565966796875,0.009392046369612217,-0.02756527252495289,0.025732679292559624
1772812452499360300,1.4553603515625,0.01763872057199478,-0.03550651669502258,0.0022143847309052944
1772812452509060900,1.465060791015625,0.02741255611181259,-0.033979352563619614,-0.028634287416934967
1772812452518761500,1.474761474609375,0.030772313475608826,-0.02176205813884735,-0.057039499282836914
1772812452528462000,1.484462158203125,0.03138317912817001,-0.004657844081521034,-0.07170025259256363
1772812452538162700,1.49416259765625,0.030772313475608826,-0.0022143847309052944,-0.07017309218645096
1772812452547863600,1.503863525390625,0.02893971838057041,-0.007101302966475487,-0.0576503649353981
1772812452557564200,1.513564208984375,0.024052800610661507,-0.00954476185142994,-0.03413207083940506
1772812452567264800,1.5232646484375,0.014584396965801716,-0.01259908638894558,-0.011224640533328056
1772812452576965400,1.53296533203125,0.0066431546583771706,-0.01565340906381607,0.003741546766832471
1772812452586666000,1.542666015625,0.004505127668380737,-0.011682788841426373,0.008933897130191326
1772812452596366600,1.55236669921875,0.0066431546583771706,0.0057268571108579636,0.013820815831422806
1772812452606067200,1.562067138671875,0.002672533504664898,0.017027854919433594,0.015958841890096664
1772812452615767800,1.571767822265625,-0.0058795735239982605,0.012446369975805283,0.015958841890096664
1772812452625468400,1.581468505859375,-0.008628465235233307,0.0057268571108579636,0.01259908638894558
1772812452635169000,1.5911689453125,-0.0034361144062131643,0.011224640533328056,0.011988221667706966
1772812452644869600,1.60086962890625,0.000839939049910754,0.015806125476956367,0.014431680552661419
1772812452654570500,1.610570556640625,-0.002825249684974551,0.01672242395579815,0.022067490965127945
1772812452664271000,1.62027099609375,-0.004963276442140341,0.011224640533328056,0.03000873140990734
1772812452673971700,1.6299716796875,0.000839939049910754,0.0005345066892914474,0.033979352563619614
1772812452683672300,1.63967236328125,0.014889828860759735,-0.011682788841426373,0.03153589367866516
1772812452693373000,1.649373046875,0.029245151206851006,-0.014431680552661419,0.02237292192876339
1772812452703073500,1.659073486328125,0.03565923124551773,-0.0009926552884280682,0.010155626572668552
1772812452712774100,1.668774169921875,0.03504836559295654,0.007864884100854397,0.0009926552884280682
1772812452722474800,1.678474853515625,0.029856016859412193,-0.008628465235233307,-0.00755945174023509
1772812452732175400,1.68817529296875,0.023136503994464874,-0.037033677101135254,-0.020998476073145866
1772812452741876000,1.6978759765625,0.02283107116818428,-0.052916161715984344,-0.045738499611616135
1772812452751576800,1.707576904296875,0.0295505840331316,-0.04344775900244713,-0.07689260691404343
1772812452761277400,1.71727734375,0.03504836559295654,-0.0016035200096666813,-0.09705114364624023
1772812452770978000,1.72697802734375,0.032910339534282684,0.050930850207805634,-0.08697187155485153
1772812452780678700,1.7366787109375,0.01183550525456667,0.06406444311141968,-0.04329504072666168
1772812452790379300,1.746379150390625,-0.014126247726380825,0.03413207083940506,0.013209951110184193
1772812452800080000,1.756079833984375,-0.02328922040760517,-0.007406735327094793,0.06177370250225067
1772812452809780500,1.765780517578125,-0.012293653562664986,-0.03000873140990734,0.08926261961460114
1772812452819481000,1.775481201171875,0.0029779658652842045,-0.031230462715029716,0.08529199659824371
1772812452829181700,1.785181640625,0.01824958436191082,-0.02084576152265072,0.05719221383333206
1772812452838882600,1.794882568359375,0.03107774630188942,-0.004963276442140341,0.013209951110184193
1772812452848583200,1.804583251953125,0.0371863916516304,0.00603228947147727,-0.02496909722685814
1772812452858283800,1.81428369140625,0.03321577236056328,0.018555017188191414,-0.04696023091673851
1772812452867984400,1.823984375,0.023747367784380913,0.02893971838057041,-0.04146244749426842
1772812452877685000,1.83368505859375,0.013973532244563103,0.022220205515623093,-0.01977674663066864
1772812452887385600,1.843385498046875,0.00603228947147727,-0.002825249684974551,0.003741546766832471
1772812452897086200,1.853086181640625,0.003894262947142124,-0.02390008419752121,0.020540328696370125
1772812452906786800,1.862786865234375,0.00847574882209301,-0.028787001967430115,0.023594651371240616
1772812452916487400,1.8724873046875,0.01000291109085083,-0.02176205813884735,0.011988221667706966
1772812452926188300,1.882188232421875,0.009392046369612217,-0.01259908638894558,-0.00847574882209301
1772812452935889000,1.891888916015625,0.00603228947147727,0.0011453714687377214,-0.02649625949561596
1772812452945589500,1.901589599609375,0.002061668550595641,0.021609341725707054,-0.03565923124551773
1772812452955290000,1.9112900390625,-0.006490438245236874,0.03779725730419159,-0.03352120518684387
1772812452964990700,1.92099072265625,-0.013515383005142212,0.04848739132285118,-0.025579962879419327
1772812452974691300,1.93069140625,-0.015042545273900032,0.039018988609313965,-0.013362666592001915
1772812452984392000,1.940391845703125,-0.013209951110184193,0.020387612283229828,0.00038179047987796366
1772812452994092500,1.950092529296875,-0.00679587060585618,0.004199695307761431,0.011377356946468353
1772812453003793200,1.959793212890625,0.00022907429956831038,0.0029779658652842045,0.020540328696370125
1772812453013494000,1.969493896484375,0.00603228947147727,0.0023671009112149477,0.025732679292559624
1772812453023194600,1.979194580078125,0.009086613543331623,-0.00679587060585618,0.02848157100379467
1772812453032895200,1.988895263671875,0.014278964139521122,-0.016569707542657852,0.026343543082475662
1772812453042595800,1.998595947265625,0.020082179456949234,-0.018402300775051117,0.015958841890096664
1772812453052296400,2.00829638671875,0.020693045109510422,-0.01565340906381607,0.005268708802759647
1772812453061997000,2.0179970703125,0.01030834298580885,-0.016875140368938446,-0.012446369975805283
1772812453071697700,2.02769775390625,0.000839939049910754,-0.004963276442140341,-0.02741255611181259
1772812453081398300,2.037398193359375,-0.0019089524867013097,0.014278964139521122,-0.03627009689807892
1772812453091099000,2.047098876953125,-0.004657844081521034,0.02496909722685814,-0.030772313475608826
1772812453100799700,2.0567998046875,-0.00923932995647192,0.013057234697043896,-0.020693045109510422
1772812453110500400,2.066500244140625,-0.004046979360282421,-0.00679587060585618,-0.008781181648373604
1772812453120201000,2.076200927734375,0.004199695307761431,-0.01259908638894558,0.003741546766832471
1772812453129901600,2.085901611328125,0.006948587018996477,-0.00679587060585618,0.013209951110184193
1772812453139602200,2.095602294921875,-0.0012980876490473747,-0.006185005884617567,0.019624030217528343
1772812453149302800,2.105302734375,-0.008933897130191326,-0.006185005884617567,0.021151192486286163
1772812453159003400,2.11500341796875,-0.011988221667706966,-0.0031306820455938578,0.011988221667706966
1772812453168704000,2.1247041015625,-0.015042545273900032,0.00511599238961935,-0.00511599238961935
1772812453178404600,2.134404541015625,-0.015042545273900032,0.020998476073145866,-0.02130390889942646
1772812453188105500,2.14410546875,-0.010461059398949146,0.02893971838057041,-0.03168861195445061
1772812453197806000,2.15380615234375,-0.003741546766832471,0.02588539570569992,-0.02649625949561596
1772812453207506700,2.163506591796875,-0.0022143847309052944,0.013057234697043896,-0.01030834298580885
1772812453217207300,2.173207275390625,-0.004352411720901728,-0.0034361144062131643,0.006490438245236874
1772812453226908000,2.182907958984375,-0.007101302966475487,-0.010766491293907166,0.024205517023801804
1772812453236608500,2.1926083984375,-0.006185005884617567,-0.013820815831422806,0.031841326504945755
1772812453246309000,2.20230908203125,0.0017562361899763346,-0.01259908638894558,0.03061959706246853
1772812453256009700,2.212009765625,0.00847574882209301,-0.011682788841426373,0.02542724646627903
1772812453265710300,2.22171044921875,0.00755945174023509,-0.019013166427612305,0.010155626572668552
1772812453275411200,2.2314111328125,0.0011453714687377214,-0.02695440873503685,-0.012446369975805283
1772812453285111800,2.24111181640625,-0.007406735327094793,-0.023594651371240616,-0.03504836559295654
1772812453294812400,2.2508125,-0.013515383005142212,-0.005574141163378954,-0.05154171586036682
1772812453304513000,2.260512939453125,-0.016569707542657852,0.006337722297757864,-0.05673406645655632
1772812453314213600,2.270213623046875,-0.013209951110184193,0.00511599238961935,-0.05215258151292801
1772812453323914200,2.279914306640625,-0.007101302966475487,0.006948587018996477,-0.03657552972435951
1772812453333614800,2.28961474609375,-0.007406735327094793,0.02130390889942646,-0.00603228947147727
1772812453343315500,2.2993154296875,-0.020540328696370125,0.026190826669335365,0.03825540840625763
1772812453353016000,2.30901611328125,-0.0397825688123703,0.009392046369612217,0.07643445581197739
1772812453362716700,2.318716552734375,-0.04405862092971802,-0.004963276442140341,0.0962875634431839
1772812453372417500,2.32841748046875,-0.028176138177514076,-0.005268708802759647,0.09445496648550034
1772812453382118100,2.3381181640625,-0.010766491293907166,-0.0025198173243552446,0.07002037763595581
1772812453391818800,2.34781884765625,-0.0022143847309052944,-0.0006872228696011007,0.03367391973733902
1772812453401519400,2.357519287109375,0.001450803829357028,0.015500693581998348,-0.0035888305865228176
1772812453411220000,2.367219970703125,0.006337722297757864,0.026190826669335365,-0.028634287416934967
1772812453420920600,2.376920654296875,0.0057268571108579636,0.013362666592001915,-0.04024071618914604
1772812453430621200,2.38662109375,0.0023671009112149477,-0.013820815831422806,-0.04146244749426842
1772812453440321800,2.39632177734375,0.0035888305865228176,-0.018402300775051117,-0.04024071618914604
1772812453450022400,2.4060224609375,0.003894262947142124,-0.007101302966475487,-0.02741255611181259
1772812453459723000,2.415722900390625,-0.007101302966475487,-0.00923932995647192,-0.009086613543331623
1772812453469423600,2.425423583984375,-0.0193185992538929,-0.023594651371240616,0.003741546766832471
1772812453479124200,2.435124267578125,-0.018096869811415672,-0.029703300446271896,0.011988221667706966
1772812453488825000,2.4448251953125,-0.014126247726380825,-0.025732679292559624,0.015958841890096664
1772812453498525700,2.454525634765625,-0.015347977168858051,-0.012293653562664986,0.011988221667706966
1772812453508226300,2.464226318359375,-0.019929463043808937,0.013057234697043896,0.004963276442140341
1772812453517927000,2.473927001953125,-0.02328922040760517,0.037491824477910995,0.004046979360282421
1772812453527627500,2.48362744140625,-0.026038112118840218,0.03779725730419159,0.007406735327094793
1772812453537328000,2.493328125,-0.02542724646627903,0.020082179456949234,0.01870773360133171
1772812453547028700,2.50302880859375,-0.01779143698513508,0.0005345066892914474,0.03153589367866516
1772812453556729300,2.512729248046875,-0.005574141163378954,-0.014737112447619438,0.03733910992741585
1772812453566430000,2.522429931640625,0.004810560029000044,-0.019929463043808937,0.03061959706246853
1772812453576130600,2.532130615234375,0.009392046369612217,-0.014126247726380825,0.015042545273900032
1772812453585831400,2.54183154296875,0.009086613543331623,0.004505127668380737,0.0006872228696011007
1772812453595532000,2.551531982421875,0.004810560029000044,0.01824958436191082,-0.01183550525456667
1772812453605232600,2.561232666015625,0.0011453714687377214,0.01672242395579815,-0.015806125476956367
1772812453614933200,2.570933349609375,0.000839939049910754,0.0035888305865228176,-0.012140937149524689
1772812453624633900,2.5806337890625,0.004810560029000044,-0.012293653562664986,-0.004505127668380737
1772812453634334500,2.59033447265625,0.01000291109085083,-0.021151192486286163,-0.002672533504664898
1772812453644035000,2.60003515625,0.015500693581998348,-0.020540328696370125,-0.0066431546583771706
1772812453653735700,2.609735595703125,0.015500693581998348,-0.011988221667706966,-0.013362666592001915
1772812453663436300,2.619436279296875,0.009086613543331623,0.0017562361899763346,-0.0191658828407526
1772812453673137200,2.62913720703125,-0.0009926552884280682,0.014889828860759735,-0.016416991129517555
1772812453682837800,2.638837646484375,-0.008017600513994694,0.012751801870763302,-0.002061668550595641
1772812453692538400,2.648538330078125,-0.012293653562664986,-0.0025198173243552446,0.014126247726380825
1772812453702239000,2.658239013671875,-0.013209951110184193,-0.01565340906381607,0.026038112118840218
1772812453711939600,2.667939697265625,-0.010155626572668552,-0.015958841890096664,0.029703300446271896
1772812453721640200,2.67764013671875,-0.007406735327094793,-0.013820815831422806,0.02237292192876339
1772812453731340800,2.6873408203125,-0.008933897130191326,-0.010155626572668552,0.00954476185142994
1772812453741041400,2.69704150390625,-0.00923932995647192,-0.004657844081521034,-0.005421424750238657
1772812453750742000,2.706741943359375,-0.008323032408952713,-0.0012980876490473747,-0.014889828860759735
1772812453760443000,2.71644287109375,-0.004352411720901728,0.0017562361899763346,-0.020693045109510422
1772812453770143500,2.7261435546875,-0.0019089524867013097,0.0023671009112149477,-0.018860450014472008
1772812453779844000,2.735843994140625,-0.0009926552884280682,0.004810560029000044,-0.013973532244563103
1772812453789544700,2.745544677734375,0.002061668550595641,0.010613775812089443,-0.0011453714687377214
1772812453799245300,2.755245361328125,0.002061668550595641,0.008781181648373604,0.012904518283903599
1772812453808946000,2.76494580078125,0.0011453714687377214,0.00847574882209301,0.03000873140990734
1772812453818646500,2.774646484375,-0.0058795735239982605,0.006948587018996477,0.04558578506112099
1772812453828347100,2.78434716796875,-0.01779143698513508,0.0017562361899763346,0.050778135657310486
1772812453838047700,2.7940478515625,-0.030314164236187935,-0.0031306820455938578,0.043753188103437424
1772812453847748600,2.80374853515625,-0.03520108386874199,-0.004963276442140341,0.02084576152265072
1772812453857449200,2.81344921875,-0.028787001967430115,0.0035888305865228176,-0.00847574882209301
1772812453867149800,2.82314990234375,-0.016569707542657852,0.014889828860759735,-0.03504836559295654
1772812453876850400,2.832850341796875,-0.0034361144062131643,0.017027854919433594,-0.05154171586036682
1772812453886551000,2.842551025390625,0.007254019379615784,0.006337722297757864,-0.0576503649353981
1772812453896251600,2.852251708984375,0.017333287745714188,-0.008323032408952713,-0.050930850207805634
1772812453905952300,2.8619521484375,0.023136503994464874,-0.014431680552661419,-0.03413207083940506
1772812453915652900,2.87165283203125,0.020998476073145866,-0.01779143698513508,-0.01824958436191082
1772812453925353500,2.881353515625,0.017944153398275375,-0.019929463043808937,-0.004199695307761431
1772812453935054000,2.89105419921875,0.0191658828407526,-0.016875140368938446,0.0012980876490473747
1772812453944754700,2.900754638671875,0.018860450014472008,-0.012293653562664986,0.004046979360282421
1772812453954455600,2.91045556640625,0.012446369975805283,-0.0058795735239982605,0.0058795735239982605
1772812453964156200,2.92015625,0.004810560029000044,0.0017562361899763346,0.008628465235233307
1772812453973856800,2.929856689453125,-0.0009926552884280682,0.01000291109085083,0.010155626572668552
1772812453983557400,2.939557373046875,-0.006185005884617567,0.01611155830323696,0.01565340906381607
1772812453993258000,2.949258056640625,-0.008323032408952713,0.011224640533328056,0.021456625312566757
1772812454002958600,2.95895849609375,-0.008933897130191326,-0.0022143847309052944,0.025121813639998436
1772812454012659200,2.9686591796875,-0.010155626572668552,-0.008017600513994694,0.022678354755043983
1772812454022359800,2.97835986328125,-0.012293653562664986,-0.003741546766832471,0.010766491293907166
1772812454032060400,2.988060302734375,-0.01259908638894558,0.012446369975805283,0.0019089524867013097
1772812454041761000,2.997760986328125,-0.015042545273900032,0.021914774551987648,-0.006337722297757864
1772812454051461600,3.007461669921875,-0.013209951110184193,0.019471315667033195,-0.009086613543331623
1772812454061162200,3.017162353515625,-0.008933897130191326,0.007864884100854397,-0.008170315995812416
1772812454070862800,3.02686279296875,-0.0019089524867013097,-0.0009926552884280682,-0.009697478264570236
1772812454080563700,3.036563720703125,0.004810560029000044,0.0035888305865228176,-0.007864884100854397
1772812454090264300,3.046264404296875,0.003894262947142124,0.015195261687040329,0.0006872228696011007
1772812454099965000,3.05596484375,-0.004352411720901728,0.013057234697043896,0.01259908638894558
1772812454109665500,3.06566552734375,-0.011377356946468353,-0.0031306820455938578,0.02390008419752121
1772812454119366100,3.0753662109375,-0.010155626572668552,-0.026038112118840218,0.02390008419752121
1772812454129066800,3.085066650390625,-0.0006872228696011007,-0.03428478538990021,0.011682788841426373
1772812454138767400,3.094767333984375,0.008170315995812416,-0.02176205813884735,-0.009086613543331623
1772812454148468000,3.104468017578125,0.011530072428286076,-0.004657844081521034,-0.030772313475608826
1772812454158168600,3.11416845703125,0.01000291109085083,0.007254019379615784,-0.0475710928440094
1772812454167869400,3.123869384765625,0.00603228947147727,0.012446369975805283,-0.05429060757160187
1772812454177570000,3.133570068359375,0.0017562361899763346,0.009086613543331623,-0.04696023091673851
1772812454187270700,3.143270751953125,-0.0022143847309052944,-0.002825249684974551,-0.0322994738817215
1772812454196971300,3.15297119140625,-0.004046979360282421,-0.00954476185142994,-0.012140937149524689
1772812454206672000,3.162671875,-0.004352411720901728,0.0017562361899763346,0.010461059398949146
1772812454216372500,3.17237255859375,-0.007406735327094793,0.0191658828407526,0.034895651042461395
1772812454226073000,3.182072998046875,-0.013209951110184193,0.0191658828407526,0.05169443041086197
1772812454235773700,3.191773681640625,-0.015042545273900032,0.00603228947147727,0.0602465383708477
1772812454245474300,3.201474365234375,-0.010461059398949146,-0.00954476185142994,0.05688678100705147
1772812454255175200,3.211175048828125,-0.0031306820455938578,-0.01626427471637726,0.043142326176166534
1772812454264875800,3.220875732421875,0.0023671009112149477,-0.008323032408952713,0.02023489587008953
1772812454274576400,3.230576416015625,0.004810560029000044,0.0066431546583771706,0.0009926552884280682
1772812454284277000,3.240277099609375,-0.0012980876490473747,0.017027854919433594,-0.01183550525456667
1772812454293977600,3.2499775390625,-0.008017600513994694,0.013973532244563103,-0.01763872057199478
1772812454303678200,3.25967822265625,-0.007101302966475487,-0.004963276442140341,-0.01977674663066864
1772812454313378800,3.26937890625,0.000839939049910754,-0.020540328696370125,-0.017944153398275375
1772812454323079400,3.279079345703125,0.0023671009112149477,-0.023594651371240616,-0.01672242395579815
1772812454332780000,3.288780029296875,-0.003741546766832471,-0.007101302966475487,-0.013362666592001915
1772812454342480600,3.298480712890625,-0.01259908638894558,0.015500693581998348,-0.013668099418282509
1772812454352181500,3.308181396484375,-0.018402300775051117,0.024663666263222694,-0.00847574882209301
1772812454361882000,3.317882080078125,-0.022983787581324577,0.020082179456949234,0.0006872228696011007
1772812454371582700,3.327582763671875,-0.02390008419752121,0.015195261687040329,0.012904518283903599
1772812454381283300,3.337283447265625,-0.024510949850082397,0.003283398225903511,0.021456625312566757
1772812454390984000,3.34698388671875,-0.029703300446271896,-0.008017600513994694,0.02023489587008953
1772812454400684500,3.3566845703125,-0.033368486911058426,-0.0009926552884280682,0.014431680552661419
1772812454410385200,3.36638525390625,-0.0345902182161808,0.012751801870763302,0.0012980876490473747
1772812454420085800,3.376085693359375,-0.030314164236187935,0.012751801870763302,-0.01000291109085083
1772812454429786400,3.385786376953125,-0.0193185992538929,0.002061668550595641,-0.015195261687040329
1772812454439487000,3.395487060546875,-0.004963276442140341,0.0023671009112149477,-0.016416991129517555
1772812454449187600,3.4051875,0.007254019379615784,0.013668099418282509,-0.006948587018996477
1772812454458888200,3.41488818359375,0.008781181648373604,0.01977674663066864,0.009850194677710533
1772812454468588800,3.4245888671875,0.0029779658652842045,0.009697478264570236,0.028176138177514076
1772812454478289400,3.434289306640625,0.0011453714687377214,-0.007406735327094793,0.03825540840625763
1772812454487990300,3.443990234375,0.007254019379615784,-0.011988221667706966,0.03672824427485466
1772812454497691000,3.45369091796875,0.01824958436191082,-0.0077121676877141,0.022067490965127945
1772812454507391500,3.4633916015625,0.030161447823047638,-0.00038179047987796366,0.008628465235233307
1772812454517092000,3.473092041015625,0.03504836559295654,-0.0034361144062131643,-0.00603228947147727
1772812454526792700,3.482792724609375,0.03321577236056328,-0.011988221667706966,-0.01824958436191082
1772812454536493300,3.492493408203125,0.029856016859412193,-0.022678354755043983,-0.029245151206851006
1772812454546194000,3.50219384765625,0.022525638341903687,-0.02328922040760517,-0.03810269013047218
1772812454555894500,3.51189453125,0.013362666592001915,-0.014126247726380825,-0.05123628303408623
1772812454565595100,3.52159521484375,0.0057268571108579636,0.001450803829357028,-0.060704685747623444
1772812454575296000,3.5312958984375,0.0005345066892914474,0.017333287745714188,-0.05581776797771454
1772812454584996600,3.54099658203125,-0.005574141163378954,0.019471315667033195,-0.04085158184170723
1772812454594697200,3.550697265625,-0.010155626572668552,0.00755945174023509,-0.01977674663066864
1772812454604397800,3.560397705078125,-0.008933897130191326,-0.006185005884617567,0.0019089524867013097
1772812454614098400,3.570098388671875,-0.005574141163378954,-0.007406735327094793,0.018096869811415672
1772812454623799000,3.579799072265625,-0.0012980876490473747,0.004810560029000044,0.025121813639998436
1772812454633499600,3.589499755859375,0.002061668550595641,0.020998476073145866,0.030925029888749123
1772812454643200300,3.5992001953125,-0.0006872228696011007,0.024052800610661507,0.034895651042461395
1772812454652900900,3.60890087890625,-0.003741546766832471,0.012751801870763302,0.03672824427485466
1772812454662601700,3.618601806640625,-0.0058795735239982605,0.003894262947142124,0.03733910992741585
1772812454672302300,3.62830224609375,-0.004963276442140341,-0.005268708802759647,0.03214675933122635
1772812454682003000,3.6380029296875,0.0005345066892914474,-0.012904518283903599,0.02237292192876339
1772812454691703600,3.64770361328125,0.00847574882209301,-0.016875140368938446,0.0022143847309052944
1772812454701404200,3.657404052734375,0.01763872057199478,-0.00923932995647192,-0.01977674663066864
1772812454711104800,3.667104736328125,0.02649625949561596,-0.0006872228696011007,-0.039018988609313965
1772812454720805400,3.676805419921875,0.025274530053138733,0.003894262947142124,-0.0475710928440094
1772812454730506000,3.686506103515625,0.018555017188191414,0.0023671009112149477,-0.04085158184170723
1772812454740206600,3.69620654296875,0.014278964139521122,-0.003741546766832471,-0.02496909722685814
1772812454749907200,3.7059072265625,0.009392046369612217,0.000839939049910754,-0.0011453714687377214
1772812454759607800,3.71560791015625,0.0023671009112149477,0.007864884100854397,0.02176205813884735
1772812454769308400,3.725308349609375,-0.003741546766832471,0.009086613543331623,0.03825540840625763
1772812454779009300,3.73500927734375,-0.006490438245236874,0.009392046369612217,0.04222602769732475
1772812454798410500,3.754410400390625,-0.004657844081521034,0.01000291109085083,0.0397825688123703
1772812454808111000,3.764111083984375,0.0017562361899763346,0.00603228947147727,0.03214675933122635
1772812454817811700,3.773811767578125,0.006948587018996477,0.000839939049910754,0.023594651371240616
1772812454827512300,3.78351220703125,0.010613775812089443,-0.003741546766832471,0.015042545273900032
1772812454837213000,3.793212890625,0.011530072428286076,-0.004963276442140341,0.005268708802759647
1772812454846913500,3.80291357421875,0.012751801870763302,-0.008933897130191326,-0.002672533504664898
1772812454856614100,3.8126142578125,0.014584396965801716,-0.013209951110184193,-0.013362666592001915
1772812454866314800,3.822314697265625,0.017944153398275375,-0.011377356946468353,-0.020082179456949234
1772812454876015400,3.832015380859375,0.0243582334369421,-0.013209951110184193,-0.022220205515623093
1772812454885716000,3.841716064453125,0.028634287416934967,-0.013209951110184193,-0.01672242395579815
1772812454895416800,3.851416748046875,0.0243582334369421,-0.012904518283903599,-0.004505127668380737
1772812454905117400,3.861117431640625,0.009697478264570236,-0.01107192412018776,0.013209951110184193
1772812454924518700,3.8805185546875,-0.014431680552661419,0.001450803829357028,0.030925029888749123
1772812454934219300,3.89021923828125,-0.013515383005142212,0.00755945174023509,0.029397867619991302
1772812454943919900,3.899919921875,-0.0077121676877141,0.012140937149524689,0.019929463043808937
1772812454953620500,3.909620361328125,-0.006185005884617567,0.013057234697043896,0.007101302966475487
1772812454963321000,3.919321044921875,-0.007406735327094793,0.013362666592001915,-0.0029779658652842045
1772812454973021700,3.929021728515625,-0.013209951110184193,0.0057268571108579636,-0.01030834298580885
1772812454982722600,3.93872265625,-0.01779143698513508,-0.007101302966475487,-0.017333287745714188
1772812454992423200,3.948423095703125,-0.017486004158854485,-0.00923932995647192,-0.023136503994464874
1772812455002123800,3.958123779296875,-0.009850194677710533,-0.005268708802759647,-0.024663666263222694
1772812455011824400,3.967824462890625,0.002672533504664898,0.0029779658652842045,-0.022220205515623093
1772812455021525000,3.97752490234375,0.020998476073145866,0.002672533504664898,-0.015806125476956367
1772812455031225600,3.9872255859375,0.03413207083940506,-0.0022143847309052944,-0.0005345066892914474
1772812455040926200,3.99692626953125,0.037491824477910995,-0.008933897130191326,0.019929463043808937
1772812455050626800,4.006626708984375,0.030161447823047638,-0.01779143698513508,0.03733910992741585
1772812455060327400,4.016327392578125,0.019471315667033195,-0.017486004158854485,0.04864010959863663
1772812455070028000,4.026028076171875,0.010919207707047462,-0.0025198173243552446,0.052916161715984344
1772812455079728600,4.035728759765625,-0.0025198173243552446,0.007254019379615784,0.046807512640953064
1772812455099130000,4.055130126953125,-0.01779143698513508,0.00511599238961935,0.015958841890096664
1772812455108830700,4.064830810546875,-0.011988221667706966,0.00022907429956831038,-0.006337722297757864
1772812455118531300,4.07453125,-0.002825249684974551,0.0005345066892914474,-0.023441936820745468
1772812455128232000,4.08423193359375,-0.0016035200096666813,0.00511599238961935,-0.034437503665685654
1772812455137932500,4.0939326171875,-0.003741546766832471,0.010919207707047462,-0.036880962550640106
1772812455147633200,4.103633056640625,-0.014431680552661419,0.013057234697043896,-0.029245151206851006
1772812455157333800,4.113333740234375,-0.029397867619991302,0.012446369975805283,-0.01824958436191082
1772812455167034400,4.123034423828125,-0.04039343446493149,0.011224640533328056,-0.007864884100854397
1772812455176735000,4.13273486328125,-0.04039343446493149,0.00847574882209301,-0.0029779658652842045
1772812455186435600,4.142435546875,-0.02909243479371071,0.0005345066892914474,-0.00022907429956831038
1772812455196136200,4.15213623046875,-0.012904518283903599,-0.008017600513994694,0.0009926552884280682
1772812455205836800,4.1618369140625,0.00022907429956831038,-0.011988221667706966,0.0006872228696011007
1772812455215537700,4.17153759765625,0.00755945174023509,-0.016875140368938446,-0.0017562361899763346
1772812455225238300,4.18123828125,0.00511599238961935,-0.013820815831422806,-0.0035888305865228176
1772812455234939000,4.19093896484375,0.000839939049910754,-0.004963276442140341,-0.0057268571108579636
1772812455244639500,4.200639404296875,-0.0034361144062131643,0.0066431546583771706,-0.010919207707047462
1772812455254340000,4.210340087890625,-0.005268708802759647,0.016416991129517555,-0.008170315995812416
1772812455264040700,4.220040771484375,-0.00038179047987796366,0.01611155830323696,-0.004505127668380737
1772812455273741300,4.2297412109375,0.00847574882209301,0.003894262947142124,0.0022143847309052944
1772812455283442000,4.23944189453125,0.019471315667033195,-0.00954476185142994,0.010461059398949146
1772812455293142500,4.249142578125,0.029245151206851006,-0.018402300775051117,0.015347977168858051
1772812455302843400,4.258843505859375,0.03260490670800209,-0.018402300775051117,0.013820815831422806
1772812455312544000,4.2685439453125,0.02588539570569992,-0.010155626572668552,0.00954476185142994
1772812455322244600,4.27824462890625,0.01763872057199478,-0.0019089524867013097,0.0031306820455938578
1772812455331945200,4.2879453125,0.01183550525456667,0.0005345066892914474,-0.0035888305865228176
1772812455341645800,4.297645751953125,0.009697478264570236,0.003283398225903511,-0.00847574882209301
1772812455351346400,4.307346435546875,0.00847574882209301,0.0057268571108579636,-0.015500693581998348
1772812455361047000,4.317047119140625,0.00847574882209301,0.0035888305865228176,-0.020082179456949234
1772812455370747600,4.32674755859375,0.010613775812089443,-0.0019089524867013097,-0.01977674663066864
1772812455380448300,4.3364482421875,0.014278964139521122,-0.008323032408952713,-0.017333287745714188
1772812455390148900,4.34614892578125,0.014584396965801716,-0.005574141163378954,-0.009697478264570236
1772812455399849500,4.355849365234375,0.009086613543331623,-0.0022143847309052944,-0.003283398225903511
1772812455409550000,4.365550048828125,0.0011453714687377214,-0.0031306820455938578,0.00038179047987796366
1772812455419250700,4.375250732421875,-0.004963276442140341,0.0005345066892914474,-0.000839939049910754
1772812455428951300,4.384951416015625,-0.0077121676877141,0.009392046369612217,-0.0066431546583771706
1772812455438652200,4.394652099609375,-0.0058795735239982605,0.019471315667033195,-0.01030834298580885
1772812455448352800,4.404352783203125,-0.004046979360282421,0.022525638341903687,-0.012751801870763302
1772812455458053400,4.414053466796875,0.001450803829357028,0.018555017188191414,-0.007864884100854397
1772812455467754000,4.42375390625,0.002061668550595641,0.013362666592001915,0.007101302966475487
1772812455477454600,4.43345458984375,-0.002825249684974551,0.0011453714687377214,0.0193185992538929
1772812455487155200,4.4431552734375,-0.008933897130191326,-0.008017600513994694,0.025121813639998436
1772812455496855800,4.452855712890625,-0.007101302966475487,-0.007101302966475487,0.022067490965127945
1772812455506556400,4.462556396484375,0.0035888305865228176,0.005421424750238657,0.014431680552661419
1772812455516257000,4.472257080078125,0.017944153398275375,0.011530072428286076,-0.002061668550595641
1772812455525957600,4.48195751953125,0.0319940410554409,0.013057234697043896,-0.01824958436191082
1772812455535658500,4.491658447265625,0.03627009689807892,0.00755945174023509,-0.0295505840331316
1772812455545359000,4.501359130859375,0.028634287416934967,-0.0031306820455938578,-0.03352120518684387
1772812455555059700,4.511059814453125,0.01672242395579815,-0.00923932995647192,-0.030772313475608826
1772812455564760300,4.52076025390625,0.00603228947147727,-0.01107192412018776,-0.026801692321896553
1772812455574461000,4.5304609375,0.0035888305865228176,-0.013820815831422806,-0.0243582334369421
1772812455584161500,4.54016162109375,0.011224640533328056,-0.009850194677710533,-0.023747367784380913
1772812455593862100,4.549862060546875,0.018555017188191414,-0.0025198173243552446,-0.0243582334369421
1772812455603562800,4.559562744140625,0.020082179456949234,0.008170315995812416,-0.018555017188191414
1772812455613263400,4.569263427734375,0.013668099418282509,0.0057268571108579636,-0.008170315995812416
1772812455622964200,4.578964111328125,0.0035888305865228176,-0.0006872228696011007,0.00679587060585618
1772812455632664800,4.588664794921875,-0.0016035200096666813,-0.00038179047987796366,0.02176205813884735
1772812455642365400,4.598365478515625,-0.0031306820455938578,0.004505127668380737,0.029397867619991302
1772812455652066000,4.608066162109375,-0.0016035200096666813,0.009697478264570236,0.03306305781006813
1772812455661766700,4.6177666015625,-0.00007635809743078426,0.009086613543331623,0.029703300446271896
1772812455671467300,4.62746728515625,0.00022907429956831038,0.009697478264570236,0.021456625312566757
1772812455681168000,4.63716796875,0.004505127668380737,0.00755945174023509,0.00954476185142994
1772812455690868500,4.646868408203125,0.00847574882209301,-0.0006872228696011007,0.0025198173243552446
1772812455700569000,4.656569091796875,0.009392046369612217,-0.006185005884617567,-0.00022907429956831038
1772812455710269700,4.666269775390625,0.00603228947147727,-0.008933897130191326,-0.0023671009112149477
1772812455719970300,4.67597021484375,-0.0006872228696011007,-0.005268708802759647,-0.004810560029000044
1772812455729671000,4.6856708984375,-0.010155626572668552,-0.0016035200096666813,-0.010919207707047462
1772812455739371500,4.69537158203125,-0.02023489587008953,0.004810560029000044,-0.018860450014472008
1772812455749072100,4.705072021484375,-0.02756527252495289,0.0057268571108579636,-0.02802342176437378
1772812455758772700,4.714772705078125,-0.027870705351233482,0.003283398225903511,-0.03352120518684387
1772812455768473600,4.7244736328125,-0.021151192486286163,0.004810560029000044,-0.03535379841923714
1772812455778174200,4.73417431640625,-0.01565340906381607,0.007254019379615784,-0.0319940410554409
1772812455787874800,4.743874755859375,-0.014737112447619438,0.0057268571108579636,-0.021914774551987648
1772812455797575400,4.753575439453125,-0.01870773360133171,-0.004352411720901728,-0.00755945174023509
1772812455807276000,4.763276123046875,-0.02390008419752121,-0.017486004158854485,0.0025198173243552446
1772812455816976600,4.7729765625,-0.024205517023801804,-0.016875140368938446,0.00679587060585618
1772812455826677200,4.78267724609375,-0.015347977168858051,-0.004352411720901728,0.004046979360282421
1772812455836377900,4.7923779296875,-0.005268708802759647,0.0066431546583771706,-0.003283398225903511
1772812455846078500,4.802078369140625,0.002061668550595641,0.01000291109085083,-0.006948587018996477
1772812455855779300,4.811779296875,0.003894262947142124,0.012751801870763302,-0.005421424750238657
1772812455865480000,4.82147998046875,0.001450803829357028,0.008781181648373604,0.00923932995647192
1772812455875180500,4.8311806640625,-0.004046979360282421,-0.005268708802759647,0.025121813639998436
1772812455884881200,4.840881103515625,-0.004352411720901728,-0.01718057133257389,0.033979352563619614
1772812455894581800,4.850581787109375,-0.0019089524867013097,-0.01626427471637726,0.0345902182161808
1772812455904282400,4.860282470703125,-0.0012980876490473747,-0.008933897130191326,0.025121813639998436
1772812455913983000,4.86998291015625,-0.0031306820455938578,-0.005268708802759647,0.010155626572668552
1772812455923683600,4.87968359375,-0.004046979360282421,-0.007406735327094793,-0.009697478264570236
1772812455933384200,4.88938427734375,-0.0022143847309052944,-0.0034361144062131643,-0.02588539570569992
1772812455943084800,4.899084716796875,-0.0034361144062131643,0.005421424750238657,-0.0322994738817215
1772812455952785400,4.908785400390625,-0.010155626572668552,0.005421424750238657,-0.03474293276667595
1772812455962486000,4.918486083984375,-0.0193185992538929,0.0023671009112149477,-0.02802342176437378
1772812455972186600,4.9281865234375,-0.025732679292559624,-0.0025198173243552446,-0.015500693581998348
1772812455981887200,4.93788720703125,-0.030314164236187935,-0.0058795735239982605,-0.003894262947142124
1772812455991587800,4.947587890625,-0.03306305781006813,-0.0019089524867013097,0.008933897130191326
1772812456001288700,4.957288818359375,-0.03520108386874199,0.0066431546583771706,0.01718057133257389
1772812456010989300,4.9669892578125,-0.03428478538990021,0.017944153398275375,0.018096869811415672
1772812456020690000,4.97668994140625,-0.029703300446271896,0.02802342176437378,0.017486004158854485
1772812456030390500,4.986390625,-0.023594651371240616,0.02893971838057041,0.019013166427612305
1772812456040091100,4.996091064453125,-0.01565340906381607,0.020082179456949234,0.0193185992538929
1772812456049791700,5.005791748046875,-0.005268708802759647,0.0066431546583771706,0.020540328696370125
1772812456059492400,5.015492431640625,0.004810560029000044,-0.004046979360282421,0.01626427471637726
1772812456069193000,5.02519287109375,0.011224640533328056,-0.007406735327094793,0.010461059398949146
1772812456078893600,5.0348935546875,0.01611155830323696,-0.011377356946468353,0.007406735327094793
1772812456088594400,5.044594482421875,0.015806125476956367,-0.01107192412018776,0.0016035200096666813
1772812456098295000,5.054294921875,0.010613775812089443,-0.0031306820455938578,0.0012980876490473747
1772812456107995600,5.06399560546875,-0.00007635809743078426,-0.002825249684974551,-0.0005345066892914474
1772812456117696300,5.0736962890625,-0.011988221667706966,-0.011377356946468353,-0.0066431546583771706
1772812456127396900,5.08339697265625,-0.0193185992538929,-0.014737112447619438,-0.017333287745714188
1772812456137097500,5.093097412109375,-0.018096869811415672,-0.0019089524867013097,-0.0295505840331316
1772812456146798000,5.102798095703125,-0.01259908638894558,0.016416991129517555,-0.03565923124551773
1772812456156498700,5.112498779296875,-0.008017600513994694,0.02283107116818428,-0.03260490670800209
1772812456166199300,5.12219921875,-0.004963276442140341,0.01977674663066864,-0.01672242395579815
1772812456175900000,5.13189990234375,-0.004963276442140341,0.006948587018996477,0.00679587060585618
1772812456185600500,5.1416005859375,-0.008017600513994694,-0.00923932995647192,0.027870705351233482
1772812456195301000,5.151301025390625,-0.012904518283903599,-0.015347977168858051,0.038560837507247925
1772812456205001700,5.161001708984375,-0.012293653562664986,-0.006185005884617567,0.03581194952130318
1772812456214702300,5.170702392578125,-0.00923932995647192,0.006948587018996477,0.021456625312566757
1772812456224403000,5.18040283203125,-0.004352411720901728,0.017944153398275375,0.0025198173243552446
1772812456234103800,5.190103759765625,0.00022907429956831038,0.023747367784380913,-0.010613775812089443
1772812456243804400,5.199804443359375,0.00755945174023509,0.017333287745714188,-0.01977674663066864
1772812456253505000,5.209505126953125,0.011530072428286076,0.006337722297757864,-0.01824958436191082
1772812456263205600,5.21920556640625,0.013362666592001915,-0.007101302966475487,-0.01030834298580885
1772812456272906200,5.22890625,0.013362666592001915,-0.015042545273900032,-0.00022907429956831038
1772812456282606800,5.23860693359375,0.01183550525456667,-0.014126247726380825,0.00679587060585618
1772812456292307500,5.248307373046875,0.0057268571108579636,-0.010766491293907166,0.006490438245236874
1772812456302008000,5.258008056640625,-0.0006872228696011007,-0.007406735327094793,-0.0029779658652842045
1772812456311708700,5.267708740234375,-0.005268708802759647,-0.004963276442140341,-0.017027854919433594
1772812456321409500,5.277409423828125,-0.00679587060585618,-0.0009926552884280682,-0.030466880649328232
1772812456331110100,5.287110107421875,-0.00923932995647192,0.0066431546583771706,-0.03474293276667595
1772812456340810800,5.296810791015625,-0.010155626572668552,0.015195261687040329,-0.03321577236056328
1772812456350511400,5.306511474609375,-0.010766491293907166,0.013362666592001915,-0.023441936820745468
1772812456360212000,5.3162119140625,-0.005574141163378954,0.006948587018996477,-0.00847574882209301
1772812456369912600,5.32591259765625,-0.0019089524867013097,-0.005574141163378954,0.007101302966475487
1772812456379613200,5.33561328125,-0.0022143847309052944,-0.01259908638894558,0.02084576152265072
1772812456389313800,5.345313720703125,-0.0022143847309052944,-0.011988221667706966,0.024205517023801804
1772812456399014400,5.355014404296875,0.0005345066892914474,-0.00679587060585618,0.0193185992538929
1772812456408715000,5.364715087890625,0.006337722297757864,-0.0012980876490473747,0.0077121676877141
1772812456418415600,5.37441552734375,0.013668099418282509,0.000839939049910754,-0.004810560029000044
1772812456428116200,5.3841162109375,0.019471315667033195,0.002672533504664898,-0.019471315667033195
1772812456437816800,5.39381689453125,0.022220205515623093,0.002672533504664898,-0.024663666263222694
1772812456447517400,5.403517333984375,0.020998476073145866,-0.00007635809743078426,-0.017944153398275375
1772812456457218000,5.413218017578125,0.017944153398275375,-0.005268708802759647,-0.007864884100854397
1772812456466919000,5.4229189453125,0.014584396965801716,-0.0025198173243552446,0.003741546766832471
1772812456476619500,5.43261962890625,0.01000291109085083,0.0011453714687377214,0.011988221667706966
1772812456486320000,5.442320068359375,0.00603228947147727,-0.0019089524867013097,0.015042545273900032
1772812456496020700,5.452020751953125,0.006948587018996477,-0.002825249684974551,0.011988221667706966
1772812456505721300,5.461721435546875,0.009392046369612217,-0.008323032408952713,0.004963276442140341
1772812456515422000,5.471421875,0.011530072428286076,-0.012293653562664986,-0.0029779658652842045
1772812456525122600,5.48112255859375,0.010613775812089443,-0.01107192412018776,-0.01030834298580885
1772812456534823200,5.4908232421875,0.00755945174023509,-0.004963276442140341,-0.01611155830323696
1772812456544523800,5.500523681640625,0.003894262947142124,0.001450803829357028,-0.01824958436191082
1772812456554224600,5.510224609375,-0.00038179047987796366,0.00847574882209301,-0.020693045109510422
1772812456563925200,5.51992529296875,-0.0009926552884280682,0.012446369975805283,-0.020082179456949234
1772812456573625900,5.5296259765625,0.002061668550595641,0.00603228947147727,-0.015500693581998348
1772812456583326500,5.539326416015625,0.0035888305865228176,-0.008017600513994694,-0.009086613543331623
1772812456593027000,5.549027099609375,0.008781181648373604,-0.01259908638894558,0.00007635809743078426
1772812456602727700,5.558727783203125,0.012751801870763302,-0.013820815831422806,0.00954476185142994
1772812456612428300,5.56842822265625,0.011530072428286076,-0.015347977168858051,0.01565340906381607
1772812456622129000,5.57812890625,0.00755945174023509,-0.01107192412018776,0.019013166427612305
1772812456631829500,5.58782958984375,0.0011453714687377214,-0.00038179047987796366,0.01626427471637726
1772812456641530000,5.597530029296875,0.00022907429956831038,0.013668099418282509,0.011988221667706966
1772812456651230700,5.607230712890625,0.0066431546583771706,0.017333287745714188,0.007406735327094793
1772812456660931300,5.616931396484375,0.017027854919433594,0.009086613543331623,0.003741546766832471
1772812456670632000,5.6266318359375,0.020387612283229828,0.002672533504664898,0.006185005884617567
1772812456680332500,5.63633251953125,0.012446369975805283,0.0005345066892914474,0.007406735327094793
1772812456690033200,5.646033203125,-0.0016035200096666813,-0.0012980876490473747,0.006185005884617567
1772812456699734000,5.655734130859375,-0.01107192412018776,-0.004046979360282421,0.0016035200096666813
1772812456709434600,5.6654345703125,-0.011682788841426373,-0.005268708802759647,-0.0057268571108579636
1772812456719135200,5.67513525390625,-0.004352411720901728,-0.007406735327094793,-0.015195261687040329
1772812456728835800,5.6848359375,0.005421424750238657,-0.00679587060585618,-0.02588539570569992
1772812456738536400,5.694536376953125,0.010919207707047462,-0.00007635809743078426,-0.03107774630188942
1772812456748237000,5.704237060546875,0.0066431546583771706,0.008170315995812416,-0.0295505840331316
1772812456757937700,5.713937744140625,-0.0019089524867013097,0.012751801870763302,-0.01824958436191082
1772812456767638300,5.72363818359375,-0.013820815831422806,0.014889828860759735,-0.003894262947142124
1772812456777339000,5.7333388671875,-0.024510949850082397,0.015195261687040329,0.011682788841426373
1772812456787039700,5.743039794921875,-0.02909243479371071,0.015500693581998348,0.026038112118840218
1772812456796740400,5.752740234375,-0.02328922040760517,0.009392046369612217,0.03611737862229347
1772812456806441000,5.76244091796875,-0.014126247726380825,-0.0012980876490473747,0.039477135986089706
1772812456816141600,5.7721416015625,-0.007101302966475487,-0.01107192412018776,0.029703300446271896
1772812456825842200,5.78184228515625,-0.002825249684974551,-0.010766491293907166,0.010461059398949146
1772812456835542800,5.791542724609375,-0.0009926552884280682,0.00022907429956831038,-0.008781181648373604
1772812456845243400,5.801243408203125,-0.004046979360282421,0.01611155830323696,-0.027107125148177147
1772812456854944000,5.810944091796875,-0.005574141163378954,0.029856016859412193,-0.034437503665685654
1772812456864644600,5.82064453125,-0.007101302966475487,0.026190826669335365,-0.02802342176437378
1772812456884045800,5.8400458984375,-0.002825249684974551,-0.012904518283903599,-0.001450803829357028
1772812456893746400,5.849746337890625,0.002061668550595641,-0.023594651371240616,0.005268708802759647
1772812456903447000,5.859447021484375,0.000839939049910754,-0.021456625312566757,0.0025198173243552446
1772812456913147600,5.869147705078125,-0.0006872228696011007,-0.007101302966475487,-0.00847574882209301
1772812456922848300,5.87884814453125,-0.0009926552884280682,0.012446369975805283,-0.017027854919433594
1772812456932549000,5.888549072265625,-0.004657844081521034,0.020387612283229828,-0.017333287745714188
1772812456942249700,5.898249755859375,-0.0077121676877141,0.015806125476956367,-0.00755945174023509
1772812456951950300,5.907950439453125,-0.00923932995647192,0.004199695307761431,0.0022143847309052944
1772812456961651000,5.91765087890625,-0.010155626572668552,-0.005574141163378954,0.011988221667706966
1772812456971351600,5.9273515625,-0.011682788841426373,-0.011377356946468353,0.015958841890096664
1772812456981052200,5.93705224609375,-0.010155626572668552,-0.011988221667706966,0.00923932995647192
1772812456990752800,5.946752685546875,-0.008323032408952713,-0.0034361144062131643,-0.0035888305865228176
1772812457000453400,5.956453369140625,-0.0077121676877141,0.010613775812089443,-0.016416991129517555
1772812457010154000,5.966154052734375,-0.003741546766832471,0.017944153398275375,-0.02802342176437378
1772812457019854600,5.9758544921875,0.0017562361899763346,0.01183550525456667,-0.03107774630188942
1772812457029555200,5.98555517578125,0.008170315995812416,0.0023671009112149477,-0.027717988938093185
1772812457039255800,5.995255859375,0.010919207707047462,-0.0006872228696011007,-0.014278964139521122
1772812457048956400,6.004956298828125,0.009086613543331623,-0.0025198173243552446,0.004657844081521034
1772812457058657000,6.014656982421875,0.004810560029000044,-0.00923932995647192,0.019929463043808937
1772812457068357600,6.024357666015625,0.001450803829357028,-0.014737112447619438,0.029397867619991302
1772812457078058500,6.03405859375,-0.00007635809743078426,-0.013209951110184193,0.027259841561317444
1772812457087759000,6.043759033203125,-0.0016035200096666813,-0.0012980876490473747,0.015958841890096664
1772812457097459700,6.053459716796875,-0.003741546766832471,0.013668099418282509,0.0034361144062131643
1772812457107160300,6.063160400390625,-0.004963276442140341,0.01672242395579815,-0.007864884100854397
1772812457116861000,6.07286083984375,-0.004963276442140341,0.005421424750238657,-0.015806125476956367
1772812457126561500,6.0825615234375,-0.00007635809743078426,-0.005574141163378954,-0.020082179456949234
1772812457136262100,6.09226220703125,0.0057268571108579636,-0.0077121676877141,-0.023136503994464874
1772812457145962800,6.101962646484375,0.01030834298580885,-0.0077121676877141,-0.023136503994464874
1772812457155663400,6.111663330078125,0.01000291109085083,-0.002825249684974551,-0.020082179456949234
1772812457165364200,6.1213642578125,0.006948587018996477,0.004199695307761431,-0.010613775812089443
1772812457175064800,6.13106494140625,0.005421424750238657,0.0017562361899763346,0.004657844081521034
1772812457184765400,6.140765380859375,0.0066431546583771706,-0.0077121676877141,0.02084576152265072
1772812457194466000,6.150466064453125,0.013057234697043896,-0.01626427471637726,0.033368486911058426
1772812457204166700,6.160166748046875,0.014889828860759735,-0.021151192486286163,0.03672824427485466
1772812457213867300,6.1698671875,0.01183550525456667,-0.011377356946468353,0.03428478538990021
1772812457223568000,6.17956787109375,0.0066431546583771706,0.007254019379615784,0.023594651371240616
1772812457233268500,6.1892685546875,-0.0012980876490473747,0.019471315667033195,0.014126247726380825
1772812457242969000,6.198968994140625,-0.011377356946468353,0.01763872057199478,0.008628465235233307
1772812457252669700,6.208669677734375,-0.019929463043808937,0.001450803829357028,0.005268708802759647
1772812457262370300,6.218370361328125,-0.022678354755043983,-0.014737112447619438,-0.0017562361899763346
1772812457272071000,6.22807080078125,-0.017486004158854485,-0.012293653562664986,-0.014584396965801716
1772812457281771500,6.237771484375,-0.008017600513994694,-0.004352411720901728,-0.027717988938093185
1772812457291472100,6.24747216796875,0.0011453714687377214,0.006337722297757864,-0.03840812295675278
1772812457301172700,6.2571728515625,0.01183550525456667,0.01763872057199478,-0.033826638013124466
1772812457310873600,6.26687353515625,0.020082179456949234,0.013362666592001915,-0.01763872057199478
1772812457320574200,6.27657421875,0.020387612283229828,-0.0006872228696011007,0.00679587060585618
1772812457330274800,6.28627490234375,0.018555017188191414,-0.014737112447619438,0.030925029888749123
1772812457339975400,6.295975341796875,0.020387612283229828,-0.022067490965127945,0.04069886729121208
1772812457349676000,6.305676025390625,0.020998476073145866,-0.019929463043808937,0.04069886729121208
1772812457359376600,6.315376708984375,0.021914774551987648,-0.013209951110184193,0.029703300446271896
1772812457369077200,6.3250771484375,0.027107125148177147,-0.007406735327094793,0.015347977168858051
1772812457378777900,6.33477783203125,0.032910339534282684,-0.008628465235233307,-0.0011453714687377214
1772812457388478500,6.344478515625,0.0319940410554409,-0.01107192412018776,-0.017333287745714188
1772812457398179000,6.354178955078125,0.02741255611181259,-0.006185005884617567,-0.02649625949561596
1772812457407879700,6.363879638671875,0.018555017188191414,-0.0012980876490473747,-0.029245151206851006
1772812457417580300,6.373580322265625,0.01000291109085083,0.0011453714687377214,-0.028328854590654373
1772812457427281000,6.383281005859375,0.004199695307761431,0.00755945174023509,-0.02588539570569992
1772812457436981500,6.3929814453125,0.0023671009112149477,0.014278964139521122,-0.022525638341903687
1772812457446682000,6.40268212890625,0.006948587018996477,0.037491824477910995,-0.019471315667033195
1772812457456383000,6.412383056640625,0.013668099418282509,0.030772313475608826,-0.01977674663066864
1772812457466083600,6.42208349609375,0.008170315995812416,-0.00038179047987796366,-0.01611155830323696
1772812457475784200,6.4317841796875,0.0029779658652842045,-0.008017600513994694,-0.0029779658652842045
1772812457485484800,6.44148486328125,-0.002825249684974551,-0.010766491293907166,0.0034361144062131643
1772812457495185400,6.451185302734375,-0.004657844081521034,0.001450803829357028,0.008323032408952713
1772812457504886000,6.460885986328125,-0.00038179047987796366,0.007864884100854397,0.008017600513994694
1772812457514586600,6.470586669921875,0.00603228947147727,0.01000291109085083,0.004352411720901728
1772812457524287200,6.480287353515625,0.01030834298580885,0.00603228947147727,-0.0011453714687377214
1772812457533987800,6.48998779296875,0.014584396965801716,0.004505127668380737,-0.01000291109085083
1772812457543688700,6.499688720703125,0.017944153398275375,0.003894262947142124,-0.01611155830323696
1772812457553389300,6.509389404296875,0.01977674663066864,0.003894262947142124,-0.015806125476956367
1772812457563090000,6.51908984375,0.018860450014472008,0.0005345066892914474,-0.010919207707047462
1772812457572790500,6.52879052734375,0.016416991129517555,-0.0016035200096666813,-0.002672533504664898
1772812457582491100,6.5384912109375,0.01611155830323696,-0.004963276442140341,0.0034361144062131643
1772812457592191700,6.548191650390625,0.01672242395579815,-0.004657844081521034,0.0058795735239982605
1772812457601892400,6.557892333984375,0.018555017188191414,-0.0009926552884280682,0.0031306820455938578
1772812457611593000,6.567593017578125,0.02283107116818428,0.00022907429956831038,-0.004199695307761431
1772812457621293600,6.57729345703125,0.02496909722685814,0.003894262947142124,-0.01030834298580885
1772812457630994200,6.586994140625,0.0243582334369421,0.008170315995812416,-0.01611155830323696
1772812457640694800,6.59669482421875,0.0191658828407526,0.00755945174023509,-0.01824958436191082
1772812457650395400,6.6063955078125,0.01672242395579815,0.004810560029000044,-0.014278964139521122
1772812457660096000,6.616095947265625,0.012446369975805283,-0.004657844081521034,-0.0057268571108579636
1772812457669796600,6.625796630859375,0.01030834298580885,-0.014737112447619438,-0.0011453714687377214
1772812457679497200,6.635497314453125,0.012751801870763302,-0.01870773360133171,0.00038179047987796366
1772812457689198000,6.645197998046875,0.012140937149524689,-0.014737112447619438,-0.0066431546583771706
1772812457698898700,6.654898681640625,0.01030834298580885,-0.00679587060585618,-0.010919207707047462
1772812457708599300,6.664599365234375,0.009086613543331623,0.000839939049910754,-0.010919207707047462
1772812457718300000,6.6742998046875,0.010613775812089443,0.0035888305865228176,-0.010919207707047462
1772812457728000500,6.68400048828125,0.013973532244563103,0.0035888305865228176,-0.004199695307761431
1772812457737701000,6.693701171875,0.017027854919433594,-0.0006872228696011007,0.0012980876490473747
1772812457747401700,6.703401611328125,0.017027854919433594,-0.008628465235233307,0.00954476185142994
1772812457757102300,6.713102294921875,0.01183550525456667,-0.015958841890096664,0.01107192412018776
1772812457766803000,6.722802978515625,0.0057268571108579636,-0.013820815831422806,0.008323032408952713
1772812457776503600,6.732503662109375,0.0023671009112149477,-0.00007635809743078426,0.004046979360282421
1772812457786204200,6.7422041015625,-0.00038179047987796366,0.010919207707047462,0.0016035200096666813
1772812457795904800,6.75190478515625,-0.0019089524867013097,0.012751801870763302,0.00007635809743078426
1772812457805605400,6.76160546875,-0.006185005884617567,0.01000291109085083,0.004963276442140341
1772812457815306000,6.771305908203125,-0.011682788841426373,0.0011453714687377214,0.005268708802759647
1772812457825006600,6.781006591796875,-0.02023489587008953,-0.011682788841426373,-0.004199695307761431
1772812457834707500,6.79070751953125,-0.02756527252495289,-0.009850194677710533,-0.019471315667033195
1772812457844408000,6.800407958984375,-0.02756527252495289,-0.00007635809743078426,-0.034437503665685654
1772812457854108700,6.810108642578125,-0.02023489587008953,0.00755945174023509,-0.03993528336286545
1772812457863809300,6.819809326171875,-0.0077121676877141,0.008781181648373604,-0.03535379841923714
1772812457873510000,6.829510009765625,0.004810560029000044,0.006948587018996477,-0.01672242395579815
1772812457883210500,6.83921044921875,0.00755945174023509,-0.005268708802759647,0.007101302966475487
1772812457892911000,6.8489111328125,0.004199695307761431,-0.018402300775051117,0.028787001967430115
1772812457902611700,6.85861181640625,-0.0016035200096666813,-0.026648975908756256,0.0345902182161808
1772812457912312300,6.868312255859375,-0.005268708802759647,-0.020540328696370125,0.03000873140990734
1772812457922013000,6.878012939453125,-0.004657844081521034,-0.006490438245236874,0.016875140368938446
1772812457931713500,6.887713623046875,-0.0025198173243552446,0.0023671009112149477,-0.0011453714687377214
1772812457941414100,6.8974140625,-0.00038179047987796366,0.00603228947147727,-0.020998476073145866
1772812457951114800,6.90711474609375,0.0023671009112149477,0.0057268571108579636,-0.037491824477910995
1772812457960815400,6.9168154296875,0.007864884100854397,0.0029779658652842045,-0.042684175074100494
1772812457970516000,6.926515869140625,0.010919207707047462,-0.0058795735239982605,-0.044211339205503464
1772812457980216800,6.936216796875,0.010919207707047462,-0.010766491293907166,-0.03627009689807892
1772812457989917400,6.94591748046875,0.0066431546583771706,-0.00679587060585618,-0.026190826669335365
1772812457999618000,6.9556181640625,0.000839939049910754,-0.0031306820455938578,-0.011224640533328056
1772812458009318700,6.965318603515625,-0.008017600513994694,-0.005574141163378954,0.004352411720901728
1772812458019019300,6.975019287109375,-0.014431680552661419,-0.004352411720901728,0.019013166427612305
1772812458028719900,6.984719970703125,-0.016875140368938446,-0.004046979360282421,0.022983787581324577
1772812458038420500,6.99442041015625,-0.018402300775051117,0.0057268571108579636,0.025732679292559624
1772812458048121000,7.00412109375,-0.018402300775051117,0.014278964139521122,0.027259841561317444
1772812458057821700,7.01382177734375,-0.01779143698513508,0.013973532244563103,0.029703300446271896
1772812458067522600,7.0235224609375,-0.0193185992538929,0.010919207707047462,0.02909243479371071
1772812458077223200,7.03322314453125,-0.022678354755043983,0.0066431546583771706,0.029397867619991302
1772812458086923800,7.042923828125,-0.026038112118840218,0.00511599238961935,0.02542724646627903
1772812458096624400,7.052624267578125,-0.02695440873503685,0.0057268571108579636,0.014126247726380825
1772812458106325000,7.062324951171875,-0.02390008419752121,0.006948587018996477,0.0016035200096666813
1772812458116025600,7.072025634765625,-0.018096869811415672,0.010613775812089443,-0.010613775812089443
1772812458125726200,7.081726318359375,-0.013515383005142212,0.012140937149524689,-0.014584396965801716
1772812458135426800,7.0914267578125,-0.010155626572668552,0.0035888305865228176,-0.016416991129517555
1772812458145127400,7.10112744140625,-0.004963276442140341,-0.006490438245236874,-0.017333287745714188
1772812458154828000,7.110828125,0.0017562361899763346,-0.008017600513994694,-0.012446369975805283
1772812458164528600,7.120528564453125,0.004505127668380737,-0.006185005884617567,-0.009392046369612217
1772812458174229200,7.130229248046875,0.0017562361899763346,-0.0006872228696011007,-0.003894262947142124
1772812458183929900,7.139929931640625,-0.0031306820455938578,0.006337722297757864,0.0012980876490473747
1772812458193630500,7.14963037109375,-0.004963276442140341,0.0035888305865228176,0.005268708802759647
1772812458203331000,7.1593310546875,-0.005574141163378954,-0.004046979360282421,0.011682788841426373
1772812458213032000,7.169031982421875,-0.0058795735239982605,-0.004963276442140341,0.015347977168858051
1772812458222732500,7.178732666015625,-0.006490438245236874,0.0035888305865228176,0.016569707542657852
1772812458232433200,7.18843310546875,-0.008323032408952713,0.01030834298580885,0.01626427471637726
1772812458242133800,7.1981337890625,-0.0058795735239982605,0.016416991129517555,0.01870773360133171
1772812458251834400,7.20783447265625,-0.0022143847309052944,0.015195261687040329,0.024510949850082397
1772812458261535000,7.217534912109375,0.00022907429956831038,0.0066431546583771706,0.03214675933122635
1772812458271235600,7.227235595703125,0.000839939049910754,-0.004657844081521034,0.0345902182161808
1772812458280936200,7.236936279296875,0.006337722297757864,-0.008017600513994694,0.028787001967430115
1772812458290636800,7.24663671875,0.013973532244563103,-0.004352411720901728,0.017486004158854485
1772812458300337400,7.25633740234375,0.013057234697043896,0.0023671009112149477,0.0034361144062131643
1772812458310038000,7.2660380859375,0.007254019379615784,0.012140937149524689,-0.007254019379615784
1772812458319738600,7.275738525390625,0.0017562361899763346,0.01977674663066864,-0.00847574882209301
1772812458329439200,7.285439208984375,-0.0019089524867013097,0.01672242395579815,-0.00022907429956831038
1772812458339139800,7.295139892578125,-0.0012980876490473747,0.002061668550595641,0.013515383005142212
1772812458348840400,7.30484033203125,0.0017562361899763346,-0.00679587060585618,0.027870705351233482
1772812458358541300,7.314541259765625,-0.00038179047987796366,-0.014431680552661419,0.03245219215750694
1772812458368242000,7.324241943359375,-0.007101302966475487,-0.016875140368938446,0.025121813639998436
1772812458377942500,7.333942626953125,-0.013820815831422806,-0.007101302966475487,0.008933897130191326
1772812458387643100,7.34364306640625,-0.02023489587008953,0.002672533504664898,-0.014889828860759735
1772812458397343700,7.35334375,-0.025732679292559624,0.013668099418282509,-0.03260490670800209
1772812458407044400,7.36304443359375,-0.02390008419752121,0.018860450014472008,-0.04329504072666168
1772812458416745000,7.372744873046875,-0.01779143698513508,0.0191658828407526,-0.039018988609313965
1772812458426445600,7.382445556640625,-0.010155626572668552,0.014278964139521122,-0.0243582334369421
1772812458436146200,7.392146240234375,-0.004657844081521034,0.000839939049910754,-0.0005345066892914474
1772812458445846800,7.4018466796875,0.0005345066892914474,-0.011682788841426373,0.02390008419752121
1772812458455547400,7.41154736328125,0.005421424750238657,-0.019013166427612305,0.0397825688123703
1772812458465248000,7.421248046875,0.008781181648373604,-0.013515383005142212,0.044669486582279205
1772812458474948600,7.430948486328125,0.008781181648373604,-0.004046979360282421,0.04344775900244713
1772812458484649200,7.440649169921875,0.009697478264570236,0.00022907429956831038,0.03764454275369644
1772812458494349800,7.450349853515625,0.009392046369612217,0.0005345066892914474,0.02695440873503685
1772812458504050700,7.46005078125,0.007254019379615784,0.005421424750238657,0.0193185992538929
1772812458513751300,7.469751220703125,0.004810560029000044,0.004810560029000044,0.013209951110184193
1772812458523452000,7.479451904296875,0.002672533504664898,-0.0006872228696011007,0.00954476185142994
1772812458533152500,7.489152587890625,0.0017562361899763346,-0.004963276442140341,0.010461059398949146
1772812458542853000,7.49885302734375,-0.0034361144062131643,-0.011682788841426373,0.0077121676877141
1772812458552553700,7.5085537109375,-0.011988221667706966,-0.012293653562664986,0.003741546766832471
1772812458562254300,7.51825439453125,-0.02084576152265072,-0.0012980876490473747,0.0016035200096666813
1772812458571955000,7.527954833984375,-0.02542724646627903,0.009392046369612217,-0.0023671009112149477
1772812458581655600,7.537655517578125,-0.026343543082475662,0.01763872057199478,-0.004199695307761431
1772812458591356200,7.547356201171875,-0.019013166427612305,0.01672242395579815,-0.0023671009112149477
1772812458601056800,7.557056884765625,-0.00923932995647192,0.005421424750238657,0.002825249684974551
1772812458610757400,7.56675732421875,-0.002825249684974551,-0.0012980876490473747,0.011682788841426373
1772812458620458000,7.5764580078125,0.00022907429956831038,-0.004046979360282421,0.019929463043808937
1772812458630158600,7.58615869140625,0.002061668550595641,-0.004046979360282421,0.02542724646627903
1772812458639859200,7.595859130859375,0.0023671009112149477,-0.005574141163378954,0.02848157100379467
1772812458649560000,7.60556005859375,0.0005345066892914474,-0.006490438245236874,0.023594651371240616
1772812458659260700,7.6152607421875,0.0005345066892914474,-0.009850194677710533,0.013515383005142212
1772812458668961300,7.624961181640625,0.0011453714687377214,-0.013515383005142212,0.0022143847309052944
1772812458678662000,7.634661865234375,0.002061668550595641,-0.01107192412018776,-0.014278964139521122
1772812458688362500,7.644362548828125,0.0057268571108579636,-0.0006872228696011007,-0.027717988938093185
1772812458698063000,7.65406298828125,0.0066431546583771706,0.009392046369612217,-0.03474293276667595
1772812458707763700,7.663763671875,0.002061668550595641,0.012446369975805283,-0.029245151206851006
1772812458717464300,7.67346435546875,-0.0034361144062131643,0.011530072428286076,-0.013057234697043896
1772812458727165000,7.6831650390625,-0.0058795735239982605,0.00511599238961935,0.00954476185142994
1772812458736865500,7.692865478515625,-0.008323032408952713,-0.003741546766832471,0.03000873140990734
1772812458746566100,7.702566162109375,-0.0058795735239982605,-0.01259908638894558,0.041615162044763565
1772812458756266800,7.712266845703125,-0.0019089524867013097,-0.01107192412018776,0.04283689334988594
1772812458765967400,7.72196728515625,0.000839939049910754,-0.004657844081521034,0.03275762498378754
1772812458775668000,7.73166796875,0.0029779658652842045,-0.0019089524867013097,0.017486004158854485
1772812458785368600,7.74136865234375,0.004810560029000044,-0.0016035200096666813,-0.0017562361899763346
1772812458795069400,7.7510693359375,0.004505127668380737,0.0011453714687377214,-0.01672242395579815
1772812458804770000,7.76077001953125,0.004505127668380737,-0.00007635809743078426,-0.0243582334369421
1772812458814470700,7.770470703125,0.004505127668380737,-0.0034361144062131643,-0.0295505840331316
1772812458824171300,7.780171142578125,0.004810560029000044,-0.0019089524867013097,-0.028634287416934967
1772812458833872000,7.789871826171875,0.003894262947142124,-0.006490438245236874,-0.02649625949561596
1772812458843572500,7.799572509765625,0.0005345066892914474,-0.00923932995647192,-0.020998476073145866
1772812458853273000,7.809273193359375,-0.0031306820455938578,-0.006490438245236874,-0.013057234697043896
1772812458862973700,7.8189736328125,-0.0077121676877141,-0.0019089524867013097,-0.006337722297757864
1772812458872674300,7.82867431640625,-0.00923932995647192,0.000839939049910754,-0.000839939049910754
1772812458882375000,7.838375,-0.007101302966475487,0.003283398225903511,0.003741546766832471
1772812458892075500,7.848075439453125,-0.00038179047987796366,0.009086613543331623,0.008017600513994694
1772812458901776100,7.857776123046875,0.000839939049910754,0.012751801870763302,0.010766491293907166
1772812458911476700,7.867476806640625,-0.008323032408952713,0.013668099418282509,0.01259908638894558
1772812458921177300,7.87717724609375,-0.021151192486286163,0.00755945174023509,0.010766491293907166
1772812458930878000,7.8868779296875,-0.029703300446271896,-0.0016035200096666813,0.0016035200096666813
1772812458940578800,7.896578857421875,-0.03153589367866516,0.002061668550595641,-0.012751801870763302
1772812458950279400,7.906279541015625,-0.02695440873503685,0.007864884100854397,-0.02649625949561596
1772812458959980000,7.91597998046875,-0.013820815831422806,0.007864884100854397,-0.037491824477910995
1772812458969680600,7.9256806640625,0.001450803829357028,0.007254019379615784,-0.03932442143559456
1772812458979381200,7.93538134765625,0.010613775812089443,0.004505127668380737,-0.033826638013124466
1772812458989081900,7.945081787109375,0.008781181648373604,-0.0022143847309052944,-0.023136503994464874
1772812458998782500,7.954782470703125,0.0017562361899763346,-0.0058795735239982605,-0.010919207707047462
1772812459008483000,7.964483154296875,-0.002825249684974551,-0.00038179047987796366,-0.001450803829357028
1772812459018183700,7.97418359375,-0.0034361144062131643,0.009697478264570236,0.002825249684974551
1772812459027884300,7.98388427734375,-0.0009926552884280682,0.01672242395579815,0.005574141163378954
1772812459037585000,7.9935849609375,0.002061668550595641,0.017333287745714188,0.011988221667706966
1772812459047285500,8.003285400390626,0.0057268571108579636,0.0066431546583771706,0.0193185992538929
1772812459056986000,8.012986083984375,0.009392046369612217,-0.008628465235233307,0.026038112118840218
1772812459066686700,8.022686767578126,0.013973532244563103,-0.013515383005142212,0.028176138177514076
1772812459076387300,8.03238720703125,0.016416991129517555,-0.012293653562664986,0.02237292192876339
1772812459086088200,8.042088134765624,0.011224640533328056,-0.012293653562664986,0.01259908638894558
1772812459095788800,8.051788818359375,0.004199695307761431,-0.008628465235233307,-0.0023671009112149477
1772812459105489400,8.061489501953124,-0.006185005884617567,0.002061668550595641,-0.01672242395579815
1772812459115190000,8.07118994140625,-0.018096869811415672,0.014278964139521122,-0.024663666263222694
1772812459124890600,8.080890625,-0.027870705351233482,0.01977674663066864,-0.026801692321896553
1772812459134591200,8.09059130859375,-0.02848157100379467,0.0191658828407526,-0.020693045109510422
1772812459144291800,8.100291748046875,-0.022678354755043983,0.012140937149524689,-0.010919207707047462
1772812459153992400,8.109992431640626,-0.01718057133257389,0.006337722297757864,0.0025198173243552446
1772812459163693000,8.119693115234375,-0.014737112447619438,0.00511599238961935,0.008323032408952713
1772812459173393700,8.1293935546875,-0.011988221667706966,0.01183550525456667,0.014126247726380825
1772812459183094300,8.13909423828125,-0.008323032408952713,0.013362666592001915,0.014126247726380825
1772812459192795000,8.148794921875,-0.00679587060585618,0.006948587018996477,0.013820815831422806
1772812459202495500,8.15849560546875,-0.002825249684974551,0.0005345066892914474,0.013515383005142212
1772812459212196000,8.168196044921874,0.0035888305865228176,-0.008017600513994694,0.013209951110184193
1772812459221896700,8.177896728515625,0.013057234697043896,-0.0193185992538929,0.005574141163378954
1772812459231597600,8.18759765625,0.021914774551987648,-0.0193185992538929,-0.0057268571108579636
1772812459241298200,8.197298095703125,0.02893971838057041,-0.01107192412018776,-0.015806125476956367
1772812459250998800,8.206998779296875,0.028634287416934967,0.002672533504664898,-0.021914774551987648
1772812459260699400,8.216699462890626,0.022220205515623093,0.011224640533328056,-0.024052800610661507
1772812459270400000,8.22639990234375,0.016416991129517555,0.010613775812089443,-0.016416991129517555
1772812459280100600,8.2361005859375,0.011224640533328056,0.001450803829357028,-0.004810560029000044
1772812459289801200,8.24580126953125,0.013973532244563103,-0.00679587060585618,0.007406735327094793
1772812459299501800,8.255501708984376,0.01977674663066864,-0.013820815831422806,0.01565340906381607
1772812459309202400,8.265202392578125,0.023441936820745468,-0.01870773360133171,0.01870773360133171
1772812459318903000,8.274903076171874,0.019471315667033195,-0.01565340906381607,0.014737112447619438
1772812459328603600,8.284603759765625,0.01183550525456667,-0.00007635809743078426,0.009850194677710533
1772812459338304300,8.29430419921875,0.000839939049910754,0.013973532244563103,0.004046979360282421
1772812459348004900,8.3040048828125,-0.008933897130191326,0.013973532244563103,-0.00022907429956831038
1772812459357705500,8.31370556640625,-0.011988221667706966,0.012140937149524689,-0.002061668550595641
1772812459367406000,8.323406005859376,-0.0077121676877141,0.013973532244563103,0.00007635809743078426
1772812459377107000,8.33310693359375,-0.0025198173243552446,0.013973532244563103,0.004046979360282421
1772812459386807600,8.3428076171875,-0.0009926552884280682,0.012140937149524689,0.012293653562664986
1772812459396508200,8.352508056640625,0.002061668550595641,0.0057268571108579636,0.021151192486286163
1772812459406208800,8.362208740234376,0.002672533504664898,-0.0034361144062131643,0.030314164236187935
1772812459415909400,8.371909423828125,-0.0006872228696011007,-0.007406735327094793,0.03306305781006813
1772812459425610000,8.38160986328125,-0.004657844081521034,-0.00679587060585618,0.02909243479371071
1772812459435310600,8.391310546875,-0.007101302966475487,-0.0034361144062131643,0.02023489587008953
1772812459445011200,8.40101123046875,-0.0016035200096666813,0.0011453714687377214,0.008323032408952713
1772812459454711800,8.4107119140625,0.011530072428286076,0.006337722297757864,-0.001450803829357028
1772812459464412400,8.420412353515625,0.020693045109510422,0.006948587018996477,-0.0057268571108579636
1772812459474113000,8.430113037109376,0.01672242395579815,0.006337722297757864,-0.003894262947142124
1772812459483813600,8.439813720703125,0.00511599238961935,-0.0019089524867013097,-0.0005345066892914474
1772812459493514200,8.44951416015625,-0.00679587060585618,-0.006490438245236874,0.00007635809743078426
1772812459503214800,8.45921484375,-0.01626427471637726,-0.005574141163378954,-0.003283398225903511
1772812459512915500,8.46891552734375,-0.019624030217528343,-0.0031306820455938578,-0.011530072428286076
1772812459522616300,8.4786162109375,-0.014431680552661419,0.001450803829357028,-0.02130390889942646
1772812459532317000,8.48831689453125,-0.0006872228696011007,0.0017562361899763346,-0.027717988938093185
1772812459542017500,8.498017578125,0.011224640533328056,0.003283398225903511,-0.020998476073145866
1772812459551718100,8.50771826171875,0.016416991129517555,-0.00007635809743078426,-0.008781181648373604
1772812459561418800,8.517418701171875,0.011530072428286076,-0.0034361144062131643,0.008017600513994694
1772812459571119400,8.527119384765625,0.006337722297757864,-0.004352411720901728,0.02328922040760517
1772812459580820000,8.536820068359376,0.0011453714687377214,-0.004046979360282421,0.03153589367866516
1772812459590520600,8.5465205078125,-0.0006872228696011007,-0.0034361144062131643,0.03275762498378754
1772812459600221200,8.55622119140625,0.00022907429956831038,-0.0019089524867013097,0.026038112118840218
1772812459609921800,8.565921875,0.000839939049910754,-0.0012980876490473747,0.015347977168858051
1772812459619622400,8.575622314453126,0.00511599238961935,-0.006185005884617567,-0.002061668550595641
1772812459629323000,8.585322998046875,0.010919207707047462,-0.007406735327094793,-0.015500693581998348
1772812459639023600,8.595023681640624,0.013973532244563103,-0.0006872228696011007,-0.023441936820745468
1772812459648724200,8.60472412109375,0.011530072428286076,0.007254019379615784,-0.021914774551987648
1772812459658424800,8.6144248046875,0.006337722297757864,0.00755945174023509,-0.01611155830323696
1772812459668125400,8.62412548828125,0.000839939049910754,0.0011453714687377214,-0.006337722297757864
1772812459677826300,8.633826416015625,-0.004046979360282421,-0.0012980876490473747,0.00007635809743078426
1772812459687527000,8.64352685546875,-0.005574141163378954,0.0035888305865228176,-0.00022907429956831038
1772812459697227500,8.6532275390625,-0.00679587060585618,0.012751801870763302,-0.002672533504664898
1772812459706928000,8.66292822265625,-0.004657844081521034,0.014584396965801716,-0.004199695307761431
1772812459716628700,8.672628662109375,-0.00007635809743078426,0.010613775812089443,0.0025198173243552446
1772812459726329300,8.682329345703126,0.002061668550595641,-0.0025198173243552446,0.010461059398949146
1772812459736030000,8.692030029296875,0.0005345066892914474,-0.014126247726380825,0.015958841890096664
1772812459745730600,8.70173046875,-0.0025198173243552446,-0.01565340906381607,0.016569707542657852
1772812459755431200,8.71143115234375,-0.006490438245236874,-0.01107192412018776,0.00679587060585618
1772812459765131800,8.7211318359375,-0.00954476185142994,-0.004657844081521034,-0.004505127668380737
1772812459774832400,8.730832275390625,-0.011682788841426373,0.002061668550595641,-0.013057234697043896
1772812459784533000,8.740532958984375,-0.01259908638894558,0.01763872057199478,-0.01824958436191082
1772812459794233600,8.750233642578126,-0.008323032408952713,0.026190826669335365,-0.019471315667033195
1772812459803934200,8.759934326171875,-0.003741546766832471,0.03413207083940506,-0.01611155830323696
1772812459813634800,8.769634765625,-0.00954476185142994,0.027717988938093185,-0.009086613543331623
1772812459823335700,8.779335693359375,-0.026648975908756256,0.010919207707047462,0.0006872228696011007
1772812459833036300,8.789036376953124,-0.039477135986089706,0.000839939049910754,0.00679587060585618
1772812459842737000,8.79873681640625,-0.043753188103437424,0.00511599238961935,0.005574141163378954
1772812459852437500,8.8084375,-0.03367391973733902,0.05001455545425415,-0.006948587018996477
1772812459862138000,8.81813818359375,-0.01565340906381607,0.10224349051713943,-0.022220205515623093
1772812459871838700,8.827838623046874,-0.01870773360133171,0.14225514233112335,-0.022220205515623093
1772812459881539300,8.837539306640625,-0.044669486582279205,0.14194969832897186,-0.009697478264570236
1772812459891240000,8.847239990234375,-0.0654388889670372,0.124845489859581,0.026343543082475662
1772812459900940500,8.8569404296875,-0.046196650713682175,0.13767364621162415,0.07246383279561996
1772812459910641200,8.86664111328125,-0.008933897130191326,0.09918916970491409,0.09506583213806152
1772812459920341800,8.876341796875,0.014584396965801716,0.046654798090457916,0.10972658544778824
1772812459930042400,8.88604248046875,0.028328854590654373,0.023441936820745468,0.13538290560245514
1772812459939743000,8.895742919921876,0.03993528336286545,0.01763872057199478,0.14973822236061096
1772812459949443600,8.905443603515625,0.05367974191904068,-0.018402300775051117,0.15157082676887512
1772812459959144200,8.915144287109374,0.062537282705307,-0.0651334598660469,0.14912736415863037
1772812459968845000,8.924844970703125,0.07261654734611511,-0.0965929925441742,0.12927426397800446
1772812459978545700,8.934545654296874,0.08727730810642242,-0.0907897800207138,0.08529199659824371
1772812459988246300,8.944246337890625,0.09796743839979172,-0.061162836849689484,0.02756527252495289
1772812459997947000,8.95394677734375,0.0985783040523529,-0.03581194952130318,-0.03138317912817001
1772812460007647500,8.9636474609375,0.08697187155485153,-0.02328922040760517,-0.053374309092760086
1772812460017348000,8.97334814453125,0.07719803601503372,-0.028176138177514076,-0.057039499282836914
1772812460027048700,8.983048583984376,0.06956222653388977,-0.06727148592472076,-0.03565923124551773
1772812460036749300,8.992749267578125,0.05612320080399513,-0.08437569439411163,-0.010919207707047462
1772812460046450000,9.002449951171876,0.05001455545425415,-0.07857248187065125,-0.000839939049910754
1772812460056150500,9.012150634765625,0.03840812295675278,-0.06666062027215958,-0.018860450014472008
1772812460065851100,9.02185107421875,0.024663666263222694,-0.05413788929581642,-0.055512335151433945
1772812460075551700,9.0315517578125,0.009697478264570236,-0.037033677101135254,-0.10774127393960953
1772812460085252400,9.04125244140625,-0.00923932995647192,-0.004657844081521034,-0.15935935080051422
1772812460094953000,9.050952880859375,-0.025732679292559624,0.04298960790038109,-0.19906556606292725
1772812460104653600,9.060653564453125,-0.04711294546723366,0.08208495378494263,-0.2008981555700302
1772812460114354400,9.0703544921875,-0.08529199659824371,0.0784197673201561,-0.16943861544132233
