time,seconds_elapsed,z,y,x
1772812210108084000,0.110083984375,0.01977674663066864,-0.03367391973733902,-0.12904518842697144
1772812210117784300,0.119784423828125,0.0319940410554409,-0.016875140368938446,-0.14278964698314667
1772812210127485000,0.12948486328125,0.032910339534282684,-0.0058795735239982605,-0.14950916171073914
1772812210137185500,0.139185546875,0.027107125148177147,0.006337722297757864,-0.13851359486579895
1772812210146886100,0.14888623046875,0.015806125476956367,0.020693045109510422,-0.10155627131462097
1772812210156586800,0.158586669921875,0.0035888305865228176,0.029856016859412193,-0.05696314200758934
1772812210166287400,0.168287353515625,-0.00954476185142994,0.026190826669335365,-0.016646064817905426
1772812210175988000,0.177988037109375,-0.014737112447619438,0.01183550525456667,0.01511890348047018
1772812210185688600,0.1876884765625,-0.00954476185142994,0.004199695307761431,0.036804601550102234
1772812210195389200,0.19738916015625,-0.0012980876490473747,0.006948587018996477,0.04780016839504242
1772812210205089800,0.20708984375,0.00511599238961935,0.00022907429956831038,0.047494735568761826
1772812210214790400,0.216790283203125,0.010919207707047462,-0.00038179047987796366,0.054214250296354294
1772812210224490800,0.22649072265625,0.012140937149524689,0.004199695307761431,0.06368265300989151
1772812210234191600,0.236191650390625,0.0035888305865228176,-0.006490438245236874,0.060322895646095276
1772812210243892000,0.24589208984375,-0.0058795735239982605,-0.012293653562664986,0.047494735568761826
1772812210253592600,0.255592529296875,-0.00679587060585618,0.0023671009112149477,0.03802633285522461
1772812210263293200,0.265293212890625,-0.011377356946468353,0.013668099418282509,0.03405570983886719
1772812210272993800,0.274993896484375,-0.021151192486286163,0.0066431546583771706,0.03222311660647392
1772812210282694400,0.2846943359375,-0.030925029888749123,-0.005268708802759647,0.017562363296747208
1772812210292395000,0.29439501953125,-0.03581194952130318,0.0066431546583771706,-0.003512472379952669
1772812210302095600,0.304095703125,-0.0345902182161808,0.0322994738817215,-0.02367101050913334
1772812210311796200,0.313796142578125,-0.03061959706246853,0.03565923124551773,-0.03649916872382164
1772812210321496800,0.323496826171875,-0.02237292192876339,0.014278964139521122,-0.03955349326133728
1772812210331197400,0.333197509765625,-0.0077121676877141,-0.022983787581324577,-0.044440411031246185
1772812210340898000,0.34289794921875,0.01824958436191082,-0.04558578506112099,-0.058795735239982605
1772812210350598400,0.352598388671875,0.04909825697541237,-0.03550651669502258,-0.06582067906856537
1772812210360299000,0.362299072265625,0.062537282705307,-0.020540328696370125,-0.06062832847237587
1772812210369999600,0.37199951171875,0.05826122686266899,-0.006490438245236874,-0.022449281066656113
1772812210379700200,0.3817001953125,0.04146244749426842,-0.009850194677710533,0.02367101050913334
1772812210389400800,0.39140087890625,0.025579962879419327,-0.0193185992538929,0.0639880821108818
1772812210399101400,0.401101318359375,0.015500693581998348,-0.0193185992538929,0.08597921580076218
1772812210408802000,0.410802001953125,0.006337722297757864,-0.014126247726380825,0.09147699922323227
1772812210418502700,0.420502685546875,-0.0016035200096666813,-0.015347977168858051,0.0798705667257309
1772812210428203300,0.430203369140625,-0.004352411720901728,-0.01107192412018776,0.05757400393486023
1772812210437904000,0.43990380859375,-0.0058795735239982605,0.007864884100854397,0.03894263133406639
1772812210447604500,0.4496044921875,-0.013515383005142212,0.017333287745714188,0.026419902220368385
1772812210457304800,0.459304931640625,-0.02023489587008953,0.00603228947147727,0.01359174121171236
1772812210467005400,0.46900537109375,-0.016569707542657852,-0.00954476185142994,-0.006872228812426329
1772812210476706300,0.478706298828125,-0.00923932995647192,-0.016569707542657852,-0.027947064489126205
1772812210486406700,0.48840673828125,-0.002825249684974551,-0.02542724646627903,-0.056657709181308746
1772812210496107300,0.498107177734375,0.0023671009112149477,-0.0345902182161808,-0.08261945843696594
1772812210505808000,0.507807861328125,0.007864884100854397,-0.031841326504945755,-0.09636391699314117
1772812210515508500,0.517508544921875,0.013668099418282509,-0.023594651371240616,-0.0951421856880188
1772812210525209000,0.527208984375,0.014889828860759735,-0.016875140368938446,-0.08078686892986298
1772812210534909700,0.53690966796875,0.009697478264570236,-0.004657844081521034,-0.04841103404760361
1772812210544610300,0.5466103515625,-0.00007635809743078426,0.0029779658652842045,-0.003512472379952669
1772812210554311000,0.556310791015625,-0.013820815831422806,0.0057268571108579636,0.0386371985077858
1772812210564011300,0.56601123046875,-0.020540328696370125,0.008781181648373604,0.07345648854970932
1772812210573712100,0.575712158203125,-0.01565340906381607,0.008781181648373604,0.09208786487579346
1772812210583412700,0.585412841796875,-0.008323032408952713,0.002061668550595641,0.09147699922323227
1772812210593113000,0.595113037109375,0.0011453714687377214,-0.004657844081521034,0.0798705667257309
1772812210602813700,0.604813720703125,0.012751801870763302,-0.004352411720901728,0.06276635825634003
1772812210612514300,0.614514404296875,0.024052800610661507,-0.005574141163378954,0.04321868345141411
1772812210622215000,0.62421484375,0.026801692321896553,-0.016569707542657852,0.02306014485657215
1772812210631915500,0.63391552734375,0.023747367784380913,-0.026648975908756256,-0.008704823441803455
1772812210641616100,0.6436162109375,0.021914774551987648,-0.015042545273900032,-0.036193739622831345
1772812210651316700,0.653316650390625,0.01611155830323696,-0.0019089524867013097,-0.055741410702466965
1772812210661017300,0.663017333984375,0.0057268571108579636,0.007254019379615784,-0.060933761298656464
1772812210670718000,0.672718017578125,-0.003741546766832471,0.00755945174023509,-0.05940660089254379
1772812210680418600,0.68241845703125,-0.008017600513994694,-0.0006872228696011007,-0.05940660089254379
1772812210690119200,0.692119140625,-0.002825249684974551,0.0035888305865228176,-0.058795735239982605
1772812210699819500,0.701819580078125,0.001450803829357028,0.01611155830323696,-0.049021899700164795
1772812210709520100,0.71152001953125,-0.002825249684974551,0.015195261687040329,-0.029474224895238876
1772812210719220700,0.721220703125,-0.004657844081521034,0.003283398225903511,-0.006566796451807022
1772812210728921300,0.73092138671875,0.000839939049910754,-0.0019089524867013097,0.008704823441803455
1772812210738622000,0.7406220703125,0.0066431546583771706,-0.005574141163378954,0.013286309316754341
1772812210748322600,0.750322509765625,0.00847574882209301,-0.010766491293907166,0.02000582218170166
1772812210758023200,0.760023193359375,0.013057234697043896,-0.01107192412018776,0.02916879393160343
1772812210767723800,0.769723876953125,0.015195261687040329,-0.0077121676877141,0.033139415085315704
1772812210777424400,0.77942431640625,0.010919207707047462,-0.002825249684974551,0.03497200831770897
1772812210787125000,0.789125,-0.00038179047987796366,0.01030834298580885,0.03588830679655075
1772812210796825600,0.79882568359375,-0.0077121676877141,0.020387612283229828,0.0383317656815052
1772812210806526000,0.80852587890625,-0.008017600513994694,0.013973532244563103,0.03497200831770897
1772812210816226800,0.818226806640625,-0.005268708802759647,0.007254019379615784,0.024281874299049377
1772812210825927400,0.827927490234375,-0.00679587060585618,0.004505127668380737,0.0013744457392022014
1772812210835627800,0.837627685546875,-0.011988221667706966,0.007254019379615784,-0.031001387163996696
1772812210845328400,0.847328369140625,-0.013209951110184193,0.018860450014472008,-0.060933761298656464
1772812210855029000,0.857029052734375,-0.015347977168858051,0.02649625949561596,-0.07712167501449585
1772812210864729600,0.8667294921875,-0.00954476185142994,0.021609341725707054,-0.08017600327730179
1772812210874430200,0.87643017578125,0.004199695307761431,0.007864884100854397,-0.07131846249103546
1772812210884130800,0.886130859375,0.017333287745714188,-0.010461059398949146,-0.06062832847237587
1772812210893831400,0.89583154296875,0.027717988938093185,-0.02084576152265072,-0.05513054504990578
1772812210903532000,0.905531982421875,0.035964664071798325,-0.022678354755043983,-0.052687086164951324
1772812210913232600,0.915232666015625,0.042684175074100494,-0.01565340906381607,-0.04810560122132301
1772812210922933200,0.924933349609375,0.04482220485806465,-0.008017600513994694,-0.034666575491428375
1772812210932633900,0.9346337890625,0.039018988609313965,-0.0058795735239982605,-0.012675444595515728
1772812210942334200,0.944334228515625,0.03138317912817001,-0.0034361144062131643,0.008704823441803455
1772812210952034800,0.954034912109375,0.022525638341903687,-0.0019089524867013097,0.01908952370285988
1772812210961735700,0.963735595703125,0.014278964139521122,-0.0034361144062131643,0.017562363296747208
1772812210971436000,0.97343603515625,0.012446369975805283,-0.004657844081521034,0.0038179049734026194
1772812210981136600,0.98313671875,0.015195261687040329,-0.003741546766832471,-0.013286309316754341
1772812210990837200,0.992837158203125,0.018860450014472008,-0.0022143847309052944,-0.02672533318400383
1772812211000537900,1.002537841796875,0.01611155830323696,-0.0016035200096666813,-0.02916879393160343
1772812211010238500,1.012238525390625,0.003283398225903511,-0.0006872228696011007,-0.026419902220368385
1772812211019939000,1.02193896484375,-0.0025198173243552446,0.00511599238961935,-0.02306014485657215
1772812211029639700,1.0316396484375,0.00022907429956831038,0.0066431546583771706,-0.02458730712532997
1772812211039340300,1.04134033203125,0.007864884100854397,-0.003741546766832471,-0.03405570983886719
1772812211049040600,1.05104052734375,0.01824958436191082,-0.017486004158854485,-0.04993819445371628
1772812211058741500,1.060741455078125,0.028634287416934967,-0.022678354755043983,-0.06123919412493706
1772812211068442000,1.070442138671875,0.033826638013124466,-0.015958841890096664,-0.06001746281981468
1772812211078142500,1.080142578125,0.030772313475608826,-0.007101302966475487,-0.04230238497257233
1772812211087843000,1.089843017578125,0.021914774551987648,-0.008628465235233307,-0.014508038759231567
1772812211097543700,1.099543701171875,0.012446369975805283,-0.007101302966475487,0.018784092739224434
1772812211107244300,1.109244384765625,0.003283398225903511,0.0011453714687377214,0.044440411031246185
1772812211116945000,1.11894482421875,-0.004963276442140341,0.009392046369612217,0.05849030241370201
1772812211126645500,1.1286455078125,-0.014431680552661419,0.012446369975805283,0.06551524996757507
1772812211136346000,1.13834619140625,-0.018402300775051117,0.010613775812089443,0.0639880821108818
1772812211146046700,1.148046630859375,-0.0193185992538929,0.013973532244563103,0.0591011680662632
1772812211155747300,1.157747314453125,-0.0193185992538929,0.014584396965801716,0.04810560122132301
1772812211165448000,1.167447998046875,-0.02176205813884735,0.008781181648373604,0.030695954337716103
1772812211175148500,1.1771484375,-0.025732679292559624,0.004199695307761431,0.002901607658714056
1772812211184849200,1.18684912109375,-0.028787001967430115,0.0011453714687377214,-0.03711003437638283
1772812211194549500,1.196549560546875,-0.026648975908756256,0.0005345066892914474,-0.0746782198548317
1772812211204250400,1.20625048828125,-0.018402300775051117,0.014278964139521122,-0.09605848789215088
1772812211213951000,1.215950927734375,-0.013820815831422806,0.011224640533328056,-0.09636391699314117
1772812211223651300,1.2256513671875,-0.012904518283903599,-0.006185005884617567,-0.08689551800489426
1772812211233352000,1.23535205078125,-0.008933897130191326,-0.007101302966475487,-0.06673697382211685
1772812211243052500,1.245052490234375,-0.008017600513994694,-0.0031306820455938578,-0.04413498193025589
1772812211252753200,1.254753173828125,-0.0077121676877141,-0.0009926552884280682,-0.025809036567807198
1772812211262453800,1.264453857421875,-0.0025198173243552446,0.009086613543331623,-0.005955931730568409
1772812211272154400,1.274154296875,0.0066431546583771706,0.013668099418282509,0.0154243353754282
1772812211281855000,1.28385498046875,0.015806125476956367,0.0017562361899763346,0.03527744114398956
1772812211291555600,1.2935556640625,0.024052800610661507,-0.01565340906381607,0.0487164668738842
1772812211301256200,1.303256103515625,0.02741255611181259,-0.022678354755043983,0.05024362727999687
1772812211310956800,1.312956787109375,0.023441936820745468,-0.021151192486286163,0.04108065739274025
1772812211320657400,1.322657470703125,0.01611155830323696,-0.024816380813717842,0.020922118797898293
1772812211330357800,1.332357666015625,0.015195261687040329,-0.018402300775051117,0.0019853105768561363
1772812211340058400,1.342058349609375,0.015806125476956367,-0.0012980876490473747,-0.009926552884280682
1772812211349759000,1.351759033203125,0.008170315995812416,0.003894262947142124,-0.013286309316754341
1772812211359459600,1.36145947265625,-0.0031306820455938578,0.008170315995812416,-0.016646064817905426
1772812211369160200,1.37116015625,-0.01259908638894558,0.012140937149524689,-0.023976443335413933
1772812211378860800,1.38086083984375,-0.022678354755043983,0.0017562361899763346,-0.039248060435056686
1772812211388561400,1.3905615234375,-0.021456625312566757,-0.0034361144062131643,-0.053603384643793106
1772812211398262000,1.400261962890625,-0.007101302966475487,-0.0022143847309052944,-0.06368265300989151
1772812211407962600,1.409962646484375,0.012446369975805283,-0.007406735327094793,-0.06551524996757507
1772812211417663200,1.419663330078125,0.025274530053138733,-0.01107192412018776,-0.05024362727999687
1772812211427363800,1.42936376953125,0.026801692321896553,-0.011682788841426373,-0.02764163166284561
1772812211437064400,1.439064453125,0.018555017188191414,-0.008933897130191326,-0.005955931730568409
1772812211446765000,1.44876513671875,0.009392046369612217,-0.009850194677710533,0.009010255336761475
1772812211456465700,1.458465576171875,0.0066431546583771706,-0.0034361144062131643,0.01695149764418602
1772812211466166300,1.468166259765625,0.00603228947147727,0.007864884100854397,0.022754713892936707
1772812211475866600,1.47786669921875,0.002672533504664898,0.007864884100854397,0.028557928279042244
1772812211485567200,1.487567138671875,-0.0009926552884280682,0.004810560029000044,0.03222311660647392
1772812211495267800,1.497267822265625,-0.00038179047987796366,0.00511599238961935,0.03130681812763214
1772812211504968400,1.506968505859375,-0.00007635809743078426,0.0023671009112149477,0.027947064489126205
1772812211514669000,1.5166689453125,0.001450803829357028,-0.0009926552884280682,0.016340631991624832
1772812211524369700,1.52636962890625,0.004810560029000044,-0.002825249684974551,-0.0025961752980947495
1772812211534070300,1.5360703125,0.00603228947147727,-0.0031306820455938578,-0.024892739951610565
1772812211543771000,1.54577099609375,0.005421424750238657,-0.0019089524867013097,-0.04108065739274025
1772812211553471500,1.555471435546875,0.004810560029000044,-0.0034361144062131643,-0.052076224237680435
1772812211563172000,1.565172119140625,0.003894262947142124,0.003894262947142124,-0.05177079141139984
1772812211572872700,1.574872802734375,-0.0009926552884280682,0.012446369975805283,-0.042913250625133514
1772812211582573300,1.5845732421875,-0.00954476185142994,0.006948587018996477,-0.034666575491428375
1772812211592273700,1.594273681640625,-0.013209951110184193,0.000839939049910754,-0.025503603741526604
1772812211601974500,1.603974609375,-0.0077121676877141,-0.0012980876490473747,-0.026419902220368385
1772812211611675100,1.613675048828125,0.0005345066892914474,-0.005268708802759647,-0.03527744114398956
1772812211621375500,1.62337548828125,0.008781181648373604,-0.004352411720901728,-0.039858926087617874
1772812211631076000,1.633076171875,0.013362666592001915,0.003283398225903511,-0.03252854943275452
1772812211640776700,1.642776611328125,0.011530072428286076,0.0017562361899763346,-0.010537417605519295
1772812211650477300,1.652477294921875,0.007254019379615784,-0.0006872228696011007,0.013286309316754341
1772812211660178000,1.662177978515625,0.00755945174023509,0.0029779658652842045,0.031612250953912735
1772812211669878500,1.67187841796875,0.00755945174023509,-0.003741546766832471,0.03405570983886719
1772812211679579100,1.6815791015625,0.006948587018996477,-0.015958841890096664,0.024892739951610565
1772812211689279700,1.69127978515625,0.009392046369612217,-0.00679587060585618,0.014508038759231567
1772812211698980400,1.70098046875,0.009086613543331623,0.007254019379615784,0.0062613640911877155
1772812211708681000,1.710680908203125,0.002672533504664898,0.004505127668380737,0.0038179049734026194
1772812211718381600,1.720381591796875,-0.0009926552884280682,0.001450803829357028,0.00045814859913662076
1772812211728082000,1.73008203125,0.002061668550595641,0.0017562361899763346,-0.008704823441803455
1772812211737782500,1.739782470703125,0.00511599238961935,-0.0077121676877141,-0.02611446939408779
1772812211747483100,1.749483154296875,0.009086613543331623,-0.017486004158854485,-0.051159925758838654
1772812211757183700,1.759183837890625,0.015806125476956367,-0.017486004158854485,-0.0691804364323616
1772812211766884400,1.76888427734375,0.014584396965801716,-0.011377356946468353,-0.07131846249103546
1772812211776585000,1.7785849609375,0.0035888305865228176,0.0057268571108579636,-0.05543597787618637
1772812211786285600,1.78828564453125,-0.011682788841426373,0.0191658828407526,-0.026419902220368385
1772812211795986200,1.797986083984375,-0.02542724646627903,0.022525638341903687,0.0001527161948615685
1772812211805686800,1.807686767578125,-0.030314164236187935,0.024052800610661507,0.02000582218170166
1772812211815387400,1.817387451171875,-0.029703300446271896,0.02588539570569992,0.028557928279042244
1772812211825088000,1.827087890625,-0.026038112118840218,0.022525638341903687,0.030085090547800064
1772812211834788600,1.83678857421875,-0.022678354755043983,0.015500693581998348,0.028557928279042244
1772812211844489200,1.8464892578125,-0.01870773360133171,0.009086613543331623,0.024281874299049377
1772812211854189800,1.85618994140625,-0.01626427471637726,0.00755945174023509,0.018784092739224434
1772812211863890400,1.865890380859375,-0.012904518283903599,0.006337722297757864,0.01511890348047018
1772812211873591000,1.875591064453125,-0.010766491293907166,0.00847574882209301,0.013286309316754341
1772812211883291400,1.88529150390625,-0.013209951110184193,0.01030834298580885,0.009621120058000088
1772812211892992000,1.894991943359375,-0.019013166427612305,0.00603228947147727,0.002901607658714056
1772812211902692600,1.904692626953125,-0.02023489587008953,0.002061668550595641,-0.014202605932950974
1772812211912393200,1.914393310546875,-0.015958841890096664,0.0023671009112149477,-0.03252854943275452
1772812211922093800,1.92409375,-0.005574141163378954,-0.0009926552884280682,-0.04108065739274025
1772812211931794400,1.93379443359375,0.006948587018996477,-0.014431680552661419,-0.040775224566459656
1772812211941495000,1.9434951171875,0.01763872057199478,-0.021151192486286163,-0.024892739951610565
1772812211951195600,1.953195556640625,0.020387612283229828,-0.018096869811415672,-0.0010690133785828948
1772812211960896300,1.962896240234375,0.012140937149524689,-0.016875140368938446,0.02153298258781433
1772812211970596900,1.972596923828125,0.0023671009112149477,-0.008017600513994694,0.040775224566459656
1772812211980297500,1.98229736328125,-0.008323032408952713,0.0029779658652842045,0.05604684352874756
1772812211989998000,1.991998046875,-0.01779143698513508,0.002061668550595641,0.06337722390890121
1772812211999698700,2.00169873046875,-0.020540328696370125,0.0017562361899763346,0.06337722390890121
1772812212009399300,2.0113994140625,-0.0193185992538929,0.001450803829357028,0.056657709181308746
1772812212019100000,2.021099853515625,-0.020540328696370125,0.0005345066892914474,0.044440411031246185
1772812212028800300,2.03080029296875,-0.022067490965127945,-0.0034361144062131643,0.026419902220368385
1772812212038500900,2.0405009765625,-0.018402300775051117,-0.008933897130191326,0.0062613640911877155
1772812212048201500,2.050201416015625,-0.008628465235233307,-0.01779143698513508,-0.01511890348047018
1772812212057902000,2.059902099609375,-0.00007635809743078426,-0.03245219215750694,-0.03497200831770897
1772812212067602700,2.069602783203125,0.004505127668380737,-0.03550651669502258,-0.043829549103975296
1772812212077303300,2.07930322265625,0.004199695307761431,-0.025732679292559624,-0.04199695214629173
1772812212087004000,2.08900390625,-0.0009926552884280682,-0.019929463043808937,-0.031612250953912735
1772812212096704500,2.09870458984375,-0.00679587060585618,-0.019013166427612305,-0.016340631991624832
1772812212106405000,2.108405029296875,-0.00954476185142994,-0.014431680552661419,-0.0019853105768561363
1772812212116105700,2.118105712890625,-0.014431680552661419,-0.008933897130191326,0.009621120058000088
1772812212125806300,2.127806396484375,-0.01779143698513508,-0.00679587060585618,0.014202605932950974
1772812212135507000,2.1375068359375,-0.015042545273900032,-0.0058795735239982605,0.014813470654189587
1772812212145207600,2.14720751953125,-0.0077121676877141,-0.011682788841426373,0.012675444595515728
1772812212154908200,2.156908203125,-0.0012980876490473747,-0.02176205813884735,0.009010255336761475
1772812212164608800,2.16660888671875,0.002672533504664898,-0.024510949850082397,0.001679878099821508
1772812212174309000,2.17630908203125,0.006337722297757864,-0.01626427471637726,-0.0102319847792387
1772812212184009700,2.186009765625,0.0057268571108579636,-0.007101302966475487,-0.020311253145337105
1772812212193710300,2.19571044921875,0.0011453714687377214,-0.00954476185142994,-0.03191768378019333
1772812212203411000,2.205410888671875,-0.0022143847309052944,-0.010155626572668552,-0.041386090219020844
1772812212213111600,2.215111572265625,-0.005268708802759647,-0.005574141163378954,-0.054214250296354294
1772812212222812200,2.224812255859375,-0.00923932995647192,-0.00038179047987796366,-0.0694858655333519
1772812212232512800,2.2345126953125,-0.013515383005142212,0.00755945174023509,-0.07895427197217941
1772812212242213400,2.24421337890625,-0.017486004158854485,0.013973532244563103,-0.07834340631961823
1772812212251914000,2.2539140625,-0.016875140368938446,0.012751801870763302,-0.07131846249103546
1772812212261614600,2.263614501953125,-0.008628465235233307,0.01000291109085083,-0.056657709181308746
1772812212271315200,2.273315185546875,0.0011453714687377214,0.004810560029000044,-0.03894263133406639
1772812212281015800,2.283015869140625,0.009697478264570236,-0.0022143847309052944,-0.023365577682852745
1772812212290716200,2.292716064453125,0.01611155830323696,-0.005268708802759647,-0.012675444595515728
1772812212300417000,2.3024169921875,0.019471315667033195,-0.008933897130191326,-0.005650499369949102
1772812212310117600,2.31211767578125,0.02130390889942646,-0.01259908638894558,-0.005650499369949102
1772812212319818000,2.32181787109375,0.023441936820745468,-0.01718057133257389,-0.011759147047996521
1772812212329518600,2.3315185546875,0.027717988938093185,-0.01779143698513508,-0.020922118797898293
1772812212339219200,2.34121923828125,0.03107774630188942,-0.014737112447619438,-0.027336198836565018
1772812212348919800,2.350919921875,0.029856016859412193,-0.010155626572668552,-0.02611446939408779
1772812212358620400,2.360620361328125,0.021914774551987648,-0.008323032408952713,-0.023976443335413933
1772812212368321000,2.370321044921875,0.012140937149524689,-0.007406735327094793,-0.02214384824037552
1772812212378021600,2.380021728515625,0.007254019379615784,-0.005574141163378954,-0.017562363296747208
1772812212387722200,2.38972216796875,0.002672533504664898,-0.00038179047987796366,-0.010537417605519295
1772812212397422800,2.3994228515625,-0.004963276442140341,-0.00038179047987796366,-0.007483093533664942
1772812212407123500,2.40912353515625,-0.00954476185142994,-0.0025198173243552446,-0.012980876490473747
1772812212416824000,2.418823974609375,-0.013515383005142212,0.002672533504664898,-0.020311253145337105
1772812212426524700,2.428524658203125,-0.020540328696370125,0.00511599238961935,-0.03222311660647392
1772812212436225300,2.438225341796875,-0.023594651371240616,0.005421424750238657,-0.03802633285522461
1772812212445926000,2.44792578125,-0.019013166427612305,0.0005345066892914474,-0.04016435891389847
1772812212455626500,2.45762646484375,-0.008017600513994694,-0.01779143698513508,-0.03130681812763214
1772812212465327000,2.4673271484375,0.00603228947147727,-0.03000873140990734,-0.02000582218170166
1772812212475027500,2.47702734375,0.018555017188191414,-0.021456625312566757,-0.006566796451807022
1772812212484728000,2.48672802734375,0.023136503994464874,-0.007101302966475487,0.005955931730568409
1772812212494428700,2.4964287109375,0.022220205515623093,0.00022907429956831038,0.017562363296747208
1772812212504129300,2.50612939453125,0.016416991129517555,0.000839939049910754,0.027030766010284424
1772812212513830000,2.515829833984375,0.009392046369612217,0.00022907429956831038,0.036804601550102234
1772812212523530500,2.525530517578125,0.00022907429956831038,0.004199695307761431,0.04016435891389847
1772812212533231000,2.535231201171875,-0.009850194677710533,0.00847574882209301,0.03222311660647392
1772812212542931700,2.544931640625,-0.01779143698513508,0.005421424750238657,0.018784092739224434
1772812212552632300,2.55463232421875,-0.015042545273900032,0.003894262947142124,0.0019853105768561363
1772812212562333000,2.5643330078125,-0.005268708802759647,-0.0034361144062131643,-0.022754713892936707
1772812212572033500,2.574033447265625,0.00022907429956831038,-0.006490438245236874,-0.041386090219020844
1772812212581734100,2.583734130859375,0.004199695307761431,-0.008933897130191326,-0.05757400393486023
1772812212591434500,2.5934345703125,0.00603228947147727,-0.010461059398949146,-0.06734783947467804
1772812212601135400,2.60313525390625,0.0023671009112149477,-0.008323032408952713,-0.0691804364323616
1772812212610836000,2.6128359375,-0.003741546766832471,-0.0031306820455938578,-0.064598947763443
1772812212620536300,2.622536376953125,-0.00679587060585618,0.0029779658652842045,-0.05329795181751251
1772812212630237000,2.63223681640625,-0.009850194677710533,0.005421424750238657,-0.030390523374080658
1772812212639937500,2.6419375,-0.01259908638894558,0.0066431546583771706,-0.001679878099821508
1772812212649638100,2.65163818359375,-0.013209951110184193,0.004199695307761431,0.027030766010284424
1772812212659338800,2.6613388671875,-0.010461059398949146,0.0029779658652842045,0.04566214233636856
1772812212669039400,2.671039306640625,-0.004352411720901728,0.005421424750238657,0.05818486958742142
1772812212678740000,2.680739990234375,-0.00007635809743078426,0.003894262947142124,0.05543597787618637
1772812212688440600,2.690440673828125,0.002672533504664898,0.004505127668380737,0.045967575162649155
1772812212698141200,2.70014111328125,0.007864884100854397,-0.00038179047987796366,0.030390523374080658
1772812212707841800,2.709841796875,0.01183550525456667,-0.010155626572668552,0.01511890348047018
1772812212717542400,2.71954248046875,0.010613775812089443,-0.019013166427612305,-0.002290742937475443
1772812212727243000,2.729242919921875,0.011224640533328056,-0.011682788841426373,-0.021227551624178886
1772812212736943600,2.738943603515625,0.01030834298580885,0.0035888305865228176,-0.03497200831770897
1772812212746644000,2.74864404296875,0.003894262947142124,0.005421424750238657,-0.04627300798892975
1772812212756344800,2.7583447265625,-0.0022143847309052944,0.0017562361899763346,-0.051159925758838654
1772812212766045400,2.76804541015625,-0.0034361144062131643,0.004810560029000044,-0.04780016839504242
1772812212775745800,2.777745849609375,-0.0025198173243552446,0.004199695307761431,-0.043829549103975296
1772812212785446400,2.7874462890625,-0.0034361144062131643,-0.0025198173243552446,-0.0383317656815052
1772812212795147000,2.79714697265625,-0.004352411720901728,-0.007101302966475487,-0.029474224895238876
1772812212804847600,2.80684765625,0.0035888305865228176,-0.0012980876490473747,-0.011759147047996521
1772812212814548200,2.81654833984375,0.012140937149524689,-0.011682788841426373,0.006872228812426329
1772812212824248800,2.826248779296875,0.0035888305865228176,-0.04864010959863663,0.02977965772151947
1772812212833949400,2.835949462890625,0.013362666592001915,-0.04528035223484039,0.04321868345141411
1772812212843650000,2.845650146484375,0.01977674663066864,-0.0016035200096666813,0.0383317656815052
1772812212853350700,2.8553505859375,0.007254019379615784,0.011224640533328056,0.023976443335413933
1772812212863051300,2.86505126953125,-0.0025198173243552446,0.009392046369612217,0.02519817277789116
1772812212872751900,2.874751953125,0.002672533504664898,0.00603228947147727,0.03191768378019333
1772812212882452500,2.884452392578125,0.004505127668380737,-0.0019089524867013097,0.02825249545276165
1772812212892152800,2.89415283203125,0.0029779658652842045,-0.0012980876490473747,0.019700389355421066
1772812212901853700,2.903853759765625,0.002672533504664898,0.003894262947142124,0.010537417605519295
1772812212911554300,2.91355419921875,0.0023671009112149477,0.000839939049910754,-0.0032070400193333626
1772812212921255000,2.9232548828125,0.00022907429956831038,-0.0031306820455938578,-0.016646064817905426
1772812212930955300,2.932955322265625,-0.004657844081521034,-0.0031306820455938578,-0.02916879393160343
1772812212940655900,2.94265576171875,-0.015042545273900032,0.00603228947147727,-0.041386090219020844
1772812212950356500,2.9523564453125,-0.02756527252495289,0.020082179456949234,-0.04993819445371628
1772812212960057000,2.96205712890625,-0.037033677101135254,0.032910339534282684,-0.05329795181751251
1772812212969757700,2.9717578125,-0.046807512640953064,0.029856016859412193,-0.05329795181751251
1772812212979458300,2.981458251953125,-0.04253146052360535,0.01824958436191082,-0.046883873641490936
1772812212989159000,2.991158935546875,-0.022067490965127945,0.014584396965801716,-0.04474584385752678
1772812212998859500,3.000859619140625,-0.0016035200096666813,0.0035888305865228176,-0.03802633285522461
1772812213008560000,3.01056005859375,0.015806125476956367,-0.0016035200096666813,-0.020922118797898293
1772812213018260700,3.0202607421875,0.0243582334369421,-0.012904518283903599,0.002901607658714056
1772812213027961300,3.02996142578125,0.026190826669335365,-0.02023489587008953,0.02611446939408779
1772812213037662000,3.039661865234375,0.02588539570569992,-0.018096869811415672,0.04505127668380737
1772812213047362300,3.0493623046875,0.01977674663066864,-0.014737112447619438,0.05543597787618637
1772812213057063200,3.059063232421875,0.01000291109085083,-0.013820815831422806,0.05818486958742142
1772812213066763800,3.068763671875,0.001450803829357028,-0.006185005884617567,0.05543597787618637
1772812213076464400,3.07846435546875,-0.00923932995647192,0.002061668550595641,0.04321868345141411
1772812213086164700,3.088164794921875,-0.016875140368938446,0.009697478264570236,0.030695954337716103
1772812213095865300,3.097865234375,-0.02023489587008953,0.013057234697043896,0.0206166859716177
1772812213105566000,3.10756591796875,-0.026038112118840218,0.003894262947142124,0.01206457894295454
1772812213115266600,3.1172666015625,-0.030314164236187935,-0.0016035200096666813,0.0038179049734026194
1772812213124967200,3.12696728515625,-0.031230462715029716,0.005421424750238657,-0.004428769461810589
1772812213134667800,3.136667724609375,-0.028787001967430115,0.009086613543331623,-0.016035201027989388
1772812213144368400,3.146368408203125,-0.023594651371240616,0.005421424750238657,-0.02153298258781433
1772812213154069000,3.156069091796875,-0.01565340906381607,0.00511599238961935,-0.017867794260382652
1772812213163769600,3.16576953125,-0.010155626572668552,0.00603228947147727,-0.010842849500477314
1772812213173470200,3.17547021484375,-0.008933897130191326,0.0057268571108579636,0.0010690133785828948
1772812213183170800,3.1851708984375,-0.009850194677710533,0.003283398225903511,0.016035201027989388
1772812213192871400,3.194871337890625,-0.008933897130191326,0.004810560029000044,0.02977965772151947
1772812213202572000,3.204572021484375,-0.003741546766832471,0.00511599238961935,0.03497200831770897
1772812213212272600,3.214272705078125,0.0035888305865228176,0.0011453714687377214,0.03436114266514778
1772812213221973200,3.22397314453125,0.012446369975805283,-0.0009926552884280682,0.02764163166284561
1772812213231673900,3.233673828125,0.016416991129517555,-0.0025198173243552446,0.02214384824037552
1772812213241374200,3.243374267578125,0.017944153398275375,-0.00954476185142994,0.01908952370285988
1772812213251074800,3.25307470703125,0.021609341725707054,-0.02328922040760517,0.012370011769235134
1772812213260775700,3.262775634765625,0.025579962879419327,-0.02909243479371071,0.002901607658714056
1772812213270476000,3.27247607421875,0.025274530053138733,-0.029703300446271896,-0.008093958720564842
1772812213280176600,3.2821767578125,0.02130390889942646,-0.019929463043808937,-0.013897174037992954
1772812213289877200,3.291877197265625,0.01000291109085083,-0.0025198173243552446,-0.01511890348047018
1772812213299577900,3.301577880859375,-0.004352411720901728,0.011224640533328056,-0.01206457894295454
1772812213309278500,3.311278564453125,-0.018402300775051117,0.01977674663066864,-0.004734201822429895
1772812213318979000,3.32097900390625,-0.025121813639998436,0.023136503994464874,0.004734201822429895
1772812213328679700,3.3306796875,-0.026343543082475662,0.0191658828407526,0.0102319847792387
1772812213338380300,3.34038037109375,-0.026038112118840218,0.012140937149524689,0.012370011769235134
1772812213348081000,3.350080810546875,-0.0193185992538929,0.012140937149524689,0.012980876490473747
1772812213357781500,3.359781494140625,-0.011377356946468353,0.007864884100854397,0.01695149764418602
1772812213367482000,3.369482177734375,-0.003741546766832471,0.00022907429956831038,0.01908952370285988
1772812213377182700,3.3791826171875,0.007254019379615784,-0.0012980876490473747,0.019700389355421066
1772812213386883300,3.38888330078125,0.01611155830323696,-0.004963276442140341,0.017562363296747208
1772812213396583700,3.398583740234375,0.02283107116818428,-0.01107192412018776,0.009926552884280682
1772812213406284300,3.4082841796875,0.03352120518684387,-0.013209951110184193,0.0010690133785828948
1772812213415985200,3.417985107421875,0.04176788032054901,-0.019013166427612305,-0.005650499369949102
1772812213425685500,3.427685546875,0.043600473552942276,-0.02237292192876339,-0.006566796451807022
1772812213435386000,3.43738623046875,0.04085158184170723,-0.019929463043808937,-0.004734201822429895
1772812213445086700,3.447086669921875,0.030466880649328232,-0.018402300775051117,-0.002901607658714056
1772812213454787300,3.456787353515625,0.0191658828407526,-0.007101302966475487,0.00045814859913662076
1772812213464488000,3.466488037109375,0.009697478264570236,0.0029779658652842045,0.004123337101191282
1772812213474188500,3.4761884765625,0.0011453714687377214,0.008170315995812416,0.005039634648710489
1772812213483889200,3.48588916015625,-0.004963276442140341,0.016416991129517555,0.007177661173045635
1772812213493589800,3.49558984375,-0.015958841890096664,0.020387612283229828,0.012675444595515728
1772812213503290400,3.505290283203125,-0.029703300446271896,0.007864884100854397,0.003512472379952669
1772812213512991000,3.514990966796875,-0.031230462715029716,0.007864884100854397,-0.015729768201708794
1772812213522691600,3.524691650390625,-0.019929463043808937,0.015195261687040329,-0.034666575491428375
1772812213532392200,3.53439208984375,-0.00954476185142994,0.0011453714687377214,-0.050549060106277466
1772812213542092800,3.5440927734375,0.00511599238961935,-0.014737112447619438,-0.05299251899123192
1772812213551793200,3.553793212890625,0.022525638341903687,-0.01779143698513508,-0.04627300798892975
1772812213561493800,3.56349365234375,0.02588539570569992,-0.012904518283903599,-0.03375028073787689
1772812213571194600,3.573194580078125,0.018860450014472008,-0.0058795735239982605,-0.018784092739224434
1772812213580895000,3.58289501953125,0.013057234697043896,-0.008017600513994694,-0.011148282326757908
1772812213590595600,3.592595703125,0.009392046369612217,0.0011453714687377214,0.0038179049734026194
1772812213600296200,3.602296142578125,0.0005345066892914474,0.010919207707047462,0.017562363296747208
1772812213609996800,3.611996826171875,-0.008933897130191326,0.01611155830323696,0.03497200831770897
1772812213619697400,3.621697509765625,-0.015042545273900032,0.01611155830323696,0.047494735568761826
1772812213629398000,3.63139794921875,-0.014126247726380825,0.01183550525456667,0.052687086164951324
1772812213639098600,3.6410986328125,-0.010766491293907166,0.007864884100854397,0.0487164668738842
1772812213648799200,3.65079931640625,-0.0077121676877141,0.006948587018996477,0.03527744114398956
1772812213658499800,3.660499755859375,-0.008017600513994694,0.00755945174023509,0.013897174037992954
1772812213668200400,3.670200439453125,-0.00954476185142994,0.009697478264570236,-0.005345067009329796
1772812213677901000,3.679901123046875,-0.010766491293907166,0.013057234697043896,-0.021227551624178886
1772812213687601700,3.6896015625,-0.009850194677710533,0.012751801870763302,-0.03222311660647392
1772812213697302300,3.69930224609375,-0.008017600513994694,0.005421424750238657,-0.04169152304530144
1772812213707002600,3.709002685546875,-0.004657844081521034,-0.00007635809743078426,-0.04566214233636856
1772812213716703500,3.718703369140625,-0.0025198173243552446,-0.0025198173243552446,-0.04260781779885292
1772812213726404000,3.728404052734375,-0.003741546766832471,-0.0006872228696011007,-0.03558287397027016
1772812213736104700,3.738104736328125,-0.0022143847309052944,0.009086613543331623,-0.017256930470466614
1772812213745805000,3.74780517578125,-0.002825249684974551,0.015806125476956367,0.0102319847792387
1772812213755505700,3.757505615234375,-0.004963276442140341,0.009392046369612217,0.03802633285522461
1772812213765206300,3.767206298828125,0.00022907429956831038,0.004505127668380737,0.05696314200758934
1772812213774907000,3.776906982421875,0.004505127668380737,0.0035888305865228176,0.06490438431501389
1772812213784607500,3.786607421875,0.0035888305865228176,-0.00007635809743078426,0.06307178735733032
1772812213794308000,3.79630810546875,0.002061668550595641,-0.0012980876490473747,0.056657709181308746
1772812213804008700,3.8060087890625,0.0011453714687377214,-0.0034361144062131643,0.04046979174017906
1772812213813709300,3.815709228515625,0.0017562361899763346,0.004810560029000044,0.019700389355421066
1772812213823410000,3.825409912109375,-0.0006872228696011007,0.025274530053138733,0.0062613640911877155
1772812213833110500,3.835110595703125,-0.004657844081521034,0.02496909722685814,-0.006566796451807022
1772812213842811100,3.84481103515625,-0.0025198173243552446,0.009697478264570236,-0.017562363296747208
1772812213852511700,3.85451171875,0.007254019379615784,0.00511599238961935,-0.02764163166284561
1772812213862212400,3.86421240234375,0.009392046369612217,0.007254019379615784,-0.03436114266514778
1772812213871913000,3.873912841796875,0.0011453714687377214,0.007254019379615784,-0.03252854943275452
1772812213881613600,3.883613525390625,-0.005268708802759647,0.00847574882209301,-0.027030766010284424
1772812213891314200,3.893314208984375,-0.004657844081521034,0.01183550525456667,-0.025809036567807198
1772812213901014500,3.9030146484375,-0.004352411720901728,0.011224640533328056,-0.027336198836565018
1772812213910715100,3.912715087890625,-0.003741546766832471,-0.0016035200096666813,-0.034666575491428375
1772812213920415700,3.922415771484375,-0.00007635809743078426,-0.013820815831422806,-0.049021899700164795
1772812213930116600,3.93211669921875,0.006337722297757864,-0.012904518283903599,-0.06062832847237587
1772812213939817000,3.94181689453125,0.0066431546583771706,-0.0009926552884280682,-0.05971203371882439
1772812213949517600,3.951517578125,-0.0016035200096666813,0.008781181648373604,-0.04169152304530144
1772812213959218200,3.96121826171875,-0.008323032408952713,0.015500693581998348,-0.009621120058000088
1772812213968918800,3.970918701171875,-0.013515383005142212,0.015806125476956367,0.02153298258781433
1772812213978619400,3.980619384765625,-0.014431680552661419,0.011530072428286076,0.04566214233636856
1772812213988320000,3.990320068359375,-0.011377356946468353,0.00847574882209301,0.06337722390890121
1772812213998020600,4.0000205078125,-0.009850194677710533,0.004199695307761431,0.07376192510128021
1772812214007721200,4.00972119140625,-0.008628465235233307,0.0011453714687377214,0.07589995115995407
1772812214017421800,4.019421875,-0.008017600513994694,-0.00038179047987796366,0.07742711156606674
1772812214027122400,4.029122314453125,-0.006185005884617567,0.002061668550595641,0.07131846249103546
1772812214036823000,4.038822998046875,-0.004046979360282421,0.002672533504664898,0.057268574833869934
1772812214046523600,4.048523681640625,-0.004657844081521034,0.0011453714687377214,0.03558287397027016
1772812214056224300,4.058224365234375,-0.010766491293907166,-0.004046979360282421,0.004123337101191282
1772812214065924600,4.067924560546875,-0.014737112447619438,-0.005574141163378954,-0.031612250953912735
1772812214075625500,4.07762548828125,-0.01107192412018776,-0.0034361144062131643,-0.060322895646095276
1772812214085326000,4.087326171875,-0.004963276442140341,-0.010766491293907166,-0.07131846249103546
1772812214095026400,4.0970263671875,0.001450803829357028,-0.024510949850082397,-0.06520981341600418
1772812214104727000,4.10672705078125,0.00847574882209301,-0.02848157100379467,-0.04535670951008797
1772812214114427600,4.116427734375,0.012140937149524689,-0.030314164236187935,-0.022754713892936707
1772812214124128300,4.126128173828125,0.00847574882209301,-0.024816380813717842,0.005650499369949102
1772812214133828900,4.135828857421875,0.0017562361899763346,-0.014431680552661419,0.03191768378019333
1772812214143529500,4.145529541015625,-0.006490438245236874,-0.004352411720901728,0.0539088174700737
1772812214153230000,4.15522998046875,-0.012904518283903599,0.004810560029000044,0.07315105944871902
1772812214162930700,4.1649306640625,-0.012293653562664986,0.012446369975805283,0.08231402933597565
1772812214172631300,4.17463134765625,-0.011682788841426373,0.01030834298580885,0.08048143237829208
1772812214182332000,4.184331787109375,-0.008323032408952713,-0.0006872228696011007,0.06765327602624893
1772812214192032500,4.194032470703125,0.002672533504664898,-0.0019089524867013097,0.04932733252644539
1772812214201733000,4.203733154296875,0.01611155830323696,-0.008628465235233307,0.027947064489126205
1772812214211433700,4.213433837890625,0.02130390889942646,-0.022067490965127945,0.007788525894284248
1772812214221134300,4.22313427734375,0.01977674663066864,-0.024510949850082397,-0.004428769461810589
1772812214230835000,4.2328349609375,0.013973532244563103,-0.011377356946468353,-0.008399390615522861
1772812214240535600,4.24253564453125,-0.0012980876490473747,-0.0012980876490473747,-0.007788525894284248
1772812214250236200,4.252236083984375,-0.014737112447619438,0.006337722297757864,-0.004734201822429895
1772812214259936500,4.2619365234375,-0.019929463043808937,0.01183550525456667,-0.0010690133785828948
1772812214269637000,4.27163720703125,-0.017486004158854485,0.012446369975805283,-0.0001527161948615685
1772812214279337700,4.281337646484375,-0.012904518283903599,0.011224640533328056,-0.0010690133785828948
1772812214289038300,4.291038330078125,-0.006490438245236874,0.009697478264570236,0.0038179049734026194
1772812214298739000,4.300739013671875,-0.0009926552884280682,0.004199695307761431,0.009621120058000088
1772812214308439600,4.310439453125,0.0017562361899763346,-0.004352411720901728,0.006566796451807022
1772812214318140200,4.32014013671875,0.007254019379615784,-0.002825249684974551,0.009926552884280682
1772812214327840800,4.3298408203125,0.01183550525456667,-0.006185005884617567,0.005650499369949102
1772812214337541400,4.339541259765625,0.015806125476956367,-0.00679587060585618,0.003512472379952669
1772812214347242000,4.349241943359375,0.01611155830323696,-0.0058795735239982605,0.001679878099821508
1772812214356942600,4.358942626953125,0.010919207707047462,-0.0009926552884280682,0.0038179049734026194
1772812214366643200,4.368643310546875,0.002672533504664898,0.003894262947142124,0.007177661173045635
1772812214376343800,4.37834375,-0.004963276442140341,0.0023671009112149477,0.009315688163042068
1772812214386044400,4.38804443359375,-0.00923932995647192,0.0057268571108579636,0.01359174121171236
1772812214395745000,4.3977451171875,-0.013515383005142212,0.005421424750238657,0.017867794260382652
1772812214405445600,4.407445556640625,-0.01626427471637726,0.0005345066892914474,0.018784092739224434
1772812214415146200,4.417146240234375,-0.01718057133257389,-0.0009926552884280682,0.018173227086663246
1772812214424846600,4.4268466796875,-0.020540328696370125,-0.00007635809743078426,0.012675444595515728
1772812214434547200,4.436547119140625,-0.024205517023801804,0.0005345066892914474,0.0102319847792387
1772812214444248000,4.446248046875,-0.025732679292559624,0.0005345066892914474,0.005955931730568409
1772812214453948400,4.455948486328125,-0.025732679292559624,0.005421424750238657,0.007483093533664942
1772812214463649000,4.46564892578125,-0.028176138177514076,0.006337722297757864,0.011148282326757908
1772812214473349600,4.475349609375,-0.029397867619991302,0.008170315995812416,0.018784092739224434
1772812214483050200,4.48505029296875,-0.027870705351233482,0.004505127668380737,0.022449281066656113
1772812214492750800,4.494750732421875,-0.02237292192876339,0.000839939049910754,0.02306014485657215
1772812214502451500,4.504451416015625,-0.017486004158854485,-0.00007635809743078426,0.023976443335413933
1772812214512152000,4.514152099609375,-0.014431680552661419,-0.00038179047987796366,0.024281874299049377
1772812214521852700,4.523852783203125,-0.011682788841426373,-0.004657844081521034,0.021227551624178886
1772812214531553300,4.53355322265625,-0.0077121676877141,-0.0034361144062131643,0.017867794260382652
1772812214541254000,4.54325390625,-0.005268708802759647,-0.0019089524867013097,0.014508038759231567
1772812214550954500,4.55295458984375,-0.0034361144062131643,-0.005268708802759647,0.008093958720564842
1772812214560655000,4.562655029296875,-0.0009926552884280682,-0.0034361144062131643,0.0032070400193333626
1772812214570355700,4.572355712890625,0.004810560029000044,0.0023671009112149477,0.002290742937475443
1772812214580056300,4.582056396484375,0.000839939049910754,0.00603228947147727,0.008399390615522861
1772812214589757000,4.5917568359375,-0.00954476185142994,0.013362666592001915,0.014508038759231567
1772812214599457500,4.60145751953125,-0.02237292192876339,0.020082179456949234,0.02000582218170166
1772812214609158100,4.611158203125,-0.033368486911058426,0.021914774551987648,0.020922118797898293
1772812214618858500,4.6208583984375,-0.034895651042461395,0.014584396965801716,0.010842849500477314
1772812214628559000,4.63055908203125,-0.02328922040760517,0.010919207707047462,0.0038179049734026194
1772812214638259700,4.640259765625,-0.008628465235233307,0.0035888305865228176,0.009010255336761475
1772812214647960600,4.649960693359375,-0.0009926552884280682,-0.0019089524867013097,0.027336198836565018
1772812214657661000,4.659660888671875,-0.00007635809743078426,-0.0019089524867013097,0.042913250625133514
1772812214667361500,4.669361572265625,-0.003741546766832471,0.0011453714687377214,0.052687086164951324
1772812214677062100,4.679062255859375,-0.00679587060585618,0.003283398225903511,0.04993819445371628
1772812214686762800,4.6887626953125,-0.009850194677710533,0.002672533504664898,0.03711003437638283
1772812214696463400,4.69846337890625,-0.00923932995647192,0.0023671009112149477,0.019700389355421066
1772812214706164000,4.7081640625,-0.010461059398949146,0.001450803829357028,0.006872228812426329
1772812214715864600,4.717864501953125,-0.013820815831422806,0.0017562361899763346,-0.0032070400193333626
1772812214725565200,4.727565185546875,-0.016875140368938446,0.0023671009112149477,-0.0102319847792387
1772812214735265800,4.737265869140625,-0.019624030217528343,0.008781181648373604,-0.009926552884280682
1772812214754667000,4.7566669921875,-0.0193185992538929,0.0029779658652842045,-0.014813470654189587
1772812214764367600,4.76636767578125,-0.013209951110184193,0.0035888305865228176,-0.008704823441803455
1772812214774068200,4.776068115234375,-0.011988221667706966,-0.0019089524867013097,-0.001679878099821508
1772812214783768600,4.7857685546875,-0.013209951110184193,-0.004963276442140341,0.003512472379952669
1772812214793469200,4.79546923828125,-0.013820815831422806,-0.0016035200096666813,0.009010255336761475
1772812214803170000,4.805170166015625,-0.019929463043808937,0.00022907429956831038,0.012675444595515728
1772812214812870700,4.81487060546875,-0.025732679292559624,-0.0006872228696011007,0.01511890348047018
1772812214822571000,4.824571044921875,-0.027259841561317444,0.002061668550595641,0.01695149764418602
1772812214832271600,4.834271728515625,-0.026648975908756256,0.0023671009112149477,0.021227551624178886
1772812214841972200,4.84397216796875,-0.026343543082475662,0.0005345066892914474,0.020311253145337105
1772812214851672800,4.8536728515625,-0.021456625312566757,0.0023671009112149477,0.01695149764418602
1772812214861373400,4.86337353515625,-0.016569707542657852,0.006948587018996477,0.015729768201708794
1772812214871074000,4.873073974609375,-0.014431680552661419,-0.004657844081521034,0.017562363296747208
1772812214880774700,4.882774658203125,-0.013820815831422806,-0.019624030217528343,0.009926552884280682
1772812214890475300,4.892475341796875,-0.013820815831422806,-0.021456625312566757,-0.0025961752980947495
1772812214900176000,4.90217578125,-0.016569707542657852,-0.00954476185142994,-0.019700389355421066
1772812214909876500,4.91187646484375,-0.01718057133257389,0.0057268571108579636,-0.02214384824037552
1772812214919577000,4.9215771484375,-0.019929463043808937,0.009392046369612217,-0.013286309316754341
1772812214929277700,4.931277587890625,-0.020540328696370125,0.012140937149524689,0.009010255336761475
1772812214938978300,4.940978271484375,-0.0193185992538929,0.012751801870763302,0.03222311660647392
1772812214948678700,4.9506787109375,-0.01779143698513508,0.013668099418282509,0.05024362727999687
1772812214958379500,4.960379638671875,-0.010155626572668552,0.014889828860759735,0.05757400393486023
1772812214968080100,4.970080078125,0.003894262947142124,0.007864884100854397,0.052076224237680435
1772812214977780700,4.97978076171875,0.02130390889942646,-0.008017600513994694,0.041386090219020844
1772812214987481000,4.989481201171875,0.03993528336286545,-0.022678354755043983,0.028863361105322838
1772812214997181700,4.999181640625,0.05581776797771454,-0.03214675933122635,0.01359174121171236
1772812215006882300,5.00888232421875,0.06375901401042938,-0.03611737862229347,-0.007177661173045635
1772812215016583000,5.0185830078125,0.06375901401042938,-0.03153589367866516,-0.02519817277789116
1772812215026283500,5.028283447265625,0.05459604039788246,-0.021151192486286163,-0.03558287397027016
1772812215035984100,5.037984130859375,0.04085158184170723,-0.004046979360282421,-0.03649916872382164
1772812215045684700,5.047684814453125,0.020998476073145866,0.014889828860759735,-0.02611446939408779
1772812215055385300,5.05738525390625,0.000839939049910754,0.018555017188191414,-0.009621120058000088
1772812215065086000,5.0670859375,-0.008323032408952713,0.02283107116818428,0.012675444595515728
1772812215074786600,5.07678662109375,-0.01259908638894558,0.02496909722685814,0.03527744114398956
1772812215084487200,5.086487060546875,-0.018096869811415672,0.01977674663066864,0.05238165333867073
1772812215094187800,5.096187744140625,-0.022983787581324577,0.015195261687040329,0.06246092543005943
1772812215103888400,5.105888427734375,-0.024510949850082397,0.01183550525456667,0.06520981341600418
1772812215113589000,5.115589111328125,-0.02237292192876339,0.01611155830323696,0.06704241037368774
1772812215123289600,5.12528955078125,-0.01870773360133171,0.015806125476956367,0.06368265300989151
1772812215132990200,5.134990234375,-0.011682788841426373,0.008170315995812416,0.05696314200758934
1772812215142690800,5.14469091796875,-0.006185005884617567,0.008170315995812416,0.04413498193025589
1772812215152391200,5.15439111328125,-0.004963276442140341,0.011530072428286076,0.031001387163996696
1772812215162092000,5.164092041015625,-0.008017600513994694,0.017944153398275375,0.019394956529140472
1772812215171792600,5.173792724609375,-0.008933897130191326,0.018555017188191414,0.005650499369949102
1772812215181493200,5.1834931640625,-0.006185005884617567,0.015806125476956367,-0.007177661173045635
1772812215191193600,5.193193603515625,0.0011453714687377214,0.00755945174023509,-0.016340631991624832
1772812215200894200,5.202894287109375,0.016416991129517555,0.006948587018996477,-0.017867794260382652
1772812215210594800,5.2125947265625,0.03474293276667595,0.008170315995812416,-0.006566796451807022
1772812215220295400,5.22229541015625,0.04818195849657059,0.0029779658652842045,0.017867794260382652
1772812215229996000,5.23199609375,0.0576503649353981,-0.00679587060585618,0.04627300798892975
1772812215239696600,5.241696533203125,0.06345357745885849,-0.01259908638894558,0.06673697382211685
1772812215249397200,5.251397216796875,0.05826122686266899,-0.01718057133257389,0.07223475724458694
1772812215259097900,5.261097900390625,0.047265663743019104,-0.01718057133257389,0.06307178735733032
1772812215268798500,5.270798583984375,0.039018988609313965,-0.011682788841426373,0.04413498193025589
1772812215278499000,5.2804990234375,0.02741255611181259,-0.003741546766832471,0.025503603741526604
1772812215288199700,5.29019970703125,0.01672242395579815,0.001450803829357028,0.0062613640911877155
1772812215297900300,5.299900390625,0.00755945174023509,0.003283398225903511,-0.012675444595515728
1772812215307601000,5.309600830078125,0.003283398225903511,0.010613775812089443,-0.02825249545276165
1772812215317301500,5.319301513671875,-0.00038179047987796366,0.013973532244563103,-0.040775224566459656
1772812215327002000,5.329002197265625,-0.005574141163378954,0.011530072428286076,-0.044440411031246185
1772812215336702700,5.33870263671875,-0.010766491293907166,0.012751801870763302,-0.040775224566459656
1772812215346403300,5.3484033203125,-0.008933897130191326,0.012751801870763302,-0.03436114266514778
1772812215356103700,5.358103759765625,-0.0016035200096666813,0.008170315995812416,-0.027947064489126205
1772812215365804300,5.36780419921875,0.010919207707047462,0.012751801870763302,-0.016340631991624832
1772812215375505200,5.377505126953125,0.019471315667033195,0.01000291109085083,-0.0025961752980947495
1772812215385205800,5.387205810546875,0.024663666263222694,-0.0016035200096666813,0.011453714221715927
1772812215394906000,5.396906005859375,0.029856016859412193,-0.012904518283903599,0.025503603741526604
1772812215404606700,5.406606689453125,0.035964664071798325,-0.014737112447619438,0.03588830679655075
1772812215414307300,5.416307373046875,0.03810269013047218,-0.01626427471637726,0.03802633285522461
1772812215424008000,5.426008056640625,0.0371863916516304,-0.009850194677710533,0.03741546720266342
1772812215433708500,5.43570849609375,0.0319940410554409,0.0017562361899763346,0.03711003437638283
1772812215443409200,5.4454091796875,0.022525638341903687,-0.0009926552884280682,0.036804601550102234
1772812215453109800,5.45510986328125,0.012140937149524689,-0.008933897130191326,0.03130681812763214
1772812215462810400,5.464810302734375,0.0066431546583771706,-0.0077121676877141,0.020922118797898293
1772812215472511000,5.474510986328125,0.002672533504664898,-0.003741546766832471,0.0025961752980947495
1772812215482211600,5.484211669921875,-0.0019089524867013097,0.002672533504664898,-0.013897174037992954
1772812215491912200,5.493912109375,-0.00954476185142994,0.009086613543331623,-0.021227551624178886
1772812215501612800,5.50361279296875,-0.01565340906381607,0.015806125476956367,-0.027336198836565018
1772812215511313400,5.5133134765625,-0.018402300775051117,0.020998476073145866,-0.030085090547800064
1772812215521014000,5.523013916015625,-0.01779143698513508,0.01611155830323696,-0.02764163166284561
1772812215530714600,5.532714599609375,-0.013209951110184193,0.0029779658652842045,-0.022754713892936707
1772812215540415200,5.542415283203125,-0.008017600513994694,-0.0031306820455938578,-0.0154243353754282
1772812215550115800,5.55211572265625,-0.007101302966475487,-0.002825249684974551,-0.011453714221715927
1772812215559816200,5.561816162109375,-0.010766491293907166,-0.0012980876490473747,-0.006872228812426329
1772812215569516800,5.571516845703125,-0.01107192412018776,0.0029779658652842045,-0.0019853105768561363
1772812215579217400,5.581217529296875,-0.010766491293907166,0.000839939049910754,0.004734201822429895
1772812215588918300,5.590918212890625,-0.008017600513994694,-0.0019089524867013097,0.011453714221715927
1772812215598618600,5.60061865234375,-0.008628465235233307,-0.0025198173243552446,0.016646064817905426
1772812215608319200,5.6103193359375,-0.011682788841426373,-0.0022143847309052944,0.020311253145337105
1772812215618019800,5.620019775390625,-0.015958841890096664,-0.002825249684974551,0.02367101050913334
1772812215627720400,5.629720458984375,-0.02023489587008953,-0.003741546766832471,0.03130681812763214
1772812215637421000,5.639421142578125,-0.02542724646627903,-0.0031306820455938578,0.03191768378019333
1772812215647121700,5.64912158203125,-0.028176138177514076,0.00755945174023509,0.027030766010284424
1772812215656822300,5.658822265625,-0.031230462715029716,0.022220205515623093,0.016646064817905426
1772812215666523000,5.66852294921875,-0.031230462715029716,0.0295505840331316,0.005039634648710489
1772812215676223500,5.678223388671875,-0.02237292192876339,0.02649625949561596,-0.0102319847792387
1772812215685924000,5.687924072265625,-0.006490438245236874,0.0191658828407526,-0.028557928279042244
1772812215695624700,5.697624755859375,0.009392046369612217,0.00847574882209301,-0.043829549103975296
1772812215705325300,5.7073251953125,0.023747367784380913,-0.0031306820455938578,-0.054214250296354294
1772812215715026000,5.71702587890625,0.033826638013124466,-0.011377356946468353,-0.06612611562013626
1772812215724726500,5.7267265625,0.0423787422478199,-0.014737112447619438,-0.06887500733137131
1772812215734427100,5.73642724609375,0.04848739132285118,-0.013515383005142212,-0.06887500733137131
1772812215744127700,5.746127685546875,0.05123628303408623,-0.008323032408952713,-0.06337722390890121
1772812215753828400,5.755828369140625,0.04451677203178406,0.000839939049910754,-0.04932733252644539
1772812215763529000,5.765529052734375,0.030466880649328232,0.01611155830323696,-0.021838415414094925
1772812215773229300,5.775229248046875,0.014889828860759735,0.02802342176437378,0.007177661173045635
1772812215782930000,5.784929931640625,0.001450803829357028,0.028634287416934967,0.03191768378019333
1772812215792630800,5.794630859375,0.003283398225903511,0.02893971838057041,0.04993819445371628
1772812215802331400,5.804331298828125,0.010613775812089443,0.025274530053138733,0.061850059777498245
1772812215812031700,5.81403173828125,0.0191658828407526,0.019471315667033195,0.0691804364323616
1772812215821732400,5.823732421875,0.02893971838057041,0.013668099418282509,0.06734783947467804
1772812215831433000,5.833432861328125,0.03657552972435951,0.011224640533328056,0.06490438431501389
1772812215841133600,5.843133544921875,0.04146244749426842,0.000839939049910754,0.054214250296354294
1772812215850834200,5.852834228515625,0.04390590637922287,-0.008323032408952713,0.04566214233636856
1772812215860534800,5.86253466796875,0.0475710928440094,-0.01259908638894558,0.036193739622831345
1772812215870235400,5.8722353515625,0.04818195849657059,-0.011377356946468353,0.02458730712532997
1772812215879936000,5.88193603515625,0.04329504072666168,-0.008628465235233307,0.017256930470466614
1772812215889636600,5.89163671875,0.03535379841923714,-0.004352411720901728,0.014508038759231567
1772812215899337200,5.901337158203125,0.022220205515623093,0.007864884100854397,0.01359174121171236
1772812215909037800,5.911037841796875,0.010613775812089443,0.0191658828407526,0.025503603741526604
1772812215918738400,5.920738525390625,0.0057268571108579636,0.020998476073145866,0.03191768378019333
1772812215928439000,5.93043896484375,0.0066431546583771706,0.023441936820745468,0.03802633285522461
1772812215938139600,5.9401396484375,0.006337722297757864,0.021914774551987648,0.03894263133406639
1772812215947840300,5.94984033203125,0.004199695307761431,0.01672242395579815,0.0383317656815052
1772812215957540900,5.959540771484375,0.00603228947147727,0.019471315667033195,0.0383317656815052
1772812215967241500,5.969241455078125,0.012446369975805283,0.012140937149524689,0.027947064489126205
1772812215976941800,5.97894189453125,0.021914774551987648,-0.0025198173243552446,0.01847865991294384
1772812215986642400,5.988642333984375,0.03810269013047218,-0.01259908638894558,0.002901607658714056
1772812215996343000,5.998343017578125,0.05581776797771454,-0.019929463043808937,-0.015729768201708794
1772812216006044000,6.0080439453125,0.0732274129986763,-0.03275762498378754,-0.0334448479115963
1772812216015744300,6.017744140625,0.0884990319609642,-0.04344775900244713,-0.0435241162776947
1772812216025444900,6.02744482421875,0.09460768103599548,-0.036422811448574066,-0.036804601550102234
1772812216035145500,6.0371455078125,0.09216422587633133,-0.012293653562664986,-0.013286309316754341
1772812216044846000,6.04684619140625,0.07567087560892105,0.006337722297757864,0.022449281066656113
1772812216054546700,6.056546630859375,0.05367974191904068,0.01183550525456667,0.05635227635502815
1772812216064247300,6.066247314453125,0.04024071618914604,0.010613775812089443,0.08567378669977188
1772812216073948000,6.075947998046875,0.0322994738817215,0.017027854919433594,0.10705405473709106
1772812216083648500,6.0856484375,0.026190826669335365,0.02283107116818428,0.11468986421823502
1772812216093349000,6.09534912109375,0.019471315667033195,0.020387612283229828,0.11499529331922531
1772812216103049700,6.1050498046875,0.019471315667033195,0.003283398225903511,0.10674861818552017
1772812216112750300,6.114750244140625,0.02588539570569992,-0.004963276442140341,0.10125083476305008
1772812216122451000,6.124450927734375,0.02283107116818428,-0.0022143847309052944,0.0896444097161293
1772812216132151600,6.134151611328125,0.013057234697043896,0.009697478264570236,0.08384118974208832
1772812216141852200,6.14385205078125,0.0011453714687377214,0.022525638341903687,0.07803797721862793
1772812216151552800,6.153552734375,-0.008017600513994694,0.029856016859412193,0.07345648854970932
1772812216161253400,6.16325341796875,-0.010766491293907166,0.03107774630188942,0.06490438431501389
1772812216170954000,6.1729541015625,-0.008323032408952713,0.017944153398275375,0.041386090219020844
1772812216180654600,6.182654541015625,-0.0006872228696011007,0.0017562361899763346,0.006872228812426329
1772812216190355000,6.19235498046875,0.00755945174023509,0.0023671009112149477,-0.022754713892936707
1772812216200055600,6.2020556640625,0.009086613543331623,0.004810560029000044,-0.04627300798892975
1772812216209756200,6.211756103515625,0.0035888305865228176,0.002672533504664898,-0.045967575162649155
1772812216219457000,6.22145703125,-0.0031306820455938578,0.007254019379615784,-0.03252854943275452
1772812216229157400,6.231157470703125,-0.010766491293907166,0.009392046369612217,-0.023365577682852745
1772812216238858000,6.24085791015625,-0.01626427471637726,0.014278964139521122,-0.006566796451807022
1772812216248558600,6.25055859375,-0.021151192486286163,0.01611155830323696,0.004123337101191282
1772812216258259200,6.26025927734375,-0.021456625312566757,0.020387612283229828,0.0062613640911877155
1772812216267959800,6.269959716796875,-0.013209951110184193,0.028328854590654373,0.004428769461810589
1772812216277660400,6.279660400390625,0.006337722297757864,0.03168861195445061,-0.010537417605519295
1772812216287361000,6.289361083984375,0.028328854590654373,0.0191658828407526,-0.02153298258781433
1772812216297061600,6.2990615234375,0.04604393243789673,0.000839939049910754,-0.036193739622831345
1772812216306762200,6.30876220703125,0.06039925664663315,-0.011377356946468353,-0.04627300798892975
1772812216316462800,6.318462890625,0.07506000995635986,-0.022678354755043983,-0.06612611562013626
1772812216326163500,6.32816357421875,0.08819360285997391,-0.02695440873503685,-0.07651081681251526
1772812216335864000,6.337864013671875,0.093691386282444,-0.024205517023801804,-0.06979130208492279
1772812216345564700,6.347564697265625,0.0884990319609642,-0.01107192412018776,-0.054214250296354294
1772812216355265300,6.357265380859375,0.06620246917009354,0.00603228947147727,-0.031612250953912735
1772812216364966000,6.3669658203125,0.03840812295675278,0.017027854919433594,-0.017562363296747208
1772812216374666500,6.37666650390625,0.022220205515623093,0.02588539570569992,-0.020311253145337105
1772812216384367000,6.3863671875,0.016416991129517555,0.03168861195445061,-0.02458730712532997
1772812216394067700,6.396067626953125,0.0191658828407526,0.02649625949561596,-0.02458730712532997
1772812216403768000,6.40576806640625,0.025274530053138733,0.019471315667033195,-0.01695149764418602
1772812216413468700,6.41546875,0.0319940410554409,0.010919207707047462,-0.001679878099821508
1772812216423169500,6.42516943359375,0.037491824477910995,0.00755945174023509,0.01511890348047018
1772812216432870100,6.4348701171875,0.03810269013047218,0.0017562361899763346,0.02458730712532997
1772812216442570500,6.444570556640625,0.03657552972435951,-0.00679587060585618,0.02000582218170166
1772812216452271000,6.45427099609375,0.03535379841923714,-0.008628465235233307,0.007788525894284248
1772812216461971700,6.4639716796875,0.03352120518684387,-0.0009926552884280682,-0.0062613640911877155
1772812216471672300,6.47367236328125,0.026801692321896553,0.003894262947142124,-0.016340631991624832
1772812216481373000,6.483373046875,0.01672242395579815,0.00511599238961935,-0.02306014485657215
1772812216491073500,6.493073486328125,0.00511599238961935,0.008170315995812416,-0.02458730712532997
1772812216500774100,6.502774169921875,-0.002825249684974551,0.017333287745714188,-0.017256930470466614
1772812216510474800,6.512474853515625,-0.0034361144062131643,0.020387612283229828,-0.017867794260382652
1772812216520175400,6.52217529296875,-0.0016035200096666813,0.017333287745714188,-0.014813470654189587
1772812216529876000,6.5318759765625,-0.00007635809743078426,0.003283398225903511,-0.017256930470466614
1772812216539576600,6.54157666015625,0.0011453714687377214,-0.0012980876490473747,-0.020311253145337105
1772812216549277200,6.551277099609375,0.0005345066892914474,-0.0012980876490473747,-0.017256930470466614
1772812216558977800,6.560977783203125,-0.0009926552884280682,-0.0006872228696011007,-0.011453714221715927
1772812216568678400,6.570678466796875,-0.0025198173243552446,-0.004046979360282421,-0.005650499369949102
1772812216578379000,6.58037890625,-0.00679587060585618,-0.0058795735239982605,0.00045814859913662076
1772812216588079600,6.59007958984375,-0.008323032408952713,-0.0016035200096666813,0.0062613640911877155
1772812216597780200,6.5997802734375,-0.007406735327094793,0.0011453714687377214,0.009315688163042068
1772812216607480800,6.609480712890625,-0.002825249684974551,-0.0058795735239982605,-0.0001527161948615685
1772812216617181200,6.61918115234375,0.004810560029000044,-0.007101302966475487,-0.009315688163042068
1772812216626881800,6.6288818359375,0.00755945174023509,-0.004963276442140341,-0.016646064817905426
1772812216636582700,6.638582763671875,0.0035888305865228176,-0.008323032408952713,-0.022449281066656113
1772812216646283300,6.648283203125,0.00022907429956831038,-0.00923932995647192,-0.02916879393160343
1772812216655983600,6.657983642578125,-0.004352411720901728,-0.0022143847309052944,-0.034666575491428375
1772812216665684200,6.667684326171875,-0.011988221667706966,0.0005345066892914474,-0.0383317656815052
1772812216675384800,6.677384765625,-0.019624030217528343,-0.0012980876490473747,-0.036804601550102234
1772812216685085400,6.68708544921875,-0.021456625312566757,0.0023671009112149477,-0.02519817277789116
1772812216694786000,6.6967861328125,-0.021151192486286163,0.002672533504664898,-0.004734201822429895
1772812216704486700,6.706486572265625,-0.02084576152265072,0.0029779658652842045,0.016035201027989388
1772812216714187300,6.716187255859375,-0.02237292192876339,0.006337722297757864,0.03436114266514778
1772812216723887900,6.725887939453125,-0.022983787581324577,0.010613775812089443,0.05451968312263489
1772812216733588500,6.73558837890625,-0.019929463043808937,0.013973532244563103,0.06887500733137131
1772812216743289000,6.7452890625,-0.019013166427612305,0.01763872057199478,0.07528908550739288
1772812216752989700,6.75498974609375,-0.021151192486286163,0.017027854919433594,0.06856957077980042
1772812216762690300,6.764690185546875,-0.020540328696370125,0.01763872057199478,0.05818486958742142
1772812216772391000,6.774390869140625,-0.019624030217528343,0.022220205515623093,0.04780016839504242
1772812216782091500,6.784091552734375,-0.021151192486286163,0.01824958436191082,0.04627300798892975
1772812216791792000,6.793792236328125,-0.01626427471637726,0.012446369975805283,0.05238165333867073
1772812216801492700,6.80349267578125,-0.0025198173243552446,0.009086613543331623,0.05787943676114082
1772812216811193300,6.813193359375,0.00847574882209301,0.009697478264570236,0.053603384643793106
1772812216820894000,6.82289404296875,0.007864884100854397,0.002061668550595641,0.04566214233636856
1772812216830594600,6.832594482421875,-0.005574141163378954,-0.006490438245236874,0.0334448479115963
1772812216840295000,6.842294921875,-0.015347977168858051,0.0029779658652842045,0.02458730712532997
1772812216849995800,6.851995849609375,-0.018096869811415672,0.030772313475608826,0.025503603741526604
1772812216859696400,6.8616962890625,-0.017486004158854485,0.04085158184170723,0.03375028073787689
1772812216869396700,6.871396728515625,-0.012904518283903599,0.03168861195445061,0.05024362727999687
1772812216879097300,6.881097412109375,-0.010461059398949146,0.020693045109510422,0.06979130208492279
1772812216888798000,6.8907978515625,-0.008933897130191326,0.015500693581998348,0.07773254066705704
1772812216898498600,6.90049853515625,-0.005268708802759647,0.012751801870763302,0.07651081681251526
1772812216908199200,6.91019921875,0.0035888305865228176,-0.00007635809743078426,0.06215549260377884
1772812216917899800,6.919899658203125,0.01183550525456667,-0.008017600513994694,0.04535670951008797
1772812216927600400,6.929600341796875,0.004199695307761431,-0.007406735327094793,0.02764163166284561
1772812216937301000,6.939301025390625,-0.008628465235233307,-0.006490438245236874,0.011453714221715927
1772812216947001600,6.949001708984375,-0.016569707542657852,-0.006185005884617567,0.0001527161948615685
1772812216956702200,6.9587021484375,-0.019624030217528343,-0.016569707542657852,-0.017256930470466614
1772812216966402800,6.96840283203125,-0.008017600513994694,-0.01565340906381607,-0.030390523374080658
1772812216976103400,6.978103515625,0.0066431546583771706,-0.01565340906381607,-0.03436114266514778
1772812216985804000,6.987803955078125,0.014278964139521122,-0.018402300775051117,-0.022754713892936707
1772812216995504600,6.997504638671875,0.014584396965801716,-0.01565340906381607,-0.0010690133785828948
1772812217005205200,7.007205322265625,0.00755945174023509,-0.004657844081521034,0.02367101050913334
1772812217014905900,7.01690576171875,-0.004352411720901728,0.00755945174023509,0.04718930274248123
1772812217024606500,7.0266064453125,-0.009850194677710533,0.01030834298580885,0.06246092543005943
1772812217034307000,7.03630712890625,0.000839939049910754,0.008170315995812416,0.06276635825634003
1772812217044007700,7.046007568359375,0.024663666263222694,0.0011453714687377214,0.04718930274248123
1772812217053708000,7.0557080078125,0.046654798090457916,-0.010155626572668552,0.02306014485657215
1772812217063409000,7.065408935546875,0.060704685747623444,-0.013820815831422806,-0.003512472379952669
1772812217073109500,7.075109619140625,0.0628427118062973,-0.0058795735239982605,-0.02611446939408779
1772812217082810000,7.08481005859375,0.053374309092760086,-0.0022143847309052944,-0.03588830679655075
1772812217092510500,7.094510498046875,0.045738499611616135,-0.0058795735239982605,-0.03588830679655075
1772812217102211000,7.104211181640625,0.03871355578303337,0.001450803829357028,-0.02611446939408779
1772812217111911700,7.11391162109375,0.023747367784380913,0.007254019379615784,-0.01359174121171236
1772812217121612300,7.1236123046875,0.01183550525456667,0.009697478264570236,0.0025961752980947495
1772812217131313000,7.13331298828125,0.006948587018996477,0.009086613543331623,0.012980876490473747
1772812217141013500,7.143013427734375,0.00603228947147727,0.00603228947147727,0.020311253145337105
1772812217150714000,7.152714111328125,0.00511599238961935,0.003894262947142124,0.022754713892936707
1772812217160414700,7.162414794921875,0.008781181648373604,-0.004352411720901728,0.020922118797898293
1772812217170115300,7.172115234375,0.014889828860759735,-0.005268708802759647,0.02458730712532997
1772812217179816000,7.18181591796875,0.014889828860759735,-0.004963276442140341,0.030085090547800064
1772812217189516500,7.1915166015625,0.009086613543331623,-0.0031306820455938578,0.039248060435056686
1772812217199217200,7.201217041015625,0.0057268571108579636,0.0023671009112149477,0.043829549103975296
1772812217208917800,7.210917724609375,0.0017562361899763346,0.0017562361899763346,0.03955349326133728
1772812217218618400,7.220618408203125,0.0017562361899763346,0.004199695307761431,0.02672533318400383
1772812217228319000,7.230319091796875,0.002672533504664898,0.0029779658652842045,0.005345067009329796
1772812217238019600,7.24001953125,0.006948587018996477,-0.00038179047987796366,-0.01908952370285988
1772812217247720200,7.24972021484375,0.013362666592001915,0.0017562361899763346,-0.03649916872382164
1772812217257420800,7.2594208984375,0.01824958436191082,0.008170315995812416,-0.04413498193025589
1772812217267121400,7.269121337890625,0.017944153398275375,0.004199695307761431,-0.03711003437638283
1772812217276822000,7.278822021484375,0.018860450014472008,-0.0012980876490473747,-0.0206166859716177
1772812217286522600,7.288522705078125,0.024663666263222694,0.0035888305865228176,0.002901607658714056
1772812217296223200,7.29822314453125,0.028328854590654373,0.003894262947142124,0.02916879393160343
1772812217305923800,7.307923828125,0.029245151206851006,-0.0006872228696011007,0.04780016839504242
1772812217315624200,7.317624267578125,0.026190826669335365,-0.0006872228696011007,0.06307178735733032
1772812217325325000,7.327324951171875,0.01824958436191082,-0.00007635809743078426,0.0743727833032608
1772812217335025700,7.337025634765625,0.01672242395579815,-0.0022143847309052944,0.0795651376247406
1772812217344726000,7.34672607421875,0.023747367784380913,-0.006490438245236874,0.08017600327730179
1772812217354426600,7.356426513671875,0.02741255611181259,-0.01259908638894558,0.0746782198548317
1772812217364127200,7.366127197265625,0.020998476073145866,-0.018402300775051117,0.0639880821108818
1772812217373827800,7.375827880859375,0.008170315995812416,-0.011682788841426373,0.05177079141139984
1772812217383528400,7.385528564453125,-0.004046979360282421,-0.005268708802759647,0.03405570983886719
1772812217393229000,7.39522900390625,-0.012904518283903599,-0.0012980876490473747,0.016035201027989388
1772812217402929700,7.4049296875,-0.015042545273900032,0.0017562361899763346,-0.0010690133785828948
1772812217412630300,7.41463037109375,-0.013515383005142212,0.0035888305865228176,-0.01359174121171236
1772812217422331000,7.424330810546875,-0.011682788841426373,0.00022907429956831038,-0.023976443335413933
1772812217432031500,7.434031494140625,-0.008933897130191326,-0.008628465235233307,-0.02764163166284561
1772812217441732000,7.443732177734375,-0.008628465235233307,-0.015042545273900032,-0.027947064489126205
1772812217451432700,7.4534326171875,-0.01107192412018776,-0.009850194677710533,-0.020922118797898293
1772812217461133300,7.46313330078125,-0.013515383005142212,-0.0058795735239982605,-0.011148282326757908
1772812217470834000,7.472833984375,-0.015958841890096664,-0.008323032408952713,-0.0019853105768561363
1772812217480534500,7.482534423828125,-0.011377356946468353,-0.01259908638894558,0.005955931730568409
1772812217490235100,7.492235107421875,-0.00679587060585618,-0.012293653562664986,0.011759147047996521
1772812217499935700,7.501935791015625,-0.00923932995647192,-0.014737112447619438,0.010537417605519295
1772812217509636400,7.51163623046875,-0.0193185992538929,-0.021456625312566757,-0.0010690133785828948
1772812217519337000,7.5213369140625,-0.02909243479371071,-0.025732679292559624,-0.020311253145337105
1772812217529037600,7.53103759765625,-0.033368486911058426,-0.026648975908756256,-0.04535670951008797
1772812217538738200,7.54073828125,-0.03214675933122635,-0.025121813639998436,-0.06765327602624893
1772812217548438800,7.550438720703125,-0.023594651371240616,-0.031841326504945755,-0.08292489498853683
1772812217558139400,7.560139404296875,-0.012293653562664986,-0.040088001638650894,-0.0850629210472107
1772812217567839700,7.56983984375,-0.004352411720901728,-0.0501672700047493,-0.0850629210472107
1772812217577540400,7.579540283203125,0.0011453714687377214,-0.06238456442952156,-0.08414662629365921
1772812217587241000,7.589240966796875,0.0057268571108579636,-0.06268999725580215,-0.0844520553946495
1772812217596941800,7.59894189453125,0.01030834298580885,-0.05047270283102989,-0.07681624591350555
1772812217606642200,7.60864208984375,0.004810560029000044,-0.043142326176166534,-0.05329795181751251
1772812217616342800,7.6183427734375,-0.008933897130191326,-0.03061959706246853,-0.024892739951610565
1772812217626043400,7.62804345703125,-0.020540328696370125,-0.011377356946468353,0.003512472379952669
1772812217635744000,7.637743896484375,-0.028176138177514076,0.001450803829357028,0.02367101050913334
1772812217645444600,7.647444580078125,-0.02695440873503685,0.009086613543331623,0.03802633285522461
1772812217655145200,7.657145263671875,-0.017486004158854485,0.0011453714687377214,0.0435241162776947
1772812217664845800,7.666845703125,-0.005268708802759647,-0.015042545273900032,0.03955349326133728
1772812217674546400,7.67654638671875,0.004810560029000044,-0.02023489587008953,0.03497200831770897
1772812217684247000,7.6862470703125,0.00847574882209301,-0.02328922040760517,0.023365577682852745
1772812217693947600,7.69594775390625,0.010613775812089443,-0.03214675933122635,0.007483093533664942
1772812217703648300,7.705648193359375,0.01000291109085083,-0.03275762498378754,-0.008093958720564842
1772812217713348900,7.715348876953125,0.0029779658652842045,-0.019929463043808937,-0.02916879393160343
1772812217723049500,7.725049560546875,-0.0019089524867013097,-0.008017600513994694,-0.05024362727999687
1772812217732750000,7.73475,-0.0009926552884280682,-0.014737112447619438,-0.06520981341600418
1772812217742450700,7.74445068359375,-0.00679587060585618,-0.011377356946468353,-0.0694858655333519
1772812217752151300,7.7541513671875,-0.013515383005142212,-0.0022143847309052944,-0.0694858655333519
1772812217761852000,7.763851806640625,-0.021456625312566757,0.0011453714687377214,-0.06887500733137131
1772812217771552500,7.773552490234375,-0.030314164236187935,0.012140937149524689,-0.058795735239982605
1772812217781253000,7.783253173828125,-0.04589121788740158,0.023441936820745468,-0.03497200831770897
1772812217790953500,7.792953369140625,-0.061162836849689484,0.018555017188191414,-0.01206457894295454
1772812217800654000,7.802654052734375,-0.06207913160324097,0.00603228947147727,0.002290742937475443
1772812217810355000,7.81235498046875,-0.05047270283102989,0.006337722297757864,0.01206457894295454
1772812217820055600,7.8220556640625,-0.041615162044763565,0.009697478264570236,0.017867794260382652
1772812217829756000,7.831755859375,-0.04069886729121208,0.011530072428286076,0.022449281066656113
1772812217839456500,7.84145654296875,-0.041004300117492676,0.012446369975805283,0.028863361105322838
1772812217849157000,7.8511572265625,-0.04039343446493149,0.011224640533328056,0.025809036567807198
1772812217858857700,7.860857666015625,-0.03428478538990021,0.012446369975805283,0.01359174121171236
1772812217868558300,7.870558349609375,-0.024816380813717842,0.008781181648373604,-0.007177661173045635
1772812217878259000,7.880259033203125,-0.016875140368938446,-0.00954476185142994,-0.030695954337716103
1772812217887959600,7.88995947265625,-0.012904518283903599,-0.015042545273900032,-0.045967575162649155
1772812217897660200,7.89966015625,-0.018096869811415672,-0.004657844081521034,-0.049632761627435684
1772812217907360800,7.90936083984375,-0.030314164236187935,0.0057268571108579636,-0.04230238497257233
1772812217917061400,7.919061279296875,-0.04039343446493149,0.012140937149524689,-0.03130681812763214
1772812217926762000,7.928761962890625,-0.04192059487104416,0.018860450014472008,-0.022754713892936707
1772812217936462600,7.938462646484375,-0.037033677101135254,0.021914774551987648,-0.019394956529140472
1772812217946163200,7.9481630859375,-0.030925029888749123,0.017333287745714188,-0.017867794260382652
1772812217955863800,7.95786376953125,-0.026038112118840218,0.009086613543331623,-0.01695149764418602
1772812217965564400,7.967564453125,-0.018402300775051117,0.003283398225903511,-0.01908952370285988
1772812217975265000,7.97726513671875,-0.010461059398949146,0.00022907429956831038,-0.019700389355421066
1772812217984965600,7.986965576171875,-0.0025198173243552446,-0.00007635809743078426,-0.021838415414094925
1772812217994666200,7.996666259765625,0.004505127668380737,0.0017562361899763346,-0.02153298258781433
1772812218004366800,8.006366943359374,0.010919207707047462,0.0005345066892914474,-0.017867794260382652
1772812218014067500,8.0160673828125,0.012751801870763302,-0.004963276442140341,-0.01847865991294384
1772812218023768000,8.02576806640625,0.012446369975805283,-0.00679587060585618,-0.02519817277789116
1772812218033468700,8.03546875,0.013973532244563103,-0.012293653562664986,-0.039858926087617874
1772812218043169300,8.045169189453125,0.020998476073145866,-0.01107192412018776,-0.053603384643793106
1772812218052870000,8.054869873046876,0.03168861195445061,-0.00954476185142994,-0.06490438431501389
1772812218062570200,8.0645703125,0.03352120518684387,-0.0019089524867013097,-0.05604684352874756
1772812218072270800,8.074270751953126,0.020998476073145866,-0.004963276442140341,-0.03649916872382164
1772812218081971700,8.0839716796875,-0.0031306820455938578,-0.0025198173243552446,-0.018173227086663246
1772812218091672300,8.09367236328125,-0.028176138177514076,0.009697478264570236,-0.011453714221715927
1772812218101372700,8.10337255859375,-0.04192059487104416,0.0243582334369421,-0.009315688163042068
1772812218111073300,8.1130732421875,-0.04436405375599861,0.03535379841923714,-0.0038179049734026194
1772812218120774000,8.12277392578125,-0.031841326504945755,0.03107774630188942,0.005650499369949102
1772812218130474500,8.132474609375,-0.01107192412018776,0.020387612283229828,0.024892739951610565
1772812218140175000,8.142175048828125,0.003894262947142124,0.013668099418282509,0.04993819445371628
1772812218149875700,8.151875732421875,0.009697478264570236,0.006948587018996477,0.06673697382211685
1772812218159576300,8.161576416015626,0.018555017188191414,0.009392046369612217,0.07528908550739288
1772812218169277000,8.17127685546875,0.026801692321896553,0.005421424750238657,0.0691804364323616
1772812218178977500,8.1809775390625,0.03535379841923714,-0.0009926552884280682,0.056657709181308746
1772812218188678100,8.19067822265625,0.04512763395905495,-0.009850194677710533,0.036804601550102234
1772812218198378800,8.200378662109374,0.05154171586036682,-0.015958841890096664,0.012675444595515728
1772812218208079400,8.210079345703125,0.053374309092760086,-0.005268708802759647,-0.002290742937475443
1772812218217780000,8.219780029296874,0.0423787422478199,0.0011453714687377214,-0.013286309316754341
1772812218227480600,8.22948046875,0.03413207083940506,0.0029779658652842045,-0.014202605932950974
1772812218237181200,8.23918115234375,0.0322994738817215,0.00755945174023509,-0.011453714221715927
1772812218246881800,8.2488818359375,0.02649625949561596,0.00755945174023509,-0.014508038759231567
1772812218256582400,8.25858251953125,0.018860450014472008,0.0011453714687377214,-0.017256930470466614
1772812218266283000,8.268282958984376,0.013668099418282509,-0.004963276442140341,-0.022754713892936707
1772812218275983600,8.277983642578125,0.013973532244563103,-0.01259908638894558,-0.03252854943275452
1772812218285684200,8.287684326171876,0.0191658828407526,-0.014737112447619438,-0.04108065739274025
1772812218295384800,8.297384765625,0.026801692321896553,-0.016875140368938446,-0.05177079141139984
1772812218305085400,8.30708544921875,0.03352120518684387,-0.021151192486286163,-0.05787943676114082
1772812218314786000,8.3167861328125,0.039018988609313965,-0.020540328696370125,-0.060322895646095276
1772812218324486400,8.326486328125,0.04543306678533554,-0.018402300775051117,-0.05971203371882439
1772812218334187000,8.33618701171875,0.053374309092760086,-0.012904518283903599,-0.053603384643793106
1772812218343887600,8.3458876953125,0.05367974191904068,-0.012293653562664986,-0.04230238497257233
1772812218353588500,8.35558837890625,0.05429060757160187,-0.012904518283903599,-0.02977965772151947
1772812218363289000,8.3652890625,0.05459604039788246,-0.009850194677710533,-0.018784092739224434
1772812218372989400,8.374989501953126,0.05001455545425415,-0.01107192412018776,-0.01359174121171236
1772812218382690000,8.38468994140625,0.04818195849657059,-0.010461059398949146,-0.007788525894284248
1772812218392390700,8.394390625,0.05001455545425415,-0.01107192412018776,-0.0032070400193333626
1772812218402091300,8.40409130859375,0.050319984555244446,-0.0025198173243552446,0.0019853105768561363
1772812218411792000,8.4137919921875,0.0475710928440094,0.000839939049910754,0.002901607658714056
1772812218421492500,8.423492431640625,0.04543306678533554,0.00022907429956831038,0.0010690133785828948
1772812218431193000,8.433193115234374,0.04451677203178406,0.0005345066892914474,0.0038179049734026194
1772812218440893700,8.442893798828125,0.03993528336286545,-0.00679587060585618,-0.0019853105768561363
1772812218450594300,8.45259423828125,0.035964664071798325,-0.00679587060585618,-0.009010255336761475
1772812218460295000,8.462294921875,0.030772313475608826,-0.010461059398949146,-0.01908952370285988
1772812218469995500,8.47199560546875,0.029856016859412193,-0.007101302966475487,-0.02611446939408779
1772812218479696100,8.481696044921875,0.030772313475608826,-0.004657844081521034,-0.031612250953912735
1772812218489396700,8.491396728515625,0.03260490670800209,-0.013515383005142212,-0.028557928279042244
1772812218499097300,8.501097412109376,0.03565923124551773,-0.029703300446271896,-0.03283398225903511
1772812218508798000,8.5107978515625,0.0295505840331316,-0.03275762498378754,-0.04321868345141411
1772812218518498600,8.52049853515625,0.016416991129517555,-0.024816380813717842,-0.04932733252644539
1772812218528199200,8.53019921875,0.004505127668380737,-0.01718057133257389,-0.042913250625133514
1772812218537899800,8.539899658203124,-0.00954476185142994,-0.016569707542657852,-0.04016435891389847
1772812218547600400,8.549600341796875,0.0011453714687377214,0.00022907429956831038,-0.018173227086663246
1772812218557301000,8.559301025390624,-0.00923932995647192,0.011530072428286076,0.0001527161948615685
1772812218567001600,8.569001708984375,-0.0193185992538929,0.00022907429956831038,0.02000582218170166
1772812218576702200,8.5787021484375,-0.025121813639998436,0.0017562361899763346,0.03527744114398956
1772812218586402800,8.58840283203125,-0.024205517023801804,-0.0019089524867013097,0.0383317656815052
1772812218596103200,8.598103271484375,-0.024205517023801804,0.002061668550595641,0.04321868345141411
1772812218605803800,8.6078037109375,-0.027870705351233482,0.0029779658652842045,0.055741410702466965
1772812218615504400,8.61750439453125,-0.029397867619991302,-0.00038179047987796366,0.07254019379615784
1772812218625205200,8.627205322265626,-0.03275762498378754,-0.04222602769732475,0.08659008145332336
1772812218634905900,8.63690576171875,-0.02176205813884735,-0.031230462715029716,0.08811724185943604
1772812218644606200,8.646606201171876,-0.00679587060585618,-0.010155626572668552,0.06307178735733032
1772812218654306800,8.656306884765625,-0.004046979360282421,-0.011377356946468353,0.030390523374080658
1772812218664007400,8.66600732421875,-0.006490438245236874,-0.019929463043808937,0.001679878099821508
1772812218673708000,8.6757080078125,-0.003741546766832471,-0.015958841890096664,-0.010537417605519295
1772812218683408600,8.68540869140625,-0.00038179047987796366,-0.004352411720901728,-0.01359174121171236
1772812218693109200,8.695109130859375,0.000839939049910754,-0.02084576152265072,-0.022754713892936707
1772812218702809900,8.704809814453125,0.006948587018996477,-0.025121813639998436,-0.027030766010284424
1772812218712510500,8.714510498046875,0.014584396965801716,-0.02909243479371071,-0.034666575491428375
1772812218722211000,8.724211181640625,0.015195261687040329,-0.03306305781006813,-0.04230238497257233
1772812218731911700,8.73391162109375,0.008781181648373604,-0.03825540840625763,-0.04780016839504242
1772812218741612300,8.7436123046875,0.0011453714687377214,-0.04253146052360535,-0.04321868345141411
1772812218751313000,8.75331298828125,-0.008017600513994694,-0.02390008419752121,-0.027030766010284424
1772812218761013500,8.763013427734375,-0.01565340906381607,-0.0077121676877141,-0.016035201027989388
1772812218770714000,8.772714111328124,-0.024510949850082397,-0.012293653562664986,-0.008093958720564842
1772812218780414700,8.782414794921875,-0.02237292192876339,-0.01259908638894558,-0.006872228812426329
1772812218790115300,8.792115234375,-0.02756527252495289,-0.02084576152265072,-0.010537417605519295
1772812218799816000,8.80181591796875,-0.023594651371240616,-0.01626427471637726,-0.0154243353754282
1772812218809516500,8.8115166015625,-0.01718057133257389,-0.00007635809743078426,-0.016035201027989388
1772812218819217200,8.821217041015625,-0.016875140368938446,-0.004657844081521034,-0.02153298258781433
1772812218828917800,8.830917724609375,-0.012293653562664986,-0.006185005884617567,-0.024281874299049377
1772812218838618400,8.840618408203126,-0.008933897130191326,-0.018402300775051117,-0.030390523374080658
1772812218848319000,8.850319091796875,-0.0034361144062131643,-0.03275762498378754,-0.03588830679655075
1772812218858019600,8.86001953125,0.00755945174023509,-0.04130972921848297,-0.04841103404760361
1772812218867720200,8.86972021484375,0.012140937149524689,-0.036422811448574066,-0.06246092543005943
1772812218877420500,8.879420654296876,0.00847574882209301,-0.010766491293907166,-0.06673697382211685
1772812218887121400,8.889121337890625,-0.007406735327094793,0.009086613543331623,-0.05513054504990578
1772812218896822000,8.898822021484374,-0.025121813639998436,0.01763872057199478,-0.03130681812763214
1772812218906522600,8.908522705078125,-0.03520108386874199,0.022220205515623093,-0.005955931730568409
1772812218916223000,8.918222900390624,-0.03581194952130318,0.017027854919433594,0.016340631991624832
1772812218925923600,8.927923583984375,-0.03428478538990021,0.014889828860759735,0.029474224895238876
1772812218935624200,8.937624267578125,-0.03245219215750694,0.009086613543331623,0.03375028073787689
1772812218945325000,8.947324951171876,-0.033368486911058426,0.017333287745714188,0.0334448479115963
1772812218955025400,8.957025390625,-0.03611737862229347,0.026190826669335365,0.025809036567807198
1772812218964726000,8.96672607421875,-0.036422811448574066,0.025274530053138733,0.01511890348047018
1772812218974426600,8.976426513671875,-0.033979352563619614,0.026190826669335365,0.004123337101191282
1772812218984127200,8.986127197265626,-0.031230462715029716,0.020693045109510422,-0.009926552884280682
1772812218993827800,8.995827880859375,-0.027870705351233482,0.008781181648373604,-0.025809036567807198
1772812219003528400,9.005528564453124,-0.024205517023801804,0.002061668550595641,-0.04260781779885292
1772812219013229000,9.01522900390625,-0.024510949850082397,0.0011453714687377214,-0.06123919412493706
1772812219022929700,9.0249296875,-0.02848157100379467,0.00847574882209301,-0.0746782198548317
1772812219032630300,9.03463037109375,-0.03520108386874199,0.010919207707047462,-0.08689551800489426
1772812219042331000,9.044330810546874,-0.03825540840625763,0.020998476073145866,-0.08689551800489426
1772812219052031500,9.054031494140625,-0.03672824427485466,0.02588539570569992,-0.08261945843696594
1772812219061732000,9.063732177734375,-0.03245219215750694,0.01977674663066864,-0.0694858655333519
1772812219071432700,9.0734326171875,-0.024205517023801804,0.003283398225903511,-0.0591011680662632
1772812219081133300,9.08313330078125,-0.01565340906381607,-0.0031306820455938578,-0.05085449293255806
1772812219090834000,9.092833984375,-0.011377356946468353,0.000839939049910754,-0.04780016839504242
1772812219100534500,9.102534423828125,-0.010155626572668552,0.003894262947142124,-0.04413498193025589
1772812219110235100,9.112235107421874,-0.00954476185142994,-0.0022143847309052944,-0.0383317656815052
1772812219129636400,9.13163623046875,0.0035888305865228176,-0.024510949850082397,-0.024281874299049377
1772812219139337000,9.1413369140625,0.010613775812089443,-0.006185005884617567,-0.017562363296747208
1772812219149037300,9.151037353515624,0.006337722297757864,0.0011453714687377214,-0.010842849500477314
1772812219158738200,9.16073828125,-0.002825249684974551,-0.0016035200096666813,-0.0010690133785828948
1772812219168438800,9.170438720703125,-0.011682788841426373,-0.0025198173243552446,0.0007635809597559273
1772812219178139400,9.180139404296876,-0.016569707542657852,-0.006185005884617567,-0.008093958720564842
1772812219187839700,9.18983984375,-0.01718057133257389,-0.010766491293907166,-0.02458730712532997
1772812219197540400,9.199540283203126,-0.0193185992538929,-0.013820815831422806,-0.034666575491428375
1772812219207241000,9.209240966796875,-0.02756527252495289,-0.024816380813717842,-0.03649916872382164
1772812219216941800,9.21894189453125,-0.028787001967430115,-0.02176205813884735,-0.024892739951610565
