time,seconds_elapsed,z,y,x
1772812392326017500,0.087017578125,0,0,0
1772812392335718100,0.09671826171875,-0.06089019775390625,-0.055957674980163574,-0.03251127153635025
1772812392345419000,0.1064189453125,-0.0682382583618164,-0.1540338695049286,-0.006933070719242096
1772812392355119600,0.11611962890625,0.09193992614746094,-0.16242989897727966,-0.05340966582298279
1772812392364820500,0.125820556640625,0.15163326263427734,-0.11605018377304077,-0.051817379891872406
1772812392374521300,0.135521240234375,0.238616943359375,-0.09909594058990479,0.020714495331048965
1772812392384222000,0.145221923828125,0.25843238830566406,-0.10001868009567261,0.06169125810265541
1772812392393922800,0.1549228515625,0.27689170837402344,-0.05656665563583374,0.061269573867321014
1772812392403623400,0.16462353515625,0.3241434097290039,0.002013087272644043,-0.021505042910575867
1772812392413324300,0.17432421875,0.3038034439086914,0.052060604095458984,-0.07744624465703964
1772812392423025000,0.18402490234375,0.2567167282104492,0.04273706674575806,-0.06383056938648224
1772812392432725800,0.193725830078125,0.1322622299194336,0.09234270453453064,-0.010734900832176208
1772812392442426400,0.20342626953125,0.14972686767578125,0.026216328144073486,-0.006633715704083443
1772812392452127200,0.213127197265625,0.14798736572265625,0.026774168014526367,0.10698597133159637
1772812392461827800,0.222827880859375,0.04219818115234375,0.04478275775909424,0.17024315893650055
1772812392471528700,0.23252880859375,0.039730072021484375,0.027032017707824707,0.16597792506217957
1772812392481229300,0.242229248046875,0.09278297424316406,0.0788092315196991,0.11522720754146576
1772812392490930200,0.25193017578125,0.09348011016845703,0.10062146186828613,0.07503186166286469
1772812392500630800,0.261630859375,0.11249256134033203,0.05462810397148132,0.07022681087255478
1772812392510331600,0.27133154296875,0.12961387634277344,0.0237501859664917,0.038592204451560974
1772812392520032300,0.2810322265625,0.09598350524902344,-0.0066890716552734375,0.02002178691327572
1772812392529733000,0.290733154296875,0.11310291290283203,-0.03424161672592163,0.01814739964902401
1772812392539434000,0.30043408203125,0.08041858673095703,-0.05309295654296875,0.016394199803471565
1772812392549134600,0.310134521484375,0.012500762939453125,-0.04023998975753784,0.00397254154086113
1772812392558835500,0.31983544921875,-0.017063140869140625,-0.01068735122680664,-0.024195414036512375
1772812392568536000,0.3295361328125,-0.08800029754638672,0.011080443859100342,-0.02269606478512287
1772812392578236700,0.339236572265625,-0.15863704681396484,0.020216435194015503,-0.0017735492438077927
1772812392587937500,0.3489375,-0.20493507385253906,0.031234651803970337,0.022377870976924896
1772812392597638100,0.35863818359375,-0.17240238189697266,0.028796136379241943,0.02972560003399849
1772812392607339000,0.368339111328125,-0.1353311538696289,-0.013084888458251953,0.09735506027936935
1772812392617040000,0.378039794921875,-0.0822591781616211,-0.06435948610305786,0.13645698130130768
1772812392626740500,0.387740478515625,-0.004330635070800781,-0.030555248260498047,0.14291870594024658
1772812392636441300,0.39744140625,0.02707195281982422,-0.005119740962982178,0.11068384349346161
1772812392646142000,0.407141845703125,0.0331268310546875,0.011306822299957275,0.05672597885131836
1772812392655842800,0.4168427734375,0.0006570816040039062,0.031251221895217896,0.029683824628591537
1772812392665543400,0.42654345703125,-0.052985191345214844,0.03826811909675598,0.013348542153835297
1772812392675244300,0.436244384765625,-0.09001636505126953,0.017345577478408813,0.04806162416934967
1772812392684945000,0.44594482421875,-0.10975170135498047,0.01146012544631958,0.06252938508987427
1772812392694645800,0.455645751953125,-0.10335826873779297,-0.02803182601928711,0.09265615046024323
1772812392704346400,0.465346435546875,-0.07965755462646484,-0.06804788112640381,0.08488640189170837
1772812392714047200,0.475047119140625,-0.023911476135253906,-0.027958154678344727,0.06789235770702362
1772812392723747800,0.484747802734375,0.03863048553466797,0.024192839860916138,0.005763314664363861
1772812392733448700,0.49444873046875,0.07866382598876953,0.07989376783370972,-0.027114689350128174
1772812392743149300,0.5041494140625,0.03242969512939453,0.06198030710220337,0.028484955430030823
1772812392752850200,0.51385009765625,0.01996612548828125,0.021844953298568726,0.08633868396282196
1772812392762550800,0.52355078125,0.007742881774902344,-0.029601752758026123,0.12771548330783844
1772812392772251600,0.533251708984375,0.021523475646972656,-0.009859919548034668,0.14403994381427765
1772812392781952500,0.542952392578125,0.04436492919921875,-0.015591561794281006,0.14850673079490662
1772812392791653000,0.552653076171875,0.032741546630859375,-0.04053068161010742,0.1005484089255333
1772812392801354000,0.56235400390625,0.010805130004882812,0.005052626132965088,0.05719723552465439
1772812392811054600,0.5720546875,-0.024751663208007812,0.024136126041412354,0.02525440603494644
1772812392820755500,0.58175537109375,-0.07718753814697266,0.022644251585006714,-0.002643100917339325
1772812392830456000,0.5914560546875,-0.1309366226196289,0.009806275367736816,-0.012986443936824799
1772812392840156700,0.60115673828125,-0.1519479751586914,0.034169167280197144,-0.045089490711688995
1772812392849857500,0.610857421875,-0.13965988159179688,0.04316285252571106,-0.079219751060009
1772812392859558100,0.62055810546875,-0.10642814636230469,0.037761539220809937,-0.09112826734781265
1772812392869259000,0.630259033203125,-0.0855417251586914,-0.006004512310028076,-0.08371185511350632
1772812392878959900,0.6399599609375,-0.035660743713378906,-0.042355239391326904,-0.05595867335796356
1772812392888660500,0.649660400390625,0.04387950897216797,-0.0628846287727356,0.0018521323800086975
1772812392898361300,0.659361328125,0.09142398834228516,-0.08952957391738892,0.04618147015571594
1772812392908062000,0.66906201171875,0.122802734375,-0.05720794200897217,0.0749090388417244
1772812392917762800,0.6787626953125,0.09359931945800781,-0.014710426330566406,0.049205511808395386
1772812392927463400,0.68846337890625,0.08486557006835938,0.007859289646148682,0.014525696635246277
1772812392937164300,0.698164306640625,0.022159576416015625,0.012551724910736084,-0.0036048442125320435
1772812392946865000,0.707864990234375,-0.0277099609375,0.00717887282371521,0.010957777500152588
1772812392956565800,0.717565673828125,-0.029641151428222656,0.049837201833724976,-0.010252974927425385
1772812392966266400,0.727266357421875,-0.016210556030273438,0.043023109436035156,-0.0030571147799491882
1772812392975967200,0.73696728515625,-0.007731437683105469,0.021912187337875366,0.052911967039108276
1772812392985667800,0.746667724609375,-0.0017833709716796875,0.0051985979080200195,0.07191456109285355
1772812392995368700,0.75636865234375,-0.007714271545410156,0.03662616014480591,0.06522032618522644
1772812393005069300,0.7660693359375,-0.05470561981201172,0.054646581411361694,0.02675037831068039
1772812393014770200,0.775770263671875,-0.08088016510009766,0.07776093482971191,0.006665825843811035
1772812393024470800,0.785470703125,-0.07718467712402344,0.04114446043968201,0.032767750322818756
1772812393034171600,0.795171630859375,-0.03942298889160156,-0.025202035903930664,0.0578431636095047
1772812393043872500,0.80487255859375,-0.017601966857910156,-0.079082190990448,0.0524262860417366
1772812393053573000,0.814572998046875,0.0015115737915039062,-0.01817360520362854,-0.005416601896286011
1772812393063274000,0.82427392578125,-0.03731250762939453,0.03386199474334717,-0.05385830998420715
1772812393072974600,0.833974609375,-0.08839607238769531,0.05163583159446716,-0.0459279790520668
1772812393082675500,0.843675537109375,-0.13033771514892578,0.00557708740234375,-0.04478369653224945
1772812393092376000,0.8533759765625,-0.1444711685180664,-0.01978173851966858,-0.020407095551490784
1772812393102076700,0.86307666015625,-0.09132003784179688,-0.03760194778442383,0.01293894648551941
1772812393111777500,0.872777587890625,0.02208709716796875,-0.021666526794433594,0.07298054546117783
1772812393121478100,0.88247802734375,0.0876617431640625,0.008011400699615479,0.060781389474868774
1772812393131179000,0.892178955078125,0.10974407196044922,0.023228943347930908,0.04225485026836395
1772812393140880000,0.9018798828125,0.10908889770507812,0.0731194019317627,0.01557779312133789
1772812393150580500,0.91158056640625,0.04726600646972656,0.084562748670578,0.0014644712209701538
1772812393160281300,0.92128125,0.01946258544921875,0.07322701811790466,-0.0028906911611557007
1772812393169982000,0.93098193359375,-0.0019474029541015625,0.08304595947265625,0.018859557807445526
1772812393179682800,0.940682861328125,-0.008866310119628906,0.049682438373565674,0.038831330835819244
1772812393189383400,0.950383544921875,0.014899253845214844,0.023787587881088257,0.09020025283098221
1772812393199084300,0.960084228515625,0.07114982604980469,-0.022703707218170166,0.0882185623049736
1772812393208785000,0.969784912109375,0.09934234619140625,-0.01090770959854126,0.06331636011600494
1772812393218485800,0.97948583984375,0.08464908599853516,-0.0007024407386779785,0.03812684863805771
1772812393228186400,0.989186279296875,0.024312973022460938,-0.024006128311157227,-0.009181790053844452
1772812393237887200,0.99888720703125,-0.01852703094482422,0.006136953830718994,-0.03214125335216522
1772812393247587800,1.008587890625,-0.06412410736083984,0.022660106420516968,-0.029397666454315186
1772812393257288700,1.018288818359375,-0.08771800994873047,0.03798186779022217,-0.02488836646080017
1772812393266989300,1.0279892578125,-0.086181640625,-0.0000413060188293457,0.023717202246189117
1772812393276690200,1.037690185546875,-0.035289764404296875,-0.05990254878997803,0.05708979815244675
1772812393286390800,1.047390869140625,0.027657508850097656,-0.05234098434448242,0.046928249299526215
1772812393296091600,1.057091552734375,0.048328399658203125,-0.009570658206939697,0.012632690370082855
1772812393305792500,1.06679248046875,0.04390716552734375,0.025505810976028442,-0.015304133296012878
1772812393315493000,1.0764931640625,0.008935928344726562,0.028566032648086548,0.007222466170787811
1772812393325194000,1.086194091796875,-0.010190963745117188,-0.006813138723373413,0.03489631414413452
1772812393334894600,1.09589453125,-0.021941184997558594,-0.01931816339492798,0.0889723002910614
1772812393344595500,1.105595458984375,-0.04991436004638672,0.03048551082611084,0.09007550030946732
1772812393354296000,1.115296142578125,-0.07850837707519531,0.05885401368141174,0.042685382068157196
1772812393363996700,1.12499658203125,-0.09360980987548828,0.05542677640914917,-0.011429935693740845
1772812393373697500,1.134697509765625,-0.06253719329833984,0.06373262405395508,-0.022400952875614166
1772812393383398100,1.144398193359375,0.009207725524902344,0.048664599657058716,-0.04118042439222336
1772812393393099000,1.15409912109375,0.05855369567871094,0.016843676567077637,-0.026740767061710358
1772812393402799900,1.1637998046875,0.09409046173095703,-0.040140300989151,-0.014011107385158539
1772812393412500500,1.17350048828125,0.08545970916748047,-0.03722250461578369,-0.013793744146823883
1772812393422201300,1.183201416015625,0.05458641052246094,-0.06686171889305115,0.000026911497116088867
1772812393431902000,1.19290185546875,0.0077667236328125,-0.07704469561576843,-0.01833062618970871
1772812393441602800,1.202602783203125,-0.01945018768310547,-0.018560856580734253,-0.0021646246314048767
1772812393451303400,1.212303466796875,-0.03799629211425781,-0.002336829900741577,0.004129253327846527
1772812393461004300,1.22200439453125,0.007274627685546875,-0.00807240605354309,0.00531855970621109
1772812393470705000,1.231704833984375,0.022344589233398438,0.03010740876197815,0.040899887681007385
1772812393480405800,1.24140576171875,0.03360939025878906,0.029257208108901978,0.04541410505771637
1772812393490106400,1.2511064453125,0.008218765258789062,0.04233291745185852,0.052330516278743744
1772812393499807200,1.26080712890625,-0.0473175048828125,0.06384435296058655,0.03473801910877228
1772812393509507800,1.2705078125,-0.11478805541992188,0.022102653980255127,0.02267114818096161
1772812393519208700,1.280208740234375,-0.1292724609375,0.03845295310020447,0.011589094996452332
1772812393528909300,1.289909423828125,-0.14109516143798828,0.038619279861450195,0.001074962317943573
1772812393538610200,1.299610107421875,-0.07622432708740234,0.01831364631652832,0.04088250547647476
1772812393548310800,1.309310791015625,0.021650314331054688,-0.04239794611930847,0.03867660462856293
1772812393558011600,1.31901171875,0.09195327758789062,-0.041109323501586914,0.026224009692668915
1772812393567712500,1.32871240234375,0.14098739624023438,-0.0171775221824646,0.022760145366191864
1772812393577413000,1.3384130859375,0.13620758056640625,-0.01956978440284729,0.002484053373336792
1772812393587114000,1.348114013671875,0.09383106231689453,-0.013076484203338623,-0.017419688403606415
1772812393596814600,1.357814697265625,0.018052101135253906,-0.04290172457695007,-0.03545183688402176
1772812393606515500,1.367515380859375,-0.04701042175292969,-0.006748676300048828,-0.06031284108757973
1772812393616216000,1.377216064453125,-0.058007240295410156,-0.013955563306808472,-0.0744263082742691
1772812393625916700,1.386916748046875,-0.06528377532958984,-0.027872204780578613,-0.04680628329515457
1772812393635617500,1.396617431640625,-0.05597496032714844,-0.04763394594192505,-0.04926808178424835
1772812393645318100,1.406318115234375,-0.018575668334960938,-0.02238526940345764,-0.046896129846572876
1772812393655019000,1.41601904296875,0.0017061233520507812,0.008969485759735107,-0.05422895401716232
1772812393664720000,1.425719970703125,-0.014811515808105469,0.0258009135723114,-0.035853467881679535
1772812393674420500,1.43542041015625,-0.01926422119140625,0.014712363481521606,0.00149545818567276
1772812393684121300,1.445121337890625,-0.029524803161621094,0.0065253376960754395,0.04096412658691406
1772812393693822000,1.454822021484375,-0.014928817749023438,-0.006324440240859985,0.06838379800319672
1772812393703522800,1.464522705078125,0.019382476806640625,-0.04685226082801819,0.08103454113006592
1772812393713223400,1.474223388671875,0.0813302993774414,-0.04405894875526428,0.02264998108148575
1772812393722924300,1.48392431640625,0.04340362548828125,0.01933225989341736,-0.0060553178191185
1772812393732625000,1.493625,0.0072879791259765625,0.0429379940032959,-0.027122996747493744
1772812393742325800,1.50332568359375,-0.0481719970703125,0.008265495300292969,-0.042452163994312286
1772812393752026400,1.5130263671875,-0.08264541625976562,-0.021166861057281494,-0.04165470600128174
1772812393761727200,1.522727294921875,-0.12824535369873047,-0.018128246068954468,-0.04636874049901962
1772812393771427800,1.532427734375,-0.1271524429321289,-0.003497689962387085,-0.04116559773683548
1772812393781128700,1.542128662109375,-0.048401832580566406,0.0066089630126953125,-0.03915915638208389
1772812393790829300,1.551829345703125,0.007864952087402344,-0.003540128469467163,-0.01779019832611084
1772812393800530200,1.5615302734375,0.06548595428466797,-0.00860053300857544,0.02060006558895111
1772812393810230800,1.571230712890625,0.09267616271972656,-0.008741885423660278,0.037882380187511444
1772812393819931600,1.580931640625,0.09349441528320312,0.012703537940979004,0.005022697150707245
1772812393829632300,1.59063232421875,0.06840991973876953,0.011156708002090454,-0.03132312744855881
1772812393839333000,1.6003330078125,0.0707550048828125,0.043307721614837646,0.013978250324726105
1772812393849033700,1.61003369140625,0.06589317321777344,-0.004195839166641235,0.11218642443418503
1772812393858734600,1.619734619140625,0.13275909423828125,-0.08162632584571838,0.11089325696229935
1772812393868435500,1.629435546875,0.1302013397216797,-0.06571075320243835,0.05036758631467819
1772812393878136000,1.639135986328125,0.06417274475097656,0.029505908489227295,-0.02394891530275345
1772812393887836700,1.648836669921875,-0.05594158172607422,0.08725348114967346,-0.0808778703212738
1772812393897537500,1.65853759765625,-0.15740013122558594,0.08199885487556458,-0.10928767919540405
1772812393907238100,1.668238037109375,-0.17702865600585938,0.04860144853591919,-0.07585546374320984
1772812393916939000,1.67793896484375,-0.12921619415283203,0.008144885301589966,-0.023624174296855927
1772812393926639600,1.6876396484375,-0.05630683898925781,-0.06085348129272461,0.006728082895278931
1772812393936340500,1.697340576171875,0.02472209930419922,-0.08136731386184692,0.04729881137609482
1772812393946041000,1.707041015625,0.049037933349609375,-0.05316844582557678,0.03053268790245056
1772812393955742000,1.716741943359375,-0.02591705322265625,-0.045799583196640015,0.012329161167144775
1772812393965442800,1.72644287109375,-0.10429000854492188,-0.05216243863105774,0.002981133759021759
1772812393975143400,1.736143310546875,-0.1894989013671875,-0.030234068632125854,0.012102015316486359
1772812393984844300,1.74584423828125,-0.1908550262451172,-0.03194120526313782,0.04290885478258133
1772812393994545000,1.755544921875,-0.10276603698730469,-0.04652401804924011,0.09844718873500824
1772812394004245800,1.765245849609375,0.04500865936279297,-0.027040749788284302,0.09874363243579865
1772812394013946400,1.7749462890625,0.17966651916503906,0.030408859252929688,0.06681893020868301
1772812394023647000,1.78464697265625,0.24962902069091797,0.06557708978652954,0.042449384927749634
1772812394033347800,1.794347900390625,0.22889137268066406,0.07990127801895142,0.025852926075458527
1772812394043048400,1.80404833984375,0.17899131774902344,0.05446422100067139,0.04156573861837387
1772812394052749300,1.813749267578125,0.0993032455444336,0.040642380714416504,0.034984834492206573
1772812394062450200,1.8234501953125,0.024507522583007812,0.014700889587402344,-0.026933960616588593
1772812394072150800,1.83315087890625,-0.032502174377441406,0.029411494731903076,-0.0488850474357605
1772812394081851600,1.8428515625,-0.07671546936035156,0.019735187292099,-0.07249787449836731
1772812394091552300,1.85255224609375,-0.11424446105957031,-0.0013210773468017578,-0.11079977452754974
1772812394101253000,1.862253173828125,-0.09345626831054688,-0.024527668952941895,-0.07632668316364288
1772812394110953700,1.87195361328125,-0.07182025909423828,-0.030417203903198242,-0.053626492619514465
1772812394120654600,1.881654541015625,-0.04703712463378906,-0.049716800451278687,-0.03410946577787399
1772812394130355200,1.891355224609375,-0.04857158660888672,-0.06946170330047607,-0.035136573016643524
1772812394140056000,1.90105615234375,-0.06538200378417969,-0.05641770362854004,-0.051679279655218124
1772812394149756700,1.910756591796875,-0.05722522735595703,-0.06042620539665222,0.00036153942346572876
1772812394159457500,1.92045751953125,-0.03159046173095703,-0.0329955518245697,0.031537190079689026
1772812394169158100,1.930158203125,0.020656585693359375,-0.02648007869720459,0.03135722130537033
1772812394178859000,1.93985888671875,0.06498146057128906,-0.014228790998458862,0.020934388041496277
1772812394188559600,1.9495595703125,0.03329944610595703,0.023205190896987915,0.023133859038352966
1772812394198260500,1.959260498046875,0.01863574981689453,0.09123629331588745,0.04164858162403107
1772812394207961000,1.968961181640625,0.018360137939453125,0.06931200623512268,0.054150938987731934
1772812394217662000,1.978661865234375,0.039267539978027344,-0.0014466941356658936,0.07062388956546783
1772812394227362600,1.988362548828125,0.02918243408203125,-0.017568737268447876,0.10171209275722504
1772812394237063400,1.9980634765625,0.05215263366699219,-0.009850680828094482,0.08392944186925888
1772812394246764000,2.007763916015625,0.08059883117675781,0.023747533559799194,0.022852443158626556
1772812394256465000,2.01746484375,0.06502056121826172,0.05005928874015808,-0.0457693487405777
1772812394266165500,2.02716552734375,-0.01736736297607422,0.032131046056747437,-0.036928415298461914
1772812394275866400,2.036866455078125,-0.051299095153808594,-0.0050678551197052,-0.040234364569187164
1772812394285567000,2.04656689453125,-0.09989070892333984,-0.006253838539123535,-0.036911047995090485
1772812394295267800,2.056267822265625,-0.15464210510253906,-0.0019343793392181396,-0.035710930824279785
1772812394304968400,2.065968505859375,-0.14841651916503906,-0.0028738677501678467,-0.006372913718223572
1772812394314669300,2.07566943359375,-0.06231689453125,-0.06357580423355103,0.08150947093963623
1772812394324370000,2.085369873046875,0.0763864517211914,-0.08015710115432739,0.07993343472480774
1772812394334070800,2.09507080078125,0.15620136260986328,-0.021511971950531006,0.0386442169547081
1772812394343771400,2.104771484375,0.1640310287475586,0.03988349437713623,-0.012163057923316956
1772812394363172900,2.1241728515625,0.012209892272949219,0.07734715938568115,0.046158820390701294
1772812394372873700,2.133873779296875,-0.014115333557128906,0.022188842296600342,0.16662226617336273
1772812394382574600,2.14357470703125,-0.025872230529785156,-0.039665818214416504,0.2148093283176422
1772812394392275200,2.153275146484375,-0.04797935485839844,-0.016253143548965454,0.14624978601932526
1772812394401976000,2.16297607421875,-0.06374549865722656,0.03879910707473755,0.012212969362735748
1772812394411676700,2.1726767578125,-0.09092426300048828,0.08142828941345215,-0.10954397171735764
1772812394421377500,2.18237744140625,-0.08347511291503906,0.09260138869285583,-0.18080957233905792
1772812394431078100,2.192078125,-0.06437110900878906,0.04027709364891052,-0.1500052660703659
1772812394440778800,2.20177880859375,-0.03383445739746094,-0.024393200874328613,-0.11856980621814728
1772812394450479600,2.211479736328125,-0.034432411193847656,-0.07689929008483887,-0.09540534019470215
1772812394460180200,2.22118017578125,-0.025629043579101562,-0.07718804478645325,-0.05729525908827782
1772812394469881000,2.230881103515625,-0.024044036865234375,-0.05419713258743286,-0.04541803151369095
1772812394479581700,2.240581787109375,-0.015483856201171875,-0.033436596393585205,-0.01281227171421051
1772812394489282600,2.250282470703125,0.014054298400878906,-0.025916725397109985,0.012515537440776825
1772812394498983400,2.2599833984375,0.09485435485839844,0.000757753849029541,-0.009001493453979492
1772812394508684000,2.26968408203125,0.048409461975097656,-0.008883625268936157,0.016066893935203552
1772812394518385000,2.279385009765625,0.020374298095703125,-0.009154677391052246,0.03757191449403763
1772812394528085500,2.28908544921875,-0.015431404113769531,0.007136255502700806,0.022907234728336334
1772812394537786400,2.298786376953125,-0.016478538513183594,0.03812715411186218,0.012753181159496307
1772812394547487000,2.308487060546875,-0.04919147491455078,0.07615888118743896,0.018683336675167084
1772812394557187800,2.318187744140625,-0.0895090103149414,0.09201356768608093,0.0338512659072876
1772812394566888400,2.327888427734375,-0.10203075408935547,0.0998339056968689,0.062354378402233124
1772812394576589000,2.337589111328125,-0.09195995330810547,0.08373984694480896,0.11118897795677185
1772812394595990500,2.356990478515625,-0.004637718200683594,-0.012669652700424194,0.15435312688350677
1772812394605691400,2.36669140625,0.050751686096191406,-0.01991093158721924,0.1377510279417038
1772812394615392300,2.376392333984375,0.09339523315429688,-0.025069057941436768,0.07822130620479584
1772812394625092900,2.3860927734375,0.08822441101074219,-0.03841829299926758,0.002507030963897705
1772812394634793700,2.395793701171875,0.06548500061035156,0.004711151123046875,-0.0567496120929718
1772812394644494300,2.405494384765625,0.0019683837890625,-0.005268901586532593,-0.10172392427921295
1772812394654195200,2.4151953125,-0.028703689575195312,-0.034391045570373535,-0.11702418327331543
1772812394663895800,2.424895751953125,-0.03648948669433594,-0.05174750089645386,-0.11261141300201416
1772812394673596700,2.4345966796875,0.008800506591796875,-0.05698198080062866,-0.10719911009073257
1772812394683297300,2.44429736328125,0.022749900817871094,-0.06352537870407104,-0.1309940069913864
1772812394692998100,2.453998046875,0.038822174072265625,-0.04785466194152832,-0.11096344888210297
1772812394712399600,2.473399658203125,0.019678115844726562,-0.019223153591156006,-0.07216627895832062
1772812394722100200,2.483100341796875,0.026434898376464844,-0.0110856294631958,-0.04277808219194412
1772812394731800800,2.49280078125,0.03424835205078125,0.019359439611434937,-0.04477716237306595
1772812394741501700,2.502501708984375,0.0501708984375,0.013002157211303711,-0.01341506838798523
1772812394751202600,2.51220263671875,0.09405803680419922,0.011201679706573486,-0.015915140509605408
1772812394760903200,2.521903076171875,0.0877838134765625,0.012420356273651123,-0.004519008100032806
1772812394770604000,2.53160400390625,0.05806255340576172,-0.0009520649909973145,0.016239970922470093
1772812394780304600,2.5413046875,0.0052814483642578125,-0.013295352458953857,0.023294061422348022
1772812394790005500,2.551005615234375,-0.02899169921875,-0.0314614474773407,0.048911720514297485
1772812394799706000,2.5607060546875,-0.04743194580078125,-0.024967193603515625,0.0763871967792511
1772812394809407000,2.570406982421875,-0.030282020568847656,-0.0022956132888793945,0.09330907464027405
1772812394819107600,2.580107666015625,-0.028725624084472656,0.009087175130844116,0.08638706803321838
1772812394828808400,2.589808349609375,-0.034244537353515625,0.03074735403060913,0.046971336007118225
1772812394838509000,2.599509033203125,-0.03377723693847656,0.057955026626586914,0.007441848516464233
1772812394848210000,2.6092099609375,-0.06388473510742188,0.07917019724845886,0.00577487051486969
1772812394857910500,2.61891064453125,-0.06874942779541016,0.0630652904510498,-0.014997690916061401
1772812394867611400,2.628611328125,-0.06527042388916016,0.05623173713684082,-0.002305328845977783
1772812394877312000,2.63831201171875,-0.055938720703125,0.024282991886138916,0.0030933767557144165
1772812394887012900,2.648012939453125,-0.034981727600097656,0.02144750952720642,0.003598049283027649
1772812394896713500,2.65771337890625,-0.017904281616210938,-0.004667997360229492,0.017612576484680176
1772812394906414300,2.667414306640625,-0.0034723281860351562,-0.019644588232040405,0.005303606390953064
1772812394916115000,2.677114990234375,0.008352279663085938,-0.04602733254432678,0.008354097604751587
1772812394925815800,2.68681591796875,0.019964218139648438,-0.04853561520576477,0.008563771843910217
1772812394935516400,2.696516357421875,0.0066776275634765625,-0.04871383309364319,-0.011478722095489502
1772812394945217300,2.70621728515625,0.0018482208251953125,-0.02913561463356018,-0.05534636974334717
1772812394954918000,2.71591796875,-0.012320518493652344,0.00494876503944397,-0.1015474796295166
1772812394964618800,2.72561865234375,-0.03684425354003906,-0.014737695455551147,-0.10516154021024704
1772812394974319400,2.7353193359375,-0.08330535888671875,-0.03978997468948364,-0.0780479907989502
1772812394984020200,2.745020263671875,-0.07486248016357422,-0.053660303354263306,-0.07647128403186798
1772812394993720800,2.754720947265625,-0.09123802185058594,-0.027912884950637817,0.0012576580047607422
1772812395003421700,2.764421630859375,-0.10732460021972656,-0.01850953698158264,0.06052403151988983
1772812395013122300,2.774122314453125,-0.08782958984375,-0.007393062114715576,0.11932969093322754
1772812395022823200,2.7838232421875,-0.06276607513427734,0.05807310342788696,0.11179102957248688
1772812395032523800,2.793523681640625,-0.014584541320800781,0.11082002520561218,0.11133907735347748
1772812395042224600,2.803224609375,0.03515434265136719,0.12032687664031982,0.11865602433681488
1772812395051925200,2.81292529296875,0.05113029479980469,0.13784456253051758,0.11937792599201202
1772812395061626000,2.822626220703125,0.059782981872558594,0.1421142816543579,0.14102868735790253
1772812395071326700,2.83232666015625,0.07886981964111328,0.15800324082374573,0.15096351504325867
1772812395081027600,2.842027587890625,0.08233261108398438,0.15837116539478302,0.15459232032299042
1772812395090728200,2.851728271484375,0.08219337463378906,0.12344741821289062,0.14966540038585663
1772812395100429000,2.861428955078125,0.11848258972167969,0.11916863918304443,0.10955926775932312
1772812395110129700,2.871129638671875,0.12589550018310547,0.09780481457710266,0.04837670922279358
1772812395119830500,2.88083056640625,0.11787033081054688,0.0879981517791748,-0.0014194995164871216
1772812395129531400,2.890531494140625,0.10994243621826172,0.06317383050918579,-0.04954703152179718
1772812395139232000,2.90023193359375,0.07154083251953125,0.03781065344810486,-0.09450748562812805
1772812395148932600,2.9099326171875,0.03848075866699219,0.015840351581573486,-0.13039366900920868
1772812395158633500,2.919633544921875,-0.030490875244140625,0.00844600796699524,-0.09888928383588791
1772812395168334000,2.929333984375,-0.0747690200805664,-0.024248719215393066,-0.10767100751399994
1772812395178035000,2.939034912109375,-0.09122467041015625,-0.06156378984451294,-0.11141099035739899
1772812395187735600,2.948735595703125,-0.09560966491699219,-0.03842934966087341,-0.11928385496139526
1772812395197436400,2.9584365234375,-0.1104736328125,-0.02520480751991272,-0.11832641065120697
1772812395207137000,2.968136962890625,-0.10857200622558594,-0.01831194758415222,-0.1074150800704956
1772812395216838000,2.977837890625,-0.07725334167480469,-0.016865819692611694,-0.09064002335071564
1772812395226538500,2.98753857421875,-0.03704833984375,0.006664007902145386,-0.05809852480888367
1772812395236239400,2.9972392578125,0.010707855224609375,-0.0060343146324157715,-0.025471054017543793
1772812395245940000,3.00693994140625,0.05058097839355469,-0.039124131202697754,0.015163704752922058
1772812395255640800,3.016640869140625,0.0709075927734375,-0.027838051319122314,0.05440045893192291
1772812395265341400,3.026341552734375,0.12143898010253906,-0.017507225275039673,0.045562535524368286
1772812395275042300,3.036042236328125,0.11933517456054688,0.00717964768409729,-0.005624637007713318
1772812395284743000,3.045742919921875,0.11019325256347656,0.053278177976608276,-0.018682777881622314
1772812395294443800,3.05544384765625,0.0835409164428711,0.08169132471084595,-0.005817636847496033
1772812395304144400,3.065144287109375,0.0361480712890625,0.04343080520629883,0.017292052507400513
1772812395313845200,3.07484521484375,-0.0010538101196289062,0.0018956363201141357,0.030337929725646973
1772812395323545900,3.0845458984375,-0.041146278381347656,0.00017791986465454102,0.03327259421348572
1772812395333246700,3.094246826171875,-0.07583141326904297,0.02972748875617981,0.043879374861717224
1772812395342947300,3.103947265625,-0.10283088684082031,0.020002633333206177,0.02004823088645935
1772812395352648200,3.113648193359375,-0.12461471557617188,0.019142359495162964,0.0051331669092178345
1772812395362348800,3.123348876953125,-0.16948986053466797,0.018070638179779053,-0.03022172302007675
1772812395372049700,3.133049560546875,-0.13708972930908203,0.04231718182563782,-0.024123497307300568
1772812395381750300,3.142750244140625,-0.0675649642944336,0.044388145208358765,-0.022221170365810394
1772812395391451100,3.152451171875,0.01606273651123047,0.015937238931655884,0.009759873151779175
1772812395401151700,3.16215185546875,0.10999584197998047,-0.028123587369918823,0.03897497057914734
1772812395410852600,3.1718525390625,0.14110183715820312,-0.016051113605499268,0.0580035001039505
1772812395420553500,3.181553466796875,0.10926628112792969,0.0023461878299713135,0.0356810986995697
1772812395430254000,3.191254150390625,0.06972217559814453,0.005973130464553833,-0.04702140390872955
1772812395439954700,3.20095458984375,0.001483917236328125,0.02227616310119629,-0.1260661631822586
1772812395449655600,3.210655517578125,-0.08318710327148438,0.05894264578819275,-0.19008342921733856
1772812395459356200,3.220356201171875,-0.1110687255859375,0.04421398043632507,-0.18585507571697235
1772812395469057000,3.23005712890625,-0.11841106414794922,0.0071427226066589355,-0.13053308427333832
1772812395478757600,3.239757568359375,-0.10087966918945312,-0.05038994550704956,-0.036454781889915466
1772812395488458500,3.24945849609375,-0.02717304229736328,-0.10563096404075623,0.04401598870754242
1772812395498159000,3.2591591796875,0.05933952331542969,-0.15928718447685242,0.09487086534500122
1772812395507860000,3.26885986328125,0.1819286346435547,-0.1775602102279663,0.12362654507160187
1772812395517560600,3.278560546875,0.2717428207397461,-0.147538959980011,0.08001407980918884
1772812395527261400,3.288261474609375,0.28347206115722656,-0.0765078067779541,0.032260432839393616
1772812395536962000,3.297962158203125,0.23024368286132812,-0.004905819892883301,0.01967082917690277
1772812395546663000,3.307662841796875,0.11320304870605469,0.024360239505767822,0.017813771963119507
1772812395556363500,3.317363525390625,0.0157928466796875,0.040178656578063965,0.04568415880203247
1772812395566064400,3.327064453125,-0.058791160583496094,0.014868766069412231,0.12249073386192322
1772812395575765000,3.336764892578125,-0.06856060028076172,0.004486799240112305,0.14887011051177979
1772812395585465900,3.3464658203125,-0.05225372314453125,0.05992838740348816,0.1282668262720108
1772812395595166500,3.35616650390625,-0.078521728515625,0.10363760590553284,0.08615720272064209
1772812395604867300,3.365867431640625,-0.10077190399169922,0.11211934685707092,0.052688926458358765
1772812395614568000,3.37556787109375,-0.12142086029052734,0.10139709711074829,0.0033830851316452026
1772812395624268800,3.385268798828125,-0.17226696014404297,0.053054243326187134,-0.023248299956321716
1772812395633969400,3.394969482421875,-0.18103408813476562,0.004554808139801025,-0.014163494110107422
1772812395643670300,3.404670166015625,-0.18137741088867188,-0.04079669713973999,-0.015528753399848938
1772812395653371000,3.414370849609375,-0.11582183837890625,-0.07659164071083069,0.007423326373100281
1772812395663071700,3.42407177734375,-0.012590408325195312,-0.12544852495193481,0.03786188364028931
1772812395672772400,3.4337724609375,0.07822132110595703,-0.20259803533554077,0.06280185282230377
1772812395682473200,3.44347314453125,0.2003335952758789,-0.22135618329048157,0.02683621644973755
1772812395692173800,3.453173828125,0.24148941040039062,-0.18618878722190857,-0.031029358506202698
1772812395701874700,3.462874755859375,0.2583742141723633,-0.11630162596702576,-0.1365814059972763
1772812395711575300,3.4725751953125,0.15969181060791016,-0.06241711974143982,-0.1863681674003601
1772812395721276200,3.482276123046875,0.029764175415039062,-0.010969102382659912,-0.2141261249780655
1772812395730976800,3.491976806640625,-0.059070587158203125,0.03386828303337097,-0.16625447571277618
1772812395740677600,3.501677734375,-0.146331787109375,0.03029879927635193,-0.09404219686985016
1772812395750378200,3.511378173828125,-0.18383407592773438,-0.010630816221237183,-0.020650170743465424
1772812395760079000,3.5210791015625,-0.12539958953857422,-0.003923475742340088,0.022876515984535217
1772812395769779700,3.53077978515625,-0.03735637664794922,-0.000032782554626464844,0.05477346479892731
1772812395779480600,3.54048046875,0.04918384552001953,-0.009427547454833984,0.04423578083515167
1772812395789181200,3.55018115234375,0.06834793090820312,-0.023956745862960815,0.04294537007808685
1772812395798882000,3.559882080078125,0.06243896484375,-0.027923792600631714,0.020941704511642456
1772812395808582700,3.569582763671875,0.0154266357421875,-0.026393890380859375,0.007078737020492554
1772812395818283500,3.579283447265625,-0.020226478576660156,-0.024660557508468628,0.03739379346370697
1772812395827984100,3.588984130859375,-0.05761909484863281,-0.022363394498825073,0.048797279596328735
1772812395837685000,3.59868505859375,-0.04375457763671875,0.007860302925109863,0.0344509482383728
1772812395847385600,3.608385498046875,-0.05243492126464844,0.06047332286834717,0.027279704809188843
1772812395857086500,3.61808642578125,-0.04444694519042969,0.08260831236839294,0.046138837933540344
1772812395866787000,3.627787109375,-0.04127788543701172,0.052075088024139404,0.0804307609796524
1772812395876488000,3.637488037109375,-0.047554969787597656,0.01700228452682495,0.11403411626815796
1772812395886188500,3.6471884765625,-0.027832984924316406,-0.015752404928207397,0.10313868522644043
1772812395895889400,3.656889404296875,0.016283035278320312,-0.027620047330856323,0.06881415843963623
1772812395905590000,3.666590087890625,0.058483123779296875,-0.026544421911239624,0.03722354769706726
1772812395915290600,3.67629052734375,0.08819770812988281,-0.05526745319366455,0.02758796513080597
1772812395924991500,3.685991455078125,0.1020803451538086,-0.07601630687713623,0.0355360209941864
1772812395934692400,3.6956923828125,0.10862064361572266,-0.08447587490081787,-0.0005230754613876343
1772812395944393000,3.70539306640625,0.12090778350830078,-0.059441059827804565,-0.07881498336791992
1772812395954093800,3.71509375,0.12002944946289062,-0.042750149965286255,-0.1369325965642929
1772812395963794400,3.72479443359375,0.10267257690429688,-0.03895926475524902,-0.18085986375808716
1772812395973495300,3.734495361328125,0.0891103744506836,-0.03468674421310425,-0.17838965356349945
1772812395983196000,3.74419580078125,0.056915283203125,-0.07467964291572571,-0.15292923152446747
1772812395992896800,3.753896728515625,0.026414871215820312,-0.08265918493270874,-0.12766611576080322
1772812396002597400,3.763597412109375,-0.0094757080078125,-0.08384627103805542,-0.07456456124782562
1772812396012298200,3.77329833984375,-0.057692527770996094,-0.09069880843162537,-0.05597442388534546
1772812396021998800,3.782998779296875,-0.0991973876953125,-0.044037073850631714,-0.04418530315160751
1772812396031699700,3.79269970703125,-0.13293743133544922,-0.011892169713973999,-0.015836820006370544
1772812396041400300,3.802400390625,-0.14611053466796875,0.0024982690811157227,0.04368381202220917
1772812396051101200,3.81210107421875,-0.13434886932373047,-0.014754831790924072,0.09314131736755371
1772812396060801800,3.8218017578125,-0.12392139434814453,0.01368248462677002,0.11738105863332748
1772812396070502400,3.83150244140625,-0.14537620544433594,0.05568218231201172,0.1260146200656891
1772812396080203300,3.841203369140625,-0.1522960662841797,0.09959658980369568,0.13072513043880463
1772812396089903900,3.85090380859375,-0.14492321014404297,0.1090385913848877,0.12635734677314758
1772812396099604700,3.860604736328125,-0.0999898910522461,0.10076826810836792,0.13356991112232208
1772812396109305300,3.870305419921875,-0.027581214904785156,0.0986773669719696,0.14899441599845886
1772812396119006200,3.880006103515625,0.04948139190673828,0.06309819221496582,0.15123185515403748
1772812396128706800,3.889706787109375,0.1216888427734375,0.08200505375862122,0.10304582118988037
1772812396138407700,3.89940771484375,0.12912464141845703,0.07590034604072571,0.05723412334918976
1772812396148108500,3.909108642578125,0.10230350494384766,0.08924934267997742,0.028128623962402344
1772812396157809200,3.91880908203125,0.06534671783447266,0.06022655963897705,-0.009802564978599548
1772812396167510000,3.928510009765625,0.024308204650878906,0.025141924619674683,-0.05332973599433899
1772812396177210600,3.938210693359375,0.001613616943359375,-0.0004945695400238037,-0.05291612446308136
1772812396186911500,3.947911376953125,0.0157623291015625,-0.028052479028701782,-0.05792725086212158
1772812396196612000,3.957612060546875,0.05082511901855469,-0.039499104022979736,-0.0891260951757431
1772812396216013600,3.977013671875,0.06734561920166016,-0.03430813550949097,-0.10706846415996552
1772812396225714200,3.986714111328125,0.0555877685546875,-0.012813299894332886,-0.07786191254854202
1772812396235415000,3.9964150390625,0.03930377960205078,-0.02814623713493347,-0.0620657354593277
1772812396245115600,4.00611572265625,0.024457931518554688,-0.02783888578414917,-0.07840779423713684
1772812396254816500,4.01581640625,0.007527351379394531,-0.007186323404312134,-0.09851349890232086
1772812396264517000,4.02551708984375,0.000316619873046875,0.025096237659454346,-0.11616531759500504
1772812396274218000,4.035218017578125,-0.030295372009277344,0.040267616510391235,-0.09565666317939758
1772812396283918600,4.044918701171875,-0.05451393127441406,-0.0037503838539123535,-0.04165489226579666
1772812396293619500,4.054619384765625,-0.05831718444824219,-0.019581615924835205,0.016427122056484222
1772812396303320000,4.064320068359375,-0.043239593505859375,-0.0009523630142211914,0.06361287832260132
1772812396313021000,4.07402099609375,-0.034302711486816406,0.024503201246261597,0.09554576873779297
1772812396322721500,4.083721435546875,-0.02199268341064453,0.005935192108154297,0.11324156820774078
1772812396332422400,4.09342236328125,-0.003998756408691406,-0.0017229020595550537,0.09016889333724976
1772812396342123000,4.103123046875,0.004269599914550781,0.0058595240116119385,0.09389740228652954
1772812396351824000,4.112823974609375,-0.011144638061523438,-0.005620300769805908,0.07833248376846313
1772812396361524500,4.1225244140625,0.0042819976806640625,0.025196760892868042,0.027330219745635986
1772812396371225300,4.132225341796875,-0.0040493011474609375,0.0369642972946167,-0.04523308575153351
1772812396380926000,4.141926025390625,-0.027500152587890625,0.015073329210281372,-0.0785469189286232
1772812396390626800,4.151626708984375,-0.05406379699707031,-0.008029788732528687,-0.07211071997880936
1772812396400327400,4.161327392578125,-0.0707559585571289,-0.01263415813446045,-0.08921540528535843
1772812396410028300,4.1710283203125,-0.058913230895996094,-0.024908870458602905,-0.09215189516544342
1772812396419729000,4.18072900390625,-0.05314922332763672,-0.06739309430122375,-0.048491448163986206
1772812396429429800,4.1904296875,-0.0016164779663085938,-0.05060023069381714,-0.0062223076820373535
1772812396439130400,4.20013037109375,0.07845211029052734,-0.03127545118331909,-0.0020060688257217407
1772812396448831200,4.209831298828125,0.12892723083496094,0.023360371589660645,-0.0021751970052719116
1772812396458531800,4.21953173828125,0.1067953109741211,0.03822842240333557,-0.011741258203983307
1772812396468232700,4.229232666015625,0.08620071411132812,0.06588217616081238,-0.030864454805850983
1772812396477933300,4.238933349609375,0.061240196228027344,0.08378735184669495,-0.054952651262283325
1772812396487634200,4.24863427734375,0.04140472412109375,0.03686118125915527,-0.06069990247488022
1772812396497334800,4.258334716796875,-0.008710861206054688,-0.015584796667098999,-0.03643953800201416
1772812396507035600,4.26803564453125,-0.010955810546875,-0.03620767593383789,-0.06391690671443939
1772812396516736300,4.277736328125,0.02563762664794922,-0.05265781283378601,-0.05304175615310669
1772812396526437000,4.28743701171875,0.00042629241943359375,-0.07284301519393921,-0.03657251596450806
1772812396536137700,4.2971376953125,-0.005573272705078125,-0.07799094915390015,0.009862586855888367
1772812396545838300,4.30683837890625,-0.011487960815429688,-0.07975602149963379,0.018256351351737976
1772812396555539200,4.316539306640625,-0.03730487823486328,-0.06752341985702515,0.03805260360240936
1772812396565239800,4.32623974609375,-0.05677318572998047,-0.018344491720199585,0.033191993832588196
1772812396574940700,4.335940673828125,-0.08292675018310547,0.028656870126724243,0.021856054663658142
1772812396584641300,4.345641357421875,-0.0874166488647461,0.05136233568191528,0.02914223074913025
1772812396594342100,4.355342041015625,-0.10238170623779297,0.05953052639961243,0.02497076988220215
1772812396604042800,4.365042724609375,-0.08882522583007812,0.07687166333198547,0.04128541052341461
1772812396613743600,4.37474365234375,-0.07901763916015625,0.06960538029670715,0.0861051082611084
1772812396623444200,4.3844443359375,-0.047027587890625,0.03888756036758423,0.10355997085571289
1772812396633145000,4.39414501953125,-0.014425277709960938,0.04101377725601196,0.10704910755157471
1772812396642846000,4.403845947265625,0.009369850158691406,0.06107011437416077,0.08434893190860748
1772812396652546600,4.413546630859375,0.02922534942626953,0.0673389732837677,0.049832120537757874
1772812396662247400,4.423247314453125,0.013448715209960938,0.04866066575050354,-0.004011079668998718
1772812396671948000,4.432947998046875,-0.018529891967773438,0.03635057806968689,-0.02277039736509323
1772812396681648600,4.442648681640625,-0.017011642456054688,0.018850624561309814,-0.046219103038311005
1772812396691349500,4.452349609375,-0.019013404846191406,0.019970357418060303,-0.04740223288536072
1772812396701050000,4.462050048828125,-0.030374526977539062,-0.020916730165481567,-0.05947427451610565
1772812396710751000,4.4717509765625,-0.010942459106445312,-0.0666329562664032,-0.09262488782405853
1772812396720451600,4.48145166015625,0.0011262893676757812,-0.055967092514038086,-0.1149635836482048
1772812396730152400,4.49115234375,0.049495697021484375,-0.022680580615997314,-0.1494588404893875
1772812396739853000,4.50085302734375,0.08059310913085938,-0.002840757369995117,-0.1259574294090271
1772812396749554000,4.510553955078125,0.10760116577148438,-0.006380230188369751,-0.06302705407142639
1772812396759254500,4.520254638671875,0.16229820251464844,-0.040084123611450195,0.03170940279960632
1772812396768955400,4.529955322265625,0.21007823944091797,-0.07019853591918945,0.08873376250267029
1772812396778656000,4.539656005859375,0.2134246826171875,-0.04370427131652832,0.12950634956359863
1772812396788356900,4.54935693359375,0.1531219482421875,0.0029228031635284424,0.13170447945594788
1772812396798057500,4.559057373046875,0.0632171630859375,0.02230963110923767,0.11154085397720337
1772812396807758300,4.56875830078125,-0.059256553649902344,0.061497628688812256,0.08504468202590942
1772812396817459000,4.578458984375,-0.15018653869628906,0.09670782089233398,0.052537307143211365
1772812396827159800,4.588159912109375,-0.2277393341064453,0.10596629977226257,0.04373060166835785
1772812396836860400,4.5978603515625,-0.2333211898803711,0.0928851068019867,0.055204540491104126
1772812396846561300,4.607561279296875,-0.22462177276611328,0.05468371510505676,0.06506533920764923
1772812396856262000,4.617261962890625,-0.17720413208007812,0.024935990571975708,0.06924904882907867
1772812396865962500,4.62696240234375,-0.09646034240722656,-0.005946546792984009,0.06310200691223145
1772812396875663400,4.636663330078125,-0.050014495849609375,-0.014787554740905762,0.057062819600105286
1772812396885364000,4.646364013671875,0.010936737060546875,-0.02052605152130127,0.06367954611778259
1772812396895064800,4.65606494140625,0.049666404724121094,-0.011273592710494995,0.05800426006317139
1772812396904765400,4.665765380859375,0.07007598876953125,0.003367513418197632,0.04991398751735687
1772812396914466300,4.67546630859375,0.13834571838378906,-0.0005346536636352539,0.037788212299346924
1772812396924167000,4.6851669921875,0.15014171600341797,-0.0041311681270599365,0.03325992822647095
1772812396933867800,4.69486767578125,0.15933704376220703,-0.012390732765197754,0.04078999161720276
1772812396943568400,4.704568359375,0.12717342376708984,-0.00030562281608581543,0.019465014338493347
1772812396953269200,4.714269287109375,0.10260009765625,0.03232458233833313,-0.02331356704235077
1772812396962970000,4.72397021484375,0.040810585021972656,0.06259489059448242,-0.057231202721595764
1772812396972670700,4.733670654296875,-0.016371726989746094,0.034818291664123535,-0.07042897492647171
1772812396982371600,4.74337158203125,-0.041962623596191406,0.02552241086959839,-0.08168309926986694
1772812396992072200,4.753072265625,-0.028281211853027344,0.03590267896652222,-0.10539592802524567
1772812397001773000,4.76277294921875,-0.020696640014648438,-0.010153532028198242,-0.10093972831964493
1772812397011473700,4.7724736328125,0.009102821350097656,-0.0431462824344635,-0.07139623165130615
1772812397021174300,4.78217431640625,0.033646583557128906,-0.05826577544212341,-0.008562222123146057
1772812397030875100,4.791875244140625,0.07771492004394531,-0.08089390397071838,0.03877761960029602
1772812397040575700,4.80157568359375,0.09040164947509766,-0.08242064714431763,0.0509829968214035
1772812397050276600,4.811276611328125,0.053427696228027344,-0.08584526181221008,0.08140580356121063
1772812397059977200,4.820977294921875,0.0005769729614257812,-0.06692004203796387,0.06785772740840912
1772812397069678000,4.830677978515625,-0.044304847717285156,-0.04165634512901306,0.03231029212474823
1772812397079378700,4.840378662109375,-0.061321258544921875,0.0044394731521606445,0.0014491379261016846
1772812397089079600,4.85007958984375,-0.0956430435180664,0.03228166699409485,-0.00009807944297790527
1772812397098780200,4.8597802734375,-0.10462379455566406,0.044668883085250854,0.00014956295490264893
1772812397108481000,4.86948095703125,-0.11104965209960938,0.05218663811683655,0.007084593176841736
1772812397118181600,4.879181640625,-0.09732913970947266,0.05582988262176514,0.03360632061958313
1772812397127882500,4.888882568359375,-0.088531494140625,0.06008151173591614,0.08177483081817627
1772812397137583000,4.8985830078125,-0.042265892028808594,0.042872458696365356,0.09293513000011444
1772812397147284000,4.908283935546875,0.014978408813476562,-0.0015771985054016113,0.08264324069023132
1772812397156984600,4.917984619140625,0.04302501678466797,0.03652253746986389,0.01180124282836914
1772812397166685400,4.927685546875,0.044719696044921875,0.03942149877548218,-0.035169199109077454
1772812397176386000,4.937385986328125,0.06637287139892578,0.03365278244018555,-0.060351237654685974
1772812397186087000,4.9470869140625,0.05821800231933594,-0.010422587394714355,-0.07637649029493332
1772812397195787500,4.95678759765625,0.08311271667480469,-0.017767608165740967,-0.07037655264139175
1772812397205488000,4.966488037109375,0.04521465301513672,-0.030084550380706787,-0.07798095047473907
1772812397215189000,4.97618896484375,0.023224830627441406,-0.05673131346702576,-0.05832605063915253
1772812397224889600,4.9858896484375,-0.007805824279785156,-0.0676402747631073,-0.07805003225803375
1772812397234590500,4.995590576171875,-0.04654693603515625,-0.06284824013710022,-0.049185872077941895
1772812397244291000,5.005291015625,-0.07872772216796875,-0.0797787606716156,-0.05287618935108185
1772812397253992000,5.014991943359375,-0.062091827392578125,-0.028393596410751343,-0.045253463089466095
1772812397263692500,5.024692626953125,-0.03629875183105469,0.0025752484798431396,-0.0699407160282135
1772812397273393400,5.034393310546875,0.0020046234130859375,0.02001073956489563,-0.03551313281059265
1772812397283094000,5.044093994140625,0.020818710327148438,0.014316439628601074,0.0177202969789505
1772812397292795000,5.053794921875,0.046344757080078125,0.017324000597000122,0.05967821180820465
1772812397302495500,5.06349560546875,0.07613468170166016,0.045639872550964355,0.07485237717628479
1772812397312196400,5.0731962890625,0.06306648254394531,0.05080074071884155,0.08258837461471558
1772812397321897000,5.08289697265625,0.030221939086914062,0.03373342752456665,0.08080576360225677
1772812397331597800,5.092597900390625,0.023825645446777344,0.029307842254638672,0.057006776332855225
1772812397341298400,5.10229833984375,0.01755809783935547,0.0691150426864624,0.013703256845474243
1772812397350999300,5.111999267578125,-0.0015420913696289062,0.07569819688796997,-0.024812400341033936
1772812397360700000,5.121699951171875,-0.03562450408935547,0.03052428364753723,-0.01740477979183197
1772812397370400800,5.13140087890625,-0.024435997009277344,-0.021326839923858643,-0.023606792092323303
1772812397380101400,5.141101318359375,-0.022836685180664062,-0.014922231435775757,-0.024986520409584045
1772812397389802200,5.15080224609375,-0.04949474334716797,0.006702303886413574,-0.03235793113708496
1772812397399502800,5.1605029296875,-0.08981990814208984,-0.021128952503204346,-0.04642799496650696
1772812397409203700,5.17020361328125,-0.0941610336303711,-0.020892471075057983,-0.05419641733169556
1772812397418904300,5.179904296875,-0.08077812194824219,-0.002835482358932495,-0.05699923634529114
1772812397428605200,5.189605224609375,-0.048801422119140625,-0.014601022005081177,-0.033694446086883545
1772812397438305800,5.199305908203125,-0.045612335205078125,-0.029116123914718628,-0.012090831995010376
1772812397448006700,5.209006591796875,-0.013063430786132812,-0.014321625232696533,0.00826503336429596
1772812397457707300,5.218707275390625,-0.023406028747558594,-0.02933606505393982,0.007694810628890991
1772812397467408100,5.228408203125,-0.034743309020996094,0.0009081661701202393,-0.006805643439292908
1772812397477108700,5.238108642578125,-0.04232025146484375,-0.006792426109313965,-0.02877233922481537
1772812397486809600,5.2478095703125,-0.013269424438476562,0.018427550792694092,-0.059086874127388
1772812397496510200,5.25751025390625,0.03179359436035156,0.05350843071937561,-0.08957396447658539
1772812397506211000,5.267211181640625,0.08669376373291016,0.07052081823348999,-0.09216021001338959
1772812397515911700,5.27691162109375,0.12418079376220703,0.0570584237575531,-0.0488450825214386
1772812397525612300,5.2866123046875,0.13982200622558594,-0.002305358648300171,-0.03635202348232269
1772812397535313200,5.296313232421875,0.12807941436767578,-0.0602341890335083,-0.02353622019290924
1772812397545013800,5.306013671875,0.09529304504394531,-0.08114409446716309,0.006612256169319153
1772812397554714600,5.315714599609375,0.0618438720703125,-0.08387154340744019,0.012593463063240051
1772812397564415200,5.325415283203125,0.02306652069091797,-0.03960031270980835,-0.03341314196586609
1772812397574116000,5.3351162109375,-0.010332107543945312,0.005710512399673462,-0.015167534351348877
1772812397583816700,5.344816650390625,-0.04902172088623047,0.03845781087875366,0.004372000694274902
1772812397593517600,5.354517578125,-0.07056522369384766,0.03655514121055603,0.0480768084526062
1772812397603218200,5.36421826171875,-0.059967994689941406,0.05530226230621338,0.08090533316135406
1772812397612919000,5.3739189453125,-0.03540992736816406,0.054204583168029785,0.0859534740447998
1772812397622619600,5.38361962890625,-0.06890296936035156,0.014487236738204956,0.07940685749053955
1772812397632320500,5.393320556640625,-0.05595684051513672,-0.01404350996017456,0.08572517335414886
1772812397642021000,5.403021240234375,-0.03499412536621094,0.011535704135894775,0.047498613595962524
1772812397651722000,5.412721923828125,-0.02494049072265625,0.036832064390182495,0.021466463804244995
1772812397661422600,5.422422607421875,-0.052669525146484375,0.06810802221298218,0.011820226907730103
1772812397671123500,5.43212353515625,-0.06578731536865234,0.036330729722976685,0.01686246693134308
1772812397680824000,5.441823974609375,-0.08101177215576172,0.005125373601913452,0.027662158012390137
1772812397690525000,5.45152490234375,-0.05597114562988281,-0.004628360271453857,0.05030928552150726
1772812397700225500,5.4612255859375,0.00040435791015625,-0.03540417551994324,0.022823482751846313
1772812397709926100,5.470926025390625,0.06637954711914062,-0.05283576250076294,0.034620270133018494
1772812397719627000,5.480626953125,0.1276721954345703,-0.06840667128562927,0.007088065147399902
1772812397729327600,5.49032763671875,0.16437435150146484,-0.02790847420692444,-0.04543288052082062
1772812397739028500,5.500028564453125,0.13925647735595703,-0.007973551750183105,-0.08476176857948303
1772812397748729000,5.50972900390625,0.06866645812988281,-0.028240591287612915,-0.06383629143238068
1772812397758430000,5.519429931640625,0.008676528930664062,-0.024987399578094482,-0.03376016020774841
1772812397768130600,5.529130615234375,0.002651214599609375,-0.0019703209400177,-0.03747519850730896
1772812397777831400,5.53883154296875,0.00026702880859375,-0.021066516637802124,-0.03562866151332855
1772812397787532000,5.548531982421875,0.032006263732910156,-0.018063217401504517,0.01271122694015503
1772812397797233000,5.55823291015625,0.05729866027832031,-0.016394197940826416,0.011111900210380554
1772812397806933500,5.56793359375,0.06450176239013672,-0.004217386245727539,0.01843184232711792
1772812397816634400,5.57763427734375,0.019811630249023438,0.010802686214447021,0.009879514575004578
1772812397826335000,5.5873349609375,-0.047654151916503906,0.0014967620372772217,0.02816067636013031
1772812397836035800,5.597035888671875,-0.08691692352294922,-0.015007227659225464,0.06004899740219116
1772812397845736400,5.606736328125,-0.08430767059326172,-0.01842784881591797,0.06430618464946747
1772812397855437300,5.616437255859375,-0.07110881805419922,-0.0032438933849334717,0.04805248975753784
1772812397865138000,5.626137939453125,-0.060479164123535156,-0.01629692316055298,0.0582558810710907
1772812397874838800,5.6358388671875,-0.03240203857421875,-0.04245424270629883,0.0792752057313919
1772812397884539400,5.645539306640625,0.009305953979492188,-0.05354255437850952,0.04776217043399811
1772812397894240000,5.655239990234375,0.02091217041015625,-0.05390942096710205,0.012802854180335999
1772812397913641500,5.674641357421875,-0.0007276535034179688,-0.01975134015083313,-0.01811116933822632
1772812397923342300,5.68434228515625,-0.030078887939453125,-0.02795591950416565,-0.043240517377853394
1772812397933043000,5.69404296875,-0.03302955627441406,-0.048206597566604614,-0.005527913570404053
1772812397942743800,5.703743896484375,-0.03594207763671875,-0.024530142545700073,0.0053554922342300415
1772812397952444400,5.7134443359375,-0.0070648193359375,-0.0075511634349823,0.011730492115020752
1772812397962145300,5.723145263671875,0.023660659790039062,-0.02780693769454956,0.014669358730316162
1772812397971846000,5.732845947265625,0.03734397888183594,-0.022811710834503174,0.06912633776664734
1772812397981546800,5.742546630859375,0.044867515563964844,-0.041519224643707275,0.0979243665933609
1772812397991247400,5.752247314453125,0.04403114318847656,-0.018097668886184692,0.022527873516082764
1772812398000948200,5.7619482421875,0.010317802429199219,0.030254364013671875,-0.03531514108181
1772812398010648800,5.77164892578125,-0.01924610137939453,0.06391292810440063,-0.07685913145542145
1772812398020349700,5.781349609375,-0.028285980224609375,0.06539645791053772,-0.08352591842412949
1772812398030050300,5.79105029296875,-0.0018682479858398438,0.04295700788497925,-0.04535788297653198
1772812398039751200,5.800751220703125,0.03704261779785156,-0.003955155611038208,-0.011268064379692078
1772812398049451800,5.81045166015625,0.06117725372314453,-0.028305619955062866,0.013294771313667297
1772812398059152600,5.820152587890625,0.0343017578125,-0.047227829694747925,0.018870845437049866
1772812398068853200,5.829853271484375,0.012570381164550781,-0.07108157873153687,-0.026948824524879456
1772812398078553900,5.839553955078125,-0.025284767150878906,-0.06910300254821777,-0.019219666719436646
1772812398088254700,5.849254638671875,-0.043670654296875,-0.07047995924949646,-0.04028801620006561
1772812398097955300,5.858955322265625,-0.03585529327392578,-0.026692956686019897,-0.031257838010787964
1772812398107656200,5.86865625,-0.03756523132324219,-0.013536334037780762,-0.02980200946331024
1772812398117356800,5.878356689453125,-0.019237518310546875,-0.002354562282562256,0.003074079751968384
1772812398127057700,5.8880576171875,0.02464771270751953,0.000225067138671875,0.03835359215736389
1772812398136758300,5.89775830078125,0.05836677551269531,0.0010827481746673584,0.06619100272655487
1772812398146459100,5.907459228515625,0.07973098754882812,0.005649358034133911,0.06098780035972595
1772812398156159700,5.91715966796875,0.05720806121826172,0.020263969898223877,0.010119974613189697
1772812398165860600,5.926860595703125,0.024478912353515625,0.03825971484184265,-0.03766348958015442
1772812398175561200,5.936561279296875,-0.011234283447265625,0.03286820650100708,-0.056530438363552094
1772812398185262000,5.946261962890625,-0.016933441162109375,0.0057318806648254395,-0.057714395225048065
1772812398194962700,5.955962646484375,0.0021877288818359375,-0.0216485857963562,-0.04591395705938339
1772812398204663600,5.96566357421875,-0.00018310546875,-0.041517168283462524,-0.05566519498825073
1772812398214364200,5.9753642578125,0.0033788681030273438,-0.051720261573791504,-0.07549690455198288
1772812398224065000,5.98506494140625,0.004538536071777344,-0.05011674761772156,-0.12998779118061066
1772812398233765600,5.994765625,-0.010779380798339844,-0.05227437615394592,-0.16008301079273224
1772812398243466500,6.004466552734375,0.008261680603027344,-0.020792067050933838,-0.14558500051498413
1772812398262867700,6.02386767578125,-0.05488300323486328,-0.0282021164894104,-0.07053739577531815
1772812398272568600,6.033568603515625,-0.06805038452148438,-0.05413791537284851,0.02427181601524353
1772812398282269200,6.043269287109375,-0.044526100158691406,-0.05693763494491577,0.09365597367286682
1772812398291970000,6.052969970703125,-0.01670551300048828,-0.014111578464508057,0.1221429854631424
1772812398301670700,6.062670654296875,0.008259773254394531,-0.0022213757038116455,0.11157059669494629
1772812398311371500,6.07237158203125,0.03278541564941406,0.01363593339920044,0.07634902000427246
1772812398321072000,6.082072021484375,0.03808307647705078,0.06892433762550354,0.04782821238040924
1772812398330773000,6.09177294921875,0.0480194091796875,0.10209095478057861,0.0256054550409317
1772812398340473600,6.1014736328125,0.03191375732421875,0.10324463248252869,0.052366480231285095
1772812398350174500,6.111174560546875,-0.013324737548828125,0.0662807822227478,0.09404532611370087
1772812398359875000,6.120875,-0.05426311492919922,0.020148873329162598,0.11359672248363495
1772812398369576000,6.130575927734375,-0.06390190124511719,-0.00322684645652771,0.050867557525634766
1772812398379276500,6.140276611328125,-0.058058738708496094,-0.01616951823234558,-0.013120532035827637
1772812398388977400,6.149977294921875,-0.0217132568359375,-0.028903305530548096,-0.06257939338684082
1772812398398678000,6.159677978515625,0.004608154296875,-0.030152827501296997,-0.11092807352542877
1772812398408379000,6.16937890625,0.018707275390625,-0.033398985862731934,-0.09240832924842834
1772812398418079500,6.17907958984375,0.032558441162109375,-0.02888450026512146,-0.0924142599105835
1772812398427780400,6.1887802734375,0.041436195373535156,-0.01338893175125122,-0.01563774049282074
1772812398437481000,6.19848095703125,0.040714263916015625,-0.02713605761528015,0.021456509828567505
1772812398447181600,6.208181640625,0.016470909118652344,-0.03028160333633423,0.036484494805336
1772812398456882400,6.21788232421875,-0.007361412048339844,-0.00015053153038024902,-0.0014254599809646606
1772812398466583000,6.2275830078125,-0.05428314208984375,0.07525405287742615,-0.019600123167037964
1772812398476284000,6.237283935546875,-0.07332134246826172,0.08226409554481506,-0.020751088857650757
1772812398485984500,6.246984619140625,-0.09082889556884766,0.044239580631256104,0.01728452742099762
1772812398495685400,6.256685302734375,-0.06571578979492188,-0.00019696354866027832,0.11141671240329742
1772812398505386000,6.266385986328125,-0.017561912536621094,-0.0346149206161499,0.19420872628688812
1772812398515086800,6.2760869140625,0.06975078582763672,-0.05468061566352844,0.17628030478954315
1772812398524787500,6.285787353515625,0.07796096801757812,0.029678046703338623,0.07245023548603058
1772812398534488300,6.29548828125,0.023711204528808594,0.10152900218963623,0.027943015098571777
1772812398544189000,6.30518896484375,0.00334930419921875,0.08877435326576233,-0.03629106283187866
1772812398553889800,6.314889892578125,0.018651962280273438,0.070272296667099,-0.0772332102060318
1772812398563590400,6.32459033203125,0.016042709350585938,0.003945082426071167,-0.06021645665168762
1772812398573291300,6.334291259765625,0.044051170349121094,-0.006774038076400757,-0.043435126543045044
1772812398582992000,6.343991943359375,0.04922294616699219,-0.030098289251327515,-0.06854608654975891
1772812398592692700,6.353692626953125,0.0025424957275390625,-0.01710006594657898,-0.06263205409049988
1772812398602393300,6.363393310546875,-0.039841651916503906,-0.047929346561431885,-0.07767263799905777
1772812398612094000,6.373093994140625,-0.05211830139160156,-0.07437071204185486,-0.047533199191093445
1772812398621794800,6.382794921875,-0.047722816467285156,-0.06341424584388733,-0.028174668550491333
1772812398631495400,6.392495361328125,-0.0010585784912109375,-0.05973082780838013,-0.02149231731891632
1772812398641196300,6.4021962890625,0.051873207092285156,-0.041237473487854004,-0.02119387686252594
1772812398650897000,6.41189697265625,0.048628807067871094,0.0023295581340789795,-0.037359267473220825
1772812398660597800,6.42159765625,0.040740966796875,0.0472770631313324,-0.05212670564651489
1772812398670298400,6.43129833984375,-0.0058231353759765625,0.05991557240486145,-0.003442928194999695
1772812398679999200,6.440999267578125,-0.04101085662841797,0.05397477746009827,0.03664959967136383
1772812398689699800,6.450699951171875,-0.050884246826171875,0.06303161382675171,0.07089579105377197
1772812398699400700,6.460400634765625,-0.04410552978515625,0.059771955013275146,0.10442665219306946
1772812398709101300,6.470101318359375,-0.015108108520507812,0.04598855972290039,0.12089663743972778
1772812398718802200,6.47980224609375,0.032195091247558594,0.040954798460006714,0.11221089959144592
1772812398728502800,6.489502685546875,0.05515480041503906,0.051417648792266846,0.04948687553405762
1772812398738203600,6.49920361328125,0.03536224365234375,0.03396451473236084,0.03535756468772888
1772812398747904300,6.508904296875,-0.0017566680908203125,0.03446444869041443,-0.013283133506774902
1772812398757605000,6.518605224609375,-0.041787147521972656,0.010406076908111572,-0.017209261655807495
1772812398767305700,6.5283056640625,-0.0670003890991211,0.0012403428554534912,-0.026669174432754517
1772812398777006600,6.538006591796875,-0.0940713882446289,0.015770912170410156,-0.02657189965248108
1772812398786707200,6.547707275390625,-0.13593292236328125,0.03141859173774719,-0.014485806226730347
1772812398796407800,6.55740771484375,-0.12764549255371094,-0.011924684047698975,0.03608444333076477
1772812398806108700,6.567108642578125,-0.08065605163574219,-0.05144321918487549,0.05727158486843109
1772812398815809300,6.576809326171875,-0.0026979446411132812,-0.04804912209510803,0.05046026408672333
1772812398825510100,6.58651025390625,0.076263427734375,-0.01292949914932251,0.0285567045211792
1772812398835210800,6.596210693359375,0.13738250732421875,0.01996973156929016,-0.012892931699752808
1772812398844911600,6.60591162109375,0.1480388641357422,0.042762696743011475,-0.05039800703525543
1772812398854612200,6.6156123046875,0.12672042846679688,0.03477609157562256,-0.019713938236236572
1772812398864312800,6.625312744140625,0.08690071105957031,0.03940969705581665,0.014723047614097595
1772812398874013700,6.635013671875,0.05832862854003906,0.024323195219039917,0.026163533329963684
1772812398883714300,6.64471435546875,0.02081775665283203,-0.02422022819519043,0.03150737285614014
1772812398893415200,6.654415283203125,0.030986785888671875,-0.00937381386756897,0.017558306455612183
1772812398903115800,6.66411572265625,0.022164344787597656,0.017978370189666748,-0.04017274081707001
1772812398912816600,6.673816650390625,0.007613182067871094,0.013816863298416138,-0.07847058027982712
1772812398922517200,6.683517333984375,-0.011404991149902344,0.003398507833480835,-0.07813344150781631
1772812398932218000,6.693218017578125,-0.04658985137939453,0.0022335052490234375,-0.037839025259017944
1772812398941918700,6.702918701171875,-0.09294605255126953,-0.014181166887283325,-0.0031858831644058228
1772812398951619600,6.71261962890625,-0.12671756744384766,-0.019844472408294678,0.01666027307510376
1772812398961320200,6.7223203125,-0.1622304916381836,-0.0050338804721832275,0.07010270655155182
1772812398971021000,6.73202099609375,-0.15828895568847656,0.03332778811454773,0.055723369121551514
1772812398980721700,6.7417216796875,-0.113189697265625,0.008790731430053711,0.04681871831417084
1772812398990422500,6.751422607421875,-0.048842430114746094,0.004744827747344971,0.0653708428144455
1772812399000123100,6.761123046875,0.00850677490234375,0.003050506114959717,0.07708138227462769
1772812399009823700,6.77082373046875,0.06250286102294922,-0.015732795000076294,0.06193847954273224
1772812399019524600,6.780524658203125,0.052069664001464844,-0.01983204483985901,0.030852004885673523
1772812399029225200,6.79022509765625,0.0065460205078125,0.03882524371147156,0.03483271598815918
1772812399038926000,6.799926025390625,-0.009928703308105469,0.08156844973564148,0.005266070365905762
1772812399048626700,6.809626708984375,0.0009622573852539062,0.08050787448883057,-0.0005053877830505371
1772812399058327600,6.81932763671875,0.043422698974609375,0.06384378671646118,0.01048479974269867
1772812399068028200,6.829028076171875,0.12865734100341797,0.056301265954971313,0.004800334572792053
1772812399077729000,6.83872900390625,0.1935720443725586,0.034041523933410645,-0.029348433017730713
1772812399087429600,6.8484296875,0.20906829833984375,0.002205103635787964,-0.05025416612625122
1772812399097130500,6.858130615234375,0.1924753189086914,-0.025513410568237305,-0.08791587501764297
1772812399106831000,6.8678310546875,0.09964656829833984,-0.033978164196014404,-0.10419803112745285
1772812399116532000,6.877531982421875,0.014255523681640625,-0.042112916707992554,-0.09769690036773682
1772812399126232600,6.887232666015625,-0.06378364562988281,-0.03711289167404175,-0.09566293656826019
1772812399135933400,6.896933349609375,-0.096954345703125,-0.029710888862609863,-0.05142772197723389
1772812399145634000,6.906634033203125,-0.1013031005859375,-0.04713308811187744,-0.0012186318635940552
1772812399155335000,6.9163349609375,-0.08672142028808594,-0.058829545974731445,0.004464328289031982
1772812399165035500,6.926035400390625,-0.05588054656982422,-0.017049700021743774,0.000881880521774292
1772812399174736400,6.935736328125,-0.046700477600097656,0.025446325540542603,-0.008345365524291992
1772812399184437000,6.94543701171875,-0.04352760314941406,0.03691193461418152,0.005087360739707947
1772812399194137600,6.9551376953125,-0.05567455291748047,0.04390686750411987,0.023756086826324463
1772812399203838500,6.96483837890625,-0.060540199279785156,0.05137452483177185,0.04479369521141052
1772812399213539000,6.9745390625,-0.025351524353027344,0.025789082050323486,0.10930050909519196
1772812399223240000,6.984239990234375,0.012731552124023438,-0.003488391637802124,0.14210809767246246
1772812399232940500,6.9939404296875,0.06426429748535156,-0.000179976224899292,0.11667503416538239
1772812399242641400,7.003641357421875,0.08076858520507812,0.04440039396286011,0.06496362388134003
1772812399252342000,7.013342041015625,0.08991336822509766,0.0711769163608551,0.020064562559127808
1772812399262043000,7.02304296875,0.057735443115234375,0.05737075209617615,-0.018786221742630005
1772812399271743500,7.032743408203125,0.015528678894042969,0.08770197629928589,-0.04324805736541748
1772812399281444400,7.0424443359375,-0.022424697875976562,0.0719621479511261,-0.048694416880607605
1772812399291145000,7.05214501953125,-0.06443500518798828,0.028583377599716187,-0.028435155749320984
1772812399300845800,7.061845703125,-0.09513187408447266,-0.008949100971221924,-0.019429340958595276
1772812399310546400,7.07154638671875,-0.09117984771728516,-0.03487446904182434,-0.03321664035320282
1772812399320247000,7.0812470703125,-0.06374073028564453,-0.057728350162506104,-0.028425216674804688
1772812399329948000,7.090947998046875,-0.01910400390625,-0.08223339915275574,-0.05643700063228607
1772812399339648500,7.1006484375,-0.009336471557617188,-0.10278549790382385,-0.07643875479698181
1772812399349349400,7.110349365234375,0.059088706970214844,-0.05835887789726257,-0.06795374304056168
1772812399359050000,7.120050048828125,0.09813594818115234,-0.050157248973846436,-0.057467490434646606
1772812399368750800,7.129750732421875,0.12117671966552734,-0.040955960750579834,-0.027790844440460205
1772812399378451500,7.139451416015625,0.10848236083984375,-0.06713727116584778,-0.009876489639282227
1772812399388152300,7.14915234375,0.11831474304199219,-0.053768664598464966,-0.00031282007694244385
1772812399397853000,7.15885302734375,0.09971046447753906,-0.012003302574157715,-0.003589913249015808
1772812399407553500,7.168553466796875,0.07434940338134766,0.029932618141174316,0.006021186709403992
1772812399417254400,7.17825439453125,0.03883171081542969,0.0559309720993042,0.0069237202405929565
1772812399426955000,7.187955078125,-0.026662826538085938,0.04535982012748718,0.021832570433616638
1772812399436655900,7.19765576171875,-0.07221508026123047,0.04613754153251648,0.018682047724723816
1772812399446356500,7.2073564453125,-0.1098947525024414,0.012648582458496094,0.023121535778045654
1772812399456057300,7.217057373046875,-0.12218570709228516,0.01847025752067566,0.00694766640663147
1772812399465758000,7.226758056640625,-0.11541175842285156,0.012390434741973877,0.01136106252670288
1772812399475458800,7.236458740234375,-0.08637809753417969,-0.061197757720947266,0.01590387523174286
1772812399485159400,7.246159423828125,-0.03076648712158203,-0.07912975549697876,-0.009734466671943665
1772812399494860300,7.2558603515625,-0.0067081451416015625,-0.07244381308555603,-0.019732609391212463
1772812399504561000,7.265560791015625,0.04043102264404297,-0.06079348921775818,0.0006697475910186768
1772812399514261800,7.27526171875,0.06790924072265625,-0.07545602321624756,0.004042595624923706
1772812399523962400,7.28496240234375,0.04079723358154297,-0.08266395330429077,0.007393360137939453
1772812399533663200,7.294663330078125,0.03413963317871094,-0.062235116958618164,0.02216525375843048
1772812399543363800,7.30436376953125,-0.014714241027832031,-0.036885470151901245,0.01438818871974945
1772812399553064700,7.314064697265625,-0.052112579345703125,0.024943530559539795,0.0037359148263931274
1772812399562765300,7.323765380859375,-0.06415843963623047,0.02982369065284729,-0.004783019423484802
1772812399572466200,7.333466064453125,-0.006580352783203125,0.02884852886199951,-0.03603486716747284
1772812399582166800,7.343166748046875,0.06180095672607422,0.03610911965370178,-0.05954247713088989
1772812399591867400,7.352867431640625,0.13724517822265625,0.025486350059509277,-0.08824898302555084
1772812399601568300,7.362568359375,0.14317035675048828,-0.0004920363426208496,-0.05436040461063385
1772812399611268900,7.372268798828125,0.1324930191040039,-0.0462510883808136,-0.04788437485694885
1772812399620969700,7.3819697265625,0.07724571228027344,-0.05904197692871094,0.0015779286623001099
1772812399630670300,7.39167041015625,0.042883872985839844,-0.054192960262298584,0.01394304633140564
1772812399640371200,7.40137109375,0.009067535400390625,-0.0789804458618164,0.009472846984863281
1772812399650071800,7.41107177734375,-0.020660400390625,-0.09989270567893982,0.024165108799934387
1772812399659772400,7.4207724609375,-0.06399917602539062,-0.09104812145233154,-0.014930889010429382
1772812399669473300,7.430473388671875,-0.05719566345214844,-0.06383562088012695,-0.011952266097068787
1772812399679174000,7.440173828125,-0.06694984436035156,-0.013225972652435303,-0.01786595582962036
1772812399688874800,7.449874755859375,-0.10239791870117188,0.018410086631774902,0.009282737970352173
1772812399698575400,7.459575439453125,-0.09369182586669922,0.016305744647979736,0.04412268102169037
1772812399708276200,7.469276123046875,-0.08981704711914062,0.03373119235038757,0.08094416558742523
1772812399717976800,7.478976806640625,-0.07184219360351562,0.04963362216949463,0.07569567859172821
1772812399727677700,7.488677734375,-0.07884788513183594,0.05084395408630371,0.07085447013378143
1772812399737378300,7.49837841796875,-0.07865524291992188,0.037664592266082764,0.053644418716430664
1772812399747079200,7.5080791015625,-0.06902885437011719,0.024291396141052246,0.026271343231201172
1772812399756779800,7.51777978515625,-0.014862060546875,0.007611393928527832,0.0338117778301239
1772812399766480600,7.527480712890625,0.02894115447998047,-0.03822395205497742,0.04264317452907562
1772812399776181200,7.53718115234375,0.07668399810791016,-0.051667749881744385,0.02721242606639862
1772812399785882000,7.546882080078125,0.06359100341796875,-0.04840213060379028,-0.00930759310722351
1772812399795582700,7.556582763671875,0.028333663940429688,-0.04370155930519104,-0.03471681475639343
1772812399805283300,7.566283447265625,-0.029852867126464844,-0.04732915759086609,-0.07791963964700699
1772812399814984200,7.575984130859375,-0.0870218276977539,-0.0607546865940094,-0.09676341712474823
1772812399824684800,7.585684814453125,-0.13375568389892578,-0.01722124218940735,-0.12327159941196442
1772812399834385700,7.5953857421875,-0.13026714324951172,0.0009673535823822021,-0.09571433812379837
1772812399853787100,7.614787109375,-0.02625274658203125,-0.05290156602859497,0.0164889395236969
1772812399863487700,7.62448779296875,0.04720115661621094,0.01458922028541565,0.027744919061660767
1772812399873188600,7.634188720703125,0.08527851104736328,0.06247788667678833,0.035465165972709656
1772812399882889200,7.64388916015625,0.09447479248046875,0.06437543034553528,0.036880508065223694
1772812399892590000,7.653590087890625,0.09762859344482422,0.0870751142501831,0.02151302993297577
1772812399902290700,7.663290771484375,0.03954792022705078,0.09881061315536499,-0.0051605552434921265
1772812399911991600,7.672991455078125,0.02715587615966797,0.0812520980834961,0.002674579620361328
1772812399921692200,7.682692138671875,0.04203319549560547,0.07594704627990723,0.025725677609443665
1772812399931392800,7.692392822265625,0.03194713592529297,0.06708291172981262,0.0181075781583786
1772812399941093600,7.70209375,0.016141891479492188,0.02390238642692566,0.046763837337493896
1772812399950794200,7.711794189453125,0.013522148132324219,-0.00022742152214050293,0.05842465162277222
1772812399960495000,7.7214951171875,0.01563739776611328,0.006053656339645386,0.04376012086868286
1772812399970195700,7.73119580078125,0.04595375061035156,0.00011339783668518066,0.04973168671131134
1772812399979896600,7.740896484375,0.04988670349121094,0.010793924331665039,0.02859337627887726
1772812399989597200,7.75059716796875,0.04786491394042969,0.016852468252182007,0.02146977186203003
1772812399999298000,7.760298095703125,0.045886993408203125,0.009236961603164673,-0.003866255283355713
1772812400008998700,7.76999853515625,0.03571033477783203,0.045719027519226074,-0.03880271315574646
1772812400018699300,7.77969921875,0.020984649658203125,0.06261861324310303,-0.03751881420612335
1772812400028400000,7.789400146484375,0.04881763458251953,0.015867888927459717,0.0002792924642562866
1772812400038100700,7.799100830078125,0.030244827270507812,-0.015152961015701294,0.04949551820755005
1772812400047801600,7.808801513671875,0.007228851318359375,-0.025836259126663208,0.05670514702796936
1772812400057502200,7.818502197265625,-0.02716350555419922,-0.01899886131286621,0.030139580368995667
1772812400067203000,7.828203125,-0.08799362182617188,0.015486717224121094,-0.0510161817073822
1772812400076903700,7.837903564453125,-0.11594963073730469,0.0679614245891571,-0.14012199640274048
1772812400086604500,7.8476044921875,-0.11864089965820312,0.12336242198944092,-0.1772240251302719
1772812400096305200,7.85730517578125,-0.09888648986816406,0.08350318670272827,-0.14786458015441895
1772812400106006000,7.867006103515625,-0.06652069091796875,0.007440119981765747,-0.06699255108833313
1772812400115706600,7.87670654296875,0.008810997009277344,-0.05605378746986389,-0.008234038949012756
1772812400125407500,7.886407470703125,0.07224178314208984,-0.1015293300151825,0.03272631764411926
1772812400135108000,7.896108154296875,0.11337089538574219,-0.1297619640827179,0.03806684911251068
1772812400144809000,7.90580908203125,0.12434196472167969,-0.09370821714401245,0.03099094331264496
1772812400154509600,7.915509521484375,0.1162557601928711,-0.042069852352142334,0.031085550785064697
1772812400164210400,7.92521044921875,0.08710193634033203,-0.010648578405380249,0.05620691180229187
1772812400173911000,7.9349111328125,0.03138160705566406,0.029017657041549683,0.06399129331111908
1772812400183611600,7.944611572265625,-0.03984642028808594,0.06343632936477661,0.06163914501667023
1772812400193312500,7.9543125,-0.06867313385009766,0.08319896459579468,0.08657068014144897
1772812400203013000,7.96401318359375,-0.10402774810791016,0.08503970503807068,0.08130744099617004
1772812400212714000,7.9737138671875,-0.10110282897949219,0.0808260589838028,0.07924222946166992
1772812400222414600,7.98341455078125,-0.11702346801757812,0.08783082664012909,0.07691745460033417
1772812400232115500,7.993115478515625,-0.07031536102294922,0.040990740060806274,0.06408923864364624
1772812400241816000,8.002816162109376,-0.025564193725585938,0.02091813087463379,0.04706689715385437
1772812400251516700,8.0125166015625,0.0031290054321289062,-0.006082743406295776,0.04138916730880737
1772812400261217500,8.022217529296874,0.039577484130859375,-0.023195117712020874,0.0018834024667739868
1772812400270918100,8.031918212890625,0.06599140167236328,-0.032290637493133545,-0.03583475947380066
1772812400280619000,8.041618896484374,0.06841850280761719,-0.0430237352848053,-0.05789707601070404
1772812400290319600,8.051319580078125,0.06725502014160156,-0.06044113636016846,-0.06252211332321167
1772812400300020500,8.0610205078125,0.06609439849853516,-0.057143986225128174,-0.10167635232210159
1772812400309721000,8.07072119140625,0.014337539672851562,-0.06055733561515808,-0.08602598309516907
1772812400319422000,8.080421875,0.016356468200683594,-0.0714418888092041,-0.05119609832763672
1772812400329122600,8.09012255859375,-0.031068801879882812,-0.11041119694709778,-0.029948607087135315
1772812400338823400,8.099823486328125,-0.03649425506591797,-0.079877108335495,-0.021367385983467102
1772812400348524000,8.10952392578125,-0.060631752014160156,-0.05390399694442749,-0.007043927907943726
1772812400358225000,8.119224853515625,-0.07021427154541016,-0.006273150444030762,0.0022332221269607544
1772812400367925500,8.128925537109374,-0.0548858642578125,0.022882729768753052,-0.005525335669517517
1772812400377626400,8.13862646484375,-0.059782981872558594,0.03835758566856384,-0.020045146346092224
1772812400387327000,8.148326904296875,-0.057524681091308594,0.055527448654174805,0.005059003829956055
1772812400397027600,8.158027587890626,-0.018827438354492188,0.04915836453437805,0.04648832976818085
1772812400406728400,8.167728515625,0.03565692901611328,0.012689650058746338,0.11001263558864594
1772812400416429000,8.177428955078126,0.048020362854003906,-0.0219251811504364,0.1312502920627594
1772812400426130000,8.1871298828125,0.08485221862792969,-0.040704429149627686,0.09982240200042725
1772812400435830500,8.19683056640625,0.1022186279296875,0.0021581649780273438,0.0461626797914505
1772812400445531400,8.206531494140625,0.08398628234863281,0.006327778100967407,-0.005269452929496765
1772812400455232000,8.21623193359375,0.048419952392578125,-0.012718915939331055,-0.05083112418651581
1772812400464932600,8.2259326171875,-0.007702827453613281,-0.010749369859695435,-0.06762275099754333
1772812400474633500,8.235633544921875,-0.0369873046875,-0.0044238269329071045,-0.07302120327949524
1772812400484334000,8.245333984375,-0.0716400146484375,-0.04345318675041199,-0.04798077046871185
1772812400494035000,8.255034912109375,-0.0021839141845703125,-0.025441527366638184,-0.05301550030708313
1772812400503735600,8.264735595703126,-0.008046150207519531,-0.06169646978378296,0.008333444595336914
1772812400513436400,8.2744365234375,0.0120391845703125,-0.10664629936218262,0.01893886923789978
1772812400523137000,8.284136962890624,0.014135360717773438,-0.05738532543182373,0.003974407911300659
1772812400532838000,8.293837890625,-0.019095420837402344,0.0026047229766845703,-0.0429665744304657
1772812400542538500,8.30353857421875,-0.044681549072265625,0.01655399799346924,-0.03158748149871826
1772812400552239400,8.3132392578125,-0.0921640396118164,0.030353307723999023,-0.009194999933242798
1772812400561940000,8.32293994140625,-0.11999702453613281,0.0075190067291259766,0.043803468346595764
1772812400571640800,8.332640869140626,-0.12261581420898438,-0.018583357334136963,0.07325014472007751
1772812400581341400,8.342341552734375,-0.0816354751586914,0.007860630750656128,0.07222078740596771
1772812400591042000,8.3520419921875,-0.04837322235107422,0.05172586441040039,0.0445992648601532
1772812400600743000,8.361742919921875,-0.025048255920410156,0.050722599029541016,0.0017800331115722656
1772812400610443500,8.371443603515624,-0.024448394775390625,0.0692802369594574,-0.011587351560592651
1772812400620144400,8.381144287109375,0.0067138671875,0.025460422039031982,-0.011718004941940308
1772812400629845000,8.390844970703125,0.03849601745605469,-0.06130751967430115,0.016729161143302917
1772812400639545900,8.4005458984375,0.06971454620361328,-0.08039456605911255,0.020274430513381958
1772812400649246500,8.41024658203125,0.13919639587402344,-0.05245646834373474,-0.014621540904045105
1772812400658947300,8.419947265625,0.16393756866455078,-0.046817004680633545,-0.06618554890155792
1772812400668648000,8.42964794921875,0.14114952087402344,-0.04651978611946106,-0.07368366420269012
1772812400678348500,8.4393486328125,0.08812808990478516,-0.013731956481933594,-0.07711586356163025
1772812400688049400,8.44904931640625,0.014797210693359375,-0.023727774620056152,-0.07473106682300568
1772812400697750000,8.45875,-0.034935951232910156,-0.012735933065414429,-0.04960903525352478
1772812400707451000,8.468450927734375,-0.06850147247314453,0.024800032377243042,-0.033831000328063965
1772812400717151500,8.4781513671875,-0.08616828918457031,0.01655617356300354,-0.013243183493614197
1772812400726852400,8.487852294921876,-0.08703041076660156,0.022014319896697998,-0.02087913453578949
1772812400736553000,8.497552978515625,-0.05608177185058594,0.05958166718482971,-0.023251235485076904
1772812400746253600,8.507253662109376,-0.006827354431152344,0.07670509815216064,0.0007177591323852539
1772812400755954400,8.516954345703125,0.016867637634277344,0.07937061786651611,0.04102957248687744
1772812400765655000,8.526655029296874,0.04249763488769531,0.09474244713783264,0.08504003286361694
1772812400775356000,8.53635595703125,0.08181381225585938,0.09918215870857239,0.13069872558116913
1772812400785056500,8.546056396484374,0.09691905975341797,0.08751890063285828,0.11437240242958069
1772812400794757400,8.55575732421875,0.08941268920898438,0.08039972186088562,0.08506545424461365
1772812400804458000,8.5654580078125,0.08789634704589844,0.07521697878837585,0.02782006561756134
1772812400814158800,8.575158935546876,0.03347301483154297,0.06068870425224304,-0.027676507830619812
1772812400823859500,8.584859375,-0.0011920928955078125,0.038603395223617554,-0.05105973780155182
1772812400833560300,8.594560302734376,-0.023509979248046875,-0.00867772102355957,-0.06196512281894684
1772812400843261000,8.604260986328125,-0.0678091049194336,-0.05109784007072449,-0.038775309920310974
1772812400852961800,8.6139619140625,-0.05138206481933594,-0.0915776789188385,-0.03994114696979523
1772812400862662400,8.623662353515625,-0.04700946807861328,-0.0917176902294159,-0.05508267879486084
1772812400872363300,8.63336328125,-0.009774208068847656,-0.08431613445281982,-0.09797127544879913
1772812400882064000,8.64306396484375,-0.00020599365234375,-0.046858519315719604,-0.11562060564756393
1772812400891764500,8.652764404296875,-0.02959728240966797,-0.0053642988204956055,-0.09655333310365677
1772812400901465300,8.66246533203125,-0.05257129669189453,-0.009730339050292969,-0.08704972267150879
1772812400911166000,8.672166015625,-0.059830665588378906,0.016439169645309448,-0.05044260621070862
1772812400920866600,8.681866455078126,-0.058714866638183594,0.010339230298995972,-0.005014240741729736
1772812400930567400,8.6915673828125,-0.04231548309326172,0.005217492580413818,0.031489238142967224
1772812400940268000,8.70126806640625,0.0138092041015625,0.01342684030532837,0.0434308797121048
1772812400949969000,8.710968994140625,0.057211875915527344,0.026779383420944214,0.08451472222805023
1772812400959669500,8.72066943359375,0.11397361755371094,0.019879072904586792,0.08902005851268768
1772812400969370400,8.730370361328125,0.1285724639892578,0.014011651277542114,0.09626403450965881
1772812400979071000,8.740071044921875,0.13934612274169922,0.030451714992523193,0.08688659965991974
1772812400988771800,8.749771728515626,0.1087198257446289,0.007275104522705078,0.07419174909591675
1772812400998472400,8.759472412109375,0.07856369018554688,0.010085076093673706,0.06551136076450348
1772812401008173300,8.76917333984375,0.057132720947265625,0.017364293336868286,0.0454833060503006
1772812401017874000,8.7788740234375,0.0889883041381836,0.012071460485458374,0.001598075032234192
1772812401027574800,8.78857470703125,0.03674030303955078,-0.010463088750839233,-0.017416387796401978
1772812401037275400,8.798275390625,0.001789093017578125,-0.0241718590259552,-0.006298631429672241
1772812401046976300,8.807976318359374,-0.012579917907714844,-0.048629313707351685,-0.02521631121635437
1772812401056676900,8.8176767578125,-0.09845447540283203,-0.026640117168426514,-0.05508860945701599
1772812401066377700,8.827377685546875,-0.1440134048461914,0.005291730165481567,-0.048145681619644165
1772812401076078300,8.837078369140626,-0.1557941436767578,0.007867932319641113,-0.01607830822467804
1772812401085779000,8.846779052734375,-0.16849994659423828,-0.0005607008934020996,-0.010793030261993408
1772812401095479800,8.856479736328126,-0.14681053161621094,0.0029636025428771973,0.02728632092475891
1772812401105180400,8.866180419921875,-0.059554100036621094,0.022157222032546997,0.04184463620185852
1772812401114881300,8.87588134765625,0.021564483642578125,0.054228365421295166,-0.0020507872104644775
1772812401124582000,8.885581787109375,0.11424732208251953,0.05296212434768677,-0.055258288979530334
1772812401134282500,8.895282470703124,0.11120033264160156,0.03092607855796814,-0.07841891050338745
1772812401143983400,8.9049833984375,0.1257944107055664,0.007512480020523071,-0.07109017670154572
1772812401153684000,8.91468408203125,0.08010673522949219,0.03661704063415527,0.0024144351482391357
1772812401163384800,8.924384765625,0.05633544921875,0.06506180763244629,0.1014750599861145
1772812401173085400,8.93408544921875,0.09996700286865234,0.003804326057434082,0.1421729326248169
1772812401182786300,8.943786376953126,0.10868072509765625,-0.11347201466560364,0.10628877580165863
1772812401192487000,8.95348681640625,0.09482479095458984,-0.15298303961753845,0.045621201395988464
1772812401202187800,8.963187744140624,0.07176017761230469,-0.03521913290023804,-0.011953458189964294
1772812401211888400,8.972888427734375,0.027935028076171875,0.08896011114120483,-0.0532291978597641
1772812401221589200,8.98258935546875,-0.052738189697265625,0.0898648202419281,-0.028236106038093567
1772812401231289900,8.992289794921875,-0.13904380798339844,0.02578902244567871,-0.01833079755306244
1772812401240990500,9.001990478515625,-0.25795650482177734,0.001740872859954834,0.021542221307754517
1772812401250691300,9.01169140625,-0.24655723571777344,0.031234949827194214,0.04357066750526428
1772812401260392000,9.021391845703125,-0.20468616485595703,0.07005926966667175,0.014656782150268555
1772812401270092800,9.0310927734375,-0.14348888397216797,0.05938291549682617,0.048280537128448486
1772812401279793400,9.04079345703125,-0.09508609771728516,-0.03200232982635498,0.07781648635864258
1772812401289494300,9.050494384765624,-0.058116912841796875,-0.1043638288974762,0.051215752959251404
1772812401299195000,9.06019482421875,0.033501625061035156,-0.028927147388458252,0.027140691876411438
1772812401308895700,9.069895751953124,0.1306304931640625,0.02542126178741455,-0.05262542515993118
1772812401318596400,9.079596435546875,0.17667484283447266,0.0074513256549835205,-0.07074278593063354
1772812401328297200,9.089297119140625,0.15718650817871094,-0.03371557593345642,-0.05450284481048584
1772812401337997800,9.098997802734376,0.14739990234375,-0.022141605615615845,-0.06537935137748718
1772812401347698400,9.108698486328125,0.07189464569091797,0.05890840291976929,-0.08953520655632019
1772812401357399300,9.1183994140625,-0.031722068786621094,0.07213003933429718,-0.09428340941667557
1772812401367100000,9.128099853515625,-0.12883758544921875,0.06365230679512024,-0.06467990577220917
1772812401376800800,9.13780078125,-0.2042551040649414,0.04415038228034973,-0.0357213020324707
1772812401386501400,9.14750146484375,-0.2512674331665039,0.04000294208526611,-0.006158217787742615
1772812401396202000,9.157201904296874,-0.21385955810546875,0.06415346264839172,-0.025882139801979065
1772812401405902800,9.16690283203125,-0.17935943603515625,0.0736863911151886,-0.01388317346572876
1772812401415603500,9.176603515625,-0.14422321319580078,0.06277590990066528,0.040475115180015564
1772812401425304300,9.18630419921875,-0.07907867431640625,0.045559078454971313,0.09309408068656921
1772812401435005000,9.1960048828125,-0.047987937927246094,-0.011417359113693237,0.16432251036167145
1772812401444705800,9.205705810546876,0.0013608932495117188,-0.03350135684013367,0.2640516757965088
1772812401454406400,9.215406494140625,0.06983661651611328,-0.010379523038864136,0.32057058811187744
1772812401473808000,9.234807861328125,0.13664722442626953,-0.055486321449279785,0.20542846620082855
1772812401483508700,9.2445087890625,0.200347900390625,-0.05562540888786316,0.05014067888259888
1772812401493209300,9.254209228515625,0.14765167236328125,-0.04592546820640564,-0.07141530513763428
1772812401502910200,9.26391015625,0.1393871307373047,-0.0035144686698913574,-0.15670566260814667
1772812401512610800,9.27361083984375,0.13246631622314453,0.025238722562789917,-0.19134433567523956
1772812401522311400,9.2833115234375,0.07627105712890625,0.02768692374229431,-0.17813682556152344
1772812401532012300,9.29301220703125,0.03397655487060547,-0.0049391090869903564,-0.15391279757022858
1772812401541713000,9.302712890625,-0.008786201477050781,-0.030644208192825317,-0.07627685368061066
1772812401551413800,9.312413818359374,0.02565765380859375,-0.04727482795715332,-0.018902316689491272
1772812401561114400,9.3221142578125,0.09484004974365234,-0.009634286165237427,-0.06719814240932465
1772812401570815200,9.331815185546875,0.011137008666992188,-0.030153900384902954,-0.12646764516830444
1772812401580515800,9.341515869140625,0.0018100738525390625,-0.033798813819885254,-0.1453186571598053
1772812401590216700,9.351216796875,-0.015624046325683594,-0.03205975890159607,-0.10826119780540466
1772812401599917300,9.360917236328126,-0.058704376220703125,-0.046386510133743286,-0.023612484335899353
1772812401609618000,9.370617919921875,0.021292686462402344,-0.01934763789176941,0.03574052453041077
1772812401619318800,9.38031884765625,0.03632068634033203,0.0046908557415008545,0.06326188147068024
1772812401629019400,9.390019287109375,0.04977607727050781,0.020621508359909058,0.14854246377944946
1772812401638720000,9.399719970703124,0.14290332794189453,0.03547292947769165,0.123714879155159
1772812401648420900,9.4094208984375,0.1673593521118164,0.07298755645751953,0.06902360916137695
1772812401658121500,9.41912158203125,0.11962318420410156,0.044141918420791626,0.024602383375167847
1772812401667822300,9.428822265625,0.033939361572265625,0.04818686842918396,0.0024007409811019897
1772812401677523000,9.43852294921875,-0.01838207244873047,0.05566534399986267,-0.047281861305236816
1772812401687223800,9.448223876953126,-0.1508636474609375,0.05505657196044922,-0.11384696513414383
1772812401696924400,9.45792431640625,-0.24208545684814453,0.04900425672531128,-0.12517745792865753
1772812401706625300,9.467625244140624,-0.26094532012939453,0.07508581876754761,-0.12542200088500977
1772812401716326000,9.477325927734375,-0.18282032012939453,0.021789759397506714,-0.12416885793209076
1772812401726026800,9.48702685546875,-0.32599544525146484,-0.005939066410064697,-0.008123785257339478
1772812401735727400,9.496727294921875,-0.14099884033203125,-0.12043535709381104,0.06546193361282349
1772812401745428200,9.50642822265625,-0.10288715362548828,-0.1765539050102234,0.13715296983718872
1772812401755128800,9.51612890625,0.12259101867675781,-0.22600308060646057,0.11574530601501465
1772812401764829400,9.525829345703125,0.22990798950195312,-0.14869755506515503,0.1167159378528595
1772812401774530300,9.5355302734375,0.3282146453857422,-0.028555721044540405,0.05382683873176575
1772812401784231000,9.54523095703125,0.37429046630859375,0.06237363815307617,-0.058081358671188354
1772812401793931800,9.554931884765624,0.2819538116455078,0.11031758785247803,-0.12341228127479553
1772812401803632400,9.56463232421875,0.14522838592529297,0.07814541459083557,-0.11252185702323914
1772812401813333200,9.574333251953124,0.053073883056640625,0.04572254419326782,-0.04109621047973633
1772812401823033900,9.584033935546875,0.03305339813232422,0.03985154628753662,0.03687882423400879
1772812401832734700,9.593734619140625,0.038077354431152344,-0.003952980041503906,0.0689707100391388
1772812401842435300,9.603435302734376,-0.031121253967285156,-0.09396615624427795,0.04500222206115723
1772812401852136000,9.613135986328125,-0.06264495849609375,-0.09488704800605774,-0.032282859086990356
1772812401861836800,9.6228369140625,-0.12647342681884766,-0.003573775291442871,-0.11316344141960144
1772812401871537400,9.632537353515625,-0.2055835723876953,0.04008352756500244,-0.1538815051317215
1772812401881238000,9.642238037109376,-0.24794673919677734,-0.016818583011627197,-0.11714006960391998
1772812401890939000,9.65193896484375,-0.26245880126953125,-0.05773100256919861,-0.036043018102645874
1772812401900639500,9.661639404296874,-0.2214336395263672,-0.04740914702415466,0.03020891547203064
1772812401910340400,9.67134033203125,-0.14344120025634766,-0.015704214572906494,0.051238059997558594
1772812401920041000,9.681041015625,-0.026731491088867188,0.031463444232940674,0.06944409012794495
1772812401929741800,9.690741943359376,0.029195785522460938,0.08010086417198181,0.07052505016326904
1772812401939442400,9.7004423828125,0.0006723403930664062,0.1355670988559723,0.10316705703735352
1772812401949143300,9.710143310546876,-0.010852813720703125,0.10674130916595459,0.11848491430282593
1772812401958844000,9.719843994140625,-0.030386924743652344,0.09261047840118408,0.07260271906852722
1772812401968544800,9.729544677734374,-0.035488128662109375,0.05911833047866821,0.029174089431762695
1772812401978245400,9.739245361328125,-0.07466316223144531,0.0439528226852417,0.0004311800003051758
1772812401987946200,9.7489462890625,-0.12140274047851562,0.02928614616394043,0.045035988092422485
1772812401997646800,9.758646728515625,-0.11786746978759766,0.0681050717830658,0.2361885905265808
1772812402007347500,9.768347412109375,0.1022186279296875,0.02896091341972351,0.3639225959777832
1772812402017048300,9.77804833984375,0.0995645523071289,-0.12478169798851013,0.2814286947250366
1772812402026749000,9.7877490234375,0.08035659790039062,-0.26512637734413147,0.17458558082580566
1772812402036449800,9.79744970703125,0.33672142028808594,-0.13474467396736145,-0.07999512553215027
1772812402046150400,9.807150390625,0.23223018646240234,0.05347207188606262,-0.21449892222881317
1772812402055851300,9.816851318359374,0.2294464111328125,0.01540076732635498,-0.2079622447490692
1772812402065552000,9.8265517578125,0.13018131256103516,-0.06432497501373291,-0.14483514428138733
1772812402075252700,9.836252685546874,0.06316089630126953,-0.0742640495300293,-0.06315654516220093
1772812402084953300,9.845953369140625,0.056102752685546875,-0.03931155800819397,-0.10888200998306274
1772812402094654000,9.855654052734375,-0.04493522644042969,-0.03840571641921997,-0.11890769004821777
1772812402104354800,9.865354736328126,-0.10536479949951172,0.021205544471740723,-0.10804420709609985
1772812402114055400,9.875055419921875,-0.134063720703125,0.07261228561401367,-0.06985995173454285
1772812402123756300,9.88475634765625,-0.1339406967163086,0.0760079026222229,-0.04159575700759888
1772812402133457000,9.894456787109375,-0.12438201904296875,0.0689598023891449,0.004153937101364136
1772812402143157500,9.904157470703124,-0.06319999694824219,0.09242385625839233,0.059730738401412964
1772812402152858400,9.9138583984375,0.0345306396484375,0.0843203067779541,0.11960110068321228
1772812402162559000,9.92355908203125,0.08344841003417969,0.017407387495040894,0.18157058954238892
1772812402172259800,9.933259765625,0.12433910369873047,-0.08228963613510132,0.2157948911190033
1772812402181960400,9.94296044921875,0.1197195053100586,-0.09715980291366577,0.20738282799720764
1772812402191661300,9.952661376953126,0.08807182312011719,-0.06891429424285889,0.17610281705856323
1772812402201362000,9.96236181640625,0.08995246887207031,-0.04661041498184204,0.06409519910812378
1772812402211062800,9.972062744140626,0.03776264190673828,0.009406864643096924,-0.018338441848754883
1772812402220763400,9.981763427734375,-0.007620811462402344,0.013950228691101074,-0.06709888577461243
1772812402230464300,9.99146435546875,-0.05692005157470703,-0.06764340400695801,-0.09291145205497742
1772812402240164900,10.001164794921875,-0.1219034194946289,-0.1111481785774231,-0.1183866411447525
1772812402249865500,10.010865478515624,-0.021139144897460938,-0.09221363067626953,-0.10733301192522049
1772812402259566300,10.02056640625,0.012000083923339844,-0.12592262029647827,-0.12311163544654846
1772812402269267000,10.030266845703125,0.059861183166503906,-0.1317993402481079,-0.1684831976890564
1772812402278967800,10.0399677734375,0.13631153106689453,-0.08000272512435913,-0.19668391346931458
1772812402288668400,10.04966845703125,0.07968425750732422,0.0012273192405700684,-0.2251618504524231
1772812402298369300,10.059369384765626,0.10161590576171875,-0.00805974006652832,-0.21380901336669922
1772812402308070000,10.06906982421875,0.05022621154785156,-0.033809781074523926,-0.1868651807308197
1772812402317770800,10.078770751953124,0.007933616638183594,-0.023310959339141846,-0.16395831108093262
1772812402327471400,10.088471435546875,-0.032485008239746094,-0.016052603721618652,-0.11976036429405212
1772812402337172200,10.098172119140624,-0.03225421905517578,-0.05400353670120239,-0.05349808931350708
1772812402346872800,10.107872802734375,-0.035592079162597656,-0.09475114941596985,-0.006822645664215088
1772812402356573400,10.117573486328125,-0.062417030334472656,-0.105521559715271,-0.02343049645423889
1772812402366274300,10.1272744140625,-0.1723194122314453,-0.06003493070602417,-0.08592762053012848
1772812402375975000,10.136974853515625,-0.18379974365234375,-0.06663081049919128,-0.20257912576198578
1772812402385675500,10.146675537109376,-0.1608295440673828,0.05360454320907593,-0.2608497738838196
1772812402395376400,10.15637646484375,-0.16397857666015625,0.10122805833816528,-0.13858039677143097
1772812402405077000,10.166076904296874,-0.2128582000732422,0.08882933855056763,0.04919838905334473
1772812402414777900,10.17577783203125,-0.26904296875,0.01544886827468872,0.26778966188430786
1772812402424478500,10.185478515625,-0.17587757110595703,0.09579545259475708,0.2944530248641968
1772812402434179300,10.195179443359375,-0.12288188934326172,0.23016098141670227,0.3088285028934479
1772812402443880000,10.2048798828125,-0.12015819549560547,0.23368880152702332,0.40572071075439453
1772812402453580500,10.21458056640625,-0.11876964569091797,0.2092071771621704,0.48490869998931885
1772812402463281400,10.224281494140625,0.19550418853759766,0.22454804182052612,0.3753766715526581
