time,seconds_elapsed,z,y,x
1772812431904881000,0.089880859375,-0.00007635809743078426,0.021609341725707054,-0.06681333482265472
1772812431924282000,0.1092822265625,-0.0006872228696011007,-0.00954476185142994,-0.03474293276667595
1772812431933983000,0.11898291015625,-0.00007635809743078426,-0.01718057133257389,-0.013668099418282509
1772812431943683600,0.12868359375,0.003283398225903511,-0.026648975908756256,-0.0029779658652842045
1772812431953384200,0.13838427734375,0.023747367784380913,-0.008933897130191326,0.007101302966475487
1772812431963084800,0.148084716796875,0.04543306678533554,-0.008628465235233307,0.0009926552884280682
1772812431972785700,0.15778564453125,0.0576503649353981,-0.003741546766832471,-0.00603228947147727
1772812431982486300,0.167486328125,0.057955797761678696,-0.014126247726380825,-0.018555017188191414
1772812431992187000,0.177186767578125,0.04329504072666168,-0.016569707542657852,-0.026801692321896553
1772812432001887500,0.186887451171875,0.020082179456949234,0.0011453714687377214,-0.02588539570569992
1772812432011588000,0.196588134765625,-0.0009926552884280682,0.025579962879419327,-0.01672242395579815
1772812432021289000,0.2062890625,-0.01626427471637726,0.03260490670800209,-0.0066431546583771706
1772812432030989600,0.215989501953125,-0.019624030217528343,0.02893971838057041,-0.002672533504664898
1772812432040690200,0.225690185546875,-0.00679587060585618,0.042684175074100494,0.0019089524867013097
1772812432050390800,0.235390869140625,-0.0006872228696011007,0.04451677203178406,0.004046979360282421
1772812432060091400,0.24509130859375,-0.002825249684974551,0.035964664071798325,0.0077121676877141
1772812432069792300,0.254792236328125,-0.007406735327094793,0.018860450014472008,0.003741546766832471
1772812432079492900,0.264492919921875,-0.00679587060585618,0.0023671009112149477,-0.00847574882209301
1772812432089193500,0.274193359375,0.005421424750238657,0.01030834298580885,-0.024663666263222694
1772812432098894300,0.283894287109375,0.009697478264570236,0.007254019379615784,-0.057039499282836914
1772812432108595000,0.293594970703125,0.015500693581998348,0.009086613543331623,-0.07261654734611511
1772812432118295600,0.303295654296875,0.028328854590654373,0.007864884100854397,-0.07719803601503372
1772812432127996200,0.31299609375,0.04024071618914604,0.0017562361899763346,-0.06742420047521591
1772812432137696800,0.32269677734375,0.04146244749426842,0.004505127668380737,-0.04482220485806465
1772812432147397600,0.332397705078125,0.035964664071798325,0.013362666592001915,-0.014889828860759735
1772812432157098200,0.34209814453125,0.026801692321896553,0.016416991129517555,0.016875140368938446
1772812432166798800,0.351798828125,0.016416991129517555,0.012140937149524689,0.04955640435218811
1772812432176499500,0.36149951171875,0.009392046369612217,0.002672533504664898,0.07460185885429382
1772812432186200000,0.371199951171875,0.007254019379615784,-0.010155626572668552,0.08956804871559143
1772812432195901000,0.38090087890625,0.007254019379615784,-0.013515383005142212,0.08895718306303024
1772812432205601500,0.3906015625,0.010613775812089443,-0.0006872228696011007,0.07826705276966095
1772812432215302100,0.40030224609375,0.013362666592001915,0.010919207707047462,0.05658135190606117
1772812432225002800,0.410002685546875,0.012140937149524689,0.02130390889942646,0.031841326504945755
1772812432234703400,0.419703369140625,0.009086613543331623,0.023136503994464874,0.006490438245236874
1772812432244404200,0.429404296875,0.004505127668380737,0.013668099418282509,-0.01030834298580885
1772812432254104800,0.439104736328125,-0.003741546766832471,0.000839939049910754,-0.01611155830323696
1772812432263805400,0.448805419921875,-0.006490438245236874,-0.0058795735239982605,-0.020387612283229828
1772812432273506300,0.45850634765625,-0.00007635809743078426,-0.0034361144062131643,-0.025579962879419327
1772812432283207000,0.46820703125,0.004505127668380737,-0.0022143847309052944,-0.0243582334369421
1772812432292907500,0.477907470703125,0.004199695307761431,-0.013209951110184193,-0.027717988938093185
1772812432302608100,0.487608154296875,0.005421424750238657,-0.014737112447619438,-0.0295505840331316
1772812432312308700,0.497308837890625,0.01000291109085083,-0.006490438245236874,-0.029245151206851006
1772812432322009600,0.507009521484375,0.01000291109085083,-0.007101302966475487,-0.025579962879419327
1772812432331710200,0.516710205078125,0.006337722297757864,-0.0009926552884280682,-0.017944153398275375
1772812432341410800,0.526410888671875,0.0017562361899763346,0.013057234697043896,0.00007635809743078426
1772812432351111400,0.536111328125,-0.007101302966475487,0.020082179456949234,0.019624030217528343
1772812432360812000,0.54581201171875,-0.014431680552661419,0.01977674663066864,0.03825540840625763
1772812432370513000,0.555512939453125,-0.010155626572668552,0.014889828860759735,0.04864010959863663
1772812432380213500,0.565213623046875,0.0029779658652842045,-0.0012980876490473747,0.04833467677235603
1772812432389914000,0.5749140625,0.01611155830323696,-0.01259908638894558,0.03550651669502258
1772812432399614700,0.58461474609375,0.024663666263222694,-0.013209951110184193,0.013820815831422806
1772812432409315600,0.594315673828125,0.028328854590654373,-0.007406735327094793,-0.009697478264570236
1772812432419016200,0.60401611328125,0.02802342176437378,0.00511599238961935,-0.026190826669335365
1772812432428716800,0.613716796875,0.024052800610661507,0.01672242395579815,-0.027717988938093185
1772812432438417400,0.62341748046875,0.017944153398275375,0.01183550525456667,-0.017944153398275375
1772812432448118300,0.6331181640625,0.01611155830323696,-0.006490438245236874,-0.0035888305865228176
1772812432457819000,0.64281884765625,0.0191658828407526,-0.02084576152265072,0.008323032408952713
1772812432467519500,0.65251953125,0.020693045109510422,-0.02542724646627903,0.01718057133257389
1772812432477220000,0.66222021484375,0.01763872057199478,-0.016875140368938446,0.01259908638894558
1772812432486920700,0.671920654296875,0.013668099418282509,0.0057268571108579636,0.0012980876490473747
1772812432496621600,0.68162158203125,0.007254019379615784,0.020998476073145866,-0.009392046369612217
1772812432506322200,0.691322265625,0.0023671009112149477,0.017027854919433594,-0.01763872057199478
1772812432516022800,0.701022705078125,0.004199695307761431,0.005421424750238657,-0.01672242395579815
1772812432525723400,0.710723388671875,0.00511599238961935,-0.006490438245236874,-0.00755945174023509
1772812432535424000,0.720424072265625,-0.0009926552884280682,-0.0193185992538929,0.00038179047987796366
1772812432545124900,0.730124755859375,-0.007406735327094793,-0.02023489587008953,0.00007635809743078426
1772812432554825500,0.739825439453125,-0.004657844081521034,-0.004657844081521034,-0.008781181648373604
1772812432564526000,0.749526123046875,0.00511599238961935,0.023441936820745468,-0.023136503994464874
1772812432574227000,0.75922705078125,0.01000291109085083,0.04848739132285118,-0.02283107116818428
1772812432583927600,0.768927490234375,0.004199695307761431,0.044211339205503464,-0.010919207707047462
1772812432593628200,0.778628173828125,-0.0009926552884280682,0.024663666263222694,0.00679587060585618
1772812432603328800,0.788328857421875,0.00022907429956831038,0.0011453714687377214,0.022983787581324577
1772812432613029400,0.798029296875,0.0017562361899763346,-0.01718057133257389,0.03275762498378754
1772812432622730200,0.807730224609375,0.0005345066892914474,-0.02328922040760517,0.02848157100379467
1772812432632430800,0.817430908203125,0.004810560029000044,-0.019929463043808937,0.013515383005142212
1772812432642131500,0.82713134765625,0.013973532244563103,-0.006185005884617567,-0.00511599238961935
1772812432651832000,0.83683203125,0.025274530053138733,0.00755945174023509,-0.02283107116818428
1772812432661532700,0.84653271484375,0.025274530053138733,0.02496909722685814,-0.02649625949561596
1772812432671233300,0.8562333984375,0.014889828860759735,0.040546149015426636,-0.02283107116818428
1772812432680934100,0.86593408203125,0.0011453714687377214,0.03840812295675278,-0.011224640533328056
1772812432690634800,0.875634765625,-0.007406735327094793,0.025274530053138733,-0.001450803829357028
1772812432700335400,0.88533544921875,-0.004963276442140341,0.011530072428286076,0.0025198173243552446
1772812432710036000,0.895035888671875,0.003283398225903511,0.0035888305865228176,0.0022143847309052944
1772812432719736800,0.90473681640625,0.004199695307761431,-0.00038179047987796366,-0.007254019379615784
1772812432729437400,0.9144375,0.004505127668380737,-0.0012980876490473747,-0.01824958436191082
1772812432739138000,0.924137939453125,0.006337722297757864,0.003283398225903511,-0.032910339534282684
1772812432748839000,0.9338388671875,0.008781181648373604,0.004810560029000044,-0.04604393243789673
1772812432758539500,0.94353955078125,0.012751801870763302,0.004199695307761431,-0.057039499282836914
1772812432768240000,0.953240234375,0.02130390889942646,0.00603228947147727,-0.06375901401042938
1772812432777940700,0.962940673828125,0.029245151206851006,0.006948587018996477,-0.05948295816779137
1772812432787641300,0.972641357421875,0.0295505840331316,0.004810560029000044,-0.042684175074100494
1772812432797342200,0.98234228515625,0.02588539570569992,0.0017562361899763346,-0.019471315667033195
1772812432807042800,0.992042724609375,0.020693045109510422,-0.004657844081521034,0.004352411720901728
1772812432816743400,1.001743408203125,0.015500693581998348,-0.01107192412018776,0.024205517023801804
1772812432826444000,1.011444091796875,0.01611155830323696,-0.006185005884617567,0.03428478538990021
1772812432836144600,1.02114453125,0.022525638341903687,0.005421424750238657,0.03306305781006813
1772812432845845200,1.03084521484375,0.03138317912817001,0.01183550525456667,0.02542724646627903
1772812432855546000,1.040546142578125,0.03840812295675278,0.012751801870763302,0.013820815831422806
1772812432865246700,1.050246826171875,0.042684175074100494,0.014889828860759735,0.008323032408952713
1772812432874947300,1.059947265625,0.03932442143559456,0.012446369975805283,0.010155626572668552
1772812432884648200,1.069648193359375,0.0295505840331316,-0.005268708802759647,0.014737112447619438
1772812432894348800,1.079348876953125,0.021609341725707054,-0.01626427471637726,0.01779143698513508
1772812432904049400,1.08904931640625,0.017027854919433594,-0.004963276442140341,0.018402300775051117
1772812432913750000,1.09875,0.007864884100854397,0.01030834298580885,0.021151192486286163
1772812432923451000,1.108450927734375,-0.00923932995647192,0.017333287745714188,0.019624030217528343
1772812432933151500,1.1181513671875,-0.01779143698513508,0.025274530053138733,0.014126247726380825
1772812432942852000,1.12785205078125,-0.0193185992538929,0.026801692321896553,0.013820815831422806
1772812432952552700,1.137552734375,-0.02237292192876339,0.014278964139521122,0.013515383005142212
1772812432962253300,1.14725341796875,-0.02023489587008953,0.003894262947142124,0.00923932995647192
1772812432971954000,1.156953857421875,-0.01626427471637726,0.007254019379615784,0.00679587060585618
1772812432981654800,1.16665478515625,-0.01718057133257389,0.007864884100854397,-0.001450803829357028
1772812432991355400,1.17635546875,-0.020540328696370125,0.009086613543331623,-0.007864884100854397
1772812433001056000,1.186055908203125,-0.019929463043808937,0.02283107116818428,-0.013362666592001915
1772812433010756600,1.195756591796875,-0.020540328696370125,0.03138317912817001,-0.011530072428286076
1772812433020457200,1.205457275390625,-0.021456625312566757,0.017944153398275375,-0.005421424750238657
1772812433030158000,1.215157958984375,-0.013209951110184193,0.003894262947142124,0.0019089524867013097
1772812433039858700,1.224858642578125,0.002672533504664898,-0.002825249684974551,0.008628465235233307
1772812433049559300,1.234559326171875,0.015500693581998348,-0.008628465235233307,0.011682788841426373
1772812433059260200,1.24426025390625,0.02283107116818428,-0.01259908638894558,0.008323032408952713
1772812433068960800,1.253960693359375,0.02893971838057041,-0.010155626572668552,0.0025198173243552446
1772812433078661400,1.263661376953125,0.034437503665685654,-0.007406735327094793,-0.004199695307761431
1772812433088362000,1.273362060546875,0.033826638013124466,-0.008017600513994694,-0.003283398225903511
1772812433098062600,1.2830625,0.0322994738817215,-0.010461059398949146,0.008323032408952713
1772812433107763500,1.292763427734375,0.03138317912817001,-0.010461059398949146,0.018096869811415672
1772812433117464000,1.302464111328125,0.025579962879419327,-0.005268708802759647,0.024816380813717842
1772812433127164700,1.31216455078125,0.010919207707047462,-0.0031306820455938578,0.024510949850082397
1772812433136865300,1.321865234375,-0.00679587060585618,-0.004352411720901728,0.013820815831422806
1772812433146566000,1.33156591796875,-0.01565340906381607,0.00022907429956831038,-0.002061668550595641
1772812433156266800,1.341266845703125,-0.013209951110184193,0.01000291109085083,-0.018860450014472008
1772812433165967400,1.35096728515625,-0.009850194677710533,0.02130390889942646,-0.026801692321896553
1772812433175668000,1.36066796875,-0.010766491293907166,0.027717988938093185,-0.020998476073145866
1772812433185368600,1.37036865234375,-0.013209951110184193,0.02283107116818428,-0.00603228947147727
1772812433195069400,1.3800693359375,-0.01626427471637726,0.004810560029000044,0.010766491293907166
1772812433204770000,1.38977001953125,-0.016875140368938446,-0.018402300775051117,0.01779143698513508
1772812433214470700,1.399470703125,-0.016569707542657852,-0.022678354755043983,0.012293653562664986
1772812433224171300,1.409171142578125,-0.012904518283903599,-0.0012980876490473747,0.0077121676877141
1772812433233872100,1.4188720703125,-0.012904518283903599,0.017944153398275375,0.007101302966475487
1772812433243572700,1.42857275390625,-0.02390008419752121,0.015500693581998348,0.006185005884617567
1772812433253273300,1.4382734375,-0.03275762498378754,-0.00038179047987796366,0.0034361144062131643
1772812433262974000,1.447973876953125,-0.028787001967430115,0.002061668550595641,0.0031306820455938578
1772812433272674600,1.457674560546875,-0.013820815831422806,0.009392046369612217,0.008017600513994694
1772812433282375400,1.46737548828125,0.00022907429956831038,0.0017562361899763346,0.014126247726380825
1772812433292076000,1.477075927734375,0.007864884100854397,-0.01107192412018776,0.02084576152265072
1772812433301776600,1.486776611328125,0.007864884100854397,-0.004046979360282421,0.033979352563619614
1772812433311477200,1.496477294921875,0.001450803829357028,0.015806125476956367,0.04955640435218811
1772812433321177900,1.506177734375,-0.010766491293907166,0.0191658828407526,0.05841394513845444
1772812433330878700,1.515878662109375,-0.0193185992538929,0.00511599238961935,0.059635672718286514
1772812433340579300,1.525579345703125,-0.020540328696370125,-0.006185005884617567,0.051389001309871674
1772812433350280000,1.535280029296875,-0.014737112447619438,-0.005574141163378954,0.040088001638650894
1772812433359980500,1.54498046875,-0.011682788841426373,-0.005268708802759647,0.026648975908756256
1772812433369681400,1.554681396484375,-0.009850194677710533,-0.0077121676877141,0.010766491293907166
1772812433379382000,1.564382080078125,-0.00954476185142994,-0.005574141163378954,-0.00511599238961935
1772812433389082600,1.57408251953125,-0.014126247726380825,0.002672533504664898,-0.01183550525456667
1772812433398783200,1.583783203125,-0.02176205813884735,0.0066431546583771706,-0.010613775812089443
1772812433408484000,1.593484130859375,-0.02023489587008953,-0.00038179047987796366,-0.00511599238961935
1772812433418184700,1.603184814453125,-0.00954476185142994,-0.009850194677710533,-0.00022907429956831038
1772812433427885300,1.61288525390625,0.0023671009112149477,0.0023671009112149477,0.011988221667706966
1772812433437586000,1.6225859375,0.003283398225903511,0.012446369975805283,0.030925029888749123
1772812433447286500,1.63228662109375,-0.008628465235233307,0.00022907429956831038,0.04711294546723366
1772812433456987100,1.641987060546875,-0.014431680552661419,-0.02176205813884735,0.05566505342721939
1772812433466688000,1.65168798828125,-0.008017600513994694,-0.03000873140990734,0.049861837178468704
1772812433476388600,1.661388671875,-0.0022143847309052944,-0.013820815831422806,0.037949975579977036
1772812433486089200,1.671089111328125,-0.007101302966475487,0.00511599238961935,0.02023489587008953
1772812433495789800,1.680789794921875,-0.016569707542657852,0.015195261687040329,0.005574141163378954
1772812433505490700,1.69049072265625,-0.019013166427612305,0.024052800610661507,-0.003283398225903511
1772812433515191300,1.70019140625,-0.019013166427612305,0.030161447823047638,0.00007635809743078426
1772812433524892000,1.709891845703125,-0.02390008419752121,0.017333287745714188,0.00954476185142994
1772812433534592500,1.719592529296875,-0.022678354755043983,-0.002825249684974551,0.016875140368938446
1772812433544293400,1.72929345703125,-0.00954476185142994,-0.008017600513994694,0.020540328696370125
1772812433553994000,1.738993896484375,-0.0006872228696011007,-0.008933897130191326,0.020540328696370125
1772812433563694600,1.748694580078125,-0.003741546766832471,-0.008933897130191326,0.014431680552661419
1772812433573395200,1.758395263671875,-0.003741546766832471,0.004199695307761431,0.00954476185142994
1772812433583095800,1.768095703125,-0.0016035200096666813,0.012140937149524689,0.0034361144062131643
1772812433592796700,1.777796630859375,-0.0016035200096666813,0.012140937149524689,-0.002672533504664898
1772812433602497300,1.787497314453125,0.001450803829357028,0.005421424750238657,-0.0005345066892914474
1772812433612198000,1.797197998046875,0.007254019379615784,-0.0031306820455938578,-0.00022907429956831038
1772812433621898500,1.8068984375,0.015500693581998348,-0.010461059398949146,-0.0035888305865228176
1772812433631599000,1.81659912109375,0.018860450014472008,-0.008933897130191326,-0.007254019379615784
1772812433641300000,1.826300048828125,0.008781181648373604,-0.003741546766832471,-0.010613775812089443
1772812433651000600,1.83600048828125,-0.007406735327094793,-0.008628465235233307,-0.017333287745714188
1772812433670402000,1.855402099609375,-0.02237292192876339,-0.0016035200096666813,-0.0319940410554409
1772812433680102700,1.8651025390625,-0.01626427471637726,0.002061668550595641,-0.03810269013047218
1772812433689803300,1.87480322265625,-0.006185005884617567,0.008170315995812416,-0.03779725730419159
1772812433699503900,1.88450390625,0.002061668550595641,0.01977674663066864,-0.02649625949561596
1772812433709204500,1.89420458984375,0.004199695307761431,0.020693045109510422,-0.006337722297757864
1772812433718905300,1.9039052734375,0.003283398225903511,0.009086613543331623,0.015347977168858051
1772812433728606000,1.91360595703125,0.0066431546583771706,-0.0031306820455938578,0.037033677101135254
1772812433738306600,1.923306640625,0.011530072428286076,-0.010155626572668552,0.04711294546723366
1772812433748007200,1.933007080078125,0.017027854919433594,-0.008628465235233307,0.046196650713682175
1772812433757707800,1.942707763671875,0.0191658828407526,-0.00038179047987796366,0.039477135986089706
1772812433767408400,1.952408447265625,0.01977674663066864,0.009392046369612217,0.03306305781006813
1772812433777109200,1.962109130859375,0.01824958436191082,0.01672242395579815,0.026038112118840218
1772812433786809900,1.971809814453125,0.014889828860759735,0.012446369975805283,0.02176205813884735
1772812433796510500,1.981510498046875,0.00847574882209301,-0.00007635809743078426,0.02023489587008953
1772812433806211000,1.991211181640625,0.0011453714687377214,-0.012904518283903599,0.013209951110184193
1772812433815912000,2.000911865234375,-0.005574141163378954,-0.013209951110184193,0.0012980876490473747
1772812433825612500,2.010612548828125,-0.011682788841426373,-0.005268708802759647,-0.013057234697043896
1772812433835313200,2.020313232421875,-0.01870773360133171,-0.00038179047987796366,-0.03321577236056328
1772812433845013800,2.030013671875,-0.019013166427612305,0.01672242395579815,-0.048792824149131775
1772812433854714600,2.039714599609375,-0.015958841890096664,0.02893971838057041,-0.05367974191904068
1772812433864415200,2.049415283203125,-0.014126247726380825,0.020387612283229828,-0.045738499611616135
1772812433874115800,2.05911572265625,-0.011682788841426373,0.008170315995812416,-0.02802342176437378
1772812433883816400,2.06881640625,-0.004046979360282421,-0.0058795735239982605,-0.008170315995812416
1772812433893517000,2.07851708984375,0.002061668550595641,-0.022678354755043983,0.008017600513994694
1772812433903218000,2.088218017578125,0.006948587018996477,-0.026648975908756256,0.013515383005142212
1772812433912918500,2.09791845703125,0.017333287745714188,-0.017486004158854485,0.010461059398949146
1772812433922619100,2.107619140625,0.023441936820745468,-0.008628465235233307,0.003741546766832471
1772812433932319700,2.11731982421875,0.023136503994464874,0.0011453714687377214,0.0019089524867013097
1772812433942020400,2.127020263671875,0.020387612283229828,0.009392046369612217,0.0025198173243552446
1772812433951721000,2.136720947265625,0.019471315667033195,0.01183550525456667,0.013515383005142212
1772812433961421800,2.146421875,0.015500693581998348,-0.00038179047987796366,0.02328922040760517
1772812433971122400,2.156122314453125,0.013057234697043896,-0.006490438245236874,0.03245219215750694
1772812433980823300,2.1658232421875,0.01000291109085083,-0.00954476185142994,0.03428478538990021
1772812433990524000,2.17552392578125,0.004199695307761431,-0.013820815831422806,0.03000873140990734
1772812434000224500,2.185224609375,0.000839939049910754,-0.01107192412018776,0.021151192486286163
1772812434009925000,2.194925048828125,0.004199695307761431,0.00022907429956831038,0.010766491293907166
1772812434019625700,2.204625732421875,0.004810560029000044,0.006337722297757864,0.0022143847309052944
1772812434029326300,2.214326416015625,0.0005345066892914474,0.00022907429956831038,-0.004199695307761431
1772812434039027200,2.224027099609375,-0.0019089524867013097,-0.003741546766832471,-0.008170315995812416
1772812434048727800,2.233727783203125,-0.0031306820455938578,-0.0019089524867013097,-0.009086613543331623
1772812434058428400,2.243428466796875,-0.011988221667706966,-0.003741546766832471,-0.004810560029000044
1772812434068129000,2.25312890625,-0.020540328696370125,-0.0025198173243552446,0.0012980876490473747
1772812434077829600,2.26282958984375,-0.018402300775051117,0.00022907429956831038,0.008628465235233307
1772812434087530500,2.272530517578125,-0.007101302966475487,-0.004046979360282421,0.016875140368938446
1772812434097231000,2.282231201171875,0.006337722297757864,-0.015347977168858051,0.02328922040760517
1772812434106931700,2.291931640625,0.013973532244563103,-0.018096869811415672,0.02848157100379467
1772812434116632300,2.30163232421875,0.013362666592001915,-0.017486004158854485,0.031230462715029716
1772812434126333200,2.311333251953125,0.0066431546583771706,-0.015042545273900032,0.026343543082475662
1772812434136033800,2.32103369140625,0.006948587018996477,-0.00007635809743078426,0.021456625312566757
1772812434145734400,2.330734375,0.015500693581998348,0.00603228947147727,0.01779143698513508
1772812434155435000,2.34043505859375,0.020998476073145866,-0.002825249684974551,0.018096869811415672
1772812434165136000,2.350135986328125,0.020082179456949234,-0.019929463043808937,0.018096869811415672
1772812434174836500,2.35983642578125,0.018555017188191414,-0.02695440873503685,0.012293653562664986
1772812434184537000,2.369537109375,0.0191658828407526,-0.020540328696370125,0.0012980876490473747
1772812434194237700,2.37923779296875,0.013057234697043896,-0.00954476185142994,-0.013973532244563103
1772812434203938300,2.388938232421875,0.01030834298580885,0.004199695307761431,-0.025579962879419327
1772812434213639000,2.398638916015625,0.01763872057199478,0.016416991129517555,-0.023747367784380913
1772812434223339800,2.40833984375,0.02496909722685814,0.015500693581998348,-0.01030834298580885
1772812434233040400,2.418040283203125,0.026190826669335365,0.002061668550595641,0.01718057133257389
1772812434242741000,2.427740966796875,0.021609341725707054,-0.01107192412018776,0.049250971525907516
1772812434252441600,2.437441650390625,0.014584396965801716,-0.022983787581324577,0.07154753804206848
1772812434262142500,2.447142578125,0.013057234697043896,-0.024510949850082397,0.07765618711709976
1772812434271843000,2.456843017578125,0.016416991129517555,-0.013820815831422806,0.06910407543182373
1772812434281543700,2.466543701171875,0.020387612283229828,0.0066431546583771706,0.052916161715984344
1772812434291244300,2.476244384765625,0.022220205515623093,0.01977674663066864,0.037033677101135254
1772812434300945200,2.485945068359375,0.01977674663066864,0.01977674663066864,0.025121813639998436
1772812434310645800,2.495645751953125,0.014278964139521122,0.010613775812089443,0.02328922040760517
1772812434320346400,2.505346435546875,0.0057268571108579636,0.0029779658652842045,0.027870705351233482
1772812434330047000,2.515046875,-0.0034361144062131643,-0.004046979360282421,0.028176138177514076
1772812434339747600,2.52474755859375,-0.006185005884617567,-0.005574141163378954,0.022983787581324577
1772812434349448200,2.5344482421875,-0.006185005884617567,-0.005268708802759647,0.015958841890096664
1772812434359149000,2.544149169921875,-0.0058795735239982605,-0.006185005884617567,0.010155626572668552
1772812434368849700,2.553849609375,-0.004657844081521034,-0.003741546766832471,0.003741546766832471
1772812434378550300,2.56355029296875,-0.0034361144062131643,0.004810560029000044,0.0006872228696011007
1772812434388251000,2.5732509765625,-0.0019089524867013097,0.012751801870763302,0.0019089524867013097
1772812434397951500,2.582951416015625,-0.0058795735239982605,0.014278964139521122,0.0058795735239982605
1772812434407652400,2.59265234375,-0.0077121676877141,0.016416991129517555,0.012293653562664986
1772812434417353000,2.60235302734375,-0.004046979360282421,0.017027854919433594,0.025732679292559624
1772812434427053600,2.612053466796875,0.0011453714687377214,0.01030834298580885,0.03825540840625763
1772812434436754400,2.62175439453125,0.01000291109085083,0.006337722297757864,0.04558578506112099
1772812434446455000,2.631455078125,0.020387612283229828,-0.00007635809743078426,0.04589121788740158
1772812434456155600,2.64115576171875,0.023441936820745468,-0.008017600513994694,0.04039343446493149
1772812434465856300,2.650856201171875,0.02283107116818428,-0.01259908638894558,0.02695440873503685
1772812434475556900,2.660556884765625,0.020387612283229828,-0.0058795735239982605,0.008628465235233307
1772812434485257500,2.670257568359375,0.01672242395579815,-0.00007635809743078426,-0.00847574882209301
1772812434494958300,2.679958251953125,0.010919207707047462,0.004505127668380737,-0.02588539570569992
1772812434504659000,2.689658935546875,0.00847574882209301,0.013973532244563103,-0.0371863916516304
1772812434514359600,2.699359619140625,0.0066431546583771706,0.01611155830323696,-0.03962985426187515
1772812434524060200,2.70906005859375,0.00022907429956831038,0.010919207707047462,-0.0371863916516304
1772812434533760800,2.7187607421875,-0.0019089524867013097,0.01763872057199478,-0.02496909722685814
1772812434543461600,2.728461669921875,-0.002825249684974551,0.023747367784380913,-0.011224640533328056
1772812434553162200,2.738162353515625,-0.005268708802759647,0.017027854919433594,0.0006872228696011007
1772812434562862800,2.74786279296875,-0.005268708802759647,0.003283398225903511,0.005268708802759647
1772812434572563700,2.757563720703125,0.002061668550595641,-0.0034361144062131643,0.004963276442140341
1772812434582264300,2.767264404296875,0.01000291109085083,-0.0016035200096666813,-0.004199695307761431
1772812434591965000,2.77696484375,0.01763872057199478,0.004810560029000044,-0.019471315667033195
1772812434601665500,2.78666552734375,0.021609341725707054,0.004810560029000044,-0.03535379841923714
1772812434611366100,2.7963662109375,0.02283107116818428,0.007864884100854397,-0.044211339205503464
1772812434621066800,2.806066650390625,0.022525638341903687,0.013668099418282509,-0.03993528336286545
1772812434630767600,2.815767578125,0.020693045109510422,0.0029779658652842045,-0.030466880649328232
1772812434640468200,2.82546826171875,0.0191658828407526,-0.005574141163378954,-0.018555017188191414
1772812434650168800,2.8351689453125,0.017944153398275375,-0.0077121676877141,-0.01183550525456667
1772812434659869400,2.844869384765625,0.014584396965801716,-0.0009926552884280682,-0.0066431546583771706
1772812434669570000,2.854570068359375,0.013362666592001915,0.009086613543331623,-0.01000291109085083
1772812434679271000,2.86427099609375,0.01824958436191082,0.014889828860759735,-0.017333287745714188
1772812434688971500,2.873971435546875,0.026190826669335365,0.020082179456949234,-0.02130390889942646
1772812434698672000,2.883672119140625,0.027107125148177147,0.015806125476956367,-0.01824958436191082
1772812434708372700,2.893372802734375,0.015806125476956367,0.002672533504664898,-0.013973532244563103
1772812434718073600,2.903073486328125,-0.00038179047987796366,-0.005268708802759647,-0.010613775812089443
1772812434727774200,2.912774169921875,-0.015347977168858051,-0.011377356946468353,-0.012751801870763302
1772812434737474800,2.922474853515625,-0.027870705351233482,-0.014431680552661419,-0.020998476073145866
1772812434747175400,2.932175537109375,-0.028176138177514076,-0.005574141163378954,-0.029245151206851006
1772812434756876000,2.9418759765625,-0.017486004158854485,0.009697478264570236,-0.03352120518684387
1772812434766577000,2.951576904296875,-0.00923932995647192,0.015806125476956367,-0.027107125148177147
1772812434776277500,2.961277587890625,-0.004963276442140341,0.01611155830323696,-0.012140937149524689
1772812434785978000,2.97097802734375,-0.005574141163378954,0.013668099418282509,0.010766491293907166
1772812434795678700,2.9806787109375,-0.00954476185142994,0.0066431546583771706,0.03428478538990021
1772812434805379300,2.99037939453125,-0.01107192412018776,-0.0006872228696011007,0.04833467677235603
1772812434815080200,3.000080078125,-0.006490438245236874,-0.0022143847309052944,0.05199986323714256
1772812434824780800,3.00978076171875,0.0017562361899763346,-0.0025198173243552446,0.04558578506112099
1772812434834481400,3.0194814453125,0.00755945174023509,-0.002825249684974551,0.03214675933122635
1772812434844182000,3.02918212890625,0.015195261687040329,-0.002825249684974551,0.015042545273900032
1772812434853883000,3.0388828125,0.025579962879419327,-0.006185005884617567,-0.000839939049910754
1772812434863583500,3.04858349609375,0.03168861195445061,-0.007101302966475487,-0.013362666592001915
1772812434873284000,3.0582841796875,0.03321577236056328,-0.004046979360282421,-0.01611155830323696
1772812434882984700,3.067984619140625,0.030466880649328232,-0.0012980876490473747,-0.014889828860759735
1772812434892685300,3.077685302734375,0.025579962879419327,-0.0006872228696011007,-0.0066431546583771706
1772812434902386200,3.08738623046875,0.020998476073145866,-0.004046979360282421,0.006185005884617567
1772812434912086800,3.097086669921875,0.017333287745714188,-0.011377356946468353,0.0193185992538929
1772812434921787400,3.106787353515625,0.018555017188191414,-0.02176205813884735,0.02848157100379467
1772812434931488000,3.116488037109375,0.023136503994464874,-0.028176138177514076,0.029397867619991302
1772812434941188600,3.126188720703125,0.02893971838057041,-0.019929463043808937,0.025121813639998436
1772812434950889200,3.13588916015625,0.03321577236056328,-0.006185005884617567,0.01718057133257389
1772812434960590000,3.145590087890625,0.03168861195445061,0.00511599238961935,0.007101302966475487
1772812434970290700,3.155290771484375,0.02802342176437378,0.015806125476956367,0.006185005884617567
1772812434979991300,3.1649912109375,0.023747367784380913,0.0191658828407526,0.015042545273900032
1772812434999392800,3.184392822265625,0.008781181648373604,-0.00954476185142994,0.04039343446493149
1772812435009093400,3.19409326171875,0.010919207707047462,-0.021151192486286163,0.03917170315980911
1772812435018794000,3.2037939453125,0.018860450014472008,-0.022067490965127945,0.026038112118840218
1772812435028494600,3.21349462890625,0.023441936820745468,-0.0193185992538929,0.004657844081521034
1772812435038195500,3.223195556640625,0.020387612283229828,-0.007406735327094793,-0.01611155830323696
1772812435047896000,3.23289599609375,0.014889828860759735,0.0057268571108579636,-0.03138317912817001
1772812435057596700,3.2425966796875,0.00511599238961935,0.018555017188191414,-0.029856016859412193
1772812435067297300,3.25229736328125,-0.00954476185142994,0.013668099418282509,-0.01763872057199478
1772812435076998000,3.261997802734375,-0.02237292192876339,-0.0009926552884280682,0.0019089524867013097
1772812435086698500,3.271698486328125,-0.026343543082475662,-0.00954476185142994,0.015958841890096664
1772812435096399400,3.2813994140625,-0.026343543082475662,-0.010461059398949146,0.021456625312566757
1772812435106100000,3.291099853515625,-0.026343543082475662,-0.014431680552661419,0.014126247726380825
1772812435115800600,3.300800537109375,-0.02328922040760517,-0.007101302966475487,0.0025198173243552446
1772812435125501200,3.310501220703125,-0.013820815831422806,0.012751801870763302,-0.01000291109085083
1772812435135202000,3.3202021484375,-0.004963276442140341,0.02741255611181259,-0.009392046369612217
1772812435144902700,3.329902587890625,-0.0031306820455938578,0.020998476073145866,-0.0017562361899763346
1772812435154603300,3.339603271484375,-0.0031306820455938578,0.00755945174023509,0.015042545273900032
1772812435164304000,3.349303955078125,0.0005345066892914474,-0.0031306820455938578,0.02909243479371071
1772812435174004500,3.35900439453125,0.007254019379615784,-0.011988221667706966,0.037033677101135254
1772812435183705300,3.368705322265625,0.014278964139521122,-0.019624030217528343,0.03520108386874199
1772812435193406000,3.378406005859375,0.01977674663066864,-0.02023489587008953,0.02237292192876339
1772812435203106600,3.3881064453125,0.02649625949561596,-0.013209951110184193,0.00038179047987796366
1772812435212807200,3.39780712890625,0.027717988938093185,-0.0006872228696011007,-0.020082179456949234
1772812435222507800,3.4075078125,0.024663666263222694,0.010613775812089443,-0.027107125148177147
1772812435232208400,3.41720849609375,0.0191658828407526,0.011530072428286076,-0.020387612283229828
1772812435241909200,3.4269091796875,0.01000291109085083,0.00511599238961935,0.0022143847309052944
1772812435251609900,3.43660986328125,-0.004352411720901728,-0.008017600513994694,0.02328922040760517
1772812435261310500,3.446310546875,-0.015042545273900032,-0.02237292192876339,0.03550651669502258
1772812435271011000,3.456010986328125,-0.019624030217528343,-0.027870705351233482,0.027870705351233482
1772812435280712000,3.4657119140625,-0.02023489587008953,-0.013209951110184193,0.0019089524867013097
1772812435290412500,3.47541259765625,-0.014737112447619438,0.008170315995812416,-0.0322994738817215
1772812435300113200,3.485113037109375,-0.007101302966475487,0.023136503994464874,-0.05826122686266899
1772812435309813800,3.494813720703125,-0.0022143847309052944,0.029245151206851006,-0.0680350661277771
1772812435319514600,3.5045146484375,-0.0012980876490473747,0.0322994738817215,-0.05459604039788246
1772812435329215200,3.51421533203125,-0.0031306820455938578,0.020082179456949234,-0.023747367784380913
1772812435338915800,3.523915771484375,-0.00923932995647192,-0.007406735327094793,0.012904518283903599
1772812435348616400,3.533616455078125,-0.013820815831422806,-0.033979352563619614,0.037033677101135254
1772812435358317000,3.543317138671875,-0.007101302966475487,-0.0397825688123703,0.038560837507247925
1772812435368017700,3.553017578125,0.004810560029000044,-0.018402300775051117,0.02237292192876339
1772812435387419100,3.572419189453125,0.01824958436191082,0.0295505840331316,-0.030161447823047638
1772812435397119700,3.58211962890625,0.017027854919433594,0.0371863916516304,-0.035964664071798325
1772812435406820400,3.5918203125,0.00847574882209301,0.011530072428286076,-0.02893971838057041
1772812435416521200,3.601521240234375,0.003283398225903511,-0.010766491293907166,-0.008781181648373604
1772812435426221800,3.611221923828125,0.001450803829357028,-0.01870773360133171,0.004963276442140341
1772812435435922400,3.62092236328125,0.002061668550595641,-0.013820815831422806,0.010461059398949146
1772812435445623000,3.630623046875,-0.0012980876490473747,-0.0034361144062131643,0.006185005884617567
1772812435455323600,3.64032373046875,-0.005574141163378954,0.012140937149524689,-0.001450803829357028
1772812435465024500,3.6500244140625,-0.008628465235233307,0.027107125148177147,-0.01183550525456667
1772812435474725000,3.65972509765625,-0.00923932995647192,0.03352120518684387,-0.013973532244563103
1772812435484425700,3.66942578125,-0.008017600513994694,0.027717988938093185,-0.0023671009112149477
1772812435494126300,3.679126220703125,-0.009850194677710533,0.007254019379615784,0.011988221667706966
1772812435503827000,3.688826904296875,-0.010155626572668552,0.0005345066892914474,0.025732679292559624
1772812435513527600,3.698527587890625,-0.0077121676877141,0.013668099418282509,0.03367391973733902
1772812435523228400,3.708228515625,-0.0077121676877141,0.023747367784380913,0.03917170315980911
1772812435532929000,3.717928955078125,-0.008017600513994694,0.014584396965801716,0.03886627033352852
1772812435542629600,3.727629638671875,-0.005574141163378954,-0.002825249684974551,0.03000873140990734
1772812435552330200,3.737330322265625,-0.0025198173243552446,-0.01259908638894558,0.011988221667706966
1772812435562031000,3.747031005859375,-0.0031306820455938578,-0.0012980876490473747,-0.014584396965801716
1772812435571731700,3.756731689453125,-0.007406735327094793,0.02741255611181259,-0.03565923124551773
1772812435581432300,3.766432373046875,-0.015958841890096664,0.043600473552942276,-0.04146244749426842
1772812435591133000,3.7761328125,-0.01870773360133171,0.036880962550640106,-0.03321577236056328
1772812435600833500,3.78583349609375,-0.00954476185142994,0.013057234697043896,-0.012751801870763302
1772812435610534400,3.795534423828125,0.004199695307761431,-0.01779143698513508,0.007101302966475487
1772812435620235000,3.805235107421875,0.015195261687040329,-0.04039343446493149,0.011682788841426373
1772812435629935600,3.814935546875,0.021609341725707054,-0.04039343446493149,0.0022143847309052944
1772812435639636200,3.82463623046875,0.020998476073145866,-0.011682788841426373,-0.0191658828407526
1772812435649336800,3.8343369140625,0.014889828860759735,0.021609341725707054,-0.033826638013124466
1772812435659037400,3.844037353515625,0.007864884100854397,0.03260490670800209,-0.03840812295675278
1772812435668738300,3.85373828125,0.009697478264570236,0.0191658828407526,-0.03107774630188942
1772812435678439000,3.86343896484375,0.020082179456949234,-0.006490438245236874,-0.014889828860759735
1772812435688139500,3.873139404296875,0.028328854590654373,-0.029703300446271896,-0.000839939049910754
1772812435697840000,3.882840087890625,0.02802342176437378,-0.03367391973733902,0.0012980876490473747
1772812435707541000,3.892541015625,0.02283107116818428,-0.015042545273900032,-0.008170315995812416
1772812435717241600,3.90224169921875,0.015195261687040329,0.0029779658652842045,-0.020693045109510422
1772812435726942200,3.911942138671875,0.007864884100854397,0.00755945174023509,-0.039018988609313965
1772812435736642800,3.921642822265625,0.004810560029000044,0.014278964139521122,-0.04940368980169296
1772812435746343400,3.931343505859375,0.001450803829357028,0.01977674663066864,-0.04940368980169296
1772812435756044300,3.941044189453125,-0.0077121676877141,0.019471315667033195,-0.03993528336286545
1772812435765745000,3.950744873046875,-0.015347977168858051,0.020387612283229828,-0.015806125476956367
1772812435775445500,3.960445556640625,-0.019013166427612305,0.013973532244563103,0.014431680552661419
1772812435785146000,3.97014599609375,-0.02237292192876339,0.0035888305865228176,0.0345902182161808
1772812435794846700,3.9798466796875,-0.027870705351233482,-0.0009926552884280682,0.041004300117492676
1772812435804547300,3.98954736328125,-0.03245219215750694,-0.00007635809743078426,0.031230462715029716
1772812435814248200,3.999248291015625,-0.03581194952130318,0.004810560029000044,0.00954476185142994
1772812435823948800,4.00894873046875,-0.03581194952130318,0.008781181648373604,-0.01763872057199478
1772812435833649400,4.0186494140625,-0.027870705351233482,0.006948587018996477,-0.03993528336286545
1772812435843350300,4.028350341796875,-0.013820815831422806,0.0035888305865228176,-0.05367974191904068
1772812435853051000,4.03805078125,0.0011453714687377214,0.001450803829357028,-0.0524580143392086
1772812435862751500,4.04775146484375,0.008170315995812416,0.003283398225903511,-0.035964664071798325
1772812435872452000,4.0574521484375,0.011530072428286076,-0.0016035200096666813,-0.015500693581998348
1772812435882152700,4.067152587890625,0.017333287745714188,-0.015042545273900032,0.004963276442140341
1772812435891853600,4.076853515625,0.024663666263222694,-0.024510949850082397,0.015958841890096664
1772812435901554200,4.08655419921875,0.028634287416934967,-0.024510949850082397,0.02176205813884735
1772812435911254800,4.0962548828125,0.026801692321896553,-0.02084576152265072,0.02084576152265072
1772812435920955400,4.105955322265625,0.024663666263222694,-0.013820815831422806,0.01626427471637726
1772812435930656000,4.115656005859375,0.01824958436191082,-0.011988221667706966,0.004657844081521034
1772812435940356600,4.125356689453125,0.009392046369612217,-0.005268708802759647,-0.007864884100854397
1772812435950057500,4.135057373046875,0.0035888305865228176,-0.0022143847309052944,-0.024663666263222694
1772812435959758000,4.144758056640625,0.0017562361899763346,-0.004657844081521034,-0.040546149015426636
1772812435969458700,4.154458740234375,0.00755945174023509,-0.004963276442140341,-0.05826122686266899
1772812435979159300,4.1641591796875,0.017027854919433594,-0.003741546766832471,-0.06620246917009354
1772812435988860200,4.173860107421875,0.020998476073145866,-0.005268708802759647,-0.0631481483578682
1772812435998560800,4.183560791015625,0.018860450014472008,-0.0034361144062131643,-0.0475710928440094
1772812436008261400,4.193261474609375,0.013973532244563103,-0.00679587060585618,-0.018860450014472008
1772812436017962000,4.2029619140625,0.006948587018996477,-0.00923932995647192,0.014126247726380825
1772812436027662600,4.21266259765625,0.00603228947147727,-0.009850194677710533,0.04283689334988594
1772812436037363200,4.22236328125,0.013668099418282509,-0.0077121676877141,0.06085740402340889
1772812436047064000,4.23206396484375,0.020693045109510422,-0.00679587060585618,0.0703258067369461
1772812436056764700,4.2417646484375,0.02496909722685814,-0.008017600513994694,0.06879864633083344
1772812436066465300,4.25146533203125,0.03168861195445061,-0.006185005884617567,0.059635672718286514
1772812436076166000,4.261165771484375,0.032910339534282684,-0.0034361144062131643,0.044669486582279205
1772812436085866500,4.270866455078125,0.02893971838057041,0.0011453714687377214,0.031230462715029716
1772812436095567400,4.2805673828125,0.023441936820745468,0.0066431546583771706,0.019929463043808937
1772812436105268000,4.29026806640625,0.017944153398275375,0.007864884100854397,0.01718057133257389
1772812436114968600,4.299968505859375,0.014584396965801716,0.000839939049910754,0.015347977168858051
1772812436124669200,4.309669189453125,0.017333287745714188,-0.010766491293907166,0.011988221667706966
1772812436134370000,4.3193701171875,0.020998476073145866,-0.016569707542657852,0.0022143847309052944
1772812436144070700,4.329070556640625,0.023441936820745468,-0.015347977168858051,-0.00755945174023509
1772812436153771300,4.338771240234375,0.0191658828407526,-0.009850194677710533,-0.01611155830323696
1772812436163472000,4.348471923828125,0.013668099418282509,-0.0019089524867013097,-0.01977674663066864
1772812436173172500,4.35817236328125,0.0057268571108579636,0.002672533504664898,-0.015500693581998348
1772812436182873000,4.367873046875,-0.00038179047987796366,0.0005345066892914474,-0.0023671009112149477
1772812436192574000,4.377573974609375,-0.003741546766832471,-0.009850194677710533,0.008323032408952713
1772812436202274600,4.387274658203125,-0.0012980876490473747,-0.017486004158854485,0.010766491293907166
1772812436211975200,4.39697509765625,0.00511599238961935,-0.014431680552661419,0.0077121676877141
1772812436221675800,4.40667578125,0.01183550525456667,-0.008628465235233307,0.0031306820455938578
1772812436231376400,4.41637646484375,0.01672242395579815,-0.004046979360282421,-0.0066431546583771706
1772812436241077200,4.4260771484375,0.02283107116818428,-0.004352411720901728,-0.013057234697043896
1772812436250777900,4.43577783203125,0.030772313475608826,-0.00679587060585618,-0.015195261687040329
1772812436260478500,4.445478515625,0.041157014667987823,0.013973532244563103,-0.01000291109085083
1772812436270179000,4.455178955078125,0.04146244749426842,-0.0019089524867013097,-0.0066431546583771706
1772812436279880000,4.4648798828125,0.030772313475608826,-0.007101302966475487,0.0077121676877141
1772812436289580500,4.47458056640625,0.022525638341903687,-0.008017600513994694,0.024816380813717842
1772812436299281200,4.48428125,0.017944153398275375,-0.007101302966475487,0.03886627033352852
1772812436308981800,4.493981689453125,0.020082179456949234,-0.0006872228696011007,0.05230529606342316
1772812436318682400,4.503682373046875,0.021609341725707054,-0.0031306820455938578,0.055970486253499985
1772812436328383000,4.513383056640625,0.017027854919433594,-0.006185005884617567,0.05230529606342316
1772812436338083800,4.523083740234375,0.003894262947142124,-0.013515383005142212,0.03917170315980911
1772812436347784400,4.532784423828125,-0.010766491293907166,-0.011377356946468353,0.018402300775051117
1772812436357485000,4.542485107421875,-0.02176205813884735,-0.002825249684974551,-0.014278964139521122
1772812436367185700,4.552185546875,-0.024510949850082397,0.013057234697043896,-0.04818195849657059
1772812436376886300,4.56188623046875,-0.019624030217528343,0.020998476073145866,-0.07261654734611511
1772812436386587100,4.571587158203125,-0.010155626572668552,0.01183550525456667,-0.08483384549617767
1772812436396287700,4.581287841796875,0.0005345066892914474,-0.0019089524867013097,-0.07506000995635986
1772812436405988400,4.59098828125,0.0066431546583771706,-0.02023489587008953,-0.05612320080399513
1772812436415689000,4.60068896484375,0.006337722297757864,-0.03367391973733902,-0.032910339534282684
1772812436425389800,4.610389892578125,0.001450803829357028,-0.030314164236187935,-0.006337722297757864
1772812436435090400,4.62009033203125,-0.00679587060585618,-0.019929463043808937,0.007406735327094793
1772812436454491600,4.63949169921875,-0.01779143698513508,0.006948587018996477,0.00923932995647192
1772812436464192300,4.649192138671875,-0.019013166427612305,0.015806125476956367,0.0025198173243552446
1772812436473892900,4.658892822265625,-0.019929463043808937,0.018555017188191414,-0.00755945174023509
1772812436483593500,4.668593505859375,-0.019929463043808937,0.021609341725707054,-0.011530072428286076
1772812436493294300,4.67829443359375,-0.024816380813717842,0.021914774551987648,-0.00847574882209301
1772812436502995000,4.687994873046875,-0.033368486911058426,0.013973532244563103,-0.002672533504664898
1772812436512695600,4.697695556640625,-0.04069886729121208,-0.00007635809743078426,0.0034361144062131643
1772812436522396400,4.707396484375,-0.04528035223484039,-0.008933897130191326,0.002825249684974551
1772812436532097000,4.717096923828125,-0.041615162044763565,-0.008628465235233307,-0.0066431546583771706
1772812436541797600,4.726797607421875,-0.033979352563619614,-0.0009926552884280682,-0.01824958436191082
1772812436551498200,4.736498291015625,-0.031230462715029716,0.010613775812089443,-0.026190826669335365
1772812436561198800,4.74619873046875,-0.03153589367866516,0.020082179456949234,-0.026190826669335365
1772812436570899500,4.7558994140625,-0.03520108386874199,0.01977674663066864,-0.017333287745714188
1772812436580600300,4.765600341796875,-0.03886627033352852,0.009392046369612217,-0.003283398225903511
1772812436590301000,4.775301025390625,-0.03672824427485466,-0.003741546766832471,0.009850194677710533
1772812436600001500,4.78500146484375,-0.029397867619991302,-0.008933897130191326,0.015958841890096664
1772812436609702100,4.7947021484375,-0.024205517023801804,-0.004046979360282421,0.012293653562664986
1772812436619402800,4.80440283203125,-0.026343543082475662,0.003283398225903511,0.0009926552884280682
1772812436629103400,4.814103271484375,-0.03000873140990734,0.010613775812089443,-0.009086613543331623
1772812436638804200,4.82380419921875,-0.03520108386874199,0.01672242395579815,-0.0191658828407526
1772812436648504800,4.8335048828125,-0.03917170315980911,0.024052800610661507,-0.020082179456949234
1772812436658205400,4.843205322265625,-0.03520108386874199,0.017944153398275375,-0.013362666592001915
1772812436667906000,4.852906005859375,-0.02328922040760517,-0.00038179047987796366,-0.004810560029000044
1772812436677607000,4.86260693359375,-0.005268708802759647,-0.015958841890096664,-0.002672533504664898
1772812436687307500,4.8723076171875,0.010613775812089443,-0.02390008419752121,-0.00755945174023509
1772812436697008000,4.882008056640625,0.015500693581998348,-0.02084576152265072,-0.015500693581998348
1772812436706708700,4.891708740234375,0.011224640533328056,-0.01107192412018776,-0.025274530053138733
1772812436716409300,4.901409423828125,0.00603228947147727,-0.0009926552884280682,-0.028634287416934967
1772812436726110000,4.91110986328125,0.0017562361899763346,-0.00007635809743078426,-0.024663666263222694
1772812436735810800,4.920810791015625,-0.0009926552884280682,-0.007406735327094793,-0.007864884100854397
1772812436745511400,4.930511474609375,-0.00038179047987796366,-0.011377356946468353,0.011988221667706966
1772812436755212000,4.9402119140625,0.0011453714687377214,-0.008017600513994694,0.030314164236187935
1772812436764912600,4.94991259765625,-0.0034361144062131643,-0.0012980876490473747,0.04222602769732475
1772812436774613500,4.959613525390625,-0.011377356946468353,0.006948587018996477,0.04589121788740158
1772812436784314000,4.969314208984375,-0.018096869811415672,0.008170315995812416,0.03917170315980911
1772812436794014700,4.9790146484375,-0.014126247726380825,0.0029779658652842045,0.021151192486286163
1772812436803715300,4.98871533203125,-0.003741546766832471,-0.007101302966475487,0.00038179047987796366
1772812436813416000,4.998416015625,0.006948587018996477,-0.01626427471637726,-0.023747367784380913
1772812436823116800,5.00811669921875,0.01000291109085083,-0.01779143698513508,-0.04482220485806465
1772812436832817400,5.0178173828125,0.003894262947142124,-0.004046979360282421,-0.050319984555244446
1772812436842518000,5.02751806640625,-0.008933897130191326,0.009086613543331623,-0.04176788032054901
1772812436852218600,5.037218505859375,-0.021456625312566757,0.010613775812089443,-0.023136503994464874
1772812436861919200,5.046919189453125,-0.02328922040760517,0.007254019379615784,-0.002672533504664898
1772812436871619800,5.056619873046875,-0.01626427471637726,0.0029779658652842045,0.013515383005142212
1772812436881320700,5.06632080078125,-0.013209951110184193,-0.002825249684974551,0.0193185992538929
1772812436891021300,5.076021240234375,-0.015042545273900032,-0.010155626572668552,0.011988221667706966
1772812436900722000,5.085721923828125,-0.02176205813884735,-0.007101302966475487,-0.006948587018996477
1772812436910422500,5.095422607421875,-0.025732679292559624,0.002061668550595641,-0.033826638013124466
1772812436920123400,5.105123291015625,-0.022678354755043983,0.012751801870763302,-0.056428633630275726
1772812436929824000,5.114823974609375,-0.011988221667706966,0.013362666592001915,-0.0683404952287674
1772812436939524600,5.124524658203125,-0.0025198173243552446,0.0029779658652842045,-0.06681333482265472
1772812436949225200,5.13422509765625,0.0057268571108579636,-0.002825249684974551,-0.0524580143392086
1772812436958925800,5.14392578125,0.011224640533328056,-0.002825249684974551,-0.03138317912817001
1772812436968626400,5.15362646484375,0.009392046369612217,-0.0025198173243552446,-0.013362666592001915
1772812436978327300,5.163327392578125,0.007254019379615784,0.0011453714687377214,0.0022143847309052944
1772812436988028000,5.17302783203125,0.007254019379615784,0.000839939049910754,0.008628465235233307
1772812436997728500,5.182728515625,0.011530072428286076,-0.002825249684974551,0.004963276442140341
1772812437007429000,5.19242919921875,0.014889828860759735,-0.00679587060585618,-0.0017562361899763346
1772812437017129700,5.202129638671875,0.015806125476956367,-0.0058795735239982605,-0.009697478264570236
1772812437026830300,5.211830322265625,0.012140937149524689,0.0005345066892914474,-0.01824958436191082
1772812437036531200,5.22153125,0.007864884100854397,0.008781181648373604,-0.024663666263222694
1772812437046231800,5.231231689453125,0.0005345066892914474,0.015806125476956367,-0.025274530053138733
1772812437055932400,5.240932373046875,-0.00923932995647192,0.012751801870763302,-0.02283107116818428
1772812437065633300,5.25063330078125,-0.017486004158854485,0.00511599238961935,-0.017944153398275375
1772812437075334000,5.260333984375,-0.02176205813884735,-0.0077121676877141,-0.020693045109510422
1772812437085034500,5.270034423828125,-0.020540328696370125,-0.014737112447619438,-0.0295505840331316
1772812437094735000,5.279735107421875,-0.01626427471637726,-0.01259908638894558,-0.04848739132285118
1772812437104435700,5.289435791015625,-0.012904518283903599,-0.0006872228696011007,-0.06711876392364502
1772812437114136300,5.29913623046875,-0.010155626572668552,0.013362666592001915,-0.07750347256660461
1772812437123837000,5.3088369140625,-0.006185005884617567,0.018555017188191414,-0.07780890166759491
1772812437133537800,5.318537841796875,-0.0034361144062131643,0.010613775812089443,-0.06559160351753235
1772812437143238400,5.32823828125,-0.002825249684974551,-0.004046979360282421,-0.04390590637922287
1772812437152939000,5.33793896484375,-0.0031306820455938578,-0.01779143698513508,-0.023747367784380913
1772812437162639600,5.3476396484375,-0.0019089524867013097,-0.01626427471637726,-0.007864884100854397
1772812437172340500,5.357340576171875,-0.00038179047987796366,-0.0058795735239982605,0.00007635809743078426
1772812437182041000,5.367041015625,-0.0022143847309052944,0.0066431546583771706,-0.00022907429956831038
1772812437191741700,5.37674169921875,-0.0025198173243552446,0.017944153398275375,-0.006337722297757864
1772812437201442300,5.3864423828125,-0.00038179047987796366,0.021609341725707054,-0.00755945174023509
1772812437211143000,5.396142822265625,-0.0025198173243552446,0.011530072428286076,-0.008781181648373604
1772812437220843800,5.40584375,-0.00679587060585618,-0.0009926552884280682,-0.008781181648373604
1772812437230544400,5.41554443359375,-0.011377356946468353,-0.007101302966475487,-0.008781181648373604
1772812437240245000,5.425244873046875,-0.015042545273900032,-0.005268708802759647,-0.012446369975805283
1772812437249945600,5.434945556640625,-0.017486004158854485,-0.004963276442140341,-0.01824958436191082
1772812437259646200,5.444646240234375,-0.02084576152265072,-0.007101302966475487,-0.02588539570569992
1772812437269346800,5.454346923828125,-0.021151192486286163,-0.0034361144062131643,-0.03474293276667595
1772812437279047400,5.46404736328125,-0.01870773360133171,0.003894262947142124,-0.03627009689807892
1772812437288748300,5.473748291015625,-0.018402300775051117,0.001450803829357028,-0.033826638013124466
1772812437298449000,5.483448974609375,-0.02176205813884735,0.0011453714687377214,-0.026801692321896553
1772812437308149500,5.4931494140625,-0.024510949850082397,0.005421424750238657,-0.019471315667033195
1772812437317850400,5.502850341796875,-0.02756527252495289,0.0035888305865228176,-0.01183550525456667
1772812437327551000,5.512551025390625,-0.02909243479371071,-0.0016035200096666813,-0.013057234697043896
1772812437337251600,5.52225146484375,-0.02390008419752121,0.0029779658652842045,-0.01763872057199478
1772812437346952200,5.5319521484375,-0.01259908638894558,0.00755945174023509,-0.02130390889942646
1772812437356652800,5.54165283203125,-0.004352411720901728,0.0005345066892914474,-0.020998476073145866
1772812437366353400,5.551353515625,0.00022907429956831038,-0.00954476185142994,-0.013057234697043896
1772812437376054000,5.561053955078125,0.0035888305865228176,-0.018096869811415672,-0.004505127668380737
1772812437385755000,5.5707548828125,0.006948587018996477,-0.019929463043808937,0.00007635809743078426
1772812437395455500,5.58045556640625,0.01030834298580885,-0.017486004158854485,-0.001450803829357028
1772812437405156000,5.590156005859375,0.015500693581998348,-0.01107192412018776,-0.003283398225903511
1772812437414856700,5.599856689453125,0.015500693581998348,-0.00679587060585618,-0.008170315995812416
1772812437424557600,5.6095576171875,0.006948587018996477,0.002672533504664898,-0.0057268571108579636
1772812437434258200,5.619258056640625,-0.006185005884617567,0.0057268571108579636,-0.002672533504664898
1772812437443958800,5.628958740234375,-0.0193185992538929,-0.0006872228696011007,0.0031306820455938578
1772812437453659400,5.638659423828125,-0.030925029888749123,-0.0077121676877141,0.006490438245236874
1772812437463360000,5.648360107421875,-0.03306305781006813,-0.013515383005142212,0.00007635809743078426
1772812437473060600,5.658060546875,-0.024205517023801804,-0.014737112447619438,-0.01611155830323696
1772812437482761500,5.667761474609375,-0.011377356946468353,-0.009850194677710533,-0.0322994738817215
1772812437492462000,5.677462158203125,0.001450803829357028,0.00022907429956831038,-0.045738499611616135
1772812437502162700,5.68716259765625,0.01000291109085083,0.008781181648373604,-0.0527634471654892
1772812437511863300,5.69686328125,0.01183550525456667,0.007864884100854397,-0.04543306678533554
1772812437521564000,5.70656396484375,0.010919207707047462,-0.004963276442140341,-0.03413207083940506
1772812437531264500,5.716264404296875,0.01030834298580885,-0.016569707542657852,-0.019471315667033195
1772812437540965400,5.72596533203125,0.01000291109085083,-0.024205517023801804,-0.0029779658652842045
1772812437550666000,5.735666015625,0.009086613543331623,-0.024205517023801804,0.00679587060585618
1772812437560366600,5.74536669921875,0.009086613543331623,-0.00923932995647192,0.010461059398949146
1772812437570067200,5.755067138671875,0.00847574882209301,0.0029779658652842045,0.004963276442140341
1772812437579768000,5.76476806640625,0.011530072428286076,0.009697478264570236,-0.002672533504664898
1772812437589468700,5.77446875,0.018555017188191414,0.01030834298580885,-0.01000291109085083
1772812437599169300,5.784169189453125,0.02496909722685814,0.00511599238961935,-0.012446369975805283
1772812437608870000,5.793869873046875,0.026190826669335365,0.001450803829357028,-0.004505127668380737
1772812437618570500,5.803570556640625,0.023441936820745468,-0.0006872228696011007,0.005574141163378954
1772812437628271000,5.81327099609375,0.018860450014472008,0.0023671009112149477,0.018096869811415672
1772812437637972000,5.822971923828125,0.01183550525456667,0.003283398225903511,0.024816380813717842
1772812437647672600,5.832672607421875,0.006337722297757864,0.0057268571108579636,0.024816380813717842
1772812437657373200,5.842373291015625,0.003894262947142124,0.008781181648373604,0.01718057133257389
1772812437667073800,5.85207373046875,0.00511599238961935,0.01183550525456667,0.008323032408952713
1772812437676774400,5.8617744140625,0.00847574882209301,0.017027854919433594,-0.0011453714687377214
1772812437686475300,5.871475341796875,0.012140937149524689,0.018860450014472008,-0.00511599238961935
1772812437696175900,5.88117578125,0.01000291109085083,0.013973532244563103,-0.00603228947147727
1772812437705876500,5.89087646484375,0.008781181648373604,0.010919207707047462,-0.002672533504664898
1772812437715577000,5.9005771484375,0.010919207707047462,0.00603228947147727,-0.002672533504664898
1772812437725277700,5.910277587890625,0.011530072428286076,-0.0022143847309052944,-0.004199695307761431
1772812437734978600,5.919978515625,0.010919207707047462,-0.0058795735239982605,-0.01030834298580885
1772812437744679200,5.92967919921875,0.011530072428286076,-0.00679587060585618,-0.01977674663066864
1772812437754379800,5.9393798828125,0.015500693581998348,-0.007406735327094793,-0.03565923124551773
1772812437764080400,5.949080322265625,0.02130390889942646,0.000839939049910754,-0.04696023091673851
1772812437773781000,5.958781005859375,0.024663666263222694,0.007254019379615784,-0.049709122627973557
1772812437783481600,5.968481689453125,0.023441936820745468,0.004199695307761431,-0.046654798090457916
1772812437793182500,5.978182373046875,0.021609341725707054,-0.0009926552884280682,-0.03657552972435951
1772812437802883000,5.987883056640625,0.020387612283229828,-0.00007635809743078426,-0.025579962879419327
1772812437812583700,5.997583740234375,0.021609341725707054,0.002061668550595641,-0.014584396965801716
1772812437822284300,6.0072841796875,0.020998476073145866,0.0035888305865228176,-0.00603228947147727
1772812437831985200,6.016985107421875,0.017027854919433594,0.004505127668380737,0.0016035200096666813
1772812437841685800,6.026685791015625,0.01183550525456667,-0.0006872228696011007,0.0031306820455938578
1772812437851386400,6.036386474609375,0.007254019379615784,0.000839939049910754,0.0009926552884280682
1772812437861087000,6.0460869140625,0.003894262947142124,0.0066431546583771706,-0.0035888305865228176
1772812437870787600,6.05578759765625,0.004199695307761431,0.01030834298580885,-0.00847574882209301
1772812437880488200,6.06548828125,0.005421424750238657,0.014278964139521122,-0.013668099418282509
1772812437890188800,6.075188720703125,0.0035888305865228176,0.013668099418282509,-0.015806125476956367
1772812437899889700,6.0848896484375,-0.0012980876490473747,0.0057268571108579636,-0.015806125476956367
1772812437909590300,6.09459033203125,-0.0025198173243552446,0.002061668550595641,-0.014584396965801716
1772812437919291000,6.104290771484375,-0.004046979360282421,-0.0031306820455938578,-0.014584396965801716
1772812437928991500,6.113991455078125,-0.009850194677710533,-0.007406735327094793,-0.01672242395579815
1772812437938692400,6.1236923828125,-0.018096869811415672,0.002672533504664898,-0.020998476073145866
1772812437948393000,6.13339306640625,-0.02176205813884735,0.01672242395579815,-0.025274530053138733
1772812437958093600,6.143093505859375,-0.019013166427612305,0.027717988938093185,-0.02588539570569992
1772812437967794200,6.152794189453125,-0.015347977168858051,0.03352120518684387,-0.018555017188191414
1772812437977494800,6.162494873046875,-0.01565340906381607,0.0243582334369421,-0.0057268571108579636
1772812437987195400,6.1721953125,-0.016875140368938446,0.00511599238961935,0.005574141163378954
1772812437996896300,6.181896240234375,-0.014737112447619438,-0.013515383005142212,0.011377356946468353
1772812438006596900,6.191596923828125,-0.010766491293907166,-0.022067490965127945,0.004963276442140341
1772812438016297500,6.20129736328125,-0.004657844081521034,-0.01870773360133171,-0.012140937149524689
1772812438025998000,6.210998046875,0.004505127668380737,-0.008628465235233307,-0.0319940410554409
1772812438035698700,6.22069873046875,0.012446369975805283,0.0029779658652842045,-0.0475710928440094
1772812438045399300,6.2303994140625,0.01824958436191082,0.010919207707047462,-0.054901473224163055
1772812438055100200,6.24010009765625,0.020387612283229828,0.009086613543331623,-0.04604393243789673
1772812438064800800,6.24980078125,0.015806125476956367,0.004199695307761431,-0.02741255611181259
1772812438074501400,6.25950146484375,0.009697478264570236,-0.0025198173243552446,-0.001450803829357028
1772812438084202000,6.269201904296875,0.00755945174023509,-0.008628465235233307,0.021151192486286163
1772812438093902800,6.27890283203125,0.01000291109085083,-0.007101302966475487,0.03550651669502258
1772812438103603500,6.288603515625,0.018555017188191414,-0.004657844081521034,0.034895651042461395
1772812438113304000,6.298303955078125,0.028634287416934967,-0.005574141163378954,0.023594651371240616
1772812438123004700,6.308004638671875,0.03352120518684387,-0.007406735327094793,0.006185005884617567
1772812438132705300,6.317705322265625,0.035964664071798325,-0.005574141163378954,-0.005421424750238657
1772812438142406000,6.327406005859375,0.030772313475608826,-0.005268708802759647,-0.015806125476956367
1772812438152106500,6.3371064453125,0.018555017188191414,-0.0022143847309052944,-0.0191658828407526
1772812438161807400,6.346807373046875,0.0017562361899763346,-0.0025198173243552446,-0.01824958436191082
1772812438171508000,6.356508056640625,-0.01565340906381607,-0.005574141163378954,-0.0191658828407526
1772812438181208600,6.36620849609375,-0.023594651371240616,-0.008628465235233307,-0.021914774551987648
1772812438190909200,6.3759091796875,-0.021151192486286163,-0.008017600513994694,-0.02283107116818428
1772812438200610000,6.385610107421875,-0.01565340906381607,-0.00923932995647192,-0.025274530053138733
1772812438210310700,6.395310546875,-0.008933897130191326,-0.007101302966475487,-0.029856016859412193
1772812438220011300,6.40501123046875,-0.004657844081521034,0.00603228947147727,-0.03321577236056328
1772812438229712000,6.4147119140625,-0.0034361144062131643,0.02130390889942646,-0.02802342176437378
1772812438239412500,6.42441259765625,-0.0031306820455938578,0.02588539570569992,-0.014889828860759735
1772812438249113000,6.434113037109375,-0.0006872228696011007,0.013362666592001915,0.004657844081521034
1772812438258813700,6.443813720703125,0.001450803829357028,-0.013209951110184193,0.021151192486286163
1772812438268514600,6.4535146484375,0.007254019379615784,-0.033979352563619614,0.031230462715029716
1772812438278215200,6.463215087890625,0.015806125476956367,-0.03886627033352852,0.026343543082475662
1772812438287915800,6.472915771484375,0.024663666263222694,-0.02695440873503685,0.011988221667706966
1772812438297616400,6.482616455078125,0.02588539570569992,-0.010155626572668552,-0.007254019379615784
1772812438307317200,6.492317138671875,0.018860450014472008,-0.0031306820455938578,-0.026801692321896553
1772812438317017900,6.502017822265625,0.011224640533328056,-0.004352411720901728,-0.04176788032054901
1772812438326718500,6.511718505859375,0.00603228947147727,-0.0034361144062131643,-0.046654798090457916
1772812438336419000,6.521419189453125,-0.00007635809743078426,-0.00923932995647192,-0.03657552972435951
1772812438346119700,6.53111962890625,-0.007101302966475487,-0.01718057133257389,-0.022525638341903687
1772812438355820300,6.5408203125,-0.012293653562664986,-0.011988221667706966,-0.00511599238961935
1772812438365521200,6.550521240234375,-0.019013166427612305,0.002061668550595641,0.012904518283903599
1772812438375221800,6.5602216796875,-0.024510949850082397,0.01000291109085083,0.026648975908756256
1772812438384922400,6.56992236328125,-0.02084576152265072,0.00603228947147727,0.034895651042461395
1772812438394623000,6.579623046875,-0.011377356946468353,-0.008628465235233307,0.0345902182161808
1772812438404323600,6.589323486328125,-0.002825249684974551,-0.01718057133257389,0.027870705351233482
1772812438414024200,6.599024169921875,-0.0009926552884280682,-0.014431680552661419,0.01626427471637726
1772812438423725000,6.60872509765625,-0.004657844081521034,-0.00679587060585618,0.004046979360282421
1772812438433425700,6.61842578125,-0.009850194677710533,0.0035888305865228176,-0.004810560029000044
1772812438443126300,6.628126220703125,-0.011988221667706966,0.009086613543331623,-0.0035888305865228176
1772812438452827000,6.637826904296875,-0.016569707542657852,0.0057268571108579636,0.00038179047987796366
1772812438462527700,6.64752783203125,-0.02176205813884735,-0.0031306820455938578,0.006185005884617567
1772812438472228400,6.657228271484375,-0.019624030217528343,-0.011377356946468353,0.006490438245236874
1772812438481929000,6.666928955078125,-0.012293653562664986,-0.009850194677710533,0.005574141163378954
1772812438491629600,6.676629638671875,-0.003741546766832471,-0.00007635809743078426,0.0022143847309052944
1772812438501330200,6.686330078125,-0.0022143847309052944,0.01183550525456667,0.004657844081521034
1772812438511030800,6.69603076171875,-0.011377356946468353,0.016416991129517555,0.011988221667706966
1772812438520731400,6.7057314453125,-0.024205517023801804,0.007254019379615784,0.021456625312566757
1772812438530432300,6.715432373046875,-0.03733910992741585,-0.002825249684974551,0.028787001967430115
1772812438540132900,6.7251328125,-0.043142326176166534,-0.007406735327094793,0.029703300446271896
1772812438549833500,6.73483349609375,-0.03733910992741585,-0.0034361144062131643,0.024510949850082397
1772812438559534000,6.7445341796875,-0.02176205813884735,-0.0019089524867013097,0.008323032408952713
1772812438569235000,6.75423486328125,-0.005574141163378954,0.002061668550595641,-0.00511599238961935
1772812438578935600,6.763935546875,0.006948587018996477,0.009697478264570236,-0.010613775812089443
1772812438588636200,6.77363623046875,0.0066431546583771706,0.01000291109085083,-0.007864884100854397
1772812438598336800,6.783336669921875,-0.0025198173243552446,-0.0009926552884280682,0.0022143847309052944
1772812438608037400,6.793037353515625,-0.008933897130191326,-0.01718057133257389,0.012293653562664986
1772812438617738000,6.802738037109375,-0.007406735327094793,-0.02695440873503685,0.01626427471637726
1772812438627438600,6.8124384765625,-0.0016035200096666813,-0.018096869811415672,0.01259908638894558
1772812438637139500,6.822139404296875,-0.00007635809743078426,0.00603228947147727,0.014126247726380825
1772812438646840000,6.831840087890625,-0.006185005884617567,0.012751801870763302,0.013515383005142212
1772812438656540700,6.841540771484375,-0.010461059398949146,0.010919207707047462,0.01718057133257389
1772812438666241300,6.8512412109375,-0.01259908638894558,0.006337722297757864,0.02328922040760517
1772812438675942100,6.860942138671875,-0.01626427471637726,-0.004352411720901728,0.02542724646627903
1772812438685642800,6.870642822265625,-0.01718057133257389,-0.012293653562664986,0.02023489587008953
1772812438695343400,6.88034326171875,-0.011988221667706966,-0.013515383005142212,0.006490438245236874
1772812438705044000,6.8900439453125,-0.006490438245236874,-0.011377356946468353,-0.01183550525456667
1772812438714744600,6.89974462890625,-0.005268708802759647,-0.00923932995647192,-0.03260490670800209
1772812438724445200,6.909445068359375,-0.008323032408952713,0.001450803829357028,-0.043600473552942276
1772812438734145800,6.919145751953125,-0.017486004158854485,0.020693045109510422,-0.03993528336286545
1772812438743846700,6.9288466796875,-0.03550651669502258,0.02802342176437378,-0.020082179456949234
1772812438753547300,6.93854736328125,-0.04741837829351425,0.014584396965801716,0.0058795735239982605
1772812438763247900,6.948247802734375,-0.04405862092971802,-0.004352411720901728,0.026038112118840218
1772812438772948500,6.957948486328125,-0.02848157100379467,-0.010766491293907166,0.040088001638650894
1772812438782649000,6.967649169921875,-0.012293653562664986,-0.0025198173243552446,0.0449749194085598
1772812438792350000,6.977349853515625,-0.0034361144062131643,0.010613775812089443,0.04039343446493149
1772812438802050600,6.987050537109375,-0.0031306820455938578,0.0191658828407526,0.03886627033352852
1772812438811751200,6.996751220703125,-0.007101302966475487,0.014584396965801716,0.0397825688123703
1772812438821451800,7.00645166015625,-0.008323032408952713,-0.00038179047987796366,0.04039343446493149
1772812438831152400,7.01615234375,-0.0025198173243552446,-0.010461059398949146,0.0345902182161808
1772812438840853200,7.025853271484375,0.0066431546583771706,-0.0077121676877141,0.022678354755043983
1772812438850553900,7.035553955078125,0.01000291109085083,-0.00007635809743078426,0.009850194677710533
1772812438860254500,7.04525439453125,0.008170315995812416,0.0017562361899763346,-0.009392046369612217
1772812438869955000,7.054955078125,0.005421424750238657,0.004810560029000044,-0.023136503994464874
1772812438879655700,7.06465576171875,0.004810560029000044,0.008170315995812416,-0.03168861195445061
1772812438889356300,7.074356201171875,0.0029779658652842045,0.01000291109085083,-0.025274530053138733
1772812438899057200,7.08405712890625,-0.007101302966475487,0.0029779658652842045,-0.012446369975805283
1772812438908757800,7.0937578125,-0.014126247726380825,-0.00038179047987796366,0.003741546766832471
1772812438918458400,7.103458251953125,-0.015347977168858051,-0.00679587060585618,0.015042545273900032
1772812438928159000,7.113158935546875,-0.013209951110184193,-0.013515383005142212,0.02023489587008953
1772812438937859600,7.122859619140625,-0.012904518283903599,-0.018402300775051117,0.017486004158854485
1772812438947560400,7.132560546875,-0.013209951110184193,-0.018096869811415672,0.004046979360282421
1772812438957261000,7.142260986328125,-0.00923932995647192,-0.009850194677710533,-0.014889828860759735
1772812438966961700,7.151961669921875,-0.004963276442140341,0.005421424750238657,-0.029245151206851006
1772812438976662300,7.161662353515625,-0.008628465235233307,0.012446369975805283,-0.03810269013047218
1772812438986363000,7.17136279296875,-0.013209951110184193,0.013362666592001915,-0.03840812295675278
1772812438996063500,7.1810634765625,-0.011682788841426373,0.014278964139521122,-0.02802342176437378
1772812439005764000,7.19076416015625,-0.004657844081521034,0.013362666592001915,-0.011530072428286076
1772812439015465000,7.20046484375,0.000839939049910754,0.009697478264570236,0.013820815831422806
1772812439025165600,7.21016552734375,-0.00038179047987796366,0.000839939049910754,0.03520108386874199
1772812439034866200,7.2198662109375,-0.0022143847309052944,-0.010461059398949146,0.04802924394607544
1772812439044566800,7.22956689453125,-0.005574141163378954,-0.013820815831422806,0.04864010959863663
1772812439054267600,7.239267578125,-0.010461059398949146,-0.008323032408952713,0.03153589367866516
1772812439063968300,7.24896826171875,-0.011988221667706966,0.002672533504664898,0.0022143847309052944
1772812439073668900,7.2586689453125,-0.006490438245236874,0.00755945174023509,-0.027107125148177147
1772812439083369500,7.268369384765625,0.0057268571108579636,0.00603228947147727,-0.050930850207805634
1772812439093070000,7.278070068359375,0.01763872057199478,0.007864884100854397,-0.05673406645655632
1772812439102770700,7.287770751953125,0.021609341725707054,0.010919207707047462,-0.04512763395905495
1772812439112471300,7.29747119140625,0.01672242395579815,0.005421424750238657,-0.01977674663066864
1772812439122172200,7.307172119140625,0.01030834298580885,-0.009850194677710533,0.010766491293907166
1772812439131872800,7.316872802734375,0.007254019379615784,-0.02542724646627903,0.030314164236187935
1772812439141573400,7.326573486328125,0.013057234697043896,-0.02756527252495289,0.037033677101135254
1772812439151274000,7.33627392578125,0.020693045109510422,-0.019013166427612305,0.029397867619991302
1772812439160974800,7.345974853515625,0.02649625949561596,-0.007406735327094793,0.01259908638894558
1772812439170675500,7.355675537109375,0.025579962879419327,0.006337722297757864,-0.003283398225903511
1772812439180376000,7.3653759765625,0.023136503994464874,0.014584396965801716,-0.013362666592001915
1772812439190076700,7.37507666015625,0.016416991129517555,0.014278964139521122,-0.01030834298580885
1772812439199777300,7.38477734375,0.007864884100854397,0.0057268571108579636,-0.00022907429956831038
1772812439209478000,7.394477783203125,0.003283398225903511,-0.0016035200096666813,0.01107192412018776
1772812439219178500,7.404178466796875,0.002061668550595641,-0.004046979360282421,0.02023489587008953
1772812439228879400,7.41387939453125,0.0005345066892914474,-0.006185005884617567,0.02084576152265072
1772812439238580000,7.423580078125,-0.0031306820455938578,-0.004352411720901728,0.013820815831422806
1772812439248280600,7.433280517578125,-0.006490438245236874,-0.0009926552884280682,0.0012980876490473747
1772812439257981200,7.442981201171875,-0.008933897130191326,0.003894262947142124,-0.009392046369612217
1772812439267682000,7.45268212890625,-0.007406735327094793,-0.0012980876490473747,-0.023441936820745468
1772812439277382700,7.462382568359375,-0.0016035200096666813,-0.008323032408952713,-0.030161447823047638
1772812439287083300,7.472083251953125,0.004199695307761431,-0.010155626572668552,-0.0322994738817215
1772812439296784000,7.481783935546875,0.010613775812089443,-0.00007635809743078426,-0.025579962879419327
1772812439306484500,7.491484375,0.013362666592001915,0.003894262947142124,-0.013057234697043896
1772812439316185000,7.50118505859375,0.011530072428286076,0.0017562361899763346,0.0019089524867013097
1772812439325885700,7.5108857421875,0.010613775812089443,0.004505127668380737,0.020540328696370125
1772812439335586600,7.520586669921875,0.009392046369612217,0.00022907429956831038,0.034895651042461395
1772812439345287200,7.530287109375,0.006948587018996477,-0.01107192412018776,0.04069886729121208
1772812439354987800,7.53998779296875,0.006337722297757864,-0.01259908638894558,0.03245219215750694
1772812439364688400,7.5496884765625,0.010613775812089443,0.00022907429956831038,0.015347977168858051
1772812439374389000,7.559388916015625,0.014584396965801716,0.013973532244563103,-0.0035888305865228176
1772812439384089900,7.56908984375,0.009086613543331623,0.019471315667033195,-0.014889828860759735
1772812439393790500,7.57879052734375,0.003894262947142124,0.013973532244563103,-0.015806125476956367
1772812439403491000,7.588490966796875,0.004505127668380737,0.004505127668380737,-0.009697478264570236
1772812439413191700,7.598191650390625,0.0023671009112149477,-0.0022143847309052944,0.0019089524867013097
1772812439422892300,7.607892333984375,-0.0012980876490473747,-0.009850194677710533,0.012904518283903599
1772812439432593000,7.617593017578125,-0.004657844081521034,-0.015042545273900032,0.015347977168858051
1772812439442293800,7.627293701171875,-0.004657844081521034,-0.0034361144062131643,0.010461059398949146
1772812439451994400,7.636994384765625,-0.0019089524867013097,0.010919207707047462,0.0006872228696011007
1772812439461695000,7.646695068359375,-0.0025198173243552446,0.01824958436191082,-0.004505127668380737
1772812439471395600,7.6563955078125,-0.005268708802759647,0.008170315995812416,-0.006337722297757864
1772812439481096200,7.66609619140625,-0.004046979360282421,-0.0019089524867013097,-0.004199695307761431
1772812439490796800,7.675796875,0.0011453714687377214,-0.0025198173243552446,-0.004810560029000044
1772812439500497700,7.68549755859375,-0.00007635809743078426,0.001450803829357028,-0.004505127668380737
1772812439510198300,7.6951982421875,-0.007101302966475487,0.007254019379615784,-0.00603228947147727
1772812439519899000,7.70489892578125,-0.011377356946468353,0.009697478264570236,-0.004810560029000044
1772812439529599500,7.714599609375,-0.007101302966475487,0.01000291109085083,-0.0029779658652842045
1772812439539300000,7.724300048828125,-0.0025198173243552446,0.0057268571108579636,0.0025198173243552446
1772812439549001000,7.7340009765625,-0.0031306820455938578,0.00022907429956831038,0.007101302966475487
1772812439558701600,7.74370166015625,-0.008628465235233307,-0.0031306820455938578,0.007406735327094793
1772812439568402200,7.753402099609375,-0.013209951110184193,-0.003741546766832471,0.002825249684974551
1772812439578102800,7.763102783203125,-0.02084576152265072,0.0023671009112149477,-0.003283398225903511
1772812439587803400,7.772803466796875,-0.02328922040760517,0.005421424750238657,-0.013057234697043896
1772812439597504000,7.78250390625,-0.015347977168858051,0.0035888305865228176,-0.019471315667033195
1772812439607204600,7.79220458984375,-0.0031306820455938578,0.006948587018996477,-0.018555017188191414
1772812439616905500,7.801905517578125,0.006337722297757864,0.00603228947147727,-0.012446369975805283
1772812439626606000,7.811606201171875,0.007864884100854397,0.002061668550595641,0.00038179047987796366
1772812439636306700,7.821306640625,0.00755945174023509,-0.0016035200096666813,0.011377356946468353
1772812439646007300,7.83100732421875,0.00511599238961935,-0.004963276442140341,0.019929463043808937
1772812439655708200,7.840708251953125,-0.0031306820455938578,-0.004352411720901728,0.026343543082475662
1772812439665408800,7.85040869140625,-0.013820815831422806,-0.0019089524867013097,0.02848157100379467
1772812439675109400,7.860109375,-0.01779143698513508,-0.005268708802759647,0.027259841561317444
1772812439684810000,7.86981005859375,-0.018096869811415672,-0.0058795735239982605,0.01870773360133171
1772812439694510600,7.879510498046875,-0.008628465235233307,0.0035888305865228176,0.0016035200096666813
1772812439704211200,7.889211181640625,-0.005574141163378954,0.009392046369612217,-0.013362666592001915
1772812439713911800,7.898911865234375,-0.011682788841426373,0.0029779658652842045,-0.02283107116818428
1772812439723612700,7.90861279296875,-0.019013166427612305,0.0017562361899763346,-0.029245151206851006
1772812439733313300,7.918313232421875,-0.024816380813717842,-0.003741546766832471,-0.0319940410554409
1772812439743014000,7.928013916015625,-0.03214675933122635,-0.018096869811415672,-0.03168861195445061
1772812439752714500,7.937714599609375,-0.03886627033352852,-0.01626427471637726,-0.034437503665685654
1772812439762415000,7.9474150390625,-0.03153589367866516,0.0066431546583771706,-0.03932442143559456
1772812439772116000,7.957115966796875,-0.02390008419752121,0.033826638013124466,-0.03352120518684387
1772812439781816600,7.966816650390625,-0.02328922040760517,0.04512763395905495,-0.012140937149524689
1772812439791517200,7.97651708984375,-0.024510949850082397,0.025274530053138733,0.01718057133257389
1772812439801217800,7.9862177734375,-0.024510949850082397,0.000839939049910754,0.04894553869962692
1772812439810918400,7.99591845703125,-0.02237292192876339,-0.013209951110184193,0.06788235157728195
1772812439820619000,8.005618896484375,-0.011377356946468353,-0.016569707542657852,0.0654388889670372
1772812439830319600,8.015319580078126,0.007254019379615784,-0.011377356946468353,0.04528035223484039
1772812439840020500,8.0250205078125,0.02130390889942646,0.0029779658652842045,0.012293653562664986
1772812439849721000,8.03472119140625,0.024663666263222694,0.011530072428286076,-0.020387612283229828
1772812439859421700,8.044421630859375,0.014278964139521122,0.00511599238961935,-0.042684175074100494
1772812439869122300,8.054122314453124,-0.004657844081521034,0.012751801870763302,-0.05612320080399513
1772812439878823200,8.0638232421875,-0.01626427471637726,-0.019624030217528343,-0.06528617441654205
1772812439888523800,8.073523681640625,-0.02328922040760517,-0.04650207981467247,-0.057955797761678696
1772812439898224400,8.083224365234376,-0.015958841890096664,-0.04039343446493149,-0.044211339205503464
1772812439907925000,8.092925048828125,-0.011988221667706966,-0.04833467677235603,-0.028634287416934967
1772812439917625600,8.10262548828125,-0.01718057133257389,-0.022983787581324577,0.0031306820455938578
1772812439927326200,8.112326171875,-0.01626427471637726,-0.019624030217528343,0.031230462715029716
1772812439937026800,8.12202685546875,-0.008017600513994694,-0.04039343446493149,0.06421715766191483
1772812439946727400,8.1317275390625,-0.007406735327094793,-0.04802924394607544,0.09445496648550034
1772812439956428300,8.14142822265625,-0.0077121676877141,-0.057497646659612656,0.10483966767787933
1772812439966129000,8.15112890625,-0.007101302966475487,-0.0397825688123703,0.09506583213806152
1772812439975829500,8.16082958984375,-0.0034361144062131643,-0.011682788841426373,0.07521272450685501
1772812439985530000,8.170530029296875,-0.0012980876490473747,0.02283107116818428,0.05719221383333206
1772812439995231000,8.18023095703125,0.012446369975805283,0.04451677203178406,0.04436405375599861
1772812440004931600,8.189931640625,0.030772313475608826,0.030466880649328232,0.0345902182161808
1772812440014632200,8.199632080078125,0.05001455545425415,-0.004963276442140341,0.030925029888749123
1772812440024332800,8.209332763671876,0.060093823820352554,-0.039477135986089706,0.037033677101135254
1772812440034033400,8.219033447265625,0.04634936526417732,-0.09873101860284805,0.04222602769732475
1772812440043734000,8.228734130859374,0.06223184987902641,-0.06696604937314987,0.06482802331447601
1772812440053434600,8.2384345703125,0.08269581943750381,-0.0193185992538929,0.08193223923444748
1772812440063135500,8.248135498046874,0.08239039033651352,-0.011988221667706966,0.09384410083293915
1772812440072836000,8.257836181640625,0.06895136088132858,-0.03733910992741585,0.09292780607938766
1772812440082536700,8.26753662109375,0.05459604039788246,-0.06360629200935364,0.07673988491296768
1772812440092237300,8.2772373046875,0.04024071618914604,-0.07948877662420273,0.04833467677235603
1772812440101938200,8.286938232421875,0.011224640533328056,-0.09506583213806152,0.006185005884617567
1772812440111638800,8.296638671875,-0.005268708802759647,-0.06238456442952156,-0.03107774630188942
1772812440121339400,8.30633935546875,-0.01565340906381607,-0.0025198173243552446,-0.06223184987902641
1772812440131040000,8.3160400390625,-0.025121813639998436,0.030466880649328232,-0.0836121141910553
1772812440140740600,8.32574072265625,-0.029397867619991302,0.030466880649328232,-0.08422297984361649
1772812440150441200,8.335441162109374,-0.03306305781006813,0.009392046369612217,-0.06956222653388977
1772812440160141800,8.345141845703125,-0.0345902182161808,0.007864884100854397,-0.042684175074100494
1772812440169842400,8.354842529296874,-0.044669486582279205,-0.00038179047987796366,-0.016416991129517555
1772812440179543300,8.364543212890625,-0.05719221383333206,-0.002825249684974551,0.004963276442140341
1772812440189244000,8.374243896484375,-0.060551971197128296,-0.002825249684974551,0.014737112447619438
1772812440198944500,8.383944580078126,-0.05658135190606117,-0.005574141163378954,0.012293653562664986
1772812440208645000,8.39364501953125,-0.0449749194085598,0.009392046369612217,0.006185005884617567
1772812440218346000,8.403345947265626,-0.02909243479371071,0.023747367784380913,-0.003283398225903511
1772812440228046600,8.413046630859375,-0.015347977168858051,0.028634287416934967,-0.01183550525456667
1772812440237747200,8.422747314453124,-0.010155626572668552,0.03657552972435951,-0.014278964139521122
1772812440247447800,8.43244775390625,-0.011377356946468353,0.03840812295675278,-0.008170315995812416
1772812440257148400,8.4421484375,-0.014431680552661419,0.041157014667987823,0.00007635809743078426
1772812440266849000,8.45184912109375,-0.013209951110184193,0.025579962879419327,0.007406735327094793
1772812440276549600,8.461549560546874,-0.004657844081521034,0.0029779658652842045,0.011682788841426373
1772812440286250200,8.471250244140625,0.01030834298580885,-0.02695440873503685,0.011377356946468353
1772812440295951000,8.480951171875,0.020998476073145866,-0.05627591907978058,0.010766491293907166
1772812440305651700,8.490651611328126,0.032910339534282684,-0.08559742569923401,0.0022143847309052944
1772812440315352300,8.500352294921875,0.04482220485806465,-0.06727148592472076,-0.01763872057199478
1772812440325053200,8.51005322265625,0.04940368980169296,-0.015958841890096664,-0.04512763395905495
1772812440334753800,8.51975390625,0.04543306678533554,0.021914774551987648,-0.07017309218645096
1772812440344454400,8.529454345703124,0.03871355578303337,0.041157014667987823,-0.08422297984361649
1772812440354155000,8.539155029296875,0.0319940410554409,0.036880962550640106,-0.07444914430379868
1772812440363855600,8.548855712890624,0.022220205515623093,0.009392046369612217,-0.053374309092760086
1772812440373556200,8.55855615234375,0.011224640533328056,-0.02542724646627903,-0.0243582334369421
1772812440383256800,8.5682568359375,-0.005268708802759647,-0.07246383279561996,0.006185005884617567
1772812440392957400,8.57795751953125,-0.02084576152265072,-0.08926261961460114,0.02695440873503685
