time,seconds_elapsed,z,y,x
1772812431904881000,0.089880859375,0,0,0
1772812431924282000,0.1092822265625,0.03364372253417969,-0.024794548749923706,0.01844482123851776
1772812431933983000,0.11898291015625,0.0118255615234375,-0.0705673098564148,0.038637980818748474
1772812431943683600,0.12868359375,0.0028028488159179688,-0.061967283487319946,-0.014167368412017822
1772812431953384200,0.13838427734375,-0.022600173950195312,-0.00929790735244751,-0.0383579283952713
1772812431963084800,0.148084716796875,-0.061408042907714844,0.01764485239982605,-0.021125540137290955
1772812431972785700,0.15778564453125,-0.09977054595947266,0.02124577760696411,-0.045824646949768066
1772812431982486300,0.167486328125,-0.052448272705078125,0.037529587745666504,0.03484302759170532
1772812431992187000,0.177186767578125,-0.0040225982666015625,0.042569249868392944,0.07639721035957336
1772812432001887500,0.186887451171875,0.01926708221435547,0.003967076539993286,0.15880586206912994
1772812432011588000,0.196588134765625,0.03741931915283203,-0.06510847806930542,0.19823245704174042
1772812432021289000,0.2062890625,0.053282737731933594,-0.07169744372367859,0.1382833570241928
1772812432030989600,0.215989501953125,0.12609100341796875,0.04360714554786682,-0.019100993871688843
1772812432040690200,0.225690185546875,0.097503662109375,0.08518525958061218,-0.03864911198616028
1772812432050390800,0.235390869140625,0.10702323913574219,0.058189570903778076,-0.017704039812088013
1772812432060091400,0.24509130859375,0.06573677062988281,0.010159105062484741,-0.030355781316757202
1772812432069792300,0.254792236328125,0.01006317138671875,0.00020807981491088867,-0.07446262240409851
1772812432079492900,0.264492919921875,-0.044846534729003906,0.025882244110107422,-0.09642086178064346
1772812432089193500,0.274193359375,-0.1323251724243164,0.042726755142211914,-0.134978249669075
1772812432098894300,0.283894287109375,-0.11900043487548828,0.00824427604675293,-0.13697627186775208
1772812432108595000,0.293594970703125,-0.08251476287841797,-0.014105796813964844,-0.14015085995197296
1772812432118295600,0.303295654296875,-0.03631782531738281,-0.01334264874458313,-0.13438591361045837
1772812432127996200,0.31299609375,0.05487346649169922,-0.01924261450767517,-0.09407985210418701
1772812432137696800,0.32269677734375,0.11141681671142578,-0.05570366978645325,-0.03002510964870453
1772812432147397600,0.332397705078125,0.1462860107421875,-0.11198517680168152,0.05531252920627594
1772812432157098200,0.34209814453125,0.15345382690429688,-0.10934323072433472,0.09518906474113464
1772812432166798800,0.351798828125,0.15930461883544922,-0.08686912059783936,0.10796193778514862
1772812432176499500,0.36149951171875,0.13734817504882812,-0.06642797589302063,0.08835026621818542
1772812432186200000,0.371199951171875,0.07808780670166016,-0.0007069408893585205,0.04286988079547882
1772812432195901000,0.38090087890625,0.0081024169921875,0.02473887801170349,0.032171815633773804
1772812432205601500,0.3906015625,-0.07704353332519531,0.04112932085990906,0.040416866540908813
1772812432215302100,0.40030224609375,-0.139892578125,0.03005841374397278,0.037926048040390015
1772812432225002800,0.410002685546875,-0.17191791534423828,0.025100350379943848,0.031848251819610596
1772812432234703400,0.419703369140625,-0.18914222717285156,0.02263551950454712,0.05402170121669769
1772812432244404200,0.429404296875,-0.16642284393310547,0.0311032235622406,0.0503079891204834
1772812432254104800,0.439104736328125,-0.15139102935791016,0.01195099949836731,0.051343441009521484
1772812432263805400,0.448805419921875,-0.12402915954589844,-0.012123823165893555,0.022637486457824707
1772812432273506300,0.45850634765625,-0.10443305969238281,0.020851880311965942,0.02873745560646057
1772812432283207000,0.46820703125,-0.08306884765625,0.027246922254562378,0.026667356491088867
1772812432292907500,0.477907470703125,-0.03773689270019531,-0.01521185040473938,-0.021872177720069885
1772812432302608100,0.487608154296875,-0.03554344177246094,-0.028468072414398193,-0.030863679945468903
1772812432312308700,0.497308837890625,-0.028757095336914062,-0.015745192766189575,-0.0038279294967651367
1772812432322009600,0.507009521484375,0.005908966064453125,-0.028212159872055054,0.0026584863662719727
1772812432331710200,0.516710205078125,0.045619964599609375,-0.03995722532272339,-0.003315076231956482
1772812432341410800,0.526410888671875,0.082061767578125,-0.047286421060562134,0.040107548236846924
1772812432351111400,0.536111328125,0.1340799331665039,-0.06449899077415466,0.06450679898262024
1772812432360812000,0.54581201171875,0.1615753173828125,-0.07374534010887146,0.016911372542381287
1772812432370513000,0.555512939453125,0.12057304382324219,-0.0076125264167785645,-0.026625171303749084
1772812432380213500,0.565213623046875,0.05701637268066406,0.057239800691604614,-0.0789610743522644
1772812432389914000,0.5749140625,-0.028664588928222656,0.08451595902442932,-0.12661132216453552
1772812432399614700,0.58461474609375,-0.10324287414550781,0.05700007081031799,-0.09597592800855637
1772812432409315600,0.594315673828125,-0.1622905731201172,0.0016917586326599121,-0.06422875076532364
1772812432419016200,0.60401611328125,-0.14862728118896484,-0.024054497480392456,-0.027233794331550598
1772812432428716800,0.613716796875,-0.0906381607055664,-0.032760292291641235,0.04538226127624512
1772812432438417400,0.62341748046875,-0.03609275817871094,-0.07278850674629211,0.05513876676559448
1772812432448118300,0.6331181640625,0.012754440307617188,-0.06175416707992554,0.010140180587768555
1772812432457819000,0.64281884765625,0.01723480224609375,-0.00617527961730957,0.018684908747673035
1772812432467519500,0.65251953125,-0.001903533935546875,0.021764546632766724,0.031374722719192505
1772812432477220000,0.66222021484375,-0.04424858093261719,0.027313947677612305,0.06111571192741394
1772812432486920700,0.671920654296875,-0.07058334350585938,0.03146269917488098,0.0959758460521698
1772812432496621600,0.68162158203125,-0.07175445556640625,0.025938212871551514,0.11635616421699524
1772812432506322200,0.691322265625,-0.04228401184082031,0.02597072720527649,0.07718643546104431
1772812432516022800,0.701022705078125,0.01612091064453125,0.06592002511024475,0.027009934186935425
1772812432525723400,0.710723388671875,0.040595054626464844,0.08082437515258789,0.01068432629108429
1772812432535424000,0.720424072265625,0.030531883239746094,0.03591054677963257,0.008711010217666626
1772812432545124900,0.730124755859375,-0.001712799072265625,0.0035290420055389404,-0.00392623245716095
1772812432554825500,0.739825439453125,-0.07105731964111328,0.006631582975387573,-0.012542903423309326
1772812432564526000,0.749526123046875,-0.05687999725341797,0.03455924987792969,0.005159035325050354
1772812432574227000,0.75922705078125,-0.02415180206298828,-0.0003533363342285156,0.050792157649993896
1772812432583927600,0.768927490234375,0.058582305908203125,-0.08521047234535217,0.014069616794586182
1772812432593628200,0.778628173828125,0.08343029022216797,-0.07618793845176697,-0.012110382318496704
1772812432603328800,0.788328857421875,0.07842350006103516,-0.01705324649810791,-0.03179848939180374
1772812432613029400,0.798029296875,0.05584239959716797,0.004895448684692383,-0.06579655408859253
1772812432622730200,0.807730224609375,-0.02868938446044922,-0.02371460199356079,-0.08803556114435196
1772812432632430800,0.817430908203125,-0.08117485046386719,-0.03045135736465454,-0.08722317218780518
1772812432642131500,0.82713134765625,-0.1327362060546875,0.027020424604415894,-0.0768786072731018
1772812432651832000,0.83683203125,-0.13515663146972656,0.05813559889793396,-0.039506107568740845
1772812432661532700,0.84653271484375,-0.07401657104492188,0.03613018989562988,0.02944841980934143
1772812432671233300,0.8562333984375,-0.03275108337402344,-0.03762775659561157,0.1092500388622284
1772812432680934100,0.86593408203125,-0.005153656005859375,-0.07007521390914917,0.10629597306251526
1772812432690634800,0.875634765625,0.016082763671875,-0.012311756610870361,0.055081263184547424
1772812432700335400,0.88533544921875,0.004025459289550781,0.06529998779296875,0.011688590049743652
1772812432710036000,0.895035888671875,-0.01605510711669922,0.10048031806945801,-0.022275738418102264
1772812432719736800,0.90473681640625,-0.053406715393066406,0.09595441818237305,-0.018392212688922882
1772812432729437400,0.9144375,-0.06303691864013672,0.08546608686447144,-0.015833809971809387
1772812432739138000,0.924137939453125,-0.06069183349609375,0.10004469752311707,-0.02935659885406494
1772812432748839000,0.9338388671875,-0.06422138214111328,0.10266062617301941,-0.03191488981246948
1772812432758539500,0.94353955078125,-0.042942047119140625,0.08978673815727234,-0.06858978420495987
1772812432768240000,0.953240234375,-0.011403083801269531,0.06717219948768616,-0.0820976048707962
1772812432777940700,0.962940673828125,0.036065101623535156,0.04689952731132507,-0.07761684060096741
1772812432787641300,0.972641357421875,0.1097421646118164,0.011288464069366455,-0.06399504095315933
1772812432797342200,0.98234228515625,0.14092636108398438,-0.04118126630783081,-0.026191219687461853
1772812432807042800,0.992042724609375,0.1515064239501953,-0.060875773429870605,-0.00963272899389267
1772812432816743400,1.001743408203125,0.17478179931640625,-0.06915009021759033,-0.03278972953557968
1772812432826444000,1.011444091796875,0.11056709289550781,-0.07586964964866638,-0.025693349540233612
1772812432836144600,1.02114453125,0.0791778564453125,-0.06823939085006714,-0.001142069697380066
1772812432855546000,1.040546142578125,0.009953498840332031,-0.010317683219909668,-0.021762140095233917
1772812432865246700,1.050246826171875,-0.012614250183105469,0.006774574518203735,-0.0033788010478019714
1772812432874947300,1.059947265625,-0.011281013488769531,-0.006004363298416138,0.05563436448574066
1772812432884648200,1.069648193359375,-0.019378662109375,-0.030771255493164062,0.08256851881742477
1772812432894348800,1.079348876953125,0.0044231414794921875,-0.00600549578666687,0.08800163120031357
1772812432904049400,1.08904931640625,0.014873504638671875,0.04534488916397095,0.15320004522800446
1772812432913750000,1.09875,-0.012525558471679688,0.05675017833709717,0.21869581937789917
1772812432923451000,1.108450927734375,0.00759124755859375,0.029263734817504883,0.17898264527320862
1772812432933151500,1.1181513671875,0.00385284423828125,0.055677056312561035,0.15946118533611298
1772812432942852000,1.12785205078125,-0.0033521652221679688,0.07108846306800842,0.12510760128498077
1772812432952552700,1.137552734375,-0.0033626556396484375,0.06744411587715149,0.03838750720024109
1772812432962253300,1.14725341796875,-0.038639068603515625,0.04896634817123413,0.00039142370223999023
1772812432971954000,1.156953857421875,-0.06744003295898438,0.04985186457633972,0.01276727020740509
1772812432981654800,1.16665478515625,-0.09926033020019531,0.002076089382171631,-0.003244921565055847
1772812432991355400,1.17635546875,-0.09641265869140625,-0.01489970088005066,-0.02359502762556076
1772812433001056000,1.186055908203125,-0.09596061706542969,-0.015786975622177124,-0.007033534348011017
1772812433010756600,1.195756591796875,-0.08023643493652344,-0.06506535410881042,0.007690221071243286
1772812433020457200,1.205457275390625,-0.030664443969726562,-0.11879611015319824,-0.08261273801326752
1772812433030158000,1.215157958984375,-0.006634712219238281,-0.09347888827323914,-0.11268503218889236
1772812433039858700,1.224858642578125,0.006386756896972656,-0.06919008493423462,-0.11105652898550034
1772812433049559300,1.234559326171875,0.01565837860107422,-0.08910548686981201,-0.12641698122024536
1772812433059260200,1.24426025390625,-0.009326934814453125,-0.12366369366645813,-0.12892159819602966
1772812433078661400,1.263661376953125,-0.04965972900390625,-0.08644992113113403,-0.04897521436214447
1772812433088362000,1.273362060546875,-0.015870094299316406,-0.08231702446937561,-0.011125937104225159
1772812433098062600,1.2830625,0.03613853454589844,-0.04639056324958801,0.06350745260715485
1772812433107763500,1.292763427734375,0.06842041015625,0.02567651867866516,0.07336384057998657
1772812433117464000,1.302464111328125,0.06836986541748047,0.0806187093257904,0.12939777970314026
1772812433127164700,1.31216455078125,0.06125831604003906,0.12054011225700378,0.16464093327522278
1772812433136865300,1.321865234375,0.03783893585205078,0.14665137231349945,0.1532352864742279
1772812433146566000,1.33156591796875,-0.019255638122558594,0.19261544942855835,0.10594246536493301
1772812433156266800,1.341266845703125,-0.06711387634277344,0.20878788828849792,0.04976647347211838
1772812433165967400,1.35096728515625,-0.06474590301513672,0.17954951524734497,0.005000032484531403
1772812433175668000,1.36066796875,-0.028328895568847656,0.10672914981842041,0.027454107999801636
1772812433185368600,1.37036865234375,0.012139320373535156,0.06549510359764099,0.0008360520005226135
1772812433195069400,1.3800693359375,0.006011009216308594,0.0539737343788147,-0.03643389791250229
1772812433204770000,1.38977001953125,-0.04942607879638672,0.026697367429733276,-0.07171019911766052
1772812433214470700,1.399470703125,-0.050972938537597656,0.020386308431625366,-0.049146853387355804
1772812433224171300,1.409171142578125,-0.06779670715332031,-0.0006843209266662598,-0.014373376965522766
1772812433233872100,1.4188720703125,-0.037301063537597656,-0.011935055255889893,0.025136038661003113
1772812433243572700,1.42857275390625,0.002105712890625,-0.06292513012886047,0.04019194841384888
1772812433253273300,1.4382734375,0.09970569610595703,-0.0387023389339447,0.013491503894329071
1772812433262974000,1.447973876953125,0.12038326263427734,0.003972798585891724,-0.017229102551937103
1772812433272674600,1.457674560546875,0.12304401397705078,-0.005088746547698975,-0.040821775794029236
1772812433282375400,1.46737548828125,0.14682483673095703,0.0019192993640899658,-0.0764453187584877
1772812433292076000,1.477075927734375,0.15019893646240234,0.004664868116378784,-0.04558110982179642
1772812433301776600,1.486776611328125,0.10875988006591797,-0.011503279209136963,-0.000461384654045105
1772812433311477200,1.496477294921875,0.053818702697753906,-0.07709243893623352,0.06455253064632416
1772812433321177900,1.506177734375,-0.008474349975585938,-0.11301347613334656,0.07110656797885895
1772812433330878700,1.515878662109375,-0.052069664001464844,-0.07904675602912903,0.040922947227954865
1772812433340579300,1.525579345703125,-0.10313129425048828,0.010413378477096558,0.010188713669776917
1772812433350280000,1.535280029296875,-0.15800857543945312,0.06061601638793945,0.012984685599803925
1772812433359980500,1.54498046875,-0.1578083038330078,0.018293291330337524,-0.021873973309993744
1772812433369681400,1.554681396484375,-0.1622629165649414,0.036977291107177734,-0.018725231289863586
1772812433379382000,1.564382080078125,-0.12306594848632812,0.0768251121044159,0.005747303366661072
1772812433389082600,1.57408251953125,-0.06450939178466797,0.0460391640663147,0.061151131987571716
1772812433398783200,1.583783203125,0.0048274993896484375,0.008585453033447266,0.0665636882185936
1772812433408484000,1.593484130859375,0.054175376892089844,0.02301192283630371,0.018297605216503143
1772812433418184700,1.603184814453125,0.09798908233642578,0.08499151468276978,-0.047655560076236725
1772812433427885300,1.61288525390625,0.11278629302978516,0.09187594056129456,-0.03016054630279541
1772812433437586000,1.6225859375,0.1213836669921875,0.020417213439941406,0.012687623500823975
1772812433447286500,1.63228662109375,0.12627029418945312,-0.06077954173088074,0.01247328519821167
1772812433456987100,1.641987060546875,0.07931232452392578,-0.022601574659347534,-0.026268795132637024
1772812433466688000,1.65168798828125,-0.01389312744140625,0.05548551678657532,-0.07687632739543915
1772812433476388600,1.661388671875,-0.0866994857788086,0.04750216007232666,-0.02394188940525055
1772812433486089200,1.671089111328125,-0.10767364501953125,-0.003413289785385132,0.012208342552185059
1772812433495789800,1.680789794921875,-0.08708858489990234,-0.003893435001373291,0.011017240583896637
1772812433505490700,1.69049072265625,-0.05506610870361328,0.009395897388458252,0.008308246731758118
1772812433515191300,1.70019140625,-0.028299331665039062,0.010387390851974487,0.042682066559791565
1772812433524892000,1.709891845703125,0.005066871643066406,-0.0483454167842865,0.0023361369967460632
1772812433534592500,1.719592529296875,-0.012711524963378906,-0.045602113008499146,-0.049793846905231476
1772812433544293400,1.72929345703125,-0.033728599548339844,-0.01852482557296753,-0.06385134160518646
1772812433553994000,1.738993896484375,-0.053215980529785156,-0.016595065593719482,-0.028321780264377594
1772812433563694600,1.748694580078125,-0.037067413330078125,-0.036486417055130005,-0.00986376404762268
1772812433573395200,1.758395263671875,-0.04354095458984375,-0.029710114002227783,0.015388384461402893
1772812433583095800,1.768095703125,-0.04519176483154297,-0.020124346017837524,0.031551294028759
1772812433592796700,1.777796630859375,-0.047972679138183594,0.0039864182472229,-0.0007905885577201843
1772812433602497300,1.787497314453125,-0.033059120178222656,0.018088310956954956,-0.024973072111606598
1772812433612198000,1.797197998046875,-0.0525054931640625,0.047227054834365845,-0.04717652499675751
1772812433621898500,1.8068984375,-0.07396221160888672,0.05737704038619995,-0.04496048390865326
1772812433631599000,1.81659912109375,-0.07152366638183594,0.06770145893096924,-0.009688697755336761
1772812433641300000,1.826300048828125,-0.09029579162597656,0.008743107318878174,0.03133026510477066
1772812433651000600,1.83600048828125,-0.0652017593383789,-0.0027441680431365967,0.058224305510520935
1772812433660701200,1.845701171875,-0.021681785583496094,0.019566595554351807,0.05177552253007889
1772812433670402000,1.855402099609375,0.01759815216064453,0.05512422323226929,0.009524419903755188
1772812433680102700,1.8651025390625,0.06447505950927734,0.0800742506980896,-0.0657825917005539
1772812433689803300,1.87480322265625,0.12703323364257812,0.07517985999584198,-0.09100277721881866
1772812433699503900,1.88450390625,0.16026973724365234,0.05403396487236023,-0.08058330416679382
1772812433709204500,1.89420458984375,0.19406604766845703,-0.03215697407722473,-0.05024552345275879
1772812433718905300,1.9039052734375,0.18607044219970703,-0.07539606094360352,-0.05443417280912399
1772812433728606000,1.91360595703125,0.15462684631347656,-0.056396156549453735,-0.04085378721356392
1772812433738306600,1.923306640625,0.08721256256103516,-0.04099833965301514,-0.036373406648635864
1772812433748007200,1.933007080078125,0.006809234619140625,-0.042237937450408936,-0.02357497811317444
1772812433757707800,1.942707763671875,-0.008711814880371094,-0.018124550580978394,-0.0113944411277771
1772812433767408400,1.952408447265625,-0.06278800964355469,0.005006879568099976,0.01325710117816925
1772812433777109200,1.962109130859375,-0.06536102294921875,0.02958047389984131,0.04052681475877762
1772812433786809900,1.971809814453125,-0.07022762298583984,0.04002097249031067,0.05164054036140442
1772812433796510500,1.981510498046875,-0.09734916687011719,0.070423424243927,0.02844630926847458
1772812433806211000,1.991211181640625,-0.11575126647949219,0.06331770122051239,0.05501507222652435
1772812433815912000,2.000911865234375,-0.1396951675415039,0.07860642671585083,0.06932970136404037
1772812433825612500,2.010612548828125,-0.1737957000732422,0.051437199115753174,0.0688323900103569
1772812433835313200,2.020313232421875,-0.13786602020263672,0.025407135486602783,0.04995398223400116
1772812433845013800,2.030013671875,-0.09662723541259766,0.04125499725341797,0.014152072370052338
1772812433854714600,2.039714599609375,-0.03254127502441406,0.019647598266601562,0.02597011625766754
1772812433864415200,2.049415283203125,0.041052818298339844,-0.011746257543563843,-0.04084477946162224
1772812433874115800,2.05911572265625,0.10867881774902344,-0.01131594181060791,-0.09708436578512192
1772812433883816400,2.06881640625,0.12924957275390625,-0.024491339921951294,-0.08660900592803955
1772812433893517000,2.07851708984375,0.11179924011230469,-0.044825613498687744,-0.10490819066762924
1772812433903218000,2.088218017578125,0.0640401840209961,-0.04885607957839966,-0.1267864853143692
1772812433912918500,2.09791845703125,0.006489753723144531,-0.018408268690109253,-0.08624309301376343
1772812433922619100,2.107619140625,0.016965866088867188,0.003926336765289307,-0.07141785323619843
1772812433932319700,2.11731982421875,0.034323692321777344,0.008411198854446411,-0.05358044058084488
1772812433942020400,2.127020263671875,0.0690298080444336,0.018644094467163086,-0.01057693362236023
1772812433951721000,2.136720947265625,0.0901803970336914,0.014743208885192871,0.028404556214809418
1772812433961421800,2.146421875,0.10625934600830078,0.03352522850036621,-0.004998013377189636
1772812433971122400,2.156122314453125,0.07616615295410156,0.0558464378118515,0.0027578026056289673
1772812433980823300,2.1658232421875,0.025397300720214844,0.06703396141529083,0.024209104478359222
1772812433990524000,2.17552392578125,-0.008035659790039062,0.04313257336616516,0.033124424517154694
1772812434000224500,2.185224609375,-0.057361602783203125,0.01691979169845581,0.026843056082725525
1772812434009925000,2.194925048828125,-0.0740823745727539,0.035641372203826904,0.04643120616674423
1772812434019625700,2.204625732421875,-0.07168388366699219,0.03484596312046051,0.050967685878276825
1772812434029326300,2.214326416015625,-0.044594764709472656,0.006419926881790161,0.05367317050695419
1772812434039027200,2.224027099609375,-0.01676654815673828,0.01059865951538086,0.04419352859258652
1772812434048727800,2.233727783203125,-0.005873680114746094,0.007732689380645752,0.07503872364759445
1772812434058428400,2.243428466796875,0.029535293579101562,-0.020197540521621704,0.06282258033752441
1772812434068129000,2.25312890625,0.05021858215332031,-0.05176788568496704,0.047370657324790955
1772812434077829600,2.26282958984375,0.06582927703857422,-0.049373120069503784,0.028907887637615204
1772812434087530500,2.272530517578125,0.08468914031982422,-0.007772475481033325,-0.03902522474527359
1772812434097231000,2.282231201171875,0.0644073486328125,0.004317611455917358,-0.09389816224575043
1772812434106931700,2.291931640625,0.030335426330566406,-0.019562512636184692,-0.08809168636798859
1772812434116632300,2.30163232421875,-0.03023529052734375,-0.044477373361587524,-0.05056257173418999
1772812434126333200,2.311333251953125,-0.08507823944091797,-0.10147100687026978,-0.034626349806785583
1772812434136033800,2.32103369140625,-0.09313011169433594,-0.08882477879524231,-0.024623416364192963
1772812434145734400,2.330734375,-0.0892782211303711,-0.07015731930732727,-0.01772676408290863
1772812434155435000,2.34043505859375,-0.060776710510253906,-0.05182337760925293,-0.03410619497299194
1772812434165136000,2.350135986328125,-0.01743602752685547,-0.02673700451850891,0.0011378899216651917
1772812434174836500,2.35983642578125,-0.035971641540527344,0.0008219778537750244,0.016314685344696045
1772812434184537000,2.369537109375,-0.03182506561279297,0.025414228439331055,0.020070940256118774
1772812434194237700,2.37923779296875,-0.015952110290527344,0.021596163511276245,0.021240122616291046
1772812434203938300,2.388938232421875,0.017316818237304688,0.016563117504119873,0.015423484146595001
1772812434213639000,2.398638916015625,0.07119178771972656,0.01498141884803772,-0.011495329439640045
1772812434223339800,2.40833984375,0.14883899688720703,0.031009793281555176,-0.012148275971412659
1772812434233040400,2.418040283203125,0.21807479858398438,0.02421945333480835,-0.01521146297454834
1772812434242741000,2.427740966796875,0.21902847290039062,-0.025442898273468018,0.009955190122127533
1772812434252441600,2.437441650390625,0.16580677032470703,-0.058712005615234375,0.025340445339679718
1772812434262142500,2.447142578125,0.07464027404785156,-0.06493908166885376,0.01796898990869522
1772812434271843000,2.456843017578125,-0.011463165283203125,-0.03967586159706116,0.009368591010570526
1772812434281543700,2.466543701171875,-0.07846641540527344,-0.04155901074409485,0.0028231367468833923
1772812434291244300,2.476244384765625,-0.10668087005615234,-0.04781408607959747,0.022317342460155487
1772812434300945200,2.485945068359375,-0.08733558654785156,-0.018742412328720093,0.028538979589939117
1772812434310645800,2.495645751953125,-0.07065200805664062,0.013538524508476257,0.04673299938440323
1772812434320346400,2.505346435546875,-0.0636606216430664,-0.011624276638031006,0.08036457747220993
1772812434330047000,2.515046875,-0.0697174072265625,-0.024641335010528564,0.0751146525144577
1772812434339747600,2.52474755859375,-0.10154151916503906,-0.0028442442417144775,0.07215715944766998
1772812434349448200,2.5344482421875,-0.09635066986083984,-0.003110542893409729,0.06692458689212799
1772812434359149000,2.544149169921875,-0.045348167419433594,-0.024009376764297485,0.0334596261382103
1772812434368849700,2.553849609375,0.001285552978515625,-0.013374462723731995,0.013723358511924744
1772812434378550300,2.56355029296875,0.02831554412841797,-0.014396384358406067,0.025701254606246948
1772812434388251000,2.5732509765625,0.04664802551269531,-0.0143364816904068,0.026455804705619812
1772812434397951500,2.582951416015625,0.05878162384033203,-0.029945150017738342,0.007330849766731262
1772812434407652400,2.59265234375,0.0695180892944336,-0.06706815958023071,-0.005398303270339966
1772812434417353000,2.60235302734375,0.0682830810546875,-0.10128745436668396,-0.03314428776502609
1772812434427053600,2.612053466796875,0.03410911560058594,-0.0949179083108902,-0.08339343965053558
1772812434436754400,2.62175439453125,-0.0077419281005859375,-0.08697322010993958,-0.09080168604850769
1772812434446455000,2.631455078125,-0.04771232604980469,-0.07800166308879852,-0.07630737125873566
1772812434456155600,2.64115576171875,-0.1058187484741211,-0.06631234288215637,-0.06749241054058075
1772812434465856300,2.650856201171875,-0.15468692779541016,-0.04533413052558899,-0.061604566872119904
1772812434475556900,2.660556884765625,-0.18623733520507812,-0.03241714835166931,0.008333653211593628
1772812434485257500,2.670257568359375,-0.20193958282470703,-0.02518986165523529,0.04469640552997589
1772812434494958300,2.679958251953125,-0.16440582275390625,0.012938126921653748,0.04792509227991104
1772812434504659000,2.689658935546875,-0.1416006088256836,0.024417012929916382,0.054326362907886505
1772812434514359600,2.699359619140625,-0.06858253479003906,0.03004603087902069,0.04669757932424545
1772812434524060200,2.70906005859375,0.0067501068115234375,0.025935396552085876,0.035170651972293854
1772812434533760800,2.7187607421875,0.05843925476074219,0.01605190336704254,0.023277848958969116
1772812434543461600,2.728461669921875,0.09746646881103516,-0.0055307745933532715,0.027442142367362976
1772812434553162200,2.738162353515625,0.098175048828125,-0.013743594288825989,0.00737898051738739
1772812434562862800,2.74786279296875,0.09181785583496094,0.01069653034210205,-0.04303671419620514
1772812434572563700,2.757563720703125,0.02675151824951172,0.024176910519599915,-0.08498384803533554
1772812434582264300,2.767264404296875,-0.04309558868408203,0.044173479080200195,-0.09192624688148499
1772812434591965000,2.77696484375,-0.09645652770996094,0.022908538579940796,-0.09343452006578445
1772812434601665500,2.78666552734375,-0.11947917938232422,0.007004469633102417,-0.0902024358510971
1772812434611366100,2.7963662109375,-0.07386398315429688,0.013363614678382874,-0.07144325971603394
1772812434621066800,2.806066650390625,-0.049022674560546875,-0.01019299030303955,-0.03716430068016052
1772812434630767600,2.815767578125,0.041275978088378906,-0.023649275302886963,-0.04209895059466362
1772812434640468200,2.82546826171875,0.0971078872680664,0.010247796773910522,-0.005394771695137024
1772812434650168800,2.8351689453125,0.1037607192993164,0.030014604330062866,-0.013032928109169006
1772812434659869400,2.844869384765625,0.08440113067626953,0.006614372134208679,-0.003457888960838318
1772812434669570000,2.854570068359375,0.02653980255126953,0.01803247630596161,0.015125319361686707
1772812434679271000,2.86427099609375,0.003772735595703125,0.03582724928855896,0.029243580996990204
1772812434688971500,2.873971435546875,-0.0021381378173828125,0.06075972318649292,0.054216332733631134
1772812434698672000,2.883672119140625,-0.023248672485351562,0.09440554678440094,0.08426086604595184
1772812434708372700,2.893372802734375,0.008935928344726562,0.05061313509941101,0.10432268679141998
1772812434718073600,2.903073486328125,-0.01824188232421875,0.03545957803726196,0.13621455430984497
1772812434727774200,2.912774169921875,-0.01789569854736328,0.08074291050434113,0.15402990579605103
1772812434737474800,2.922474853515625,0.0012941360473632812,0.09308268129825592,0.09711635857820511
1772812434747175400,2.932175537109375,0.03193855285644531,0.09186336398124695,0.04550177603960037
1772812434756876000,2.9418759765625,0.06324481964111328,0.08048361539840698,0.012661442160606384
1772812434766577000,2.951576904296875,0.1304788589477539,0.04988352954387665,-0.0225735604763031
1772812434776277500,2.961277587890625,0.1824359893798828,0.02076202630996704,-0.03718198835849762
1772812434785978000,2.97097802734375,0.1993551254272461,-0.02176603674888611,-0.029421940445899963
1772812434795678700,2.9806787109375,0.17358779907226562,-0.05165645480155945,-0.030688419938087463
1772812434805379300,2.99037939453125,0.11175251007080078,-0.06823888421058655,-0.06555941700935364
1772812434815080200,3.000080078125,0.03447151184082031,-0.07429388165473938,-0.0846855565905571
1772812434824780800,3.00978076171875,-0.04268074035644531,-0.07023268938064575,-0.11644254624843597
1772812434834481400,3.0194814453125,-0.08792400360107422,-0.07086700201034546,-0.12180250883102417
1772812434844182000,3.02918212890625,-0.13355064392089844,-0.05460008978843689,-0.11058454215526581
1772812434853883000,3.0388828125,-0.12308216094970703,-0.04888427257537842,-0.1116056963801384
1772812434863583500,3.04858349609375,-0.07981586456298828,-0.010330885648727417,-0.07032693177461624
1772812434873284000,3.0582841796875,-0.045501708984375,-0.03216385841369629,-0.022389419376850128
1772812434882984700,3.067984619140625,-0.012942314147949219,-0.05610191822052002,0.00029256194829940796
1772812434892685300,3.077685302734375,0.01787853240966797,-0.04982274770736694,0.01675957441329956
1772812434902386200,3.08738623046875,0.05756950378417969,-0.046019792556762695,0.016158558428287506
1772812434912086800,3.097086669921875,0.08245563507080078,-0.04350307583808899,-0.001592881977558136
1772812434921787400,3.106787353515625,0.08103084564208984,-0.03246656060218811,-0.02236347645521164
1772812434931488000,3.116488037109375,0.06787109375,0.0006579160690307617,-0.043373480439186096
1772812434941188600,3.126188720703125,0.037285804748535156,-0.008720055222511292,-0.016195304691791534
1772812434950889200,3.13588916015625,0.0178070068359375,0.00044730305671691895,0.0035811886191368103
1772812434960590000,3.145590087890625,-0.01898193359375,-0.02725006639957428,0.017015404999256134
1772812434970290700,3.155290771484375,-0.023400306701660156,-0.06852191686630249,0.025328025221824646
1772812434979991300,3.1649912109375,0.016936302185058594,-0.07346250116825104,0.06909837573766708
1772812434999392800,3.184392822265625,0.010252952575683594,-0.07495923340320587,0.05263301730155945
1772812435009093400,3.19409326171875,-0.05704689025878906,-0.038516730070114136,0.02981821447610855
1772812435018794000,3.2037939453125,-0.11966323852539062,0.018546998500823975,0.010845974087715149
1772812435028494600,3.21349462890625,-0.13530635833740234,0.026062950491905212,0.013632267713546753
1772812435038195500,3.223195556640625,-0.12830257415771484,0.034203559160232544,0.04217786341905594
1772812435047896000,3.23289599609375,-0.1049203872680664,0.03185611963272095,0.0785139948129654
1772812435057596700,3.2425966796875,-0.02429676055908203,0.008219227194786072,0.127177894115448
1772812435067297300,3.25229736328125,0.06554698944091797,0.003827318549156189,0.13689595460891724
1772812435076998000,3.261997802734375,0.11621665954589844,0.012974768877029419,0.09564930200576782
1772812435086698500,3.271698486328125,0.11425113677978516,0.04066038131713867,0.07428696006536484
1772812435096399400,3.2813994140625,0.07230949401855469,0.034431830048561096,0.021431267261505127
1772812435106100000,3.291099853515625,0.03343963623046875,0.00663447380065918,-0.008558899164199829
1772812435115800600,3.300800537109375,-0.0071163177490234375,-0.01491248607635498,-0.05147883668541908
1772812435125501200,3.310501220703125,-0.04110527038574219,-0.03492654860019684,-0.06593538820743561
1772812435135202000,3.3202021484375,-0.02160358428955078,-0.07465419173240662,-0.05053391680121422
1772812435144902700,3.329902587890625,0.005797386169433594,-0.11089755594730377,-0.03833383321762085
1772812435154603300,3.339603271484375,0.03859901428222656,-0.1480972319841385,-0.0628795474767685
1772812435164304000,3.349303955078125,0.044951438903808594,-0.14244908094406128,-0.07976540923118591
1772812435174004500,3.35900439453125,0.007658958435058594,-0.1046852320432663,-0.06541252881288528
1772812435183705300,3.368705322265625,-0.033707618713378906,-0.08031485974788666,-0.07434524595737457
1772812435193406000,3.378406005859375,-0.08023452758789062,-0.03868262469768524,-0.060820408165454865
1772812435203106600,3.3881064453125,-0.11182689666748047,-0.0004003196954727173,-0.022147074341773987
1772812435212807200,3.39780712890625,-0.14403438568115234,0.015616282820701599,0.007636174559593201
1772812435222507800,3.4075078125,-0.10511112213134766,0.0037792176008224487,0.0567893460392952
1772812435232208400,3.41720849609375,-0.03391075134277344,-0.016725629568099976,0.11225470900535583
1772812435241909200,3.4269091796875,0.04076099395751953,-0.011936932802200317,0.1426496058702469
1772812435251609900,3.43660986328125,0.06827163696289062,-0.0303754061460495,0.1524617075920105
1772812435261310500,3.446310546875,0.07531166076660156,-0.002593889832496643,0.14310580492019653
1772812435271011000,3.456010986328125,0.006964683532714844,0.048956841230392456,0.10397324711084366
1772812435280712000,3.4657119140625,-0.07666969299316406,0.09382230043411255,0.07626502960920334
1772812435290412500,3.47541259765625,-0.12238693237304688,0.09053385257720947,0.032192669808864594
1772812435300113200,3.485113037109375,-0.1072998046875,0.09324765205383301,0.013790301978588104
1772812435319514600,3.5045146484375,0.04581737518310547,0.010337337851524353,-0.0005118325352668762
1772812435329215200,3.51421533203125,0.12273597717285156,-0.0452820360660553,-0.0009972825646400452
1772812435338915800,3.523915771484375,0.17596149444580078,-0.058676689863204956,-0.04521714895963669
1772812435348616400,3.533616455078125,0.13768291473388672,-0.03997638821601868,-0.06882549077272415
1772812435358317000,3.543317138671875,0.034163475036621094,-0.005252629518508911,-0.08785784244537354
1772812435368017700,3.553017578125,-0.09584903717041016,0.013938352465629578,-0.09279457479715347
1772812435387419100,3.572419189453125,-0.17488956451416016,-0.006619587540626526,-0.045277662575244904
1772812435397119700,3.58211962890625,-0.09898757934570312,0.01919880509376526,0.011912763118743896
1772812435406820400,3.5918203125,0.039191246032714844,0.012160658836364746,0.02574850618839264
1772812435416521200,3.601521240234375,0.11386394500732422,0.051599279046058655,0.003154553472995758
1772812435426221800,3.611221923828125,0.11667919158935547,0.07263261079788208,0.006077796220779419
1772812435435922400,3.62092236328125,0.0970773696899414,0.07986439764499664,0.03058355301618576
1772812435445623000,3.630623046875,0.08721351623535156,0.08619248867034912,0.04504861682653427
1772812435455323600,3.64032373046875,0.04692649841308594,0.10135483741760254,0.03953254967927933
1772812435465024500,3.6500244140625,0.028497695922851562,0.07251986861228943,0.04137371480464935
1772812435474725000,3.65972509765625,0.05272674560546875,0.059657782316207886,0.048484452068805695
1772812435484425700,3.66942578125,0.0800619125366211,0.044757068157196045,0.016117282211780548
1772812435494126300,3.679126220703125,0.07986831665039062,0.03229881823062897,-0.01879182457923889
1772812435503827000,3.688826904296875,0.07141876220703125,0.029359012842178345,-0.01844969391822815
1772812435513527600,3.698527587890625,0.01955127716064453,-0.0025028735399246216,0.032524868845939636
1772812435523228400,3.708228515625,0.0014667510986328125,-0.016697615385055542,0.051822103559970856
1772812435532929000,3.717928955078125,-0.01512908935546875,-0.0070982277393341064,0.017004624009132385
1772812435542629600,3.727629638671875,-0.05846881866455078,0.03728438913822174,-0.0247272327542305
1772812435552330200,3.737330322265625,-0.13633155822753906,0.06495790183544159,-0.027841411530971527
1772812435562031000,3.747031005859375,-0.1740264892578125,0.06169721484184265,-0.0016195550560951233
1772812435571731700,3.756731689453125,-0.1969585418701172,-0.003085911273956299,0.06917527318000793
1772812435581432300,3.766432373046875,-0.1077432632446289,-0.058024242520332336,0.07321419566869736
1772812435591133000,3.7761328125,-0.009435653686523438,-0.05046233534812927,0.02008381485939026
1772812435600833500,3.78583349609375,0.049561500549316406,-0.028446704149246216,-0.06729324162006378
1772812435610534400,3.795534423828125,0.04755878448486328,-0.006275549530982971,-0.13134023547172546
1772812435620235000,3.805235107421875,-0.016754150390625,-0.01547764241695404,-0.1375695765018463
1772812435629935600,3.814935546875,-0.09644222259521484,-0.018935471773147583,-0.08603338152170181
1772812435639636200,3.82463623046875,-0.1347808837890625,-0.026233956217765808,-0.016221337020397186
1772812435649336800,3.8343369140625,-0.12306404113769531,-0.06852719187736511,0.05432666838169098
1772812435659037400,3.844037353515625,-0.036246299743652344,-0.05675652623176575,0.024702563881874084
1772812435668738300,3.85373828125,0.05147361755371094,-0.0035078227519989014,-0.030375808477401733
1772812435678439000,3.86343896484375,0.10006904602050781,0.05441945791244507,-0.0633615106344223
1772812435688139500,3.873139404296875,0.08195972442626953,0.09243804216384888,-0.09322570264339447
1772812435697840000,3.882840087890625,0.026502609252929688,0.07668352127075195,-0.04060918837785721
1772812435707541000,3.892541015625,-0.03861236572265625,0.05500724911689758,0.029317237436771393
1772812435717241600,3.90224169921875,-0.06498050689697266,0.06896522641181946,0.07855589687824249
1772812435726942200,3.911942138671875,-0.076751708984375,0.08909006416797638,0.05679328739643097
1772812435736642800,3.921642822265625,-0.056542396545410156,0.13219255208969116,0.03483300656080246
1772812435746343400,3.931343505859375,-0.019025802612304688,0.128690704703331,0.045505136251449585
1772812435756044300,3.941044189453125,0.06607818603515625,0.071419358253479,0.057124778628349304
1772812435765745000,3.950744873046875,0.13558673858642578,0.05874016880989075,0.06861679255962372
1772812435775445500,3.960445556640625,0.16504383087158203,0.0705225020647049,0.053431250154972076
1772812435785146000,3.97014599609375,0.16455841064453125,0.0790574699640274,0.05635125935077667
1772812435794846700,3.9798466796875,0.07583427429199219,0.051554545760154724,0.0387851819396019
1772812435804547300,3.98954736328125,-0.018442153930664062,0.033648014068603516,0.010999053716659546
1772812435814248200,3.999248291015625,-0.08757400512695312,0.03099183738231659,0.010005153715610504
1772812435823948800,4.00894873046875,-0.11902236938476562,0.056786343455314636,-0.06354475021362305
1772812435833649400,4.0186494140625,-0.10048103332519531,0.07246311008930206,-0.10660924017429352
1772812435843350300,4.028350341796875,-0.05279827117919922,0.07857787609100342,-0.15041176974773407
1772812435853051000,4.03805078125,-0.0035572052001953125,0.038607195019721985,-0.147764652967453
1772812435862751500,4.04775146484375,0.05305671691894531,-0.042222291231155396,-0.12379788607358932
1772812435872452000,4.0574521484375,0.08397769927978516,-0.0965421199798584,-0.09126372635364532
1772812435882152700,4.067152587890625,0.08375358581542969,-0.09302785992622375,-0.10638681054115295
1772812435891853600,4.076853515625,0.06821918487548828,-0.05294021964073181,-0.10211852937936783
1772812435901554200,4.08655419921875,0.0317535400390625,-0.02582111954689026,-0.07673545181751251
1772812435911254800,4.0962548828125,0.019425392150878906,-0.028482139110565186,-0.03732258826494217
1772812435920955400,4.105955322265625,-0.03975105285644531,0.006972193717956543,0.011491753160953522
1772812435930656000,4.115656005859375,-0.05909156799316406,0.05702611804008484,0.05611726641654968
1772812435940356600,4.125356689453125,-0.07925796508789062,0.07681313157081604,0.05354221910238266
1772812435950057500,4.135057373046875,-0.1037588119506836,0.051942408084869385,0.06775002181529999
1772812435959758000,4.144758056640625,-0.11486625671386719,0.04542875289916992,0.037960439920425415
1772812435969458700,4.154458740234375,-0.1304483413696289,0.05125977098941803,0.014536134898662567
1772812435979159300,4.1641591796875,-0.08692550659179688,0.036560699343681335,-0.008359700441360474
1772812435988860200,4.173860107421875,0.011164665222167969,0.010061115026473999,-0.01923953741788864
1772812435998560800,4.183560791015625,0.12287235260009766,-0.030384540557861328,-0.01683158427476883
1772812436008261400,4.193261474609375,0.2255859375,-0.04223448038101196,0.027564942836761475
1772812436017962000,4.2029619140625,0.30062007904052734,-0.05224761366844177,0.0086226686835289
1772812436027662600,4.21266259765625,0.316680908203125,-0.016525715589523315,-0.03829895704984665
1772812436037363200,4.22236328125,0.2630138397216797,0.03693127632141113,-0.055985234677791595
1772812436047064000,4.23206396484375,0.18198490142822266,0.05920892953872681,-0.08621587604284286
1772812436056764700,4.2417646484375,0.0999612808227539,0.06596466898918152,-0.09604722261428833
1772812436066465300,4.25146533203125,-0.003021240234375,0.09581725299358368,-0.07729446887969971
1772812436076166000,4.261165771484375,-0.0677785873413086,0.08774124085903168,-0.03742120414972305
1772812436085866500,4.270866455078125,-0.1055459976196289,0.04928164184093475,0.002202734351158142
1772812436095567400,4.2805673828125,-0.12972068786621094,0.033685848116874695,0.032252080738544464
1772812436105268000,4.29026806640625,-0.12054634094238281,0.0009540766477584839,0.050136320292949677
1772812436114968600,4.299968505859375,-0.09974956512451172,-0.001652538776397705,0.05294397473335266
1772812436124669200,4.309669189453125,-0.10516357421875,0.024334564805030823,0.02404417097568512
1772812436134370000,4.3193701171875,-0.12340164184570312,0.04374141991138458,0.02450692653656006
1772812436144070700,4.329070556640625,-0.12366580963134766,0.027264609932899475,0.046257615089416504
1772812436153771300,4.338771240234375,-0.11685371398925781,-0.015205949544906616,0.05402952432632446
1772812436163472000,4.348471923828125,-0.08544921875,-0.027221813797950745,0.0847502201795578
1772812436173172500,4.35817236328125,0.0018911361694335938,-0.05120670795440674,0.07654281705617905
1772812436182873000,4.367873046875,0.05127525329589844,-0.061899080872535706,0.07531864196062088
1772812436192574000,4.377573974609375,0.08217716217041016,-0.04517357051372528,0.03667248785495758
1772812436202274600,4.387274658203125,0.08080005645751953,-0.0418926477432251,0.0026728957891464233
1772812436211975200,4.39697509765625,0.04415416717529297,-0.03484702110290527,-0.026932477951049805
1772812436221675800,4.40667578125,0.004596710205078125,-0.04748660326004028,-0.051960743963718414
1772812436231376400,4.41637646484375,-0.03075408935546875,-0.06253242492675781,-0.07966440916061401
1772812436241077200,4.4260771484375,-0.039618492126464844,-0.07202000916004181,-0.08339069783687592
1772812436250777900,4.43577783203125,-0.01891613006591797,-0.05996689200401306,-0.08843893557786942
1772812436260478500,4.445478515625,-0.016237258911132812,-0.05446958541870117,-0.052625659853219986
1772812436270179000,4.455178955078125,0.0687570571899414,-0.08114105463027954,-0.0635884553194046
1772812436279880000,4.4648798828125,0.1346578598022461,-0.05812308192253113,-0.013699375092983246
1772812436289580500,4.47458056640625,0.09824466705322266,-0.07473236322402954,0.02584124356508255
1772812436299281200,4.48428125,0.1106405258178711,-0.07708051800727844,0.0530317947268486
1772812436308981800,4.493981689453125,0.051026344299316406,-0.025342538952827454,0.034487172961235046
1772812436318682400,4.503682373046875,-0.01583385467529297,-0.001865103840827942,0.04308600723743439
1772812436328383000,4.513383056640625,-0.09332942962646484,-0.007854416966438293,0.09359928220510483
1772812436338083800,4.523083740234375,-0.16125869750976562,-0.009006530046463013,0.10961859673261642
1772812436347784400,4.532784423828125,-0.20801258087158203,-0.018812760710716248,0.12318460643291473
1772812436357485000,4.542485107421875,-0.25862789154052734,-0.006609037518501282,0.10670649260282516
1772812436367185700,4.552185546875,-0.28246116638183594,-0.009113132953643799,0.07079394906759262
1772812436376886300,4.56188623046875,-0.21996307373046875,-0.03048229217529297,0.024461068212985992
1772812436386587100,4.571587158203125,-0.11728572845458984,-0.020943045616149902,-0.04545855522155762
1772812436396287700,4.581287841796875,-0.019852638244628906,-0.012459009885787964,-0.051932550966739655
1772812436405988400,4.59098828125,0.0594635009765625,-0.03292462229728699,-0.04468803107738495
1772812436415689000,4.60068896484375,0.13506412506103516,-0.04814201593399048,0.00942450761795044
1772812436425389800,4.610389892578125,0.17168712615966797,-0.03616258502006531,0.05705122649669647
1772812436435090400,4.62009033203125,0.17118263244628906,-0.04096105694770813,0.07070772349834442
1772812436454491600,4.63949169921875,0.12423229217529297,0.03909403085708618,0.07071921974420547
1772812436464192300,4.649192138671875,0.07507705688476562,0.0828915536403656,0.02978566288948059
1772812436473892900,4.658892822265625,0.04558849334716797,0.10218815505504608,0.007434748113155365
1772812436483593500,4.668593505859375,0.01659679412841797,0.11329686641693115,0.011622585356235504
1772812436493294300,4.67829443359375,-0.0036840438842773438,0.07569634914398193,0.02869807928800583
1772812436502995000,4.687994873046875,-0.017749786376953125,0.026409655809402466,0.04355378448963165
1772812436512695600,4.697695556640625,-0.028051376342773438,0.010310083627700806,0.05683909356594086
1772812436522396400,4.707396484375,-0.051110267639160156,-0.0007643699645996094,0.023186959326267242
1772812436532097000,4.717096923828125,-0.09023189544677734,-0.006065636873245239,0.019545070827007294
1772812436541797600,4.726797607421875,-0.08632755279541016,0.019218921661376953,-0.008014366030693054
1772812436551498200,4.736498291015625,-0.049541473388671875,0.00482216477394104,0.0024397075176239014
1772812436561198800,4.74619873046875,0.018387794494628906,-0.0022760629653930664,0.02889072895050049
1772812436570899500,4.7558994140625,0.08045673370361328,-0.005375683307647705,0.025450721383094788
1772812436580600300,4.765600341796875,0.13205337524414062,0.005562812089920044,0.01638875901699066
1772812436590301000,4.775301025390625,0.13100910186767578,0.03039628267288208,-0.016088537871837616
1772812436600001500,4.78500146484375,0.08761787414550781,0.06719765067100525,-0.04378143697977066
1772812436609702100,4.7947021484375,0.00260162353515625,0.05902582406997681,-0.03878042846918106
1772812436619402800,4.80440283203125,-0.060977935791015625,0.029684513807296753,-0.0002457648515701294
1772812436629103400,4.814103271484375,-0.0964202880859375,-0.010000437498092651,0.0065534040331840515
1772812436638804200,4.82380419921875,-0.09478282928466797,-0.03632897138595581,-0.00032498687505722046
1772812436648504800,4.8335048828125,-0.05552959442138672,-0.057431697845458984,-0.006419509649276733
1772812436658205400,4.843205322265625,-0.021648406982421875,-0.09174284338951111,-0.03649982064962387
1772812436667906000,4.852906005859375,0.024608612060546875,-0.0603804886341095,-0.13127902150154114
1772812436677607000,4.86260693359375,0.008927345275878906,-0.017955541610717773,-0.16823047399520874
1772812436687307500,4.8723076171875,-0.012353897094726562,0.0018795132637023926,-0.14173205196857452
1772812436697008000,4.882008056640625,-0.030908584594726562,-0.027285724878311157,-0.08949636667966843
1772812436706708700,4.891708740234375,-0.045607566833496094,-0.03506222367286682,-0.03135266900062561
1772812436716409300,4.901409423828125,-0.03418159484863281,-0.030638188123703003,0.02556738257408142
1772812436726110000,4.91110986328125,0.038219451904296875,0.0003979504108428955,0.053377047181129456
1772812436735810800,4.920810791015625,0.09525871276855469,-0.000056743621826171875,0.024741284549236298
1772812436745511400,4.930511474609375,0.1465921401977539,0.01647767424583435,0.02445109188556671
1772812436755212000,4.9402119140625,0.15113544464111328,0.03574219346046448,0.03154037147760391
1772812436764912600,4.94991259765625,0.14615154266357422,0.025338351726531982,0.05324072390794754
1772812436774613500,4.959613525390625,0.07888126373291016,-0.005242288112640381,0.03532475233078003
1772812436784314000,4.969314208984375,0.0033388137817382812,-0.0064615607261657715,0.013098090887069702
1772812436794014700,4.9790146484375,-0.06854057312011719,0.041076913475990295,-0.04217107594013214
1772812436803715300,4.98871533203125,-0.14739131927490234,0.07094061374664307,-0.053899385035037994
1772812436813416000,4.998416015625,-0.1860332489013672,0.06844151020050049,-0.08978526294231415
1772812436823116800,5.00811669921875,-0.19221019744873047,0.0479433536529541,-0.025206327438354492
1772812436832817400,5.0178173828125,-0.12769603729248047,0.00475957989692688,0.041909925639629364
1772812436842518000,5.02751806640625,-0.053702354431152344,-0.07733666896820068,0.10203375667333603
1772812436852218600,5.037218505859375,0.04724311828613281,-0.10568979382514954,0.09420429915189743
1772812436861919200,5.046919189453125,0.09821796417236328,-0.09194186329841614,0.06971747428178787
1772812436871619800,5.056619873046875,0.08360004425048828,-0.052858829498291016,0.02408444881439209
1772812436881320700,5.06632080078125,0.0445098876953125,-0.04672735929489136,0.0033876970410346985
1772812436891021300,5.076021240234375,-0.042136192321777344,-0.04825523495674133,-0.005884729325771332
1772812436900722000,5.085721923828125,-0.11199474334716797,-0.008007586002349854,-0.007678531110286713
1772812436910422500,5.095422607421875,-0.14297866821289062,-0.01888224482536316,-0.03330911695957184
1772812436920123400,5.105123291015625,-0.14986610412597656,-0.03100523352622986,-0.05986631661653519
1772812436929824000,5.114823974609375,-0.06718921661376953,-0.010045796632766724,-0.10236620157957077
1772812436939524600,5.124524658203125,0.009416580200195312,-0.029567688703536987,-0.11097662895917892
1772812436949225200,5.13422509765625,0.06824016571044922,-0.06302788853645325,-0.09525157511234283
1772812436958925800,5.14392578125,0.09308242797851562,-0.10611423850059509,-0.05741889029741287
1772812436968626400,5.15362646484375,0.10098648071289062,-0.131332129240036,-0.007252462208271027
1772812436978327300,5.163327392578125,0.07694244384765625,-0.15169456601142883,0.0024115443229675293
1772812436988028000,5.17302783203125,0.047397613525390625,-0.12172460556030273,-0.0034078210592269897
1772812436997728500,5.182728515625,0.016007423400878906,-0.04720374941825867,0.0023077502846717834
1772812437007429000,5.19242919921875,-0.011305809020996094,0.02199631929397583,-0.023018158972263336
1772812437017129700,5.202129638671875,-0.03343391418457031,0.03548687696456909,-0.003128133714199066
1772812437026830300,5.211830322265625,-0.045762062072753906,0.06601288914680481,0.0358378142118454
1772812437036531200,5.22153125,-0.03551959991455078,0.06956186890602112,0.06784740835428238
1772812437046231800,5.231231689453125,-0.018392562866210938,0.06015932559967041,0.09877584129571915
1772812437055932400,5.240932373046875,-0.009791374206542969,0.036558836698532104,0.12299220263957977
1772812437065633300,5.25063330078125,-0.013106346130371094,0.03171291947364807,0.10136439651250839
1772812437075334000,5.260333984375,-0.056344032287597656,0.02837425470352173,0.067128486931324
1772812437085034500,5.270034423828125,-0.0941162109375,0.014148831367492676,0.016344547271728516
1772812437094735000,5.279735107421875,-0.12296676635742188,0.024273723363876343,-0.013381294906139374
1772812437104435700,5.289435791015625,-0.12304973602294922,0.007724791765213013,-0.0014967024326324463
1772812437114136300,5.29913623046875,-0.061931610107421875,-0.033466458320617676,-0.010852336883544922
1772812437123837000,5.3088369140625,0.006403923034667969,-0.0457039475440979,-0.02426404505968094
1772812437133537800,5.318537841796875,0.09239578247070312,-0.04827854037284851,-0.03700268268585205
1772812437143238400,5.32823828125,0.13572216033935547,-0.03399553894996643,-0.05676833540201187
1772812437152939000,5.33793896484375,0.16062450408935547,-0.028877943754196167,-0.024539045989513397
1772812437162639600,5.3476396484375,0.14034652709960938,-0.011199116706848145,-0.010348469018936157
1772812437172340500,5.357340576171875,0.0815420150756836,-0.00513806939125061,0.013985894620418549
1772812437182041000,5.367041015625,0.06841182708740234,-0.010916471481323242,0.01789340376853943
1772812437191741700,5.37674169921875,0.03786277770996094,0.02749750018119812,0.03925400972366333
1772812437201442300,5.3864423828125,0.04194164276123047,0.05009275674819946,0.027665361762046814
1772812437211143000,5.396142822265625,0.04126262664794922,0.05359911918640137,0.011797457933425903
1772812437220843800,5.40584375,0.032372474670410156,0.0429249107837677,0.035016417503356934
1772812437230544400,5.41554443359375,0.014225006103515625,0.04771772027015686,0.054911911487579346
1772812437240245000,5.425244873046875,-0.02949047088623047,0.0410020649433136,0.05580912530422211
1772812437249945600,5.434945556640625,-0.039516448974609375,0.037286847829818726,0.05553434044122696
1772812437259646200,5.444646240234375,-0.04816722869873047,0.029632240533828735,0.04328859597444534
1772812437269346800,5.454346923828125,-0.0766458511352539,0.021749824285507202,0.045703209936618805
1772812437279047400,5.46404736328125,-0.0658273696899414,-0.010563284158706665,0.053472064435482025
1772812437288748300,5.473748291015625,-0.01284027099609375,-0.009623527526855469,0.04206167161464691
1772812437298449000,5.483448974609375,0.022767066955566406,-0.024649351835250854,0.02256467193365097
1772812437308149500,5.4931494140625,0.027159690856933594,-0.02834320068359375,0.04260200262069702
1772812437317850400,5.502850341796875,0.044394493103027344,-0.03268742561340332,0.026829242706298828
1772812437327551000,5.512551025390625,0.023706436157226562,-0.022730082273483276,-0.018580392003059387
1772812437337251600,5.52225146484375,0.0033750534057617188,0.005139589309692383,-0.039259351789951324
1772812437346952200,5.5319521484375,-0.0013141632080078125,0.0034862756729125977,-0.081478551030159
1772812437356652800,5.54165283203125,0.04114055633544922,-0.008746534585952759,-0.08243787288665771
1772812437366353400,5.551353515625,0.0852212905883789,-0.010918736457824707,-0.08547528088092804
1772812437376054000,5.561053955078125,0.09324932098388672,-0.030315130949020386,-0.08218399435281754
1772812437385755000,5.5707548828125,0.0705413818359375,-0.02275073528289795,-0.048516616225242615
1772812437395455500,5.58045556640625,0.024684906005859375,0.027186155319213867,-0.06105300784111023
1772812437405156000,5.590156005859375,-0.0015840530395507812,0.04705500602722168,-0.02805899828672409
1772812437414856700,5.599856689453125,-0.014459609985351562,0.04586997628211975,0.02125263214111328
1772812437424557600,5.6095576171875,-0.03419971466064453,0.00917401909828186,0.06705871969461441
1772812437434258200,5.619258056640625,-0.035979270935058594,-0.028385460376739502,0.13233378529548645
1772812437443958800,5.628958740234375,-0.0036268234252929688,-0.015284806489944458,0.11705084890127182
1772812437453659400,5.638659423828125,-0.01181793212890625,0.014918416738510132,0.05544309318065643
1772812437463360000,5.648360107421875,-0.03160381317138672,0.03344568610191345,0.013138934969902039
1772812437473060600,5.658060546875,-0.03452587127685547,0.06258872151374817,-0.04383315145969391
1772812437482761500,5.667761474609375,-0.0467529296875,0.07982277870178223,-0.09699943661689758
1772812437492462000,5.677462158203125,-0.026971817016601562,0.05097329616546631,-0.10829415917396545
1772812437502162700,5.68716259765625,-0.014558792114257812,0.005619347095489502,-0.08092614263296127
1772812437511863300,5.69686328125,0.012914657592773438,-0.04671594500541687,-0.07291509956121445
1772812437521564000,5.70656396484375,0.039902687072753906,-0.060405194759368896,-0.06270162761211395
1772812437531264500,5.716264404296875,0.04286670684814453,-0.07287421822547913,-0.05020808428525925
1772812437540965400,5.72596533203125,0.037487030029296875,-0.07372492551803589,-0.04804424196481705
1772812437550666000,5.735666015625,0.012156486511230469,-0.07782241702079773,-0.038861438632011414
1772812437560366600,5.74536669921875,-0.00925445556640625,-0.0868975818157196,-0.0143250972032547
1772812437570067200,5.755067138671875,-0.037360191345214844,-0.06942954659461975,-0.003183990716934204
1772812437579768000,5.76476806640625,-0.0014438629150390625,-0.04565820097923279,-0.029239386320114136
1772812437589468700,5.77446875,0.0233154296875,0.014875948429107666,-0.03948046267032623
1772812437599169300,5.784169189453125,0.0629730224609375,0.039340972900390625,-0.04059410095214844
1772812437608870000,5.793869873046875,0.10194110870361328,0.05207425355911255,-0.002024151384830475
1772812437618570500,5.803570556640625,0.12021827697753906,0.04836246371269226,0.021575234830379486
1772812437628271000,5.81327099609375,0.10754966735839844,0.03177979588508606,0.056810252368450165
1772812437637972000,5.822971923828125,0.09035587310791016,0.021899938583374023,0.05269034206867218
1772812437647672600,5.832672607421875,0.03697967529296875,0.020413309335708618,0.06766687333583832
1772812437657373200,5.842373291015625,-0.03548145294189453,0.013775438070297241,0.052079252898693085
1772812437667073800,5.85207373046875,-0.08670234680175781,0.010425359010696411,0.03703995794057846
1772812437676774400,5.8617744140625,-0.10056781768798828,-0.002573847770690918,0.012158647179603577
1772812437686475300,5.871475341796875,-0.09889030456542969,-0.025571972131729126,0.025523826479911804
1772812437696175900,5.88117578125,-0.07135295867919922,-0.03516310453414917,0.00996842235326767
1772812437705876500,5.89087646484375,-0.07604694366455078,-0.0484372079372406,0.01556020975112915
1772812437715577000,5.9005771484375,-0.08536434173583984,-0.0650172233581543,0.0029668286442756653
1772812437725277700,5.910277587890625,-0.08745098114013672,-0.03882560133934021,-0.01723821461200714
1772812437734978600,5.919978515625,-0.0800619125366211,-0.005445599555969238,-0.01744890958070755
1772812437744679200,5.92967919921875,-0.10099220275878906,-0.009390056133270264,-0.009503059089183807
1772812437754379800,5.9393798828125,-0.07680034637451172,-0.010615020990371704,-0.018200017511844635
1772812437764080400,5.949080322265625,-0.06591415405273438,-0.0025302469730377197,-0.02478581666946411
1772812437773781000,5.958781005859375,0.00009250640869140625,0.026854217052459717,0.002289213240146637
1772812437783481600,5.968481689453125,0.0732259750366211,0.01781696081161499,0.006272576749324799
1772812437793182500,5.978182373046875,0.09804630279541016,0.01269996166229248,-0.004416622221469879
1772812437802883000,5.987883056640625,0.08005237579345703,-0.012175947427749634,-0.0019062384963035583
1772812437812583700,5.997583740234375,0.07054328918457031,-0.017655670642852783,0.005472250282764435
1772812437822284300,6.0072841796875,0.07762527465820312,-0.013249754905700684,0.024631783366203308
1772812437831985200,6.016985107421875,0.056319236755371094,-0.0155123770236969,0.04118689149618149
1772812437841685800,6.026685791015625,0.04242706298828125,-0.015531778335571289,0.02990284562110901
1772812437851386400,6.036386474609375,0.00289154052734375,-0.0012398362159729004,0.0506933256983757
1772812437861087000,6.0460869140625,-0.03479576110839844,0.005000114440917969,0.051661208271980286
1772812437870787600,6.05578759765625,-0.051837921142578125,0.009236931800842285,0.03295440226793289
1772812437880488200,6.06548828125,-0.054459571838378906,0.018592029809951782,0.024344831705093384
1772812437890188800,6.075188720703125,-0.06408500671386719,0.029163897037506104,0.0593433678150177
1772812437899889700,6.0848896484375,-0.028837203979492188,-0.016916602849960327,0.04829443246126175
1772812437909590300,6.09459033203125,-0.011823654174804688,-0.005873262882232666,0.06061366945505142
1772812437919291000,6.104290771484375,0.00020503997802734375,0.03910195827484131,0.06165088713169098
1772812437928991500,6.113991455078125,0.020284652709960938,0.019989848136901855,0.050483718514442444
1772812437938692400,6.1236923828125,0.0000362396240234375,0.013348162174224854,0.05216553807258606
1772812437948393000,6.13339306640625,0.0013074874877929688,-0.009260982275009155,0.06334120035171509
1772812437958093600,6.143093505859375,0.008429527282714844,-0.025551050901412964,0.03183292597532272
1772812437967794200,6.152794189453125,0.04010009765625,-0.021068543195724487,0.01434539258480072
1772812437977494800,6.162494873046875,0.055901527404785156,-0.03549763560295105,-0.013113901019096375
1772812437987195400,6.1721953125,0.05729198455810547,-0.04838287830352783,-0.0395532101392746
1772812437996896300,6.181896240234375,0.03159332275390625,0.013704627752304077,-0.0649178996682167
1772812438006596900,6.191596923828125,-0.024225234985351562,0.027121365070343018,-0.12357655167579651
1772812438016297500,6.20129736328125,-0.08257007598876953,0.040731579065322876,-0.11503569781780243
1772812438025998000,6.210998046875,-0.08574581146240234,0.04890754818916321,-0.12566035985946655
1772812438035698700,6.22069873046875,-0.07939720153808594,0.05722346901893616,-0.11264193803071976
1772812438045399300,6.2303994140625,-0.06489276885986328,0.022556006908416748,-0.06260630488395691
1772812438055100200,6.24010009765625,-0.0012531280517578125,-0.014706850051879883,-0.050034575164318085
1772812438064800800,6.24980078125,0.08477497100830078,-0.03661060333251953,-0.02755800634622574
1772812438074501400,6.25950146484375,0.12807750701904297,-0.06644505262374878,-0.00022518634796142578
1772812438084202000,6.269201904296875,0.14349937438964844,-0.10141021013259888,0.008428297936916351
1772812438093902800,6.27890283203125,0.11859512329101562,-0.06771093606948853,-0.028791949152946472
1772812438103603500,6.288603515625,0.07763671875,-0.003920525312423706,-0.05218437314033508
1772812438113304000,6.298303955078125,0.012709617614746094,0.04692387580871582,-0.049343355000019073
1772812438132705300,6.317705322265625,-0.05293750762939453,0.09318241477012634,-0.008738882839679718
1772812438142406000,6.327406005859375,-0.0813894271850586,0.08959683775901794,0.04753289371728897
1772812438152106500,6.3371064453125,-0.07641410827636719,0.07931184768676758,0.11956468224525452
1772812438161807400,6.346807373046875,-0.0668182373046875,0.05497866868972778,0.1302902102470398
1772812438171508000,6.356508056640625,-0.05384540557861328,0.031117737293243408,0.13223797082901
1772812438181208600,6.36620849609375,-0.03989696502685547,0.02790030837059021,0.09853891283273697
1772812438190909200,6.3759091796875,-0.036765098571777344,0.054235219955444336,0.038410358130931854
1772812438200610000,6.385610107421875,-0.03955364227294922,0.04624581336975098,0.008607864379882812
1772812438210310700,6.395310546875,-0.019921302795410156,0.02117455005645752,-0.018115483224391937
1772812438220011300,6.40501123046875,-0.011205673217773438,-0.0031626224517822266,-0.00903794914484024
1772812438229712000,6.4147119140625,0.022032737731933594,-0.027574360370635986,0.0024865493178367615
1772812438239412500,6.42441259765625,0.04523754119873047,-0.062208473682403564,-0.01516653597354889
1772812438249113000,6.434113037109375,0.09503459930419922,-0.05219298601150513,-0.04661615192890167
1772812438258813700,6.443813720703125,0.10748291015625,-0.01916635036468506,-0.1023489385843277
1772812438268514600,6.4535146484375,0.06557846069335938,0.01826295256614685,-0.10728777199983597
1772812438278215200,6.463215087890625,-0.01677417755126953,0.021413147449493408,-0.11138150840997696
1772812438287915800,6.472915771484375,-0.08122634887695312,0.05291149020195007,-0.06837806105613708
1772812438297616400,6.482616455078125,-0.12218189239501953,0.051553875207901,-0.004527077078819275
1772812438307317200,6.492317138671875,-0.10707378387451172,0.05084773898124695,0.03417282551527023
1772812438317017900,6.502017822265625,-0.07685184478759766,0.07270896434783936,0.04737301170825958
1772812438326718500,6.511718505859375,-0.012993812561035156,0.08759376406669617,0.07688455283641815
1772812438336419000,6.521419189453125,0.02858448028564453,0.060112595558166504,0.09239603579044342
1772812438346119700,6.53111962890625,0.09764957427978516,0.020014047622680664,0.07393790036439896
1772812438355820300,6.5408203125,0.10664844512939453,0.01778694987297058,0.08565546572208405
1772812438365521200,6.550521240234375,0.12833499908447266,-0.013141512870788574,0.08315442502498627
1772812438375221800,6.5602216796875,0.12841033935546875,-0.036601364612579346,0.07081766426563263
1772812438384922400,6.56992236328125,0.09786224365234375,-0.006313979625701904,0.005395025014877319
1772812438394623000,6.579623046875,0.06549072265625,0.052919626235961914,-0.06378189474344254
1772812438404323600,6.589323486328125,-0.007472991943359375,0.10121139883995056,-0.06314755231142044
1772812438414024200,6.599024169921875,-0.07446670532226562,0.08154264092445374,-0.026965856552124023
1772812438423725000,6.60872509765625,-0.11676502227783203,0.024507641792297363,0.00930476188659668
1772812438433425700,6.61842578125,-0.11597728729248047,0.016297638416290283,0.0447341650724411
1772812438443126300,6.628126220703125,-0.09639263153076172,-0.00718572735786438,0.04830843210220337
1772812438452827000,6.637826904296875,-0.020677566528320312,-0.02006351947784424,0.029137179255485535
1772812438462527700,6.64752783203125,0.0278778076171875,-0.01680085062980652,0.030616357922554016
1772812438472228400,6.657228271484375,0.026220321655273438,0.015793263912200928,0.0019040852785110474
1772812438481929000,6.666928955078125,0.03988838195800781,0.04676172137260437,-0.026154056191444397
1772812438491629600,6.676629638671875,0.03568458557128906,0.04106584191322327,-0.008092552423477173
1772812438501330200,6.686330078125,0.03622913360595703,0.015240132808685303,0.040191859006881714
1772812438511030800,6.69603076171875,0.05084419250488281,-0.024964332580566406,0.06805473566055298
1772812438520731400,6.7057314453125,0.07341766357421875,-0.033628880977630615,0.09219174087047577
1772812438530432300,6.715432373046875,0.057949066162109375,-0.006375998258590698,0.06434355676174164
1772812438540132900,6.7251328125,0.02627086639404297,-0.002023637294769287,0.018861904740333557
1772812438549833500,6.73483349609375,-0.022508621215820312,0.006274431943893433,-0.037230730056762695
1772812438559534000,6.7445341796875,-0.06099224090576172,0.040662914514541626,-0.07923510670661926
1772812438569235000,6.75423486328125,-0.058777809143066406,0.05809947848320007,-0.12245119363069534
1772812438578935600,6.763935546875,-0.0730581283569336,0.04165378212928772,-0.094770647585392
1772812438588636200,6.77363623046875,-0.041229248046875,-0.012420684099197388,-0.040465742349624634
1772812438598336800,6.783336669921875,-0.0005502700805664062,-0.0653638243675232,-0.011656567454338074
1772812438608037400,6.793037353515625,0.004130363464355469,-0.06424996256828308,-0.002505257725715637
1772812438617738000,6.802738037109375,-0.005389213562011719,-0.01999184489250183,-0.03675936162471771
1772812438627438600,6.8124384765625,-0.006508827209472656,0.017993539571762085,-0.011947691440582275
1772812438637139500,6.822139404296875,0.002941131591796875,-0.016558706760406494,0.048813596367836
1772812438646840000,6.831840087890625,0.04046344757080078,-0.054015547037124634,0.06798200309276581
1772812438656540700,6.841540771484375,0.07028770446777344,0.004100441932678223,0.06075964868068695
1772812438666241300,6.8512412109375,0.05606365203857422,0.037148624658584595,0.050870463252067566
1772812438675942100,6.860942138671875,0.03502368927001953,0.02003076672554016,0.022491201758384705
1772812438685642800,6.870642822265625,-0.019751548767089844,0.008384525775909424,0.015020698308944702
1772812438695343400,6.88034326171875,-0.09590435028076172,0.04880282282829285,-0.01006285846233368
1772812438705044000,6.8900439453125,-0.13776874542236328,0.054961174726486206,-0.01097637414932251
1772812438714744600,6.89974462890625,-0.1553182601928711,0.0594155490398407,0.009505733847618103
1772812438724445200,6.909445068359375,-0.13724613189697266,0.03186929225921631,0.023565828800201416
1772812438734145800,6.919145751953125,-0.05598640441894531,-0.006158947944641113,0.0920761376619339
1772812438743846700,6.9288466796875,0.054411888122558594,-0.0760062038898468,0.11651396751403809
1772812438753547300,6.93854736328125,0.14875221252441406,-0.10005313158035278,0.0627741664648056
1772812438763247900,6.948247802734375,0.18851661682128906,-0.022035598754882812,-0.018869802355766296
1772812438772948500,6.957948486328125,0.17580127716064453,0.013397663831710815,-0.08908969163894653
1772812438782649000,6.967649169921875,0.1197347640991211,0.0007483363151550293,-0.13494887948036194
1772812438792350000,6.977349853515625,0.05872535705566406,-0.041842252016067505,-0.11643253266811371
1772812438802050600,6.987050537109375,0.035201072692871094,-0.05299299955368042,-0.06801745295524597
1772812438811751200,6.996751220703125,0.020307540893554688,-0.060518622398376465,-0.039675064384937286
1772812438821451800,7.00645166015625,-0.01784992218017578,-0.03856539726257324,-0.06025853753089905
1772812438831152400,7.01615234375,-0.0635690689086914,0.010626792907714844,-0.06729228794574738
1772812438840853200,7.025853271484375,-0.12024402618408203,0.015410572290420532,-0.049208864569664
1772812438850553900,7.035553955078125,-0.14298629760742188,0.0013099312782287598,-0.008350908756256104
1772812438860254500,7.04525439453125,-0.13585948944091797,-0.024889737367630005,0.00022371113300323486
1772812438869955000,7.054955078125,-0.13938522338867188,0.012971937656402588,0.010103791952133179
1772812438879655700,7.06465576171875,-0.0969381332397461,0.00393560528755188,0.034245893359184265
1772812438889356300,7.074356201171875,-0.03875446319580078,-0.004371196031570435,0.049912452697753906
1772812438899057200,7.08405712890625,0.03252887725830078,-0.030211985111236572,0.06344671547412872
1772812438908757800,7.0937578125,0.06020641326904297,-0.037131816148757935,0.04935474693775177
1772812438918458400,7.103458251953125,0.06267547607421875,-0.009691953659057617,0.05254463851451874
1772812438928159000,7.113158935546875,0.061560630798339844,0.023869961500167847,0.0350673645734787
1772812438937859600,7.122859619140625,-0.0006923675537109375,0.031245052814483643,-0.001394018530845642
1772812438947560400,7.132560546875,-0.059497833251953125,0.04327273368835449,-0.004279345273971558
1772812438957261000,7.142260986328125,-0.09843158721923828,0.03803795576095581,-0.015746332705020905
1772812438966961700,7.151961669921875,-0.10373115539550781,0.016579896211624146,0.008530020713806152
1772812438976662300,7.161662353515625,-0.0418548583984375,-0.016645580530166626,0.02480188012123108
1772812438986363000,7.17136279296875,0.022521018981933594,-0.036353856325149536,0.009102582931518555
1772812438996063500,7.1810634765625,0.0787200927734375,-0.04963555932044983,-0.030949823558330536
1772812439005764000,7.19076416015625,0.1197957992553711,-0.04656890034675598,-0.06097719073295593
1772812439015465000,7.20046484375,0.14478492736816406,-0.04472106695175171,-0.03670203685760498
1772812439025165600,7.21016552734375,0.1386871337890625,-0.060183584690093994,-0.03365832567214966
1772812439034866200,7.2198662109375,0.08323860168457031,-0.05775824189186096,-0.023486673831939697
1772812439044566800,7.22956689453125,-0.014812469482421875,-0.029552578926086426,-0.020869754254817963
1772812439054267600,7.239267578125,-0.09469032287597656,0.004470318555831909,-0.026042237877845764
1772812439063968300,7.24896826171875,-0.16724300384521484,0.03005748987197876,-0.03129082918167114
1772812439073668900,7.2586689453125,-0.16317272186279297,0.05088639259338379,-0.061857618391513824
1772812439083369500,7.268369384765625,-0.12612342834472656,0.08653289079666138,-0.10023977607488632
1772812439093070000,7.278070068359375,-0.044960975646972656,0.06213602423667908,-0.08011355996131897
1772812439102770700,7.287770751953125,0.023032188415527344,-0.012338340282440186,-0.030609942972660065
1772812439112471300,7.29747119140625,0.0968465805053711,-0.0914570689201355,0.011655747890472412
1772812439122172200,7.307172119140625,0.14931297302246094,-0.10856679081916809,0.01647885888814926
1772812439131872800,7.316872802734375,0.1396627426147461,-0.0860317051410675,-0.00023699551820755005
1772812439141573400,7.326573486328125,0.08779335021972656,-0.042136192321777344,-0.021553710103034973
1772812439151274000,7.33627392578125,0.0026950836181640625,0.006451040506362915,-0.02286534011363983
1772812439160974800,7.345974853515625,-0.05033683776855469,0.0028531551361083984,-0.011288546025753021
1772812439170675500,7.355675537109375,-0.07302093505859375,0.023140817880630493,-0.0033393651247024536
1772812439180376000,7.3653759765625,-0.05529212951660156,0.02990451455116272,0.026408270001411438
1772812439190076700,7.37507666015625,0.009187698364257812,0.03155791759490967,0.05795542895793915
1772812439199777300,7.38477734375,0.05491065979003906,0.020473867654800415,0.0504990816116333
1772812439209478000,7.394477783203125,0.053948402404785156,0.017932474613189697,0.05187872052192688
1772812439219178500,7.404178466796875,0.027083396911621094,0.03575819730758667,0.03888562321662903
1772812439228879400,7.41387939453125,-0.020508766174316406,0.0473458468914032,0.02590404450893402
1772812439238580000,7.423580078125,-0.06610488891601562,0.03821122646331787,0.03799903392791748
1772812439248280600,7.433280517578125,-0.08971309661865234,0.02332785725593567,0.03607220947742462
1772812439257981200,7.442981201171875,-0.11641788482666016,-0.0056130290031433105,0.02403213083744049
1772812439267682000,7.45268212890625,-0.09790515899658203,-0.010413914918899536,-0.00004717707633972168
1772812439277382700,7.462382568359375,-0.053778648376464844,-0.002740234136581421,-0.03493990749120712
1772812439287083300,7.472083251953125,0.00727081298828125,-0.022048145532608032,-0.052925124764442444
1772812439296784000,7.481783935546875,0.05314350128173828,-0.03694334626197815,-0.027294933795928955
1772812439306484500,7.491484375,0.10995864868164062,-0.05863022804260254,-0.02171141654253006
1772812439316185000,7.50118505859375,0.1622333526611328,-0.06958100199699402,-0.014074131846427917
1772812439325885700,7.5108857421875,0.14766883850097656,-0.036196500062942505,0.004275143146514893
1772812439335586600,7.520586669921875,0.11446571350097656,-0.02587902545928955,0.020739883184432983
1772812439345287200,7.530287109375,0.07357025146484375,-0.01392275094985962,-0.01236492395401001
1772812439354987800,7.53998779296875,-0.006604194641113281,-0.000225067138671875,-0.01565098762512207
1772812439364688400,7.5496884765625,-0.064208984375,0.026602119207382202,-0.008261427283287048
1772812439374389000,7.559388916015625,-0.10078811645507812,0.04298001527786255,0.021474137902259827
1772812439384089900,7.56908984375,-0.07553768157958984,0.008361995220184326,0.021788597106933594
1772812439393790500,7.57879052734375,-0.0554046630859375,-0.01265949010848999,0.014506295323371887
1772812439403491000,7.588490966796875,-0.016798019409179688,0.008456200361251831,0.017057791352272034
1772812439413191700,7.598191650390625,-0.008288383483886719,-0.007153600454330444,0.023639991879463196
1772812439422892300,7.607892333984375,-0.02231121063232422,-0.021174728870391846,0.025858759880065918
1772812439432593000,7.617593017578125,-0.034928321838378906,-0.022251814603805542,0.03460325300693512
1772812439442293800,7.627293701171875,-0.06497573852539062,-0.01579880714416504,0.0360434353351593
1772812439451994400,7.636994384765625,-0.05685138702392578,0.005574405193328857,0.057626575231552124
1772812439461695000,7.646695068359375,-0.02414226531982422,0.008248686790466309,0.04540945589542389
1772812439471395600,7.6563955078125,0.0080413818359375,-0.01601395010948181,0.01715509593486786
1772812439481096200,7.66609619140625,0.04086875915527344,-0.022421836853027344,-0.00449901819229126
1772812439490796800,7.675796875,0.02138805389404297,0.0066342949867248535,0.004761815071105957
1772812439500497700,7.68549755859375,0.010461807250976562,-0.008353054523468018,0.018937155604362488
1772812439510198300,7.6951982421875,-0.0026369094848632812,-0.050016552209854126,0.03456047177314758
1772812439519899000,7.70489892578125,-0.0037603378295898438,-0.026398420333862305,0.03366073966026306
1772812439529599500,7.714599609375,0.008068084716796875,0.01666143536567688,0.01988174021244049
1772812439539300000,7.724300048828125,0.018503189086914062,0.009087622165679932,0.040073394775390625
1772812439549001000,7.7340009765625,0.0005168914794921875,-0.017609208822250366,0.01471005380153656
1772812439558701600,7.74370166015625,-0.02540302276611328,-0.05683743953704834,0.01884569227695465
1772812439568402200,7.753402099609375,-0.02851581573486328,-0.04675734043121338,0.031071066856384277
1772812439578102800,7.763102783203125,-0.024499893188476562,-0.016288340091705322,0.021272897720336914
1772812439587803400,7.772803466796875,-0.015806198120117188,0.014576196670532227,-0.008089572191238403
1772812439597504000,7.78250390625,0.015125274658203125,0.024354666471481323,-0.0512157678604126
1772812439607204600,7.79220458984375,0.037299156188964844,0.03978288173675537,-0.09678751230239868
1772812439616905500,7.801905517578125,0.06495952606201172,0.002634406089782715,-0.08046652376651764
1772812439626606000,7.811606201171875,0.05681324005126953,-0.06920063495635986,-0.05536726117134094
1772812439636306700,7.821306640625,0.03699493408203125,-0.09144717454910278,-0.013380549848079681
1772812439646007300,7.83100732421875,0.046883583068847656,-0.06941333413124084,0.021701544523239136
1772812439655708200,7.840708251953125,0.020110130310058594,-0.07070493698120117,0.04210154712200165
1772812439665408800,7.85040869140625,-0.0038766860961914062,-0.06983348727226257,0.06469430029392242
1772812439675109400,7.860109375,-0.020394325256347656,-0.0441623330116272,0.05952270328998566
1772812439684810000,7.86981005859375,-0.062483787536621094,-0.002831965684890747,0.024967819452285767
1772812439694510600,7.879510498046875,-0.08263015747070312,0.06411415338516235,0.02367343008518219
1772812439704211200,7.889211181640625,-0.12120723724365234,0.067807137966156,0.04412870109081268
1772812439713911800,7.898911865234375,-0.060268402099609375,0.021720558404922485,0.003621309995651245
1772812439723612700,7.90861279296875,-0.08031272888183594,0.024046331644058228,0.041290536522865295
1772812439733313300,7.918313232421875,-0.05647563934326172,0.04658040404319763,0.10014915466308594
1772812439743014000,7.928013916015625,0.014039993286132812,0.05105316638946533,0.0672512948513031
1772812439752714500,7.937714599609375,0.016333580017089844,0.014520019292831421,-0.019076526165008545
1772812439762415000,7.9474150390625,-0.01906585693359375,-0.015059322118759155,-0.07122202962636948
1772812439772116000,7.957115966796875,0.03665447235107422,-0.0611436665058136,-0.07170987129211426
1772812439781816600,7.966816650390625,0.1054544448852539,-0.09432241320610046,-0.04525737464427948
1772812439791517200,7.97651708984375,0.2106475830078125,-0.0755496621131897,-0.062268197536468506
1772812439801217800,7.9862177734375,0.2375020980834961,-0.0329776406288147,-0.0694960504770279
1772812439810918400,7.99591845703125,0.15090179443359375,-0.018754303455352783,-0.11789653450250626
1772812439820619000,8.005618896484375,0.045764923095703125,-0.023353606462478638,-0.1304585039615631
1772812439830319600,8.015319580078126,-0.06812477111816406,0.016369253396987915,-0.15754126012325287
1772812439840020500,8.0250205078125,-0.1588115692138672,0.044390738010406494,-0.10513190925121307
1772812439849721000,8.03472119140625,-0.19020652770996094,0.06792286038398743,0.013094462454319
1772812439859421700,8.044421630859375,-0.08685493469238281,0.00017771124839782715,0.01576889306306839
1772812439869122300,8.054122314453124,-0.13929080963134766,-0.05580165982246399,0.026082836091518402
1772812439878823200,8.0638232421875,-0.08371543884277344,-0.039424240589141846,0.02964075654745102
1772812439888523800,8.073523681640625,0.032113075256347656,-0.04871514439582825,-0.08585573732852936
1772812439898224400,8.083224365234376,-0.09052562713623047,-0.024999648332595825,-0.05059323459863663
1772812439907925000,8.092925048828125,0.09823226928710938,-0.05253171920776367,-0.06957733631134033
1772812439917625600,8.10262548828125,0.10249042510986328,-0.10726207494735718,-0.06709624826908112
1772812439927326200,8.112326171875,0.15713119506835938,-0.10250848531723022,0.005070701241493225
1772812439937026800,8.12202685546875,0.31073665618896484,-0.004414230585098267,-0.003500804305076599
1772812439946727400,8.1317275390625,0.2828369140625,0.02688273787498474,-0.058519259095191956
1772812439956428300,8.14142822265625,0.2377328872680664,0.009629517793655396,-0.0735030472278595
1772812439966129000,8.15112890625,0.16988182067871094,0.046509355306625366,-0.048943229019641876
1772812439975829500,8.16082958984375,0.10321617126464844,0.04344511032104492,-0.0456957072019577
1772812439985530000,8.170530029296875,0.10828304290771484,-0.020244508981704712,-0.09575574100017548
1772812439995231000,8.18023095703125,-0.018471717834472656,-0.07342755794525146,-0.13584862649440765
1772812440004931600,8.189931640625,0.05812549591064453,0.016383588314056396,-0.2141510248184204
1772812440014632200,8.199632080078125,0.03703498840332031,0.06388381123542786,-0.2578936815261841
1772812440024332800,8.209332763671876,-0.034275054931640625,-0.0005533099174499512,-0.22290116548538208
1772812440034033400,8.219033447265625,0.02389240264892578,-0.06912049651145935,-0.18817660212516785
1772812440043734000,8.228734130859374,-0.13432788848876953,-0.005683004856109619,-0.02160373330116272
1772812440053434600,8.2384345703125,-0.22062206268310547,-0.03898081183433533,0.11846525967121124
1772812440063135500,8.248135498046874,-0.16788005828857422,-0.03870868682861328,0.139227494597435
1772812440072836000,8.257836181640625,-0.16773605346679688,0.03574889898300171,0.17252542078495026
1772812440082536700,8.26753662109375,-0.22631072998046875,0.08457335829734802,0.19453513622283936
1772812440092237300,8.2772373046875,-0.3037691116333008,0.15520751476287842,0.21347300708293915
1772812440101938200,8.286938232421875,-0.2715139389038086,0.20618221163749695,0.24584144353866577
1772812440111638800,8.296638671875,-0.3020620346069336,0.2079717069864273,0.3112354874610901
1772812440121339400,8.30633935546875,-0.25444793701171875,0.14671620726585388,0.31282028555870056
1772812440131040000,8.3160400390625,-0.11466789245605469,0.11314764618873596,0.270341694355011
1772812440140740600,8.32574072265625,0.03573036193847656,0.13430267572402954,0.17325924336910248
1772812440150441200,8.335441162109374,0.124786376953125,0.12079858779907227,0.10170967876911163
1772812440160141800,8.345141845703125,0.10755634307861328,0.07090923190116882,0.0676751583814621
1772812440169842400,8.354842529296874,0.14935588836669922,-0.00883743166923523,0.0945817232131958
1772812440179543300,8.364543212890625,0.11391258239746094,-0.07985004782676697,0.04429519176483154
1772812440189244000,8.374243896484375,0.030786514282226562,-0.07294559478759766,-0.0063425153493881226
1772812440198944500,8.383944580078126,0.03612041473388672,-0.04709869623184204,-0.050493717193603516
1772812440208645000,8.39364501953125,-0.008053779602050781,-0.044622570276260376,-0.10424204170703888
1772812440218346000,8.403345947265626,-0.04207038879394531,-0.04716014862060547,-0.10629180073738098
1772812440228046600,8.413046630859375,-0.014319419860839844,-0.04295310378074646,-0.12074391543865204
1772812440237747200,8.422747314453124,-0.009386062622070312,-0.004461705684661865,-0.07184641808271408
1772812440247447800,8.43244775390625,0.06602668762207031,-0.03541523218154907,-0.028304681181907654
1772812440257148400,8.4421484375,0.022500991821289062,-0.058387160301208496,-0.01818622648715973
1772812440266849000,8.45184912109375,0.03499603271484375,-0.06047689914703369,-0.037911608815193176
1772812440276549600,8.461549560546874,0.0014219284057617188,-0.009972572326660156,-0.09701864421367645
1772812440286250200,8.471250244140625,-0.06095314025878906,0.02680245041847229,-0.1425652801990509
1772812440295951000,8.480951171875,-0.09635257720947266,0.027745574712753296,-0.14650173485279083
1772812440305651700,8.490651611328126,-0.07930946350097656,-0.004629969596862793,-0.13775113224983215
1772812440315352300,8.500352294921875,-0.056624412536621094,0.07716229557991028,-0.04622407257556915
1772812440325053200,8.51005322265625,-0.10606670379638672,0.04132533073425293,0.0614941269159317
1772812440334753800,8.51975390625,-0.05700874328613281,0.03428119421005249,0.14032594859600067
1772812440344454400,8.529454345703124,0.037138938903808594,0.07570183277130127,0.1396031677722931
1772812440354155000,8.539155029296875,0.11086845397949219,0.08492574095726013,0.13729539513587952
1772812440363855600,8.548855712890624,0.17745494842529297,0.10967332124710083,0.11361731588840485
1772812440373556200,8.55855615234375,0.17346572875976562,0.11953547596931458,0.09294410049915314
1772812440383256800,8.5682568359375,0.21186256408691406,0.0875474214553833,0.07642108201980591
1772812440392957400,8.57795751953125,0.1648693084716797,0.044722527265548706,0.10678550601005554
