time,seconds_elapsed,z,y,x
1772812451150972000,0.106971923828125,0,0,0
1772812451170373000,0.126373046875,-0.003055572509765625,0.09170636534690857,0.07802051305770874
1772812451180073700,0.13607373046875,-0.07701683044433594,0.0887724757194519,0.15355193614959717
1772812451189774300,0.1457744140625,0.058753013610839844,0.013431549072265625,0.08178853988647461
1772812451199475000,0.155474853515625,-0.12378406524658203,0.0464288592338562,0.09335044026374817
1772812451209175600,0.165175537109375,-0.010905265808105469,0.08657419681549072,0.02858567237854004
1772812451218876400,0.17487646484375,-0.11648845672607422,0.1293298602104187,0.05801558494567871
1772812451228577000,0.184576904296875,0.003833770751953125,0.11017027497291565,0.024131178855895996
1772812451238277600,0.194277587890625,-0.031002044677734375,0.06754288077354431,-0.04194125533103943
1772812451247978200,0.203978271484375,-0.07381439208984375,0.012186437845230103,-0.017212480306625366
1772812451257678800,0.213678955078125,0.013620376586914062,-0.020974934101104736,-0.08332511782646179
1772812451267379500,0.22337939453125,-0.038127899169921875,-0.0039227306842803955,-0.1279260814189911
1772812451277080000,0.233080078125,-0.016386985778808594,-0.01668715476989746,-0.09719035029411316
1772812451286780700,0.24278076171875,0.10326194763183594,0.002524733543395996,-0.10589772462844849
1772812451296481300,0.252481201171875,0.017342567443847656,-0.05428418517112732,-0.08596740663051605
1772812451306182100,0.26218212890625,0.07735538482666016,-0.13312092423439026,-0.11441817879676819
1772812451315882800,0.2718828125,0.0066375732421875,-0.15742355585098267,-0.2049531489610672
1772812451325583400,0.281583251953125,-0.04665851593017578,-0.09824734926223755,-0.23565056920051575
1772812451335284000,0.291283935546875,-0.09508037567138672,-0.08944475650787354,-0.22577133774757385
1772812451344984600,0.300984619140625,-0.09123420715332031,-0.08494770526885986,-0.1544133722782135
1772812451354685200,0.310685302734375,-0.027251243591308594,-0.104103684425354,-0.02133534848690033
1772812451364385800,0.3203857421875,0.08647918701171875,-0.11750131845474243,0.028376489877700806
1772812451374086400,0.33008642578125,0.20009613037109375,-0.08000731468200684,0.01459677517414093
1772812451383787000,0.339787109375,0.2680482864379883,0.017508089542388916,-0.03573712706565857
1772812451393488000,0.34948779296875,0.313018798828125,0.08246105909347534,-0.08180966973304749
1772812451403188500,0.3591884765625,0.2333993911743164,0.075009286403656,-0.06806930899620056
1772812451412889000,0.36888916015625,0.17536449432373047,0.03133434057235718,-0.03457954525947571
1772812451422589700,0.378589599609375,0.09876346588134766,0.018054723739624023,-0.016153499484062195
1772812451432290300,0.388290283203125,0.011005401611328125,0.01786130666732788,-0.0313732773065567
1772812451441991000,0.397990966796875,-0.006701469421386719,0.03282439708709717,-0.0014170259237289429
1772812451451691500,0.40769140625,-0.014581680297851562,0.016864240169525146,0.043170392513275146
1772812451461392100,0.41739208984375,-0.02338409423828125,-0.03620564937591553,0.06074288487434387
1772812451471092700,0.4270927734375,0.014487266540527344,-0.08074826002120972,0.07274560630321503
1772812451480793600,0.436793701171875,0.01868152618408203,-0.07478606700897217,0.048444852232933044
1772812451490494200,0.446494140625,0.016910552978515625,-0.04891312122344971,0.017936408519744873
1772812451500194800,0.45619482421875,0.02682971954345703,-0.04422438144683838,-0.032579898834228516
1772812451509895400,0.4658955078125,0.012053489685058594,-0.05177569389343262,-0.0647159218788147
1772812451519596000,0.475595947265625,0.00118255615234375,-0.025345802307128906,-0.0701153576374054
1772812451529296600,0.485296630859375,-0.036231040954589844,0.0030840635299682617,-0.024966657161712646
1772812451538997200,0.494997314453125,-0.008559226989746094,-0.01078784465789795,0.04347631335258484
1772812451548697900,0.50469775390625,-0.004946708679199219,-0.010366976261138916,0.08968201279640198
1772812451558398500,0.5143984375,-0.0014352798461914062,0.009806394577026367,0.0744575560092926
1772812451568099300,0.524099365234375,0.013667106628417969,0.032610952854156494,0.04082430899143219
1772812451577800000,0.533800048828125,0.010878562927246094,0.04381614923477173,0.03056514263153076
1772812451587500500,0.54350048828125,-0.024590492248535156,0.06386494636535645,0.024651572108268738
1772812451597201200,0.553201171875,-0.06747150421142578,0.06032133102416992,0.004748523235321045
1772812451606901800,0.56290185546875,-0.0872039794921875,0.028359830379486084,0.05851948261260986
1772812451616602400,0.572602294921875,-0.0854654312133789,0.008641719818115234,0.1109209805727005
1772812451626303000,0.582302978515625,-0.0415496826171875,0.016269266605377197,0.10472311079502106
1772812451636003600,0.592003662109375,-0.0042972564697265625,0.07889547944068909,-0.01324695348739624
1772812451645704200,0.6017041015625,0.018262863159179688,0.12410682439804077,-0.11030901968479156
1772812451655405000,0.611405029296875,0.008745193481445312,0.14455470442771912,-0.13621777296066284
1772812451665105700,0.621105712890625,0.047499656677246094,0.05045288801193237,-0.047451168298721313
1772812451674806300,0.63080615234375,0.08897018432617188,-0.057787179946899414,0.06188388168811798
1772812451684507000,0.6405068359375,0.12489986419677734,-0.13149583339691162,0.0791369378566742
1772812451694207500,0.65020751953125,0.09670829772949219,-0.10842108726501465,-0.0026963800191879272
1772812451703908000,0.659908203125,0.05844688415527344,-0.025502145290374756,-0.081597700715065
1772812451713608700,0.669608642578125,-0.0026760101318359375,0.015010833740234375,-0.07965834438800812
1772812451723309300,0.679309326171875,-0.021600723266601562,-0.030131816864013672,-0.04277406632900238
1772812451733010000,0.689010009765625,-0.023728370666503906,-0.05010783672332764,-0.01890626549720764
1772812451742710800,0.698710693359375,-0.010481834411621094,0.01692134141921997,-0.014351069927215576
1772812451752411400,0.708411376953125,0.0026216506958007812,0.09766501188278198,-0.04687762260437012
1772812451762112000,0.718112060546875,-0.02561664581298828,0.12808215618133545,-0.044940024614334106
1772812451771812600,0.7278125,-0.06278419494628906,0.09124130010604858,-0.006290435791015625
1772812451781513200,0.73751318359375,-0.03702545166015625,0.01625692844390869,0.08334521949291229
1772812451791213800,0.7472138671875,0.027057647705078125,-0.012076139450073242,0.14883467555046082
1772812451800914400,0.75691455078125,0.08413982391357422,-0.005715608596801758,0.10114999115467072
1772812451810615000,0.766614990234375,0.10614013671875,0.04172593355178833,-0.0069533586502075195
1772812451820315600,0.776315673828125,0.07840633392333984,0.13158875703811646,-0.08067873120307922
1772812451830016500,0.7860166015625,-0.00762176513671875,0.13360857963562012,-0.1379806250333786
1772812451839717000,0.795717041015625,-0.07452583312988281,0.0653221607208252,-0.08443108201026917
1772812451849417700,0.805417724609375,-0.061562538146972656,-0.017794013023376465,0.03627005219459534
1772812451859118300,0.815118408203125,0.040518760681152344,-0.11871534585952759,0.11413860321044922
1772812451868819000,0.82481884765625,0.14317798614501953,-0.09847277402877808,0.06061461567878723
1772812451878519600,0.83451953125,0.17584896087646484,-0.025398731231689453,-0.04359525442123413
1772812451888220200,0.84422021484375,0.10443305969238281,0.04974636435508728,-0.13599824905395508
1772812451897920800,0.853920654296875,-0.026926040649414062,0.055471599102020264,-0.17213131487369537
1772812451907621600,0.86362158203125,-0.15129470825195312,0.0213966965675354,-0.1237148642539978
1772812451917322200,0.873322265625,-0.20409297943115234,-0.0014339983463287354,-0.034114643931388855
1772812451927022800,0.88302294921875,-0.19954490661621094,-0.04667755961418152,0.09292057156562805
1772812451936723500,0.892723388671875,-0.07039070129394531,-0.0811358094215393,0.1665312945842743
1772812451946424000,0.902424072265625,0.05187702178955078,-0.07581275701522827,0.12065815925598145
1772812451956124700,0.912124755859375,0.1367950439453125,0.04195594787597656,-0.011088013648986816
1772812451965825300,0.9218251953125,0.10499095916748047,0.1480269730091095,-0.07563889771699905
1772812451975526000,0.93152587890625,0.013744354248046875,0.1389627456665039,-0.08966045826673508
1772812451985226500,0.9412265625,-0.1253070831298828,0.08169183135032654,-0.056674763560295105
1772812451994927400,0.95092724609375,-0.18076038360595703,0.044213056564331055,0.015373870730400085
1772812452004628000,0.9606279296875,-0.19765758514404297,0.017243027687072754,0.13916222751140594
1772812452014328600,0.97032861328125,-0.1048879623413086,-0.02369818091392517,0.21126689016819
1772812452024029200,0.980029296875,0.027500152587890625,-0.051444798707962036,0.1523117870092392
1772812452033729800,0.989729736328125,0.10358428955078125,0.03694218397140503,0.012696534395217896
1772812452043430400,0.999430419921875,0.10431861877441406,0.11398062109947205,-0.06497043371200562
1772812452053131000,1.009131103515625,0.04505443572998047,0.08505460619926453,-0.07607948780059814
1772812452062831600,1.01883154296875,-0.009682655334472656,-0.0076843202114105225,-0.07940050959587097
1772812452072532200,1.0285322265625,-0.043506622314453125,-0.03485530614852905,-0.039209723472595215
1772812452082233000,1.038233154296875,0.007905006408691406,-0.04036587476730347,0.004341915249824524
1772812452091933700,1.04793359375,0.054862022399902344,-0.04675859212875366,0.06104372441768646
1772812452101634300,1.05763427734375,0.10687446594238281,-0.0660562515258789,0.036999255418777466
1772812452111335000,1.0673349609375,0.11914539337158203,-0.03691476583480835,0.024307265877723694
1772812452121035500,1.077035400390625,0.08291435241699219,0.013227313756942749,0.018558457493782043
1772812452130736000,1.086736083984375,0.06134319305419922,0.006609529256820679,0.017875730991363525
1772812452140436700,1.096436767578125,0.05656147003173828,-0.0450284481048584,0.020465567708015442
1772812452150137300,1.106137451171875,0.050660133361816406,-0.070505291223526,0.05810064077377319
1772812452159838000,1.115837890625,0.024862289428710938,-0.05938655138015747,0.03998924791812897
1772812452169538800,1.125538818359375,-0.012231826782226562,-0.0001093745231628418,-0.0004527866840362549
1772812452179239400,1.135239501953125,-0.07801532745361328,0.052402615547180176,-0.07375456392765045
1772812452188940000,1.14493994140625,-0.15316486358642578,0.09089469909667969,-0.12329530715942383
1772812452198640600,1.154640625,-0.20460796356201172,0.09110066294670105,-0.11237245053052902
1772812452208341200,1.16434130859375,-0.1845722198486328,0.055175989866256714,-0.011365681886672974
1772812452218041900,1.174041748046875,-0.11078357696533203,-0.019012540578842163,0.06229197978973389
1772812452227742500,1.183742431640625,-0.011221885681152344,-0.11209270358085632,0.09666158258914948
1772812452237443000,1.193443115234375,0.06310272216796875,-0.09470623731613159,0.08753512799739838
1772812452247143700,1.203143798828125,0.10557842254638672,-0.020963966846466064,0.07137879729270935
1772812452256844300,1.21284423828125,0.07206249237060547,0.03640627861022949,0.014197885990142822
1772812452266545200,1.222545166015625,0.046192169189453125,0.05371350049972534,-0.015402823686599731
1772812452276245800,1.232245849609375,0.02902698516845703,0.04008084535598755,-0.01658056676387787
1772812452285946400,1.2419462890625,-0.0007810592651367188,0.05665656924247742,0.004209429025650024
1772812452305347600,1.26134765625,0.049597740173339844,0.011534452438354492,0.05631057918071747
1772812452315048200,1.271048095703125,0.0687551498413086,-0.03312811255455017,0.05436347424983978
1772812452324748800,1.280748779296875,0.0710763931274414,-0.07107076048851013,0.02027040719985962
1772812452334449400,1.290449462890625,0.05568981170654297,-0.05709114670753479,-0.012316897511482239
1772812452344150000,1.30014990234375,0.05233573913574219,-0.02324339747428894,-0.038609594106674194
1772812452353850600,1.3098505859375,0.04668903350830078,-0.012244582176208496,-0.06575465202331543
1772812452363551500,1.319551513671875,0.058773040771484375,-0.026417911052703857,-0.051439255475997925
1772812452373252000,1.329252197265625,0.05061626434326172,-0.024684280157089233,-0.01746310293674469
1772812452382952700,1.33895263671875,0.054340362548828125,-0.01542752981185913,-0.037596434354782104
1772812452392653300,1.3486533203125,0.016832351684570312,0.007739722728729248,-0.03187011182308197
1772812452402354000,1.35835400390625,-0.05414772033691406,0.03692382574081421,-0.029516294598579407
1772812452412054500,1.368054443359375,-0.08978748321533203,0.012846648693084717,-0.038785532116889954
1772812452421755100,1.377755126953125,-0.09071540832519531,-0.014619559049606323,0.00609549880027771
1772812452431455700,1.387455810546875,-0.05750846862792969,-0.030695468187332153,0.005178555846214294
1772812452441156400,1.39715625,-0.0025033950805664062,-0.03172460198402405,-0.008690595626831055
1772812452450857000,1.40685693359375,0.032741546630859375,-0.012871593236923218,-0.02226300537586212
1772812452460557800,1.416557861328125,0.04149055480957031,-0.02134913206100464,-0.041761383414268494
1772812452470258400,1.426258544921875,-0.008761405944824219,-0.043416231870651245,-0.025971099734306335
1772812452479959000,1.435958984375,-0.03581714630126953,-0.05810827016830444,-0.017830505967140198
1772812452489659600,1.44565966796875,-0.09410858154296875,-0.018333405256271362,-0.03886888921260834
1772812452499360300,1.4553603515625,-0.13366031646728516,0.030034691095352173,-0.06496173143386841
1772812452509060900,1.465060791015625,-0.1677103042602539,0.05224055051803589,-0.07631564140319824
1772812452518761500,1.474761474609375,-0.18226337432861328,0.010832786560058594,-0.03691907227039337
1772812452528462000,1.484462158203125,-0.1353588104248047,-0.04970347881317139,0.025763973593711853
1772812452538162700,1.49416259765625,-0.05041980743408203,-0.06113976240158081,0.026451751589775085
1772812452547863600,1.503863525390625,0.009530067443847656,-0.04766702651977539,0.009021848440170288
1772812452557564200,1.513564208984375,0.11190509796142578,-0.010724067687988281,0.0516342967748642
1772812452567264800,1.5232646484375,0.1607065200805664,-0.01888936758041382,0.09673804044723511
1772812452576965400,1.53296533203125,0.15098190307617188,-0.00008511543273925781,0.06900401413440704
1772812452586666000,1.542666015625,0.1319751739501953,0.054390907287597656,0.0515013188123703
1772812452596366600,1.55236669921875,0.1191091537475586,0.09339237213134766,0.05826723575592041
1772812452606067200,1.562067138671875,0.11466217041015625,0.05741968750953674,0.04124358296394348
1772812452615767800,1.571767822265625,0.08676815032958984,0.016146749258041382,0.0028621405363082886
1772812452625468400,1.581468505859375,0.049956321716308594,0.026455968618392944,-0.03904503583908081
1772812452635169000,1.5911689453125,0.02669239044189453,0.03313088417053223,-0.03736621141433716
1772812452644869600,1.60086962890625,0.04967784881591797,0.00888797640800476,-0.023505493998527527
1772812452654570500,1.610570556640625,0.07930374145507812,-0.04507845640182495,-0.008631199598312378
1772812452664271000,1.62027099609375,0.06017494201660156,-0.07653388381004333,-0.02275995910167694
1772812452673971700,1.6299716796875,0.013133049011230469,-0.06546974182128906,-0.04703022539615631
1772812452683672300,1.63967236328125,-0.06838417053222656,-0.0237482488155365,-0.09078893065452576
1772812452693373000,1.649373046875,-0.1614370346069336,-0.023020535707473755,-0.07753726840019226
1772812452703073500,1.659073486328125,-0.21761512756347656,-0.07527640461921692,-0.02087719738483429
1772812452712774100,1.668774169921875,-0.19989013671875,-0.11875370144844055,0.03095167875289917
1772812452722474800,1.678474853515625,-0.157684326171875,-0.057193875312805176,0.019187718629837036
1772812452732175400,1.68817529296875,-0.14077091217041016,0.026926159858703613,-0.0338667631149292
1772812452741876000,1.6978759765625,-0.13575458526611328,0.09899523854255676,-0.03339095413684845
1772812452751576800,1.707576904296875,-0.1318683624267578,0.13982120156288147,-0.029659271240234375
1772812452761277400,1.71727734375,-0.07273578643798828,0.12419602274894714,0.03791449964046478
1772812452770978000,1.72697802734375,0.06996822357177734,0.04200923442840576,0.14215971529483795
1772812452780678700,1.7366787109375,0.2688884735107422,-0.05818819999694824,0.19048939645290375
1772812452790379300,1.746379150390625,0.4054527282714844,-0.09258776903152466,0.12452833354473114
1772812452800080000,1.756079833984375,0.3984088897705078,-0.06505334377288818,0.03812618553638458
1772812452809780500,1.765780517578125,0.2808103561401367,0.019488632678985596,-0.05946767330169678
1772812452819481000,1.775481201171875,0.0863790512084961,0.008898377418518066,-0.10959433019161224
1772812452829181700,1.785181640625,-0.07293319702148438,-0.017700642347335815,-0.1213802695274353
1772812452838882600,1.794882568359375,-0.21176815032958984,-0.015041083097457886,-0.10790674388408661
1772812452848583200,1.804583251953125,-0.2622518539428711,0.009952783584594727,-0.05478498339653015
1772812452858283800,1.81428369140625,-0.16240501403808594,0.009501516819000244,0.004477798938751221
1772812452867984400,1.823984375,-0.07485389709472656,-0.04206058382987976,0.09190741181373596
1772812452877685000,1.83368505859375,0.03468132019042969,-0.07244068384170532,0.10426974296569824
1772812452887385600,1.843385498046875,0.0658559799194336,-0.05745142698287964,0.07171326875686646
1772812452897086200,1.853086181640625,0.05176734924316406,0.016902506351470947,0.014205291867256165
1772812452906786800,1.862786865234375,-0.010326385498046875,0.03562527894973755,0.014871031045913696
1772812452916487400,1.8724873046875,-0.08899116516113281,0.04923340678215027,0.033831313252449036
1772812452926188300,1.882188232421875,-0.09803104400634766,0.04568791389465332,0.020381420850753784
1772812452935889000,1.891888916015625,-0.07745075225830078,0.06739485263824463,0.03076741099357605
1772812452945589500,1.901589599609375,-0.03603553771972656,0.055463314056396484,0.061682119965553284
1772812452955290000,1.9112900390625,0.015236854553222656,0.021162092685699463,0.07118846476078033
1772812452964990700,1.92099072265625,0.0655965805053711,-0.014493823051452637,0.0497288703918457
1772812452974691300,1.93069140625,0.1174325942993164,-0.011866748332977295,0.010095030069351196
1772812452984392000,1.940391845703125,0.11190414428710938,-0.010553836822509766,-0.05294938385486603
1772812452994092500,1.950092529296875,0.10174083709716797,0.0026711225509643555,-0.08111900836229324
1772812453003793200,1.959793212890625,0.07170581817626953,-0.04280823469161987,-0.08654570579528809
1772812453013494000,1.969493896484375,0.03156089782714844,-0.05153006315231323,-0.07191088795661926
1772812453023194600,1.979194580078125,0.006207466125488281,-0.04270908236503601,-0.06541450321674347
1772812453032895200,1.988895263671875,-0.032813072204589844,-0.015003502368927002,-0.08579117059707642
1772812453042595800,1.998595947265625,-0.0734853744506836,0.027332335710525513,-0.03655917942523956
1772812453052296400,2.00829638671875,-0.1381368637084961,0.03466165065765381,-0.017301693558692932
1772812453061997000,2.0179970703125,-0.14045238494873047,0.01525723934173584,0.02264942228794098
1772812453071697700,2.02769775390625,-0.14032363891601562,-0.0059836506843566895,0.05828912556171417
1772812453081398300,2.037398193359375,-0.08136844635009766,0.015121042728424072,0.09157615900039673
1772812453091099000,2.047098876953125,-0.0010900497436523438,0.007123470306396484,0.07352106273174286
1772812453100799700,2.0567998046875,0.07900142669677734,0.004198789596557617,0.02522897720336914
1772812453110500400,2.066500244140625,0.09891796112060547,0.02493464946746826,-0.033485203981399536
1772812453120201000,2.076200927734375,0.0866861343383789,0.0665326714515686,-0.025836795568466187
1772812453129901600,2.085901611328125,0.07342529296875,0.04185885190963745,0.003411605954170227
1772812453139602200,2.095602294921875,0.08035469055175781,-0.017132192850112915,0.01571899652481079
1772812453149302800,2.105302734375,0.03304481506347656,-0.005884766578674316,0.026608407497406006
1772812453159003400,2.11500341796875,-0.007556915283203125,0.05660724639892578,0.02464403212070465
1772812453168704000,2.1247041015625,-0.032123565673828125,0.06199115514755249,0.03405126929283142
1772812453178404600,2.134404541015625,-0.06564521789550781,0.03702199459075928,0.0012453347444534302
1772812453188105500,2.14410546875,-0.0632772445678711,0.03344091773033142,-0.02555030584335327
1772812453197806000,2.15380615234375,-0.011557579040527344,0.01650935411453247,-0.03685691952705383
1772812453207506700,2.163506591796875,0.03454303741455078,0.020714908838272095,-0.04562795162200928
1772812453217207300,2.173207275390625,0.05982494354248047,-0.012005329132080078,-0.024027645587921143
1772812453226908000,2.182907958984375,0.023438453674316406,-0.05524003505706787,-0.025833189487457275
1772812453236608500,2.1926083984375,-0.02295970916748047,-0.06316673755645752,-0.02671101689338684
1772812453246309000,2.20230908203125,-0.074462890625,-0.0343625545501709,-0.03565846383571625
1772812453256009700,2.212009765625,-0.09802532196044922,-0.004367649555206299,-0.02198706567287445
1772812453265710300,2.22171044921875,-0.12934494018554688,0.014777302742004395,0.002537265419960022
1772812453275411200,2.2314111328125,-0.14472579956054688,0.03568640351295471,0.022357657551765442
1772812453285111800,2.24111181640625,-0.1303396224975586,0.05832487344741821,0.06447233259677887
1772812453294812400,2.2508125,-0.07732391357421875,0.067983478307724,0.0957612544298172
1772812453304513000,2.260512939453125,0.0065765380859375,0.06854325532913208,0.0523228794336319
1772812453314213600,2.270213623046875,0.09023761749267578,0.06044059991836548,0.014216795563697815
1772812453323914200,2.279914306640625,0.16183853149414062,0.08163076639175415,-0.023055121302604675
1772812453333614800,2.28961474609375,0.24854087829589844,0.05963784456253052,0.053387805819511414
1772812453343315500,2.2993154296875,0.3053398132324219,-0.02376645803451538,0.1018884927034378
1772812453353016000,2.30901611328125,0.3128089904785156,-0.08700841665267944,0.0644034892320633
1772812453362716700,2.318716552734375,0.22362041473388672,-0.04869896173477173,-0.03027687966823578
1772812453372417500,2.32841748046875,0.06887626647949219,0.04446318745613098,-0.070389524102211
1772812453382118100,2.3381181640625,-0.07023429870605469,0.05013918876647949,-0.12126143276691437
1772812453391818800,2.34781884765625,-0.18215465545654297,0.014407098293304443,-0.11342902481555939
1772812453401519400,2.357519287109375,-0.2556018829345703,-0.013732850551605225,-0.09009023010730743
1772812453411220000,2.367219970703125,-0.2759666442871094,-0.002600371837615967,-0.015538841485977173
1772812453420920600,2.376920654296875,-0.20415210723876953,0.00824400782585144,-0.008129388093948364
1772812453430621200,2.38662109375,-0.14406394958496094,0.00018981099128723145,-0.02690868079662323
1772812453440321800,2.39632177734375,-0.09673786163330078,0.015687257051467896,0.0189124196767807
1772812453450022400,2.4060224609375,-0.03616142272949219,-0.017321228981018066,0.09560710191726685
1772812453459723000,2.415722900390625,0.062148094177246094,-0.04796919226646423,0.10489198565483093
1772812453469423600,2.425423583984375,0.11643409729003906,-0.025200992822647095,0.06557583808898926
1772812453479124200,2.435124267578125,0.14743804931640625,0.07524856925010681,0.04400114715099335
1772812453488825000,2.4448251953125,0.1567239761352539,0.12778043746948242,0.007878124713897705
1772812453498525700,2.454525634765625,0.12349224090576172,0.09274297952651978,0.0018330216407775879
1772812453508226300,2.464226318359375,0.057854652404785156,0.04599049687385559,0.01704283058643341
1772812453517927000,2.473927001953125,0.03915119171142578,0.004801690578460693,0.04130978882312775
1772812453527627500,2.48362744140625,0.05839061737060547,0.006335854530334473,0.02048259973526001
1772812453537328000,2.493328125,0.05494213104248047,-0.019084781408309937,-0.036931827664375305
1772812453547028700,2.50302880859375,0.03152942657470703,-0.0429043173789978,-0.08810923248529434
1772812453556729300,2.512729248046875,-0.02678203582763672,-0.04566556215286255,-0.10097190737724304
1772812453566430000,2.522429931640625,-0.08408164978027344,-0.03244304656982422,-0.09052591025829315
1772812453576130600,2.532130615234375,-0.13095760345458984,-0.04504522681236267,-0.04910664260387421
1772812453585831400,2.54183154296875,-0.13113975524902344,-0.07140004634857178,-0.012532740831375122
1772812453595532000,2.551531982421875,-0.09128856658935547,-0.07380953431129456,0.010569542646408081
1772812453605232600,2.561232666015625,-0.050904273986816406,-0.05111190676689148,0.01548147201538086
1772812453614933200,2.570933349609375,0.004109382629394531,0.021455079317092896,0.006151050329208374
1772812453624633900,2.5806337890625,0.024084091186523438,0.05917087197303772,-0.026831433176994324
1772812453634334500,2.59033447265625,0.030794143676757812,0.0772746205329895,-0.029473870992660522
1772812453644035000,2.60003515625,-0.007297515869140625,0.08486717939376831,-0.007285073399543762
1772812453653735700,2.609735595703125,-0.0106201171875,0.08001530170440674,0.027091607451438904
1772812453663436300,2.619436279296875,-0.012715339660644531,0.048711299896240234,0.06096445024013519
1772812453673137200,2.62913720703125,0.020483016967773438,-0.01528659462928772,0.0825037807226181
1772812453682837800,2.638837646484375,0.055419921875,-0.011327177286148071,0.05874817073345184
1772812453692538400,2.648538330078125,0.10031986236572266,0.014586180448532104,0.021011844277381897
1772812453702239000,2.658239013671875,0.0820913314819336,0.030725300312042236,-0.010258778929710388
1772812453711939600,2.667939697265625,0.017091751098632812,0.033319711685180664,-0.009257972240447998
1772812453721640200,2.67764013671875,-0.04208850860595703,0.01773253083229065,-0.012768939137458801
1772812453731340800,2.6873408203125,-0.07199573516845703,0.004768699407577515,0.001759171485900879
1772812453741041400,2.69704150390625,-0.10135364532470703,-0.007767975330352783,0.0012597143650054932
1772812453750742000,2.706741943359375,-0.0772409439086914,-0.05568665266036987,-0.010680511593818665
1772812453760443000,2.71644287109375,-0.04645347595214844,-0.017554819583892822,-0.00329744815826416
1772812453770143500,2.7261435546875,0.008519172668457031,-0.0319884717464447,-0.01596994698047638
1772812453779844000,2.735843994140625,0.07548904418945312,-0.014868080615997314,0.02356410026550293
1772812453789544700,2.745544677734375,0.10480213165283203,-0.009804576635360718,0.011226490139961243
1772812453799245300,2.755245361328125,0.1288623809814453,0.010342121124267578,0.04245412349700928
1772812453808946000,2.76494580078125,0.11126995086669922,0.014446675777435303,0.05901139974594116
1772812453818646500,2.774646484375,0.07390499114990234,-0.013565301895141602,0.0962962955236435
1772812453828347100,2.78434716796875,0.02303314208984375,-0.029851973056793213,0.1006610244512558
1772812453838047700,2.7940478515625,-0.05988883972167969,-0.01700577139854431,0.06562191247940063
1772812453847748600,2.80374853515625,-0.12838172912597656,0.037742167711257935,0.009799808263778687
1772812453857449200,2.81344921875,-0.16386127471923828,0.06725236773490906,-0.06779958307743073
1772812453867149800,2.82314990234375,-0.1739492416381836,0.05758371949195862,-0.09712237864732742
1772812453876850400,2.832850341796875,-0.13791656494140625,0.01198384165763855,-0.11746643483638763
1772812453886551000,2.842551025390625,-0.09302330017089844,-0.018152505159378052,-0.11723922193050385
1772812453896251600,2.852251708984375,-0.05475902557373047,-0.04721447825431824,-0.10303503274917603
1772812453905952300,2.8619521484375,0.00868988037109375,-0.09145587682723999,-0.07431238889694214
1772812453915652900,2.87165283203125,0.029839515686035156,-0.12231823801994324,-0.01580043137073517
1772812453925353500,2.881353515625,0.06233978271484375,-0.10338547825813293,-0.016122326254844666
1772812453935054000,2.89105419921875,0.05662250518798828,-0.04645150899887085,-0.004385322332382202
1772812453944754700,2.900754638671875,0.07686138153076172,0.029278337955474854,0.04052044451236725
1772812453954455600,2.91045556640625,0.10027027130126953,0.025916576385498047,0.055830731987953186
1772812453964156200,2.92015625,0.0985555648803711,0.055281996726989746,0.07155857980251312
1772812453973856800,2.929856689453125,0.10625934600830078,0.05459287762641907,0.07246826589107513
1772812453983557400,2.939557373046875,0.09850215911865234,0.058100730180740356,0.052729517221450806
1772812453993258000,2.949258056640625,0.08262157440185547,0.06100720167160034,0.04697476327419281
1772812454002958600,2.95895849609375,0.051726341247558594,0.06470009684562683,-0.0046392083168029785
1772812454012659200,2.9686591796875,-0.008045196533203125,0.04855543375015259,-0.005348384380340576
1772812454022359800,2.97835986328125,-0.05736351013183594,0.0008396506309509277,0.0014006346464157104
1772812454032060400,2.988060302734375,-0.057618141174316406,-0.009965389966964722,0.024831995368003845
1772812454041761000,2.997760986328125,-0.03314495086669922,-0.012771129608154297,0.045210838317871094
1772812454051461600,3.007461669921875,-0.013765335083007812,-0.0035066604614257812,0.00267830491065979
1772812454061162200,3.017162353515625,-0.013515472412109375,-0.014473050832748413,-0.05549727380275726
1772812454070862800,3.02686279296875,-0.04736328125,-0.035689353942871094,-0.07231718301773071
1772812454080563700,3.036563720703125,-0.06301593780517578,-0.04141497611999512,-0.042519330978393555
1772812454090264300,3.046264404296875,-0.04670429229736328,-0.07842850685119629,0.01726602017879486
1772812454099965000,3.05596484375,-0.0024785995483398438,-0.09712210297584534,0.05934891104698181
1772812454109665500,3.06566552734375,0.012754440307617188,-0.057742178440093994,0.04272697865962982
1772812454119366100,3.0753662109375,-0.005161285400390625,0.012748181819915771,-0.013383880257606506
1772812454129066800,3.085066650390625,-0.06270599365234375,0.052626967430114746,-0.04575246572494507
1772812454138767400,3.094767333984375,-0.12863731384277344,0.04319646954536438,-0.06343935430049896
1772812454148468000,3.104468017578125,-0.123992919921875,0.0006459951400756836,-0.02746543288230896
1772812454158168600,3.11416845703125,-0.07113838195800781,-0.023171454668045044,0.014889001846313477
1772812454167869400,3.123869384765625,0.007915496826171875,0.0022574961185455322,0.0193539559841156
1772812454177570000,3.133570068359375,0.0656290054321289,0.0006924867630004883,-0.007174476981163025
1772812454187270700,3.143270751953125,0.12469196319580078,0.01778733730316162,-0.00026538968086242676
1772812454196971300,3.15297119140625,0.16739463806152344,0.00096091628074646,0.001191169023513794
1772812454206672000,3.162671875,0.1857280731201172,-0.012975335121154785,0.009552046656608582
1772812454216372500,3.17237255859375,0.1836109161376953,-0.05954053997993469,0.04408034682273865
1772812454226073000,3.182072998046875,0.16968727111816406,-0.08337116241455078,0.0368308424949646
1772812454235773700,3.191773681640625,0.12304210662841797,-0.033485978841781616,-0.007994815707206726
1772812454245474300,3.201474365234375,0.03369331359863281,0.014710843563079834,-0.044086337089538574
1772812454255175200,3.211175048828125,-0.06467723846435547,0.008100330829620361,-0.05428469181060791
1772812454264875800,3.220875732421875,-0.1566152572631836,0.023737996816635132,-0.05060994625091553
1772812454274576400,3.230576416015625,-0.2022571563720703,-0.015564382076263428,0.002638980746269226
1772812454284277000,3.240277099609375,-0.1882791519165039,-0.04126867651939392,0.03358377516269684
1772812454293977600,3.2499775390625,-0.15450096130371094,-0.04249006509780884,0.04840487241744995
1772812454303678200,3.25967822265625,-0.09300518035888672,-0.032903432846069336,0.01887361705303192
1772812454313378800,3.26937890625,-0.048980712890625,0.021074533462524414,0.0072495341300964355
1772812454323079400,3.279079345703125,-0.016277313232421875,0.018748313188552856,0.00848434865474701
1772812454332780000,3.288780029296875,0.021715164184570312,-0.04033336043357849,0.0641411691904068
1772812454342480600,3.298480712890625,0.030796051025390625,-0.03371375799179077,0.09033702313899994
1772812454352181500,3.308181396484375,0.0761556625366211,0.007596820592880249,0.08280161023139954
1772812454361882000,3.317882080078125,0.12660789489746094,0.047360390424728394,0.056122854351997375
1772812454371582700,3.327582763671875,0.0997018814086914,0.03473827242851257,0.031785011291503906
1772812454381283300,3.337283447265625,0.06381988525390625,0.018002420663833618,0.014981210231781006
1772812454390984000,3.34698388671875,0.02032756805419922,0.002824723720550537,0.003268688917160034
1772812454400684500,3.3566845703125,-0.049485206604003906,-0.0009810328483581543,-0.022906973958015442
1772812454410385200,3.36638525390625,-0.07457447052001953,-0.038801223039627075,-0.043847158551216125
1772812454420085800,3.376085693359375,-0.06507587432861328,-0.046698570251464844,-0.07618436217308044
1772812454429786400,3.385786376953125,-0.02039813995361328,-0.01631370186805725,-0.16068996489048004
1772812454439487000,3.395487060546875,0.017658233642578125,0.00547066330909729,-0.16369423270225525
1772812454449187600,3.4051875,0.05031013488769531,-0.04455110430717468,-0.10672151297330856
1772812454458888200,3.41488818359375,0.08703804016113281,-0.0976475179195404,-0.044242337346076965
1772812454468588800,3.4245888671875,0.11014747619628906,-0.11862882971763611,-0.01788315176963806
1772812454478289400,3.434289306640625,0.06109333038330078,-0.05314064025878906,-0.058264344930648804
1772812454487990300,3.443990234375,-0.03065776824951172,-0.03917980194091797,-0.07719384133815765
1772812454497691000,3.45369091796875,-0.10552501678466797,-0.028776943683624268,-0.0541854202747345
1772812454507391500,3.4633916015625,-0.14498138427734375,-0.02198466658592224,-0.0731801688671112
1772812454517092000,3.473092041015625,-0.13900279998779297,0.019004076719284058,-0.04388436675071716
1772812454526792700,3.482792724609375,-0.14246463775634766,0.02985084056854248,0.0005929321050643921
1772812454536493300,3.492493408203125,-0.11285781860351562,0.05917710065841675,0.029206007719039917
1772812454546194000,3.50219384765625,-0.11076164245605469,0.060586899518966675,0.059606462717056274
1772812454555894500,3.51189453125,-0.12630367279052734,0.04081994295120239,0.09383819997310638
1772812454565595100,3.52159521484375,-0.08862781524658203,0.01400899887084961,0.10890831053256989
1772812454575296000,3.5312958984375,0.017782211303710938,0.021299093961715698,0.10046862065792084
1772812454584996600,3.54099658203125,0.1435232162475586,0.030599355697631836,0.07939784228801727
1772812454594697200,3.550697265625,0.2412090301513672,0.04013720154762268,0.029318109154701233
1772812454604397800,3.560397705078125,0.2654266357421875,0.08045032620429993,-0.01531246304512024
1772812454614098400,3.570098388671875,0.2562255859375,0.097420334815979,-0.01812031865119934
1772812454623799000,3.579799072265625,0.1730060577392578,0.07111021876335144,-0.016198784112930298
1772812454633499600,3.589499755859375,0.11464691162109375,0.05764684081077576,-0.01043836772441864
1772812454643200300,3.5992001953125,0.06194305419921875,0.035798221826553345,0.015497282147407532
1772812454652900900,3.60890087890625,0.01836681365966797,0.010608106851577759,-0.025944337248802185
1772812454662601700,3.618601806640625,-0.04917335510253906,0.0010711848735809326,-0.03693874180316925
1772812454672302300,3.62830224609375,-0.10260391235351562,-0.02311691641807556,-0.04036097228527069
1772812454682003000,3.6380029296875,-0.13038063049316406,-0.002454698085784912,-0.04676319658756256
1772812454691703600,3.64770361328125,-0.15642070770263672,0.016219496726989746,-0.06280344724655151
1772812454701404200,3.657404052734375,-0.17606258392333984,0.00487479567527771,-0.05312088131904602
1772812454711104800,3.667104736328125,-0.13412761688232422,0.026107579469680786,-0.014530986547470093
1772812454720805400,3.676805419921875,-0.05991935729980469,0.0018936991691589355,0.03207129240036011
1772812454730506000,3.686506103515625,0.013024330139160156,0.0021533966064453125,0.0483139306306839
1772812454740206600,3.69620654296875,0.09410667419433594,0.00798758864402771,0.0637005865573883
1772812454749907200,3.7059072265625,0.14548301696777344,0.005624711513519287,0.09452742338180542
1772812454759607800,3.71560791015625,0.19000244140625,-0.005895107984542847,0.09604795277118683
1772812454769308400,3.725308349609375,0.18429183959960938,0.00476422905921936,0.06939363479614258
1772812454779009300,3.73500927734375,0.1468944549560547,0.02545914053916931,0.03261163830757141
1772812454798410500,3.754410400390625,0.04222869873046875,0.010865598917007446,-0.018032804131507874
1772812454808111000,3.764111083984375,-0.024509429931640625,0.004172712564468384,-0.06069101393222809
1772812454817811700,3.773811767578125,-0.07714557647705078,-0.012193083763122559,-0.05133305490016937
1772812454827512300,3.78351220703125,-0.10297870635986328,-0.032190948724746704,-0.050775930285453796
1772812454837213000,3.793212890625,-0.15186500549316406,-0.03447577357292175,-0.029160991311073303
1772812454846913500,3.80291357421875,-0.15401172637939453,-0.0453948974609375,-0.02121049165725708
1772812454856614100,3.8126142578125,-0.12665653228759766,-0.04337218403816223,-0.012604355812072754
1772812454866314800,3.822314697265625,-0.10914230346679688,-0.03251850605010986,0.005455493927001953
1772812454876015400,3.832015380859375,-0.04720020294189453,-0.018106311559677124,0.005426287651062012
1772812454885716000,3.841716064453125,0.02309703826904297,-0.0032595396041870117,0.014828920364379883
1772812454895416800,3.851416748046875,0.08746337890625,0.009022742509841919,0.06526094675064087
1772812454905117400,3.861117431640625,0.13537979125976562,0.006488710641860962,0.12201578915119171
1772812454924518700,3.8805185546875,0.09646320343017578,0.025725364685058594,0.10998788475990295
1772812454934219300,3.89021923828125,0.030007362365722656,0.04607045650482178,0.06056489050388336
1772812454943919900,3.899919921875,-0.022367477416992188,0.03049600124359131,0.028887048363685608
1772812454953620500,3.909620361328125,-0.06911087036132812,0.021080702543258667,0.010770067572593689
1772812454963321000,3.919321044921875,-0.09150123596191406,0.0021671950817108154,0.0023898035287857056
1772812454973021700,3.929021728515625,-0.09112071990966797,-0.00517389178276062,-0.003055199980735779
1772812454982722600,3.93872265625,-0.06480598449707031,-0.012926459312438965,-0.04020790755748749
1772812454992423200,3.948423095703125,-0.055373191833496094,-0.0035405755043029785,-0.06517396867275238
1772812455002123800,3.958123779296875,-0.017861366271972656,-0.04121360182762146,-0.06696958839893341
1772812455011824400,3.967824462890625,0.020175933837890625,-0.06787285208702087,-0.10320970416069031
1772812455021525000,3.97752490234375,0.0740213394165039,-0.060529887676239014,-0.127028226852417
1772812455031225600,3.9872255859375,0.12102985382080078,-0.047642529010772705,-0.10849133878946304
1772812455040926200,3.99692626953125,0.11541080474853516,-0.06980392336845398,-0.05440135300159454
1772812455050626800,4.006626708984375,0.11100196838378906,-0.07322573661804199,-0.0032445192337036133
1772812455060327400,4.016327392578125,0.06073570251464844,-0.044718921184539795,0.05880455672740936
1772812455070028000,4.026028076171875,-0.011091232299804688,0.006428629159927368,0.10822935402393341
1772812455079728600,4.035728759765625,-0.05582904815673828,0.013735562562942505,0.12473797798156738
1772812455099130000,4.055130126953125,-0.13928508758544922,0.05547329783439636,0.08286656439304352
1772812455108830700,4.064830810546875,-0.1334085464477539,0.10217159986495972,0.04381166398525238
1772812455118531300,4.07453125,-0.10049915313720703,0.10616675019264221,0.01841600239276886
1772812455128232000,4.08423193359375,-0.07633495330810547,0.08876416087150574,0.02799135446548462
1772812455137932500,4.0939326171875,-0.038455963134765625,0.06599119305610657,0.06264196336269379
1772812455147633200,4.103633056640625,0.004637718200683594,0.04169183969497681,0.0756908506155014
1772812455157333800,4.113333740234375,0.02931976318359375,0.024983584880828857,0.07193048298358917
1772812455167034400,4.123034423828125,0.012371063232421875,-0.028901606798171997,0.05513082444667816
1772812455176735000,4.13273486328125,0.003926277160644531,-0.034106552600860596,-0.013408765196800232
1772812455186435600,4.142435546875,0.008566856384277344,-0.02181011438369751,-0.09090564399957657
1772812455196136200,4.15213623046875,0.00019931793212890625,0.012553185224533081,-0.1643047332763672
1772812455205836800,4.1618369140625,0.00021648406982421875,0.016986161470413208,-0.16385070979595184
1772812455215537700,4.17153759765625,-0.03268718719482422,0.012174218893051147,-0.12617874145507812
1772812455225238300,4.18123828125,-0.016806602478027344,-0.0029806196689605713,-0.08650892972946167
1772812455234939000,4.19093896484375,-0.02590465545654297,-0.012986958026885986,-0.049050286412239075
1772812455244639500,4.200639404296875,-0.004261016845703125,-0.04000037908554077,-0.0029229819774627686
1772812455254340000,4.210340087890625,0.005225181579589844,-0.059763103723526,-0.0060780346393585205
1772812455264040700,4.220040771484375,0.03453826904296875,-0.05835050344467163,-0.05389346182346344
1772812455273741300,4.2297412109375,0.06218147277832031,-0.05756792426109314,-0.07494719326496124
1772812455283442000,4.23944189453125,0.05876350402832031,-0.01636633276939392,-0.10508345067501068
1772812455293142500,4.249142578125,0.04363441467285156,0.014301449060440063,-0.10020239651203156
1772812455302843400,4.258843505859375,-0.010060310363769531,-0.00010007619857788086,-0.03656508028507233
1772812455312544000,4.2685439453125,-0.056972503662109375,-0.012700766324996948,0.01851177215576172
1772812455322244600,4.27824462890625,-0.0760345458984375,-0.025688141584396362,0.06634083390235901
1772812455331945200,4.2879453125,-0.07592964172363281,-0.011964261531829834,0.07239778339862823
1772812455341645800,4.297645751953125,-0.07816314697265625,0.02903887629508972,0.037422940135002136
1772812455351346400,4.307346435546875,-0.06386280059814453,0.046478092670440674,0.04089932143688202
1772812455361047000,4.317047119140625,-0.045070648193359375,0.04052180051803589,0.019413664937019348
1772812455370747600,4.32674755859375,-0.012464523315429688,0.04875794053077698,-0.0069199055433273315
1772812455380448300,4.3364482421875,0.004305839538574219,0.07663732767105103,0.0077835917472839355
1772812455390148900,4.34614892578125,0.051344871520996094,0.06922730803489685,0.016615822911262512
1772812455399849500,4.355849365234375,0.061097145080566406,0.04486533999443054,0.04441158473491669
1772812455409550000,4.365550048828125,0.08596515655517578,0.03467214107513428,0.05868309736251831
1772812455419250700,4.375250732421875,0.07747650146484375,0.05886805057525635,0.044794559478759766
1772812455428951300,4.384951416015625,0.04796028137207031,0.07142877578735352,0.04959392547607422
1772812455438652200,4.394652099609375,0.04599189758300781,0.0711824893951416,0.02819731831550598
1772812455448352800,4.404352783203125,0.03818035125732422,0.06058230996131897,-0.004316002130508423
1772812455458053400,4.414053466796875,0.05166053771972656,0.03677496314048767,-0.030749276280403137
1772812455467754000,4.42375390625,0.06368446350097656,0.023741990327835083,-0.008985474705696106
1772812455477454600,4.43345458984375,0.05665397644042969,-0.018451571464538574,0.0030257999897003174
1772812455487155200,4.4431552734375,0.03091144561767578,-0.05460965633392334,-0.026039600372314453
1772812455496855800,4.452855712890625,-0.04145050048828125,-0.03929018974304199,-0.04864524304866791
1772812455506556400,4.462556396484375,-0.09730339050292969,-0.050556331872940063,-0.06378385424613953
1772812455516257000,4.472257080078125,-0.14039993286132812,-0.06007799506187439,-0.07333594560623169
1772812455525957600,4.48195751953125,-0.16624069213867188,-0.04438513517379761,-0.06958524882793427
1772812455545359000,4.501359130859375,-0.1063222885131836,-0.01268857717514038,0.009184405207633972
1772812455555059700,4.511059814453125,-0.05263233184814453,-0.006066501140594482,0.0694282203912735
1772812455564760300,4.52076025390625,-0.00220489501953125,0.02123439311981201,0.08727474510669708
1772812455574461000,4.5304609375,0.05443763732910156,0.08784949779510498,0.03397013247013092
1772812455584161500,4.54016162109375,0.06777286529541016,0.13448864221572876,-0.007455810904502869
1772812455593862100,4.549862060546875,0.08440399169921875,0.12395042181015015,-0.02865585684776306
1772812455603562800,4.559562744140625,0.06541824340820312,0.08011177182197571,-0.008504912257194519
1772812455613263400,4.569263427734375,0.09964752197265625,0.0277940034866333,0.01693744957447052
1772812455622964200,4.578964111328125,0.13325119018554688,-0.0097636878490448,0.034257322549819946
1772812455632664800,4.588664794921875,0.13446331024169922,-0.004563629627227783,0.026587828993797302
1772812455642365400,4.598365478515625,0.1167898178100586,-0.010750144720077515,0.0383162647485733
1772812455652066000,4.608066162109375,0.06644439697265625,-0.026583075523376465,0.009161338210105896
1772812455661766700,4.6177666015625,0.012248992919921875,-0.03007325530052185,0.0016189813613891602
1772812455671467300,4.62746728515625,-0.06336116790771484,-0.07038667798042297,-0.0033866912126541138
1772812455681168000,4.63716796875,-0.09294891357421875,-0.05009126663208008,-0.008488789200782776
1772812455690868500,4.646868408203125,-0.09140872955322266,-0.04006338119506836,0.013981670141220093
1772812455700569000,4.656569091796875,-0.08163738250732422,-0.0028870701789855957,0.022630512714385986
1772812455710269700,4.666269775390625,-0.08377933502197266,0.004450082778930664,0.049689292907714844
1772812455719970300,4.67597021484375,-0.0823526382446289,0.0118790864944458,0.08366651833057404
1772812455729671000,4.6856708984375,-0.06210517883300781,0.0409092903137207,0.09502296149730682
1772812455739371500,4.69537158203125,-0.05511474609375,0.0666431188583374,0.09379935264587402
1772812455749072100,4.705072021484375,-0.05408287048339844,0.07631245255470276,0.07853098213672638
1772812455758772700,4.714772705078125,-0.034216880798339844,0.06750550866127014,0.023288816213607788
1772812455768473600,4.7244736328125,-0.026439666748046875,0.07667487859725952,-0.02733255922794342
1772812455778174200,4.73417431640625,0.017658233642578125,0.04421398043632507,-0.028624460101127625
1772812455787874800,4.743874755859375,0.062155723571777344,-0.008638054132461548,-0.03709135949611664
1772812455797575400,4.753575439453125,0.0811624526977539,-0.038417428731918335,-0.0404869019985199
1772812455807276000,4.763276123046875,0.08571338653564453,-0.0486445426940918,-0.048596128821372986
1772812455816976600,4.7729765625,0.07252216339111328,-0.06262791156768799,-0.04827994108200073
1772812455826677200,4.78267724609375,0.04542064666748047,-0.06551828980445862,-0.062062591314315796
1772812455836377900,4.7923779296875,0.017606735229492188,-0.04177933931350708,-0.07455076277256012
1772812455846078500,4.802078369140625,0.053795814514160156,-0.022788196802139282,-0.0911920964717865
1772812455855779300,4.811779296875,0.06937122344970703,-0.0360165536403656,-0.03788098692893982
1772812455865480000,4.82147998046875,0.0834503173828125,-0.0562710165977478,-0.03289636969566345
1772812455875180500,4.8311806640625,0.08431053161621094,-0.0482596755027771,-0.0246170312166214
1772812455884881200,4.840881103515625,0.059253692626953125,0.0035013556480407715,-0.030523404479026794
1772812455894581800,4.850581787109375,-0.020681381225585938,0.031994134187698364,0.0002351701259613037
1772812455904282400,4.860282470703125,-0.08513736724853516,0.017362385988235474,0.008811131119728088
1772812455913983000,4.86998291015625,-0.12845993041992188,0.012595146894454956,0.015223264694213867
1772812455923683600,4.87968359375,-0.1392040252685547,0.05092379450798035,0.0036792606115341187
1772812455933384200,4.88938427734375,-0.1520557403564453,0.06658843159675598,0.013880595564842224
1772812455952785400,4.908785400390625,-0.0544586181640625,0.015486389398574829,0.07044218480587006
1772812455962486000,4.918486083984375,0.03245258331298828,-0.004564434289932251,0.08234483003616333
1772812455972186600,4.9281865234375,0.09080886840820312,0.006310701370239258,0.08415518701076508
1772812455981887200,4.93788720703125,0.1481475830078125,0.01827263832092285,0.049132391810417175
1772812455991587800,4.947587890625,0.17387866973876953,0.014722585678100586,0.03151969611644745
1772812456001288700,4.957288818359375,0.13441944122314453,-0.033067166805267334,0.02557280659675598
1772812456010989300,4.9669892578125,0.10147571563720703,-0.044849693775177,-0.012163057923316956
1772812456020690000,4.97668994140625,0.06906604766845703,-0.04931125044822693,-0.04125489294528961
1772812456030390500,4.986390625,0.03836345672607422,-0.07147499918937683,-0.04857245087623596
1772812456040091100,4.996091064453125,0.009366035461425781,-0.06387072801589966,-0.08831906318664551
1772812456049791700,5.005791748046875,-0.01912975311279297,-0.04942837357521057,-0.13095706701278687
1772812456059492400,5.015492431640625,-0.07416915893554688,-0.038341134786605835,-0.11147880554199219
1772812456069193000,5.02519287109375,-0.11414241790771484,-0.05512383580207825,-0.09378495812416077
1772812456078893600,5.0348935546875,-0.13460636138916016,-0.034864068031311035,-0.07320315390825272
1772812456088594400,5.044594482421875,-0.10646820068359375,-0.026168793439865112,-0.003525346517562866
1772812456098295000,5.054294921875,-0.11057758331298828,-0.027011066675186157,0.07158717513084412
1772812456107995600,5.06399560546875,-0.1028432846069336,-0.03474721312522888,0.10895812511444092
1772812456117696300,5.0736962890625,-0.08813953399658203,-0.01239803433418274,0.08368389308452606
1772812456127396900,5.08339697265625,-0.06774234771728516,0.011732041835784912,0.058486804366111755
1772812456137097500,5.093097412109375,-0.04294776916503906,0.03777039051055908,0.05372735857963562
1772812456146798000,5.102798095703125,0.03436851501464844,0.041597843170166016,0.03429926931858063
1772812456156498700,5.112498779296875,0.11154842376708984,0.03920489549636841,-0.0018371492624282837
1772812456166199300,5.12219921875,0.16855335235595703,0.03185662627220154,0.008242100477218628
1772812456175900000,5.13189990234375,0.20217037200927734,0.011862576007843018,0.020493924617767334
1772812456185600500,5.1416005859375,0.17751502990722656,-0.022699981927871704,-0.006620466709136963
1772812456195301000,5.151301025390625,0.10029411315917969,-0.038864701986312866,-0.005636453628540039
1772812456205001700,5.161001708984375,-0.0038785934448242188,-0.045092880725860596,-0.004992187023162842
1772812456214702300,5.170702392578125,-0.07804012298583984,-0.06282058358192444,-0.0019495636224746704
1772812456224403000,5.18040283203125,-0.09678459167480469,-0.05260401964187622,-0.036739274859428406
1772812456234103800,5.190103759765625,-0.09163665771484375,-0.04721328616142273,-0.04803767800331116
1772812456243804400,5.199804443359375,-0.07828617095947266,-0.0022259652614593506,-0.03971017897129059
1772812456253505000,5.209505126953125,-0.05691242218017578,0.0077588558197021484,-0.05017048120498657
1772812456263205600,5.21920556640625,0.004096031188964844,-0.003156214952468872,-0.03581196069717407
1772812456272906200,5.22890625,0.007584571838378906,-0.012471020221710205,-0.009487912058830261
1772812456282606800,5.23860693359375,-0.009018898010253906,-0.009343385696411133,0.028240114450454712
1772812456292307500,5.248307373046875,-0.030055999755859375,-0.008603304624557495,0.04091738164424896
1772812456302008000,5.258008056640625,-0.055411338806152344,0.0035792291164398193,0.06072479486465454
1772812456311708700,5.267708740234375,-0.06616497039794922,0.03097069263458252,0.0651138573884964
1772812456321409500,5.277409423828125,-0.042568206787109375,0.05444258451461792,0.04390855133533478
1772812456331110100,5.287110107421875,0.005345344543457031,0.028503060340881348,0.05198848247528076
1772812456340810800,5.296810791015625,0.050087928771972656,0.022852599620819092,0.06189852952957153
1772812456350511400,5.306511474609375,0.09639644622802734,0.009330600500106812,0.013823524117469788
1772812456360212000,5.3162119140625,0.12069892883300781,0.012303262948989868,-0.01637379825115204
1772812456369912600,5.32591259765625,0.12807655334472656,0.006729841232299805,-0.04250621795654297
1772812456379613200,5.33561328125,0.092926025390625,-0.007085233926773071,-0.05356210470199585
1772812456389313800,5.345313720703125,0.020700454711914062,-0.055099666118621826,-0.04555366933345795
1772812456399014400,5.355014404296875,-0.043250083923339844,-0.05009081959724426,-0.03836086392402649
1772812456408715000,5.364715087890625,-0.08961963653564453,-0.03466618061065674,-0.05428074300289154
1772812456418415600,5.37441552734375,-0.09163475036621094,-0.038323670625686646,-0.07440924644470215
1772812456428116200,5.3841162109375,-0.07943534851074219,-0.017020851373672485,-0.0516524612903595
1772812456437816800,5.39381689453125,-0.06153106689453125,0.0020598769187927246,-0.03985007107257843
1772812456447517400,5.403517333984375,-0.021597862243652344,0.01313808560371399,-0.0026221424341201782
1772812456457218000,5.413218017578125,0.018808364868164062,-0.011025995016098022,0.020548731088638306
1772812456466919000,5.4229189453125,0.03730487823486328,-0.00645756721496582,0.04357272386550903
1772812456476619500,5.43261962890625,0.036624908447265625,-0.0074439942836761475,0.06417849659919739
1772812456486320000,5.442320068359375,0.05830097198486328,-0.005174994468688965,0.059433236718177795
1772812456496020700,5.452020751953125,0.02080821990966797,0.019694030284881592,0.020568519830703735
1772812456505721300,5.461721435546875,0.008688926696777344,0.05068689584732056,-0.0016765296459197998
1772812456515422000,5.471421875,-0.017301559448242188,0.06190377473831177,-0.021556422114372253
1772812456525122600,5.48112255859375,-0.029888153076171875,0.037141263484954834,-0.002172335982322693
1772812456534823200,5.4908232421875,-0.0340118408203125,0.01450049877166748,0.01626475155353546
1772812456544523800,5.500523681640625,-0.013363838195800781,-0.005218565464019775,0.037325501441955566
1772812456554224600,5.510224609375,-0.01659107208251953,-0.013802140951156616,0.015137448906898499
1772812456563925200,5.51992529296875,-0.009184837341308594,-0.02230048179626465,0.005449205636978149
1772812456573625900,5.5296259765625,0.015733718872070312,-0.011076480150222778,-0.017599254846572876
1772812456583326500,5.539326416015625,0.059058189392089844,0.009956836700439453,-0.05802971124649048
1772812456593027000,5.549027099609375,0.051036834716796875,0.02509361505508423,-0.06171627342700958
1772812456602727700,5.558727783203125,0.05605030059814453,-0.026775091886520386,-0.0489656925201416
1772812456612428300,5.56842822265625,0.055069923400878906,-0.03717166185379028,-0.017751634120941162
1772812456622129000,5.57812890625,0.039966583251953125,-0.028890520334243774,0.01684945821762085
1772812456631829500,5.58782958984375,0.019225120544433594,-0.04285725951194763,0.011835485696792603
1772812456641530000,5.597530029296875,-0.008235931396484375,-0.032666921615600586,0.01879251003265381
1772812456651230700,5.607230712890625,-0.01993083953857422,-0.004562556743621826,-0.010467231273651123
1772812456660931300,5.616931396484375,-0.019631385803222656,0.01872652769088745,-0.04348556697368622
1772812456670632000,5.6266318359375,-0.029926300048828125,0.02611255645751953,0.0011139214038848877
1772812456680332500,5.63633251953125,-0.05181598663330078,-0.02204647660255432,0.05061715841293335
1772812456690033200,5.646033203125,-0.06862545013427734,-0.0657854974269867,0.0896485447883606
1772812456699734000,5.655734130859375,-0.06512928009033203,-0.030740946531295776,0.058318838477134705
1772812456709434600,5.6654345703125,-0.06282997131347656,0.027927428483963013,0.012101009488105774
1772812456719135200,5.67513525390625,-0.0569915771484375,0.06298002600669861,-0.04056955873966217
1772812456728835800,5.6848359375,-0.034732818603515625,0.07728099822998047,-0.05226008594036102
1772812456738536400,5.694536376953125,0.005991935729980469,0.07065850496292114,-0.007812947034835815
1772812456748237000,5.704237060546875,0.038956642150878906,0.04634976387023926,0.03428506851196289
1772812456757937700,5.713937744140625,0.0771932601928711,0.0025593042373657227,0.06900733709335327
1772812456767638300,5.72363818359375,0.1006021499633789,-0.033618807792663574,0.10211677849292755
1772812456777339000,5.7333388671875,0.10354804992675781,-0.06712892651557922,0.07700556516647339
1772812456787039700,5.743039794921875,0.08402442932128906,-0.05671483278274536,0.04408474266529083
1772812456796740400,5.752740234375,0.06126213073730469,-0.036810606718063354,-0.017061427235603333
1772812456806441000,5.76244091796875,0.035353660583496094,-0.018709838390350342,-0.07578399777412415
1772812456816141600,5.7721416015625,-0.019469261169433594,-0.00116768479347229,-0.09087244421243668
1772812456825842200,5.78184228515625,-0.09799766540527344,0.009640216827392578,-0.06801412999629974
1772812456835542800,5.791542724609375,-0.13867664337158203,-0.01911979913711548,-0.031566932797431946
1772812456845243400,5.801243408203125,-0.1315622329711914,-0.031589001417160034,-0.0013271123170852661
1772812456854944000,5.810944091796875,-0.10455799102783203,-0.03729143738746643,0.022616803646087646
1772812456864644600,5.82064453125,-0.035671234130859375,-0.05996730923652649,0.032872751355171204
1772812456884045800,5.8400458984375,0.05859184265136719,0.025131136178970337,-0.04459729790687561
1772812456893746400,5.849746337890625,0.03292655944824219,0.03246226906776428,-0.040146708488464355
1772812456903447000,5.859447021484375,0.012404441833496094,0.022276848554611206,-0.01793086528778076
1772812456913147600,5.869147705078125,-0.010102272033691406,0.04151332378387451,-0.000643804669380188
1772812456922848300,5.87884814453125,-0.014581680297851562,0.015339195728302002,0.04287204146385193
1772812456932549000,5.888549072265625,0.016294479370117188,0.0013877451419830322,0.05696974694728851
1772812456942249700,5.898249755859375,0.06309032440185547,0.016169041395187378,0.019804954528808594
1772812456951950300,5.907950439453125,0.044373512268066406,0.0121479332447052,0.010411545634269714
1772812456961651000,5.91765087890625,0.03417491912841797,0.0002270340919494629,0.010852321982383728
1772812456971351600,5.9273515625,-0.001743316650390625,-0.02010166645050049,-0.012789011001586914
1772812456981052200,5.93705224609375,-0.03703117370605469,-0.019465714693069458,-0.006673887372016907
1772812456990752800,5.946752685546875,-0.06815528869628906,-0.021176785230636597,0.004847019910812378
1772812457000453400,5.956453369140625,-0.05755043029785156,-0.034610092639923096,0.005716800689697266
1772812457010154000,5.966154052734375,-0.049429893493652344,-0.04438328742980957,-0.0033179670572280884
1772812457019854600,5.9758544921875,-0.008479118347167969,-0.007818639278411865,-0.026860088109970093
1772812457029555200,5.98555517578125,0.03885173797607422,0.020777523517608643,-0.055562615394592285
1772812457039255800,5.995255859375,0.07709789276123047,0.0076560378074646,-0.04288002848625183
1772812457048956400,6.004956298828125,0.11109066009521484,-0.016417503356933594,0.0070594847202301025
1772812457058657000,6.014656982421875,0.12562847137451172,-0.025042951107025146,0.015522778034210205
1772812457068357600,6.024357666015625,0.08930301666259766,0.029120147228240967,0.0009656548500061035
1772812457078058500,6.03405859375,0.011237144470214844,0.04139918088912964,0.0032558590173721313
1772812457087759000,6.043759033203125,-0.044318199157714844,0.015695840120315552,0.007782250642776489
1772812457097459700,6.053459716796875,-0.06597328186035156,0.006873011589050293,0.044199809432029724
1772812457107160300,6.063160400390625,-0.06251335144042969,-0.0007565021514892578,0.034405454993247986
1772812457116861000,6.07286083984375,-0.053170204162597656,0.014830559492111206,-0.011568233370780945
1772812457126561500,6.0825615234375,-0.04864978790283203,0.025857090950012207,-0.027184054255485535
1772812457136262100,6.09226220703125,-0.0712442398071289,0.0028754472732543945,-0.052121877670288086
1772812457145962800,6.101962646484375,-0.05346202850341797,-0.04442131519317627,-0.022504210472106934
1772812457155663400,6.111663330078125,0.00047206878662109375,-0.055919528007507324,0.0047188401222229
1772812457165364200,6.1213642578125,0.048743247985839844,-0.042226970195770264,0.02741900086402893
1772812457175064800,6.13106494140625,0.11261177062988281,-0.036063551902770996,0.025977522134780884
1772812457184765400,6.140765380859375,0.13770580291748047,-0.002090156078338623,-0.006900295615196228
1772812457194466000,6.150466064453125,0.13174819946289062,0.04898989200592041,-0.02234579622745514
1772812457204166700,6.160166748046875,0.09412002563476562,0.07890960574150085,-0.009744077920913696
1772812457213867300,6.1698671875,0.01711559295654297,0.07090437412261963,0.008245036005973816
1772812457223568000,6.17956787109375,-0.05858898162841797,0.059309303760528564,0.04763844609260559
1772812457233268500,6.1892685546875,-0.08359527587890625,0.01936015486717224,0.0874716192483902
1772812457242969000,6.198968994140625,-0.07403755187988281,0.0029217898845672607,0.09112946689128876
1772812457252669700,6.208669677734375,-0.06812477111816406,-0.015299290418624878,0.0661257803440094
1772812457262370300,6.218370361328125,-0.06225013732910156,-0.0031585991382598877,0.007083237171173096
1772812457272071000,6.22807080078125,-0.06818103790283203,0.012331724166870117,-0.043665602803230286
1772812457281771500,6.237771484375,-0.07749366760253906,-0.004142105579376221,-0.06219974160194397
1772812457291472100,6.24747216796875,-0.04426765441894531,-0.025216013193130493,-0.08174367249011993
1772812457301172700,6.2571728515625,0.02248096466064453,-0.007520884275436401,-0.09162802994251251
1772812457310873600,6.26687353515625,0.11040115356445312,-0.019842565059661865,-0.059351399540901184
1772812457320574200,6.27657421875,0.15441417694091797,-0.04010653495788574,-0.047737330198287964
1772812457330274800,6.28627490234375,0.13407230377197266,-0.045803964138031006,-0.04586435854434967
1772812457339975400,6.295975341796875,0.06815242767333984,-0.048781126737594604,-0.03998897969722748
1772812457349676000,6.305676025390625,-0.019021987915039062,-0.025825470685958862,-0.04342286288738251
1772812457359376600,6.315376708984375,-0.08117198944091797,-0.021053731441497803,-0.05793695151805878
1772812457369077200,6.3250771484375,-0.1363506317138672,-0.02325531840324402,-0.03870543837547302
1772812457378777900,6.33477783203125,-0.15405654907226562,0.005532205104827881,-0.03399820625782013
1772812457388478500,6.344478515625,-0.12080001831054688,0.025927722454071045,-0.013129234313964844
1772812457398179000,6.354178955078125,-0.07865047454833984,0.03388327360153198,0.050177201628685
1772812457407879700,6.363879638671875,-0.030139923095703125,0.0019449591636657715,0.09284038841724396
1772812457417580300,6.373580322265625,0.0010843276977539062,0.012791454792022705,0.10674361884593964
1772812457427281000,6.383281005859375,0.02941131591796875,0.025573134422302246,0.0974527895450592
1772812457436981500,6.3929814453125,0.027825355529785156,0.03076833486557007,0.08540157973766327
1772812457446682000,6.40268212890625,0.007388114929199219,0.013249218463897705,0.07572519779205322
1772812457456383000,6.412383056640625,-0.022108078002929688,-0.010996401309967041,0.0079725980758667
1772812457466083600,6.42208349609375,0.12892818450927734,0.04598879814147949,-0.034506335854530334
1772812457475784200,6.4317841796875,0.036220550537109375,0.047856271266937256,-0.022892668843269348
1772812457485484800,6.44148486328125,0.06150245666503906,-0.0026772618293762207,-0.0035202354192733765
1772812457495185400,6.451185302734375,0.018080711364746094,-0.026942670345306396,-0.022170215845108032
1772812457504886000,6.460885986328125,0.027138710021972656,0.006879329681396484,-0.039893895387649536
1772812457514586600,6.470586669921875,0.0019426345825195312,0.029900729656219482,-0.03944595158100128
1772812457524287200,6.480287353515625,-0.031036376953125,0.031879305839538574,-0.09229439496994019
1772812457533987800,6.48998779296875,-0.03871440887451172,0.03347709774971008,-0.06673604249954224
1772812457543688700,6.499688720703125,-0.05446910858154297,0.020326167345046997,-0.05693820118904114
1772812457553389300,6.509389404296875,-0.033492088317871094,0.006192266941070557,-0.03435346484184265
1772812457563090000,6.51908984375,0.012998580932617188,-0.03169041872024536,-0.018343225121498108
1772812457572790500,6.52879052734375,0.028092384338378906,-0.0226515531539917,-0.007515564560890198
1772812457582491100,6.5384912109375,0.038204193115234375,-0.017859697341918945,0.007524594664573669
1772812457592191700,6.548191650390625,0.02107715606689453,-0.0051378607749938965,-0.005889996886253357
1772812457601892400,6.557892333984375,0.01012420654296875,-0.001781761646270752,0.004797086119651794
1772812457611593000,6.567593017578125,-0.01943683624267578,0.019852519035339355,0.010734200477600098
1772812457621293600,6.57729345703125,-0.05201244354248047,0.008755028247833252,0.014569759368896484
1772812457630994200,6.586994140625,-0.07578754425048828,0.00543820858001709,0.01755864918231964
1772812457640694800,6.59669482421875,-0.048564910888671875,-0.032928466796875,0.06512193381786346
1772812457650395400,6.6063955078125,-0.02416515350341797,-0.032204389572143555,0.05986131727695465
1772812457660096000,6.616095947265625,0.013919830322265625,-0.01582181453704834,0.040848761796951294
1772812457669796600,6.625796630859375,0.047837257385253906,0.0022124648094177246,0.012973010540008545
1772812457679497200,6.635497314453125,0.044716835021972656,0.03039729595184326,0.019323334097862244
1772812457689198000,6.645197998046875,0.028736114501953125,0.03523343801498413,0.020050421357154846
1772812457698898700,6.654898681640625,0.029499053955078125,0.028617560863494873,0.01913967728614807
1772812457708599300,6.664599365234375,0.03376579284667969,0.013874709606170654,0.007181406021118164
1772812457718300000,6.6742998046875,0.01677989959716797,0.006439089775085449,-0.007844477891921997
1772812457728000500,6.68400048828125,0.0129852294921875,-0.015607476234436035,-0.024956241250038147
1772812457737701000,6.693701171875,0.015115737915039062,-0.01896744966506958,-0.02804647386074066
1772812457747401700,6.703401611328125,0.0018892288208007812,-0.014801025390625,0.0022960305213928223
1772812457757102300,6.713102294921875,0.012420654296875,0.0009102225303649902,0.014956727623939514
1772812457766803000,6.722802978515625,0.007491111755371094,-0.00810229778289795,0.06286859512329102
1772812457776503600,6.732503662109375,-0.017358779907226562,0.02695542573928833,0.08182816207408905
1772812457786204200,6.7422041015625,-0.021802902221679688,0.020473957061767578,0.08500726521015167
1772812457795904800,6.75190478515625,-0.01910877227783203,0.010709941387176514,0.09535463154315948
1772812457805605400,6.76160546875,-0.01765727996826172,0.006530046463012695,0.0958418995141983
1772812457815306000,6.771305908203125,-0.01856708526611328,0.020028412342071533,0.0954727828502655
1772812457825006600,6.781006591796875,-0.02645111083984375,0.020045995712280273,0.0750550627708435
1772812457834707500,6.79070751953125,-0.04354381561279297,0.029700160026550293,0.05040566623210907
1772812457844408000,6.800407958984375,-0.05558967590332031,0.04881569743156433,0.0035433322191238403
1772812457854108700,6.810108642578125,-0.0144805908203125,0.04225343465805054,-0.03355929255485535
1772812457863809300,6.819809326171875,0.05415534973144531,0.044811248779296875,-0.07457448542118073
1772812457873510000,6.829510009765625,0.09097003936767578,0.04209360480308533,-0.07736647129058838
1772812457883210500,6.83921044921875,0.10589790344238281,0.014864742755889893,-0.06711322069168091
1772812457892911000,6.8489111328125,0.08167171478271484,-0.01863342523574829,-0.05473627150058746
1772812457902611700,6.85861181640625,0.019012451171875,-0.05565214157104492,-0.01747715473175049
1772812457912312300,6.868312255859375,-0.046118736267089844,-0.03398895263671875,-0.009702339768409729
1772812457922013000,6.878012939453125,-0.10071372985839844,-0.03970259428024292,-0.00310380756855011
1772812457931713500,6.887713623046875,-0.12609386444091797,-0.03070467710494995,-0.02048918604850769
1772812457941414100,6.8974140625,-0.13095951080322266,-0.03177684545516968,-0.018411055207252502
1772812457951114800,6.90711474609375,-0.11095428466796875,-0.03600353002548218,-0.011676505208015442
1772812457960815400,6.9168154296875,-0.07360363006591797,-0.027904510498046875,-0.017046183347702026
1772812457970516000,6.926515869140625,-0.01685047149658203,-0.009205639362335205,0.00039805471897125244
1772812457980216800,6.936216796875,0.04245758056640625,-0.020966053009033203,0.025334566831588745
1772812457989917400,6.94591748046875,0.08660411834716797,-0.029942631721496582,0.044319406151771545
1772812457999618000,6.9556181640625,0.11463642120361328,-0.00016707181930541992,0.09153307974338531
1772812458009318700,6.965318603515625,0.14330196380615234,0.028828322887420654,0.06474672257900238
1772812458019019300,6.975019287109375,0.13729476928710938,0.048909902572631836,0.026722446084022522
1772812458028719900,6.984719970703125,0.1043081283569336,0.07769501209259033,0.023465782403945923
1772812458038420500,6.99442041015625,0.08360576629638672,0.07633018493652344,0.011750921607017517
1772812458048121000,7.00412109375,0.03851890563964844,0.052493155002593994,-0.011915788054466248
1772812458057821700,7.01382177734375,0.030643463134765625,0.05118095874786377,-0.022271424531936646
1772812458067522600,7.0235224609375,-0.001796722412109375,0.0652385950088501,-0.02450937032699585
1772812458077223200,7.03322314453125,-0.02074718475341797,0.03785085678100586,-0.028298988938331604
1772812458086923800,7.042923828125,-0.05582904815673828,0.0006936192512512207,-0.025123968720436096
1772812458096624400,7.052624267578125,-0.1020364761352539,-0.0030325651168823242,-0.013713911175727844
1772812458106325000,7.062324951171875,-0.1132974624633789,-0.01141124963760376,-0.02942463755607605
1772812458116025600,7.072025634765625,-0.10784721374511719,-0.04321211576461792,-0.02215270698070526
1772812458125726200,7.081726318359375,-0.0836477279663086,-0.05292993783950806,-0.01954445242881775
1772812458135426800,7.0914267578125,-0.05276775360107422,-0.05172145366668701,-0.030697673559188843
1772812458145127400,7.10112744140625,-0.025909423828125,-0.0410270094871521,-0.053162217140197754
1772812458154828000,7.110828125,0.006361961364746094,-0.03095155954360962,-0.038890182971954346
1772812458164528600,7.120528564453125,0.026314735412597656,-0.03896909952163696,-0.021143049001693726
1772812458174229200,7.130229248046875,0.029425621032714844,-0.03677940368652344,-0.0020192712545394897
1772812458183929900,7.139929931640625,0.041858673095703125,-0.050410568714141846,0.008000865578651428
1772812458193630500,7.14963037109375,0.054068565368652344,-0.01242130994796753,0.002295941114425659
1772812458203331000,7.1593310546875,0.08135223388671875,0.025515466928482056,-0.007554233074188232
1772812458213032000,7.169031982421875,0.088165283203125,0.03659695386886597,-0.03144434094429016
1772812458222732500,7.178732666015625,0.04778289794921875,0.014437973499298096,-0.018851950764656067
1772812458232433200,7.18843310546875,0.01865100860595703,-0.00026792287826538086,-0.015266850590705872
1772812458242133800,7.1981337890625,0.025278091430664062,-0.018480420112609863,-0.038221582770347595
1772812458251834400,7.20783447265625,0.04706382751464844,-0.011038601398468018,-0.047947779297828674
1772812458261535000,7.217534912109375,0.0343475341796875,0.00028067827224731445,-0.046528443694114685
1772812458271235600,7.227235595703125,0.025381088256835938,0.0005972385406494141,-0.06500177085399628
1772812458280936200,7.236936279296875,-0.023400306701660156,0.01439756155014038,-0.05168783664703369
1772812458290636800,7.24663671875,-0.06426334381103516,0.010206341743469238,-0.02998402714729309
1772812458300337400,7.25633740234375,-0.07497692108154297,0.015622168779373169,-0.0033171921968460083
1772812458310038000,7.2660380859375,-0.07841968536376953,-0.02395319938659668,0.05084289610385895
1772812458319738600,7.275738525390625,-0.05357837677001953,-0.04041236639022827,0.06713502109050751
1772812458329439200,7.285439208984375,0.0014047622680664062,-0.019721269607543945,0.0652076005935669
1772812458339139800,7.295139892578125,0.044841766357421875,-0.021825134754180908,0.037249743938446045
1772812458348840400,7.30484033203125,0.01691436767578125,0.0018387138843536377,0.046598076820373535
1772812458358541300,7.314541259765625,-0.04467201232910156,-0.02943822741508484,0.05507217347621918
1772812458368242000,7.324241943359375,-0.07578086853027344,-0.018349409103393555,0.07961735129356384
1772812458377942500,7.333942626953125,-0.12160587310791016,0.009337961673736572,0.09051072597503662
1772812458387643100,7.34364306640625,-0.11480712890625,0.050525546073913574,0.047980889678001404
1772812458397343700,7.35334375,-0.0751180648803711,0.0738348662853241,0.0224468857049942
1772812458407044400,7.36304443359375,-0.0007543563842773438,0.084808349609375,-0.009231239557266235
1772812458416745000,7.372744873046875,0.08411693572998047,0.07521393895149231,-0.05444212257862091
1772812458426445600,7.382445556640625,0.1404552459716797,0.05149376392364502,-0.07108063995838165
1772812458436146200,7.392146240234375,0.1569385528564453,-0.008147001266479492,-0.08630820363759995
1772812458445846800,7.4018466796875,0.1730518341064453,-0.04316842555999756,-0.10124191641807556
1772812458455547400,7.41154736328125,0.1382455825805664,-0.043777525424957275,-0.07540734112262726
1772812458465248000,7.421248046875,0.08869552612304688,-0.027177870273590088,-0.0565367192029953
1772812458474948600,7.430948486328125,0.04701995849609375,-0.03191879391670227,-0.02298477292060852
1772812458484649200,7.440649169921875,-0.008056640625,-0.021923184394836426,-0.00841471552848816
1772812458494349800,7.450349853515625,-0.04216575622558594,0.019485682249069214,0.004762724041938782
1772812458504050700,7.46005078125,-0.06391525268554688,0.043262481689453125,0.019340455532073975
1772812458513751300,7.469751220703125,-0.06174182891845703,0.020146936178207397,0.05596005916595459
1772812458523452000,7.479451904296875,-0.0407562255859375,0.04245913028717041,0.07027280330657959
1772812458533152500,7.489152587890625,-0.027174949645996094,0.0890188217163086,0.06982839107513428
1772812458542853000,7.49885302734375,-0.042029380798339844,0.08446016907691956,0.06992080807685852
1772812458552553700,7.5085537109375,-0.03661918640136719,0.05444812774658203,0.07815174758434296
1772812458562254300,7.51825439453125,-0.02424907684326172,0.03335365653038025,0.10016696155071259
1772812458571955000,7.527954833984375,-0.013262748718261719,0.0000292360782623291,0.06043343245983124
1772812458581655600,7.537655517578125,0.009299278259277344,-0.005512595176696777,0.02329935133457184
1772812458591356200,7.547356201171875,0.027947425842285156,0.0053521692752838135,-0.05091486871242523
1772812458601056800,7.557056884765625,0.048636436462402344,0.00733676552772522,-0.08842578530311584
1772812458610757400,7.56675732421875,0.0371856689453125,0.0014193058013916016,-0.10120002925395966
1772812458620458000,7.5764580078125,0.010601043701171875,-0.03339472413063049,-0.06929674744606018
1772812458630158600,7.58615869140625,-0.020269393920898438,-0.05166485905647278,-0.041446417570114136
1772812458639859200,7.595859130859375,-0.05298900604248047,-0.045207440853118896,-0.04008300602436066
1772812458649560000,7.60556005859375,-0.055728912353515625,-0.02664250135421753,-0.01883542537689209
1772812458659260700,7.6152607421875,-0.09013748168945312,-0.022745907306671143,-0.02295951545238495
1772812458668961300,7.624961181640625,-0.09685707092285156,0.0021352767944335938,-0.008528441190719604
1772812458678662000,7.634661865234375,-0.10457229614257812,0.008132964372634888,-0.016459956765174866
1772812458688362500,7.644362548828125,-0.08035087585449219,0.00351831316947937,0.020249545574188232
1772812458698063000,7.65406298828125,-0.03652000427246094,0.0019859671592712402,0.04787415266036987
1772812458707763700,7.663763671875,0.05008125305175781,-0.02474471926689148,0.04235972464084625
1772812458717464300,7.67346435546875,0.12340259552001953,-0.02430480718612671,0.06270986795425415
1772812458727165000,7.6831650390625,0.14599990844726562,-0.0259721577167511,0.0515269935131073
1772812458736865500,7.692865478515625,0.15637874603271484,-0.014220237731933594,0.01263931393623352
1772812458746566100,7.702566162109375,0.11125564575195312,-0.029619842767715454,-0.015822693705558777
1772812458756266800,7.712266845703125,0.02334880828857422,-0.011928677558898926,-0.03306272625923157
1772812458765967400,7.72196728515625,-0.039528846740722656,-0.0018275976181030273,-0.0364668071269989
1772812458775668000,7.73166796875,-0.07776832580566406,-0.012826621532440186,-0.03366731107234955
1772812458785368600,7.74136865234375,-0.1105804443359375,0.004028916358947754,-0.041466280817985535
1772812458795069400,7.7510693359375,-0.14748859405517578,-0.009773552417755127,-0.010058045387268066
1772812458804770000,7.76077001953125,-0.1355113983154297,-0.024991095066070557,0.004242926836013794
1772812458814470700,7.770470703125,-0.13193893432617188,-0.03359180688858032,-0.003182321786880493
1772812458824171300,7.780171142578125,-0.08843135833740234,-0.04919314384460449,0.032012298703193665
1772812458833872000,7.789871826171875,-0.025648117065429688,-0.03414630889892578,0.040309399366378784
1772812458843572500,7.799572509765625,0.0395965576171875,-0.013983577489852905,0.04819834232330322
1772812458853273000,7.809273193359375,0.06606769561767578,-0.02548772096633911,0.0620761513710022
1772812458862973700,7.8189736328125,0.0920572280883789,-0.022137165069580078,0.07612626254558563
1772812458872674300,7.82867431640625,0.08817195892333984,-0.0005314648151397705,0.023131102323532104
1772812458882375000,7.838375,0.08550262451171875,0.02735215425491333,0.01596146821975708
1772812458892075500,7.848075439453125,0.059317588806152344,0.03321045637130737,0.003597959876060486
1772812458901776100,7.857776123046875,0.024139404296875,0.004600703716278076,0.03884492814540863
1772812458911476700,7.867476806640625,-0.010463714599609375,-0.019013196229934692,0.058253735303878784
1772812458921177300,7.87717724609375,-0.04564666748046875,-0.05620485544204712,0.05671428143978119
1772812458930878000,7.8868779296875,-0.07547950744628906,-0.003707289695739746,0.03078240156173706
1772812458940578800,7.896578857421875,-0.11063766479492188,0.038654595613479614,-0.009680002927780151
1772812458950279400,7.906279541015625,-0.09103965759277344,0.025122404098510742,-0.060674235224723816
1772812458959980000,7.91597998046875,-0.06348228454589844,0.03285905718803406,-0.09781800210475922
1772812458969680600,7.9256806640625,-0.014019966125488281,0.045369952917099,-0.11197642982006073
1772812458979381200,7.93538134765625,0.01812744140625,0.012473106384277344,-0.08846411108970642
1772812458989081900,7.945081787109375,0.05323028564453125,-0.049104899168014526,-0.03656293451786041
1772812458998782500,7.954782470703125,0.054757118225097656,-0.0872717797756195,-0.0011933445930480957
1772812459008483000,7.964483154296875,0.06444072723388672,-0.09392350912094116,0.0034865736961364746
1772812459018183700,7.97418359375,0.06804275512695312,-0.09968534111976624,-0.0027447640895843506
1772812459027884300,7.98388427734375,0.07273387908935547,-0.06560176610946655,-0.012915164232254028
1772812459037585000,7.9935849609375,0.07378768920898438,-0.038558125495910645,-0.019315332174301147
1772812459047285500,8.003285400390626,0.07363128662109375,-0.014991819858551025,-0.04070037603378296
1772812459056986000,8.012986083984375,0.06288528442382812,0.015799671411514282,-0.04430475831031799
1772812459066686700,8.022686767578126,0.012316703796386719,0.05059319734573364,-0.048281341791152954
1772812459076387300,8.03238720703125,-0.023265838623046875,0.0712316632270813,0.011462047696113586
1772812459086088200,8.042088134765624,-0.06409263610839844,0.06536528468132019,0.02783234417438507
1772812459095788800,8.051788818359375,-0.08887958526611328,0.08567878603935242,0.02776677906513214
1772812459105489400,8.061489501953124,-0.09673786163330078,0.0810844898223877,0.0733518898487091
1772812459115190000,8.07118994140625,-0.08327102661132812,0.04434064030647278,0.09219637513160706
1772812459124890600,8.080890625,-0.01355743408203125,0.014272183179855347,0.0900142639875412
1772812459134591200,8.09059130859375,0.03849506378173828,0.018255144357681274,0.04310256242752075
1772812459144291800,8.100291748046875,0.09317684173583984,0.018923074007034302,0.003407120704650879
1772812459153992400,8.109992431640626,0.1021890640258789,0.025402456521987915,-0.02555091679096222
1772812459163693000,8.119693115234375,0.08749771118164062,-0.01111304759979248,-0.02353973686695099
1772812459173393700,8.1293935546875,0.04477691650390625,-0.03931814432144165,-0.033867016434669495
1772812459183094300,8.13909423828125,0.016882896423339844,-0.05763506889343262,-0.05327512323856354
1772812459192795000,8.148794921875,-0.008180618286132812,-0.06267452239990234,-0.05294765532016754
1772812459202495500,8.15849560546875,-0.0269317626953125,-0.051124244928359985,-0.06731998175382614
1772812459212196000,8.168196044921874,-0.041825294494628906,-0.05031561851501465,-0.09986354410648346
1772812459221896700,8.177896728515625,-0.065826416015625,-0.017031550407409668,-0.10463393479585648
1772812459231597600,8.18759765625,-0.08702468872070312,0.0026431381702423096,-0.10340125113725662
1772812459241298200,8.197298095703125,-0.08783626556396484,0.001759648323059082,-0.07433247566223145
1772812459250998800,8.206998779296875,-0.0850982666015625,-0.012661397457122803,-0.011533379554748535
1772812459260699400,8.216699462890626,-0.04358482360839844,-0.02900797128677368,0.03451192378997803
1772812459270400000,8.22639990234375,0.027788162231445312,-0.014035016298294067,0.06558874249458313
1772812459280100600,8.2361005859375,0.08146381378173828,-0.006278276443481445,0.03409750759601593
1772812459289801200,8.24580126953125,0.09420108795166016,0.020221084356307983,0.0059089213609695435
1772812459299501800,8.255501708984376,0.09846210479736328,0.05258259177207947,-0.002434343099594116
1772812459309202400,8.265202392578125,0.06970691680908203,0.03942170739173889,0.0030422955751419067
1772812459318903000,8.274903076171874,0.030855178833007812,0.045665442943573,0.02986826002597809
1772812459328603600,8.284603759765625,0.02088451385498047,0.046363234519958496,0.06353867053985596
1772812459338304300,8.29430419921875,-0.006566047668457031,0.02286309003829956,0.12731212377548218
1772812459348004900,8.3040048828125,-0.008831977844238281,-0.021041810512542725,0.10291872918605804
1772812459357705500,8.31370556640625,0.01718616485595703,0.006537944078445435,0.039924174547195435
1772812459367406000,8.323406005859376,0.021581649780273438,0.01346704363822937,0.011110499501228333
1772812459377107000,8.33310693359375,0.02117919921875,-0.013019949197769165,-0.010140091180801392
1772812459386807600,8.3428076171875,0.045454978942871094,-0.021004438400268555,-0.015905290842056274
1772812459396508200,8.352508056640625,0.06223773956298828,-0.02143731713294983,0.0013740509748458862
1772812459406208800,8.362208740234376,0.05048084259033203,0.007875680923461914,0.010459110140800476
1772812459415909400,8.371909423828125,0.008324623107910156,-0.01297268271446228,0.00489121675491333
1772812459425610000,8.38160986328125,-0.033110618591308594,-0.04605308175086975,0.035925477743148804
1772812459435310600,8.391310546875,-0.07734966278076172,-0.07423475384712219,0.0032139718532562256
1772812459445011200,8.40101123046875,-0.0855112075805664,-0.04318472743034363,-0.032031863927841187
1772812459454711800,8.4107119140625,-0.08291339874267578,-0.008193671703338623,-0.05556111037731171
1772812459464412400,8.420412353515625,-0.0544586181640625,-0.020432740449905396,-0.04212959110736847
1772812459474113000,8.430113037109376,-0.02648448944091797,-0.02558588981628418,0.003944724798202515
1772812459483813600,8.439813720703125,-0.011919975280761719,-0.05098423361778259,0.06255146861076355
1772812459493514200,8.44951416015625,-0.008183479309082031,-0.032506346702575684,0.104408398270607
1772812459503214800,8.45921484375,-0.03390312194824219,0.008311867713928223,0.062080204486846924
1772812459512915500,8.46891552734375,-0.05210590362548828,0.01038503646850586,0.037139371037483215
1772812459522616300,8.4786162109375,-0.021730422973632812,0.025103360414505005,-0.023408085107803345
1772812459532317000,8.48831689453125,-0.004773139953613281,0.01666530966758728,-0.0675613060593605
1772812459542017500,8.498017578125,0.040103912353515625,-0.009881973266601562,-0.0625469833612442
1772812459551718100,8.50771826171875,0.085357666015625,-0.039463937282562256,-0.041433051228523254
1772812459561418800,8.517418701171875,0.10861015319824219,-0.07482486963272095,-0.0068874359130859375
1772812459571119400,8.527119384765625,0.0996408462524414,-0.07808095216751099,0.025796890258789062
1772812459580820000,8.536820068359376,0.07078361511230469,-0.0373511016368866,0.03558780252933502
1772812459590520600,8.5465205078125,0.023578643798828125,-0.01035812497138977,0.009969636797904968
1772812459600221200,8.55622119140625,-0.03575420379638672,-0.02083718776702881,-0.012722790241241455
1772812459609921800,8.565921875,-0.09404945373535156,-0.027795463800430298,-0.013801038265228271
1772812459619622400,8.575622314453126,-0.10305023193359375,-0.02595612406730652,-0.023530587553977966
1772812459629323000,8.585322998046875,-0.10124969482421875,-0.004067420959472656,-0.041419997811317444
1772812459639023600,8.595023681640624,-0.060629844665527344,-0.01944911479949951,-0.010138481855392456
1772812459648724200,8.60472412109375,-0.01953125,-0.03942647576332092,0.0284060537815094
1772812459658424800,8.6144248046875,0.014971733093261719,-0.04902973771095276,0.05101864039897919
1772812459668125400,8.62412548828125,0.03592681884765625,-0.013506174087524414,0.0608694851398468
1772812459677826300,8.633826416015625,0.029448509216308594,0.010233849287033081,0.0397186279296875
1772812459687527000,8.64352685546875,-0.003989219665527344,0.01830977201461792,0.03818996250629425
1772812459697227500,8.6532275390625,-0.02628612518310547,0.013534486293792725,0.01870739459991455
1772812459706928000,8.66292822265625,-0.04114723205566406,0.010160565376281738,-0.009682461619377136
1772812459716628700,8.672628662109375,0.005390167236328125,0.027404040098190308,-0.05206383019685745
1772812459726329300,8.682329345703126,0.019374847412109375,0.07421556115150452,-0.06906446814537048
1772812459736030000,8.692030029296875,0.04253101348876953,0.052675604820251465,-0.042159304022789
1772812459745730600,8.70173046875,0.0029497146606445312,0.017315030097961426,-0.03232888877391815
1772812459755431200,8.71143115234375,-0.032405853271484375,0.023443520069122314,0.004803329706192017
1772812459765131800,8.7211318359375,-0.05889606475830078,0.018748044967651367,0.03248588740825653
1772812459774832400,8.730832275390625,-0.02373981475830078,-0.02155056595802307,0.002673327922821045
1772812459784533000,8.740532958984375,-0.050350189208984375,-0.06657987833023071,0.0077387988567352295
1772812459794233600,8.750233642578126,-0.022406578063964844,-0.08367946743965149,-0.0029386132955551147
1772812459803934200,8.759934326171875,0.005045890808105469,-0.05609181523323059,0.02614264190196991
1772812459813634800,8.769634765625,0.03672313690185547,-0.00021284818649291992,0.11058804392814636
1772812459823335700,8.779335693359375,0.10785388946533203,-0.00031700730323791504,0.1131652295589447
1772812459833036300,8.789036376953124,0.09661102294921875,0.0036984384059906006,0.08529345691204071
1772812459842737000,8.79873681640625,0.10673141479492188,-0.0616593062877655,-0.05350152403116226
1772812459852437500,8.8084375,0.04019737243652344,-0.08357188105583191,-0.1340065896511078
1772812459862138000,8.81813818359375,0.04770946502685547,-0.03543645143508911,-0.08824019134044647
1772812459871838700,8.827838623046874,0.16446399688720703,0.008365392684936523,-0.014832153916358948
1772812459881539300,8.837539306640625,0.27570438385009766,-0.059167057275772095,-0.019265666604042053
1772812459891240000,8.847239990234375,0.4602499008178711,-0.09599795937538147,-0.11001130193471909
1772812459900940500,8.8569404296875,0.2626838684082031,-0.029416322708129883,-0.19206790626049042
1772812459910641200,8.86664111328125,0.30483531951904297,0.11399024724960327,-0.23262369632720947
1772812459920341800,8.876341796875,0.2439289093017578,0.21248075366020203,-0.2619844377040863
1772812459930042400,8.88604248046875,0.09807777404785156,0.07518061995506287,-0.25766226649284363
1772812459939743000,8.895742919921876,-0.16067218780517578,-0.09763535857200623,-0.17155379056930542
1772812459949443600,8.905443603515625,-0.21390151977539062,-0.07949596643447876,-0.12665466964244843
1772812459959144200,8.915144287109374,-0.26500701904296875,-0.022597193717956543,-0.1644703447818756
1772812459968845000,8.924844970703125,-0.39984703063964844,-0.05419635772705078,-0.14454829692840576
1772812459978545700,8.934545654296874,-0.5216741561889648,-0.04586288332939148,-0.07848162204027176
1772812459988246300,8.944246337890625,-0.6047983169555664,-0.009933650493621826,0.01163221150636673
1772812459997947000,8.95394677734375,-0.5569238662719727,0.006167203187942505,0.11789894104003906
1772812460007647500,8.9636474609375,-0.42741966247558594,-0.013618141412734985,0.2023421823978424
1772812460017348000,8.97334814453125,-0.24711036682128906,-0.031566351652145386,0.25665900111198425
1772812460027048700,8.983048583984376,-0.015726089477539062,0.13468381762504578,0.24172085523605347
1772812460036749300,8.992749267578125,0.1058502197265625,0.14645332098007202,0.24422003328800201
1772812460046450000,9.002449951171876,0.050067901611328125,0.1712101399898529,0.31307128071784973
1772812460056150500,9.012150634765625,0.04233741760253906,0.2266247272491455,0.30653756856918335
1772812460065851100,9.02185107421875,-0.043959617614746094,0.315081924200058,0.27298370003700256
1772812460075551700,9.0315517578125,-0.054518699645996094,0.40217307209968567,0.2438688725233078
1772812460085252400,9.04125244140625,-0.0882711410522461,0.3619716465473175,0.24875134229660034
1772812460094953000,9.050952880859375,-0.07077407836914062,0.2613789439201355,0.3084833025932312
1772812460104653600,9.060653564453125,0.04993247985839844,0.19318269193172455,0.3189792037010193
1772812460114354400,9.0703544921875,0.27440834045410156,0.17138797044754028,0.24879059195518494
