time,seconds_elapsed,z,y,x
1772812403627367700,0.09336767578125,-0.013209951110184193,0.06345357745885849,0.08193223923444748
1772812403646769200,0.11276904296875,0.025274530053138733,0.006948587018996477,0.08254310488700867
1772812403666170600,0.132170654296875,0.03138317912817001,-0.03306305781006813,0.019013166427612305
1772812403675871200,0.141871337890625,0.0243582334369421,-0.01259908638894558,-0.008781181648373604
1772812403685572000,0.151572021484375,0.013668099418282509,0.019471315667033195,-0.03352120518684387
1772812403695272700,0.161272705078125,0.012751801870763302,0.030772313475608826,-0.053374309092760086
1772812403704973300,0.170973388671875,0.023747367784380913,0.04482220485806465,-0.0628427118062973
1772812403714674200,0.180674072265625,0.026801692321896553,0.03962985426187515,-0.05917752534151077
1772812403724374800,0.190374755859375,0.023747367784380913,0.03138317912817001,-0.03932442143559456
1772812403734075600,0.20007568359375,0.014889828860759735,0.025274530053138733,-0.015806125476956367
1772812403743776300,0.2097763671875,0.010613775812089443,0.0319940410554409,0.00923932995647192
1772812403753477000,0.21947705078125,0.003283398225903511,0.034437503665685654,0.027259841561317444
1772812403763177700,0.229177734375,-0.008323032408952713,0.0371863916516304,0.04405862092971802
1772812403772878300,0.23887841796875,-0.02084576152265072,0.03474293276667595,0.046807512640953064
1772812403782579200,0.2485791015625,-0.030314164236187935,0.017027854919433594,0.04528035223484039
1772812403792279800,0.25827978515625,-0.033979352563619614,0.01030834298580885,0.03764454275369644
1772812403801980400,0.26798046875,-0.02909243479371071,0.004199695307761431,0.014431680552661419
1772812403811681300,0.277681396484375,-0.01565340906381607,0.014889828860759735,-0.009086613543331623
1772812403821382000,0.2873818359375,-0.004963276442140341,0.041157014667987823,-0.020387612283229828
1772812403831082800,0.297082763671875,-0.004352411720901728,0.03840812295675278,-0.020387612283229828
1772812403840783400,0.306783447265625,-0.00954476185142994,0.020082179456949234,-0.015195261687040329
1772812403850484200,0.316484130859375,-0.00923932995647192,0.017944153398275375,-0.008781181648373604
1772812403860184800,0.326184814453125,-0.0077121676877141,0.028328854590654373,0.0012980876490473747
1772812403869885400,0.335885498046875,-0.014737112447619438,0.04512763395905495,0.018402300775051117
1772812403879586300,0.34558642578125,-0.02328922040760517,0.050930850207805634,0.03428478538990021
1772812403889287000,0.355286865234375,-0.027259841561317444,0.04696023091673851,0.050778135657310486
1772812403898987800,0.36498779296875,-0.024510949850082397,0.044211339205503464,0.06177370250225067
1772812403908688400,0.3746884765625,-0.020540328696370125,0.033826638013124466,0.06085740402340889
1772812403918389200,0.38438916015625,-0.024510949850082397,0.016416991129517555,0.046196650713682175
1772812403928089900,0.39408984375,-0.02848157100379467,0.0035888305865228176,0.02542724646627903
1772812403937790700,0.403790771484375,-0.027259841561317444,0.00755945174023509,-0.0035888305865228176
1772812403947491300,0.4134912109375,-0.018402300775051117,0.022525638341903687,-0.03535379841923714
1772812403957192000,0.42319189453125,-0.0031306820455938578,0.03107774630188942,-0.0628427118062973
1772812403966892800,0.432892822265625,0.009392046369612217,0.015806125476956367,-0.07903063297271729
1772812403976593400,0.442593505859375,0.018555017188191414,-0.008017600513994694,-0.08697187155485153
1772812403986294300,0.452294189453125,0.02496909722685814,-0.0012980876490473747,-0.08116865903139114
1772812403995995000,0.461994873046875,0.026801692321896553,0.016416991129517555,-0.058566659688949585
1772812404005695700,0.47169580078125,0.01672242395579815,0.017944153398275375,-0.020998476073145866
1772812404015396400,0.481396240234375,0.01000291109085083,0.00603228947147727,0.014431680552661419
1772812404025097200,0.49109716796875,0.020693045109510422,0.002672533504664898,0.04528035223484039
1772812404034797800,0.5007978515625,0.03627009689807892,0.003894262947142124,0.06818778067827225
1772812404044498400,0.51049853515625,0.040546149015426636,-0.0031306820455938578,0.08345939964056015
1772812404054199300,0.52019921875,0.035964664071798325,-0.009850194677710533,0.08498656004667282
1772812404063900000,0.52989990234375,0.03107774630188942,-0.014126247726380825,0.07215840369462967
1772812404073600800,0.539600830078125,0.033826638013124466,-0.01259908638894558,0.049250971525907516
1772812404083301400,0.54930126953125,0.03810269013047218,-0.0009926552884280682,0.031841326504945755
1772812404093002000,0.559001953125,0.03413207083940506,0.006948587018996477,0.026038112118840218
1772812404102702800,0.568702880859375,0.01763872057199478,-0.004046979360282421,0.028787001967430115
1772812404112403500,0.578403564453125,0.002672533504664898,-0.02084576152265072,0.033368486911058426
1772812404122104300,0.588104248046875,-0.0025198173243552446,-0.03275762498378754,0.03153589367866516
1772812404131805000,0.597804931640625,-0.0025198173243552446,-0.030925029888749123,0.01259908638894558
1772812404141505500,0.607505615234375,-0.004046979360282421,0.003283398225903511,-0.008781181648373604
1772812404151206400,0.617206298828125,-0.01626427471637726,0.04848739132285118,-0.012140937149524689
1772812404160907000,0.626906982421875,-0.04558578506112099,0.053985174745321274,0.00038179047987796366
1772812404170607900,0.63660791015625,-0.0709366723895073,0.03260490670800209,0.02542724646627903
1772812404180308500,0.64630859375,-0.07918334752321243,0.007864884100854397,0.043753188103437424
1772812404190009300,0.65600927734375,-0.06910407543182373,-0.013820815831422806,0.04405862092971802
1772812404199710000,0.6657099609375,-0.049861837178468704,-0.027870705351233482,0.03000873140990734
1772812404209410800,0.675410888671875,-0.023594651371240616,-0.02848157100379467,-0.00022907429956831038
1772812404219111400,0.685111328125,-0.00038179047987796366,-0.002825249684974551,-0.02588539570569992
1772812404228812000,0.69481201171875,0.008170315995812416,0.02802342176437378,-0.03352120518684387
1772812404238513000,0.704512939453125,-0.005574141163378954,0.023747367784380913,-0.018555017188191414
1772812404248213500,0.714213623046875,-0.021456625312566757,-0.0009926552884280682,0.010461059398949146
1772812404257914400,0.723914306640625,-0.022067490965127945,-0.026038112118840218,0.036422811448574066
1772812404267615000,0.733614990234375,-0.008628465235233307,-0.040088001638650894,0.046196650713682175
1772812404277315800,0.74331591796875,0.0035888305865228176,-0.03581194952130318,0.04589121788740158
1772812404287016400,0.753016357421875,0.006948587018996477,-0.011682788841426373,0.04253146052360535
1772812404296717000,0.762717041015625,0.0029779658652842045,0.008170315995812416,0.030314164236187935
1772812404306418000,0.77241796875,-0.00038179047987796366,0.013973532244563103,0.019013166427612305
1772812404316118500,0.782118408203125,-0.0031306820455938578,0.01977674663066864,0.021151192486286163
1772812404325819400,0.7918193359375,-0.007101302966475487,0.00847574882209301,0.02023489587008953
1772812404335520000,0.80152001953125,-0.00954476185142994,-0.0019089524867013097,0.028176138177514076
1772812404345220900,0.811220947265625,-0.008323032408952713,-0.01259908638894558,0.03214675933122635
1772812404354921500,0.82092138671875,-0.005268708802759647,-0.01718057133257389,0.03000873140990734
1772812404364622000,0.8306220703125,-0.004657844081521034,-0.010461059398949146,0.027870705351233482
1772812404374323000,0.840322998046875,-0.008323032408952713,-0.00923932995647192,0.02390008419752121
1772812404384023600,0.8500234375,-0.013820815831422806,-0.010766491293907166,0.013820815831422806
1772812404393724200,0.85972412109375,-0.01565340906381607,0.003894262947142124,0.011377356946468353
1772812404403425000,0.869425048828125,-0.018402300775051117,0.022220205515623093,0.019624030217528343
1772812404413125600,0.879125732421875,-0.02695440873503685,0.021914774551987648,0.03581194952130318
1772812404422826500,0.888826416015625,-0.028176138177514076,0.00847574882209301,0.050778135657310486
1772812404432527000,0.898527099609375,-0.018402300775051117,-0.00038179047987796366,0.05841394513845444
1772812404442228000,0.90822802734375,-0.010155626572668552,-0.004352411720901728,0.0602465383708477
1772812404451928600,0.917928466796875,-0.011377356946468353,-0.004657844081521034,0.0501672700047493
1772812404461629200,0.927629150390625,-0.016875140368938446,0.002672533504664898,0.03275762498378754
1772812404471330000,0.937330078125,-0.020540328696370125,0.018860450014472008,0.01779143698513508
1772812404481030700,0.94703076171875,-0.02390008419752121,0.027107125148177147,0.008628465235233307
1772812404490731500,0.9567314453125,-0.025121813639998436,0.015806125476956367,0.002825249684974551
1772812404500432100,0.96643212890625,-0.016875140368938446,0.00022907429956831038,-0.005421424750238657
1772812404510133000,0.976133056640625,0.0005345066892914474,0.0017562361899763346,-0.009086613543331623
1772812404519833600,0.98583349609375,0.013973532244563103,0.01183550525456667,-0.008781181648373604
1772812404529534500,0.995534423828125,0.017944153398275375,0.00511599238961935,-0.009697478264570236
1772812404539235000,1.005235107421875,0.01977674663066864,-0.005268708802759647,-0.008170315995812416
1772812404548935700,1.014935791015625,0.02649625949561596,0.002061668550595641,0.00038179047987796366
1772812404558636500,1.024636474609375,0.02649625949561596,-0.0019089524867013097,0.0077121676877141
1772812404568337200,1.034337158203125,0.018860450014472008,-0.01107192412018776,0.010766491293907166
1772812404578038000,1.0440380859375,0.015806125476956367,-0.010461059398949146,0.007101302966475487
1772812404587738600,1.053738525390625,0.018555017188191414,-0.0019089524867013097,0.0009926552884280682
1772812404597439500,1.063439453125,0.017333287745714188,0.0005345066892914474,-0.004810560029000044
1772812404607140000,1.07314013671875,0.012446369975805283,0.003283398225903511,-0.009086613543331623
1772812404616841000,1.082841064453125,0.0029779658652842045,0.01977674663066864,-0.014889828860759735
1772812404626541600,1.09254150390625,-0.009850194677710533,0.03871355578303337,-0.013668099418282509
1772812404636242200,1.1022421875,-0.02176205813884735,0.041157014667987823,-0.003894262947142124
1772812404645943000,1.111943115234375,-0.026343543082475662,0.025579962879419327,0.0077121676877141
1772812404655643600,1.1216435546875,-0.022067490965127945,0.01000291109085083,0.015347977168858051
1772812404665344500,1.131344482421875,-0.01259908638894558,0.00847574882209301,0.018096869811415672
1772812404675045000,1.141045166015625,-0.009850194677710533,0.00603228947147727,0.014431680552661419
1772812404684745700,1.150745849609375,-0.016569707542657852,0.004505127668380737,0.0034361144062131643
1772812404694446600,1.160446533203125,-0.019013166427612305,0.013668099418282509,-0.009697478264570236
1772812404704147200,1.170147216796875,-0.011377356946468353,0.013973532244563103,-0.022525638341903687
1772812404713847800,1.179847900390625,0.001450803829357028,0.0005345066892914474,-0.026801692321896553
1772812404723548700,1.189548583984375,0.012751801870763302,-0.008933897130191326,-0.028328854590654373
1772812404733249300,1.199249267578125,0.01977674663066864,-0.00679587060585618,-0.027717988938093185
1772812404742950100,1.2089501953125,0.017027854919433594,0.0057268571108579636,-0.017333287745714188
1772812404752650800,1.218650634765625,0.0066431546583771706,0.021914774551987648,-0.002672533504664898
1772812404762351600,1.2283515625,-0.005268708802759647,0.025579962879419327,0.015042545273900032
1772812404772052200,1.23805224609375,-0.008933897130191326,0.02496909722685814,0.03275762498378754
1772812404781753000,1.247753173828125,-0.008933897130191326,0.025274530053138733,0.043753188103437424
1772812404791453700,1.25745361328125,-0.003741546766832471,0.021609341725707054,0.05047270283102989
1772812404801154300,1.267154296875,0.0005345066892914474,0.016416991129517555,0.05108356848359108
1772812404810855200,1.276855224609375,0.004199695307761431,0.007254019379615784,0.04589121788740158
1772812404820555800,1.2865556640625,0.0066431546583771706,0.0017562361899763346,0.02848157100379467
1772812404830256600,1.296256591796875,0.012446369975805283,-0.0025198173243552446,0.005268708802759647
1772812404839957200,1.305957275390625,0.015500693581998348,-0.0009926552884280682,-0.013973532244563103
1772812404849658000,1.315658203125,0.017027854919433594,-0.00679587060585618,-0.0295505840331316
1772812404859358700,1.325358642578125,0.015500693581998348,-0.004352411720901728,-0.042073313146829605
1772812404869059300,1.335059326171875,0.012751801870763302,0.004505127668380737,-0.04940368980169296
1772812404878760200,1.34476025390625,0.00603228947147727,0.014889828860759735,-0.03871355578303337
1772812404888460800,1.354460693359375,-0.004352411720901728,0.015500693581998348,-0.019471315667033195
1772812404898161700,1.36416162109375,-0.013209951110184193,-0.00007635809743078426,-0.0005345066892914474
1772812404907862300,1.3738623046875,-0.013820815831422806,-0.015347977168858051,0.00923932995647192
1772812404917563100,1.383563232421875,-0.00923932995647192,-0.013820815831422806,0.013820815831422806
1772812404927263700,1.393263671875,-0.004963276442140341,0.003894262947142124,0.010155626572668552
1772812404936964600,1.402964599609375,-0.004963276442140341,0.030772313475608826,0.011988221667706966
1772812404946665200,1.412665283203125,-0.012293653562664986,0.03840812295675278,0.019624030217528343
1772812404956365800,1.42236572265625,-0.016875140368938446,0.021609341725707054,0.024510949850082397
1772812404966066700,1.432066650390625,-0.010461059398949146,0.012751801870763302,0.031230462715029716
1772812404975767300,1.441767333984375,-0.002825249684974551,0.0066431546583771706,0.029703300446271896
1772812404985468200,1.45146826171875,0.004810560029000044,-0.00679587060585618,0.016569707542657852
1772812404995168800,1.461168701171875,0.012446369975805283,-0.0193185992538929,0.0031306820455938578
1772812405004869400,1.470869384765625,0.012140937149524689,-0.03000873140990734,-0.015500693581998348
1772812405014570200,1.4805703125,0.015806125476956367,-0.030925029888749123,-0.032910339534282684
1772812405024270800,1.490270751953125,0.02283107116818428,-0.015958841890096664,-0.04085158184170723
1772812405033971500,1.499971435546875,0.017027854919433594,-0.007406735327094793,-0.04818195849657059
1772812405043672300,1.50967236328125,0.004199695307761431,-0.003741546766832471,-0.04848739132285118
1772812405053373000,1.519373046875,-0.006490438245236874,0.0023671009112149477,-0.04390590637922287
1772812405063073800,1.52907373046875,-0.012904518283903599,0.010613775812089443,-0.03138317912817001
1772812405072774400,1.5387744140625,-0.02328922040760517,0.009697478264570236,-0.013362666592001915
1772812405082475300,1.548475341796875,-0.027870705351233482,-0.0019089524867013097,-0.003283398225903511
1772812405092176000,1.55817578125,-0.015042545273900032,0.002061668550595641,0.004657844081521034
1772812405101876500,1.56787646484375,-0.0025198173243552446,0.00755945174023509,0.011682788841426373
1772812405111577300,1.577577392578125,0.000839939049910754,0.0005345066892914474,0.016875140368938446
1772812405121278000,1.58727783203125,0.0035888305865228176,-0.010766491293907166,0.020540328696370125
1772812405130978800,1.596978759765625,0.008170315995812416,-0.015958841890096664,0.01259908638894558
1772812405140679400,1.606679443359375,0.012140937149524689,-0.004352411720901728,0.0006872228696011007
1772812405150380300,1.61638037109375,0.012140937149524689,0.017027854919433594,-0.00603228947147727
1772812405160081000,1.626080810546875,0.0066431546583771706,0.01672242395579815,-0.00755945174023509
1772812405169781800,1.63578173828125,0.006337722297757864,0.0066431546583771706,-0.009086613543331623
1772812405179482400,1.645482421875,0.014584396965801716,0.009392046369612217,0.0031306820455938578
1772812405189183000,1.655182861328125,0.01824958436191082,-0.0016035200096666813,0.008628465235233307
1772812405198883800,1.6648837890625,0.01672242395579815,-0.019624030217528343,0.010461059398949146
1772812405208584400,1.67458447265625,0.012140937149524689,-0.024816380813717842,0.0012980876490473747
1772812405218285300,1.684285400390625,0.00755945174023509,-0.025121813639998436,-0.01977674663066864
1772812405227986000,1.69398583984375,0.0017562361899763346,-0.025732679292559624,-0.046654798090457916
1772812405237686800,1.703686767578125,-0.0034361144062131643,-0.019624030217528343,-0.06589704006910324
1772812405247387400,1.713387451171875,-0.0022143847309052944,0.000839939049910754,-0.06772962957620621
1772812405257088000,1.723087890625,0.0035888305865228176,0.015806125476956367,-0.049709122627973557
1772812405266788900,1.732788818359375,0.00603228947147727,0.013362666592001915,-0.020693045109510422
1772812405276489500,1.742489501953125,0.0066431546583771706,0.001450803829357028,0.009850194677710533
1772812405286190300,1.7521904296875,0.010613775812089443,-0.007101302966475487,0.04039343446493149
1772812405295891000,1.761890869140625,0.011530072428286076,-0.008017600513994694,0.059635672718286514
1772812405305591800,1.771591796875,0.011224640533328056,-0.0058795735239982605,0.06299543380737305
1772812405315292400,1.78129248046875,0.016416991129517555,0.002061668550595641,0.05627591907978058
1772812405324993000,1.790992919921875,0.026190826669335365,0.008781181648373604,0.044669486582279205
1772812405334694000,1.80069384765625,0.03657552972435951,0.0005345066892914474,0.02848157100379467
1772812405344394500,1.81039453125,0.04848739132285118,-0.013515383005142212,0.008017600513994694
1772812405354095000,1.82009521484375,0.05581776797771454,-0.014737112447619438,-0.01030834298580885
1772812405363796000,1.8297958984375,0.053985174745321274,-0.014431680552661419,-0.024663666263222694
1772812405373496600,1.83949658203125,0.041157014667987823,-0.010155626572668552,-0.0322994738817215
1772812405383197400,1.849197509765625,0.02649625949561596,-0.010155626572668552,-0.03932442143559456
1772812405392898000,1.85889794921875,0.022525638341903687,-0.010461059398949146,-0.04146244749426842
1772812405402598700,1.8685986328125,0.020082179456949234,-0.011682788841426373,-0.03779725730419159
1772812405412299500,1.878299560546875,0.012446369975805283,-0.01779143698513508,-0.0319940410554409
1772812405422000000,1.888000244140625,0.00511599238961935,-0.012904518283903599,-0.022220205515623093
1772812405431701000,1.897700927734375,0.0005345066892914474,-0.010461059398949146,-0.01611155830323696
1772812405441401600,1.907401611328125,-0.0034361144062131643,-0.0019089524867013097,-0.011224640533328056
1772812405451102500,1.9171025390625,-0.004046979360282421,0.00755945174023509,-0.010919207707047462
1772812405460803000,1.926802978515625,-0.005574141163378954,0.0066431546583771706,-0.012446369975805283
1772812405470504000,1.93650390625,-0.008323032408952713,0.0023671009112149477,-0.015195261687040329
1772812405480204500,1.94620458984375,-0.011377356946468353,-0.0006872228696011007,-0.014889828860759735
1772812405489905200,1.9559052734375,-0.012904518283903599,0.003894262947142124,-0.009086613543331623
1772812405499606000,1.96560595703125,-0.01718057133257389,0.006948587018996477,-0.00755945174023509
1772812405509306600,1.975306640625,-0.02390008419752121,0.00847574882209301,-0.0023671009112149477
1772812405519007500,1.985007568359375,-0.025121813639998436,0.00847574882209301,0.00007635809743078426
1772812405528708000,1.9947080078125,-0.01870773360133171,0.017333287745714188,0.0034361144062131643
1772812405538409000,2.004408935546875,-0.00679587060585618,0.017027854919433594,0.0034361144062131643
1772812405548109600,2.014109619140625,0.007254019379615784,0.008170315995812416,0.00679587060585618
1772812405557810200,2.02381005859375,0.020998476073145866,-0.0016035200096666813,0.010155626572668552
1772812405567511000,2.033510986328125,0.030466880649328232,-0.012293653562664986,0.016875140368938446
1772812405577211600,2.043211669921875,0.03627009689807892,-0.02328922040760517,0.01718057133257389
1772812405586912500,2.05291259765625,0.03657552972435951,-0.02328922040760517,0.015347977168858051
1772812405596613000,2.062613037109375,0.030161447823047638,-0.013820815831422806,0.009850194677710533
1772812405606314000,2.07231396484375,0.022220205515623093,-0.0006872228696011007,0.004046979360282421
1772812405616014600,2.0820146484375,0.01763872057199478,0.008781181648373604,-0.002672533504664898
1772812405625715200,2.091715087890625,0.018555017188191414,0.006948587018996477,-0.01030834298580885
1772812405635416000,2.101416015625,0.026190826669335365,-0.00007635809743078426,-0.015500693581998348
1772812405645116700,2.11111669921875,0.03993528336286545,-0.01565340906381607,-0.021914774551987648
1772812405654817500,2.120817626953125,0.0527634471654892,-0.03061959706246853,-0.027717988938093185
1772812405664518100,2.13051806640625,0.05917752534151077,-0.039477135986089706,-0.032910339534282684
1772812405674218800,2.14021875,0.060704685747623444,-0.04069886729121208,-0.03779725730419159
1772812405683919600,2.149919677734375,0.057039499282836914,-0.02848157100379467,-0.037491824477910995
1772812405693620200,2.1596201171875,0.04909825697541237,-0.018096869811415672,-0.03504836559295654
1772812405703320800,2.16932080078125,0.03932442143559456,-0.016875140368938446,-0.0295505840331316
1772812405713021700,2.179021728515625,0.026801692321896553,-0.023594651371240616,-0.03107774630188942
1772812405722722300,2.188722412109375,0.018555017188191414,-0.03581194952130318,-0.03993528336286545
1772812405732423200,2.198423095703125,0.01611155830323696,-0.04344775900244713,-0.051847148686647415
1772812405742123800,2.208123779296875,0.018555017188191414,-0.03733910992741585,-0.06650790572166443
1772812405751824600,2.21782470703125,0.02283107116818428,-0.03550651669502258,-0.08055779337882996
1772812405761525200,2.227525146484375,0.023441936820745468,-0.04039343446493149,-0.08269581943750381
1772812405771225900,2.237225830078125,0.019471315667033195,-0.022067490965127945,-0.083306685090065
1772812405780926700,2.2469267578125,0.0191658828407526,-0.004963276442140341,-0.07750347256660461
1772812405790627300,2.25662744140625,0.012446369975805283,-0.010155626572668552,-0.062537282705307
1772812405800328200,2.266328125,0.004505127668380737,0.0005345066892914474,-0.04818195849657059
1772812405810028800,2.27602880859375,0.017333287745714188,0.026190826669335365,-0.03474293276667595
1772812405819729700,2.285729736328125,0.024663666263222694,0.004199695307761431,-0.02496909722685814
1772812405829430300,2.29543017578125,0.034437503665685654,0.019471315667033195,-0.005421424750238657
1772812405839131000,2.305130859375,0.04848739132285118,0.02588539570569992,0.0077121676877141
1772812405848831700,2.314831787109375,0.054901473224163055,0.017333287745714188,0.010155626572668552
1772812405858532400,2.324532470703125,0.05520690605044365,0.013973532244563103,0.01107192412018776
1772812405868233200,2.334233154296875,0.046654798090457916,-0.004963276442140341,0.010155626572668552
1772812405877933800,2.343933837890625,0.04329504072666168,-0.015042545273900032,0.011377356946468353
1772812405907036000,2.373035888671875,0.0295505840331316,-0.02390008419752121,0.03550651669502258
1772812405916736800,2.38273681640625,0.022525638341903687,-0.015347977168858051,0.03550651669502258
1772812405926437400,2.392437255859375,0.017027854919433594,-0.0034361144062131643,0.02756527252495289
1772812405936138200,2.40213818359375,0.014584396965801716,0.0023671009112149477,0.014126247726380825
1772812405945838800,2.4118388671875,0.017333287745714188,0.003894262947142124,0.0022143847309052944
1772812405955539700,2.421539794921875,0.015806125476956367,0.003894262947142124,-0.00755945174023509
1772812405965240300,2.431240234375,0.006337722297757864,0.011530072428286076,-0.005421424750238657
1772812405974941000,2.44094091796875,-0.014126247726380825,0.012140937149524689,0.005574141163378954
1772812405984641800,2.450641845703125,-0.033979352563619614,0.00511599238961935,0.02176205813884735
1772812405994342400,2.46034228515625,-0.04283689334988594,0.0029779658652842045,0.03611737862229347
1772812406004043300,2.470043212890625,-0.04222602769732475,-0.006185005884617567,0.03886627033352852
1772812406013743900,2.479743896484375,-0.03886627033352852,-0.01259908638894558,0.03061959706246853
1772812406023444500,2.489444580078125,-0.033368486911058426,-0.008323032408952713,0.01259908638894558
1772812406033145300,2.499145263671875,-0.024510949850082397,0.00603228947147727,-0.0066431546583771706
1772812406042846000,2.508845947265625,-0.021456625312566757,0.01977674663066864,-0.020693045109510422
1772812406052546600,2.518546630859375,-0.024205517023801804,0.022525638341903687,-0.026801692321896553
1772812406062247400,2.528247314453125,-0.022983787581324577,0.018555017188191414,-0.023136503994464874
1772812406071948000,2.537947998046875,-0.01565340906381607,0.00603228947147727,-0.01672242395579815
1772812406081649000,2.54764892578125,-0.011682788841426373,-0.003741546766832471,-0.004199695307761431
1772812406091349500,2.557349609375,-0.013209951110184193,-0.0058795735239982605,0.005268708802759647
1772812406101050000,2.567050048828125,-0.020540328696370125,0.0035888305865228176,0.011682788841426373
1772812406110751000,2.5767509765625,-0.030314164236187935,0.01000291109085083,0.016569707542657852
1772812406120451600,2.58645166015625,-0.034895651042461395,0.015500693581998348,0.02023489587008953
1772812406130152400,2.59615234375,-0.03520108386874199,0.017333287745714188,0.02237292192876339
1772812406139853000,2.60585302734375,-0.03672824427485466,0.017027854919433594,0.02542724646627903
1772812406149554000,2.615553955078125,-0.036422811448574066,0.010919207707047462,0.024816380813717842
1772812406159254500,2.625254638671875,-0.03275762498378754,0.00847574882209301,0.02328922040760517
1772812406168955100,2.634955078125,-0.026038112118840218,0.009697478264570236,0.022983787581324577
1772812406178656000,2.644656005859375,-0.022983787581324577,0.008781181648373604,0.02542724646627903
1772812406188356600,2.654356689453125,-0.02390008419752121,-0.004963276442140341,0.022067490965127945
1772812406198057500,2.664057373046875,-0.022983787581324577,-0.010155626572668552,0.010461059398949146
1772812406207758000,2.673758056640625,-0.014431680552661419,0.013057234697043896,0.002825249684974551
1772812406217459000,2.683458984375,-0.00923932995647192,0.03168861195445061,-0.00022907429956831038
1772812406227159600,2.69315966796875,-0.01565340906381607,0.028328854590654373,0.005268708802759647
1772812406236860200,2.702860107421875,-0.024510949850082397,0.00755945174023509,0.01718057133257389
1772812406246561000,2.71256103515625,-0.028787001967430115,-0.005268708802759647,0.022983787581324577
1772812406256261600,2.72226171875,-0.036422811448574066,-0.011377356946468353,0.023594651371240616
1772812406265962500,2.73196240234375,-0.04955640435218811,-0.013209951110184193,0.018096869811415672
1772812406275663000,2.7416630859375,-0.05780307948589325,0.003283398225903511,0.008628465235233307
1772812406285364000,2.751364013671875,-0.05413788929581642,0.023441936820745468,-0.00022907429956831038
1772812406295064600,2.761064697265625,-0.04283689334988594,0.02802342176437378,-0.005421424750238657
1772812406304765200,2.77076513671875,-0.03214675933122635,0.015806125476956367,-0.006337722297757864
1772812406314466000,2.780466064453125,-0.024816380813717842,0.0005345066892914474,-0.003894262947142124
1772812406324166700,2.790166748046875,-0.018402300775051117,0.002061668550595641,0.002825249684974551
1772812406333867500,2.799867431640625,-0.016569707542657852,0.006948587018996477,0.012904518283903599
1772812406343568100,2.809568115234375,-0.021456625312566757,0.0011453714687377214,0.02176205813884735
1772812406353268700,2.819268798828125,-0.019929463043808937,-0.0022143847309052944,0.030314164236187935
1772812406362969600,2.828969482421875,-0.013209951110184193,-0.0019089524867013097,0.03245219215750694
1772812406372670200,2.838670166015625,-0.007406735327094793,-0.005268708802759647,0.030925029888749123
1772812406382371000,2.84837109375,-0.004657844081521034,-0.0009926552884280682,0.024205517023801804
1772812406392071700,2.85807177734375,-0.0012980876490473747,0.006948587018996477,0.012904518283903599
1772812406401772300,2.867772216796875,-0.00038179047987796366,0.006948587018996477,0.0019089524867013097
1772812406411473200,2.87747314453125,0.0011453714687377214,0.0011453714687377214,-0.00755945174023509
1772812406421173800,2.887173828125,0.000839939049910754,-0.0016035200096666813,-0.008781181648373604
1772812406430874600,2.89687451171875,-0.006185005884617567,0.0029779658652842045,-0.0029779658652842045
1772812406440575200,2.9065751953125,-0.020540328696370125,0.01030834298580885,0.00954476185142994
1772812406450275800,2.91627587890625,-0.03153589367866516,0.017333287745714188,0.018096869811415672
1772812406459976700,2.925976806640625,-0.03306305781006813,0.017027854919433594,0.02176205813884735
1772812406469677300,2.93567724609375,-0.026648975908756256,0.014889828860759735,0.02176205813884735
1772812406479378200,2.945378173828125,-0.01718057133257389,0.00847574882209301,0.015347977168858051
1772812406489078800,2.955078857421875,-0.00923932995647192,0.00511599238961935,0.010461059398949146
1772812406498779400,2.964779296875,-0.003741546766832471,-0.0009926552884280682,0.004657844081521034
1772812406508480300,2.974480224609375,-0.0009926552884280682,-0.0058795735239982605,-0.0017562361899763346
1772812406518180900,2.984180908203125,0.002061668550595641,-0.004352411720901728,-0.004199695307761431
1772812406527881700,2.9938818359375,0.003283398225903511,-0.005268708802759647,-0.009086613543331623
1772812406537582300,3.003582275390625,0.004505127668380737,-0.006490438245236874,-0.015806125476956367
1772812406547283000,3.013282958984375,0.009392046369612217,-0.005574141163378954,-0.020693045109510422
1772812406556983800,3.02298388671875,0.01763872057199478,-0.004657844081521034,-0.026801692321896553
1772812406566684400,3.032684326171875,0.02741255611181259,0.00022907429956831038,-0.0322994738817215
1772812406576385300,3.04238525390625,0.03474293276667595,0.001450803829357028,-0.03321577236056328
1772812406586086000,3.0520859375,0.035964664071798325,0.001450803829357028,-0.02741255611181259
1772812406595786800,3.061786865234375,0.030772313475608826,-0.008323032408952713,-0.015806125476956367
1772812406605487400,3.0714873046875,0.020387612283229828,-0.016569707542657852,-0.00511599238961935
1772812406615188000,3.08118798828125,0.013973532244563103,-0.015958841890096664,-0.000839939049910754
1772812406624888800,3.090888916015625,0.013668099418282509,-0.008628465235233307,-0.002672533504664898
1772812406634589400,3.10058935546875,0.01183550525456667,0.002061668550595641,-0.007254019379615784
1772812406644290300,3.110290283203125,0.009086613543331623,0.013057234697043896,-0.013668099418282509
1772812406653991000,3.119990966796875,0.004199695307761431,0.01824958436191082,-0.013362666592001915
1772812406663691800,3.12969189453125,-0.00038179047987796366,0.009392046369612217,-0.010919207707047462
1772812406673392400,3.139392333984375,-0.004963276442140341,0.0017562361899763346,-0.005421424750238657
1772812406683093000,3.149093017578125,-0.0031306820455938578,-0.0019089524867013097,-0.0017562361899763346
1772812406692793900,3.1587939453125,0.000839939049910754,-0.0034361144062131643,0.0025198173243552446
1772812406702494500,3.168494384765625,0.004199695307761431,0.003283398225903511,0.004963276442140341
1772812406712195300,3.1781953125,0.004199695307761431,0.013362666592001915,0.004046979360282421
1772812406721896000,3.18789599609375,0.00511599238961935,0.01672242395579815,-0.00022907429956831038
1772812406731596500,3.197596435546875,0.009392046369612217,0.01183550525456667,0.0009926552884280682
1772812406741297400,3.20729736328125,0.013362666592001915,0.000839939049910754,0.0006872228696011007
1772812406750998000,3.216998046875,0.012751801870763302,-0.008933897130191326,-0.0005345066892914474
1772812406760699000,3.226698974609375,0.010613775812089443,-0.019624030217528343,-0.004810560029000044
1772812406770399500,3.2363994140625,0.005421424750238657,-0.02084576152265072,-0.014584396965801716
1772812406780100400,3.246100341796875,-0.0025198173243552446,-0.012904518283903599,-0.030772313475608826
1772812406789801000,3.255801025390625,-0.012904518283903599,0.004505127668380737,-0.04024071618914604
1772812406799501600,3.26550146484375,-0.019013166427612305,0.017333287745714188,-0.04696023091673851
1772812406809202400,3.275202392578125,-0.01565340906381607,0.01763872057199478,-0.04298960790038109
1772812406818903000,3.284903076171875,-0.005268708802759647,0.013362666592001915,-0.02802342176437378
1772812406828603600,3.294603759765625,0.004199695307761431,-0.0009926552884280682,-0.00847574882209301
1772812406838304500,3.304304443359375,0.012140937149524689,-0.01565340906381607,0.011377356946468353
1772812406848005000,3.314005126953125,0.014889828860759735,-0.025732679292559624,0.02756527252495289
1772812406857705700,3.323705810546875,0.01611155830323696,-0.022067490965127945,0.03214675933122635
1772812406867406600,3.333406494140625,0.020387612283229828,-0.008017600513994694,0.025121813639998436
1772812406886808000,3.35280810546875,0.023136503994464874,0.009392046369612217,0.0058795735239982605
1772812406896508700,3.3625087890625,0.025274530053138733,0.0023671009112149477,-0.0023671009112149477
1772812406906209300,3.372209228515625,0.02893971838057041,-0.008323032408952713,-0.008781181648373604
1772812406915910100,3.38191015625,0.03321577236056328,-0.016875140368938446,-0.015500693581998348
1772812406925610800,3.39161083984375,0.034437503665685654,-0.01565340906381607,-0.01977674663066864
1772812406935311600,3.4013115234375,0.0319940410554409,-0.01259908638894558,-0.021609341725707054
1772812406945012200,3.41101220703125,0.01977674663066864,-0.007101302966475487,-0.018555017188191414
1772812406954713000,3.420713134765625,0.0035888305865228176,0.00022907429956831038,-0.01000291109085083
1772812406964413700,3.43041357421875,-0.01107192412018776,0.0029779658652842045,-0.002672533504664898
1772812406974114300,3.4401142578125,-0.01870773360133171,0.00603228947147727,0.0031306820455938578
1772812406983815200,3.449815185546875,-0.015347977168858051,0.010919207707047462,0.008933897130191326
1772812406993515800,3.459515869140625,-0.009850194677710533,0.012446369975805283,0.008017600513994694
1772812407003216600,3.469216552734375,-0.0058795735239982605,0.017333287745714188,0.008323032408952713
1772812407012917200,3.478917236328125,-0.003741546766832471,0.020693045109510422,0.01259908638894558
1772812407022617900,3.488617919921875,-0.006490438245236874,0.012446369975805283,0.019624030217528343
1772812407032318700,3.498318603515625,-0.009850194677710533,0.003894262947142124,0.03061959706246853
1772812407042019300,3.508019287109375,-0.013515383005142212,-0.007406735327094793,0.03611737862229347
1772812407051720200,3.51772021484375,-0.016569707542657852,-0.008933897130191326,0.037033677101135254
1772812407061420800,3.5274208984375,-0.018096869811415672,-0.002825249684974551,0.029703300446271896
1772812407071121700,3.53712158203125,-0.02023489587008953,0.008781181648373604,0.011682788841426373
1772812407080822300,3.546822265625,-0.0193185992538929,0.025579962879419327,-0.003894262947142124
1772812407090523000,3.55652294921875,-0.019013166427612305,0.03352120518684387,-0.01183550525456667
1772812407100223700,3.5662236328125,-0.018402300775051117,0.02741255611181259,-0.015195261687040329
1772812407109924400,3.57592431640625,-0.013820815831422806,0.00603228947147727,-0.010613775812089443
1772812407119625200,3.585625244140625,-0.004963276442140341,-0.015042545273900032,-0.00603228947147727
1772812407129325800,3.595325927734375,0.0035888305865228176,-0.024205517023801804,-0.004199695307761431
1772812407139026400,3.6050263671875,0.00755945174023509,-0.018096869811415672,-0.0029779658652842045
1772812407158428000,3.624427978515625,-0.0034361144062131643,0.020998476073145866,-0.005421424750238657
1772812407168128800,3.634128662109375,-0.007101302966475487,0.02802342176437378,-0.002672533504664898
1772812407177829400,3.643829345703125,-0.008933897130191326,0.018555017188191414,0.0025198173243552446
1772812407187530200,3.6535302734375,-0.0016035200096666813,0.007254019379615784,0.010155626572668552
1772812407197230800,3.66323095703125,0.009392046369612217,-0.008323032408952713,0.016569707542657852
1772812407206931500,3.672931396484375,0.015500693581998348,-0.019929463043808937,0.015042545273900032
1772812407216632300,3.68263232421875,0.017027854919433594,-0.019624030217528343,0.011377356946468353
1772812407226333000,3.6923330078125,0.014584396965801716,-0.012293653562664986,0.0034361144062131643
1772812407236033500,3.702033447265625,0.00603228947147727,0.0005345066892914474,-0.006337722297757864
1772812407245734400,3.711734375,-0.002825249684974551,0.011224640533328056,-0.01000291109085083
1772812407255435000,3.72143505859375,-0.004963276442140341,0.013668099418282509,-0.00603228947147727
1772812407265135900,3.731135986328125,0.00022907429956831038,0.000839939049910754,0.0016035200096666813
1772812407274836500,3.74083642578125,0.005421424750238657,-0.014737112447619438,0.00954476185142994
1772812407284537000,3.750537109375,0.004199695307761431,-0.015042545273900032,0.009850194677710533
1772812407294238000,3.760238037109375,-0.004046979360282421,-0.00923932995647192,0.003741546766832471
1772812407303938600,3.7699384765625,-0.016569707542657852,0.00022907429956831038,-0.012140937149524689
1772812407313639200,3.77963916015625,-0.027870705351233482,0.00755945174023509,-0.03168861195445061
1772812407323340000,3.789340087890625,-0.02909243479371071,0.006337722297757864,-0.049709122627973557
1772812407333040600,3.79904052734375,-0.020540328696370125,-0.0009926552884280682,-0.05978839099407196
1772812407342741500,3.808741455078125,-0.006185005884617567,-0.0077121676877141,-0.0628427118062973
1772812407352442000,3.818442138671875,0.004505127668380737,-0.0012980876490473747,-0.053985174745321274
1772812407362142700,3.828142822265625,0.007254019379615784,0.006337722297757864,-0.032910339534282684
1772812407371843600,3.837843505859375,-0.00007635809743078426,0.01000291109085083,-0.004505127668380737
1772812407381544200,3.847544189453125,-0.00954476185142994,0.00755945174023509,0.028176138177514076
1772812407391245000,3.8572451171875,-0.012904518283903599,-0.0006872228696011007,0.055970486253499985
1772812407400945700,3.866945556640625,-0.008628465235233307,-0.011988221667706966,0.06604975461959839
1772812407410646500,3.876646484375,-0.0016035200096666813,-0.022067490965127945,0.06391172856092453
1772812407420347100,3.88634716796875,0.011224640533328056,-0.020540328696370125,0.04558578506112099
1772812407430047700,3.8960478515625,0.026801692321896553,-0.011377356946468353,0.018096869811415672
1772812407439748600,3.90574853515625,0.034437503665685654,-0.006185005884617567,-0.009086613543331623
1772812407449449200,3.91544921875,0.03565923124551773,-0.006490438245236874,-0.03535379841923714
1772812407459150000,3.925150146484375,0.03138317912817001,-0.00007635809743078426,-0.053374309092760086
1772812407468850700,3.9348505859375,0.0295505840331316,0.008170315995812416,-0.055512335151433945
1772812407478551300,3.94455126953125,0.025274530053138733,0.0035888305865228176,-0.045738499611616135
1772812407488252200,3.954252197265625,0.018555017188191414,-0.011988221667706966,-0.02802342176437378
1772812407497952800,3.963952880859375,0.014584396965801716,-0.02328922040760517,-0.008170315995812416
1772812407507653600,3.973653564453125,0.01183550525456667,-0.02328922040760517,0.0077121676877141
1772812407517354200,3.983354248046875,0.003894262947142124,-0.023594651371240616,0.015042545273900032
1772812407527054800,3.993054931640625,-0.003741546766832471,-0.013209951110184193,0.010461059398949146
1772812407536755700,4.002755615234375,-0.004352411720901728,0.006948587018996477,0.0031306820455938578
1772812407546456300,4.012456298828125,-0.007406735327094793,0.01824958436191082,-0.0023671009112149477
1772812407556157200,4.0221572265625,-0.013209951110184193,0.014889828860759735,-0.005421424750238657
1772812407565857800,4.03185791015625,-0.012904518283903599,0.007254019379615784,-0.004199695307761431
1772812407575558700,4.04155859375,-0.00679587060585618,0.002061668550595641,0.00007635809743078426
1772812407585259300,4.05125927734375,-0.0031306820455938578,-0.008017600513994694,0.0022143847309052944
1772812407594960000,4.0609599609375,-0.0031306820455938578,-0.01107192412018776,-0.003894262947142124
1772812407604660700,4.07066064453125,-0.002825249684974551,-0.0016035200096666813,-0.009086613543331623
1772812407614361300,4.080361328125,-0.003741546766832471,0.005421424750238657,-0.014889828860759735
1772812407624062200,4.090062255859375,-0.0031306820455938578,0.00603228947147727,-0.020082179456949234
1772812407633762800,4.0997626953125,0.002061668550595641,0.004199695307761431,-0.02283107116818428
1772812407643463400,4.10946337890625,0.011224640533328056,0.00603228947147727,-0.014889828860759735
1772812407653164300,4.119164306640625,0.017944153398275375,-0.0022143847309052944,-0.004810560029000044
1772812407662865000,4.128864990234375,0.022525638341903687,-0.009850194677710533,0.0016035200096666813
1772812407672565800,4.138565673828125,0.027107125148177147,-0.004352411720901728,0.006490438245236874
1772812407682266400,4.148266357421875,0.02496909722685814,0.006337722297757864,0.013209951110184193
1772812407691967000,4.157967041015625,0.015806125476956367,0.00755945174023509,0.019624030217528343
1772812407701667800,4.167667724609375,0.00603228947147727,0.0005345066892914474,0.015958841890096664
1772812407711368400,4.177368408203125,0.003894262947142124,-0.004963276442140341,0.0016035200096666813
1772812407721069000,4.187069091796875,0.009392046369612217,0.004810560029000044,-0.00847574882209301
1772812407730770000,4.19677001953125,0.013057234697043896,0.013057234697043896,-0.01000291109085083
1772812407740470500,4.206470458984375,0.014278964139521122,0.0066431546583771706,0.00007635809743078426
1772812407750171400,4.21617138671875,0.017944153398275375,-0.006490438245236874,0.009850194677710533
1772812407759872000,4.2258720703125,0.02496909722685814,-0.014126247726380825,0.018096869811415672
1772812407769572600,4.235572509765625,0.030772313475608826,-0.013209951110184193,0.021151192486286163
1772812407779273500,4.2452734375,0.03168861195445061,-0.0031306820455938578,0.014126247726380825
1772812407788974000,4.25497412109375,0.03260490670800209,0.012446369975805283,0.007406735327094793
1772812407798674700,4.2646748046875,0.030161447823047638,0.016416991129517555,0.0009926552884280682
1772812407808375600,4.27437548828125,0.022525638341903687,0.01030834298580885,-0.003283398225903511
1772812407818076200,4.284076171875,0.014889828860759735,-0.0077121676877141,-0.009392046369612217
1772812407827777000,4.293777099609375,0.013668099418282509,-0.02023489587008953,-0.017027854919433594
1772812407837477600,4.3034775390625,0.012751801870763302,-0.018402300775051117,-0.02741255611181259
1772812407847178200,4.31317822265625,0.014278964139521122,-0.008628465235233307,-0.03840812295675278
1772812407856879000,4.322879150390625,0.017944153398275375,0.0005345066892914474,-0.04482220485806465
1772812407866579700,4.332579833984375,0.01824958436191082,0.003894262947142124,-0.04787652567028999
1772812407876280600,4.342280517578125,0.020082179456949234,0.013057234697043896,-0.04024071618914604
1772812407885981200,4.351981201171875,0.020693045109510422,0.015195261687040329,-0.020693045109510422
1772812407895682000,4.36168212890625,0.013362666592001915,0.010919207707047462,0.0016035200096666813
1772812407905382700,4.371382568359375,0.0066431546583771706,0.0017562361899763346,0.019624030217528343
1772812407915083300,4.381083251953125,0.008170315995812416,-0.005574141163378954,0.028787001967430115
1772812407924784000,4.3907841796875,0.015500693581998348,-0.010461059398949146,0.026038112118840218
1772812407934484700,4.400484619140625,0.023441936820745468,-0.00954476185142994,0.017486004158854485
1772812407944185600,4.410185546875,0.030161447823047638,-0.004046979360282421,0.004352411720901728
1772812407953886200,4.41988623046875,0.03657552972435951,0.0017562361899763346,-0.0057268571108579636
1772812407963586800,4.4295869140625,0.03504836559295654,0.0029779658652842045,-0.009697478264570236
1772812407973287700,4.43928759765625,0.028328854590654373,0.002672533504664898,-0.00603228947147727
1772812407982988300,4.44898828125,0.018555017188191414,0.000839939049910754,0.0016035200096666813
1772812407992689200,4.458689208984375,0.005421424750238657,-0.0022143847309052944,0.009850194677710533
1772812408002389800,4.4683896484375,-0.0012980876490473747,-0.0031306820455938578,0.01259908638894558
1772812408012090400,4.47809033203125,-0.00007635809743078426,-0.0022143847309052944,0.014737112447619438
1772812408021791200,4.487791259765625,0.004810560029000044,-0.002825249684974551,0.0077121676877141
1772812408031491800,4.497491943359375,0.01183550525456667,0.0005345066892914474,0.0006872228696011007
1772812408041192700,4.507192626953125,0.015806125476956367,0.00603228947147727,-0.005421424750238657
1772812408050893300,4.516893310546875,0.015195261687040329,0.009086613543331623,-0.004505127668380737
1772812408060594000,4.526593994140625,0.009392046369612217,0.0035888305865228176,0.0009926552884280682
1772812408070294800,4.536294677734375,-0.0034361144062131643,-0.0034361144062131643,0.00679587060585618
1772812408079995400,4.545995361328125,-0.01626427471637726,-0.011377356946468353,0.006185005884617567
1772812408089696300,4.5556962890625,-0.0193185992538929,-0.015958841890096664,-0.0066431546583771706
1772812408099396900,4.56539697265625,-0.01259908638894558,-0.014431680552661419,-0.023441936820745468
1772812408109097500,4.575097412109375,-0.005574141163378954,-0.007101302966475487,-0.04024071618914604
1772812408118798300,4.58479833984375,-0.0031306820455938578,-0.00038179047987796366,-0.04818195849657059
1772812408128499000,4.5944990234375,-0.0058795735239982605,0.004505127668380737,-0.044211339205503464
1772812408138199800,4.60419970703125,-0.011682788841426373,-0.0016035200096666813,-0.0322994738817215
1772812408147900400,4.613900390625,-0.013820815831422806,-0.011682788841426373,-0.020387612283229828
1772812408157601000,4.62360107421875,-0.008323032408952713,-0.015042545273900032,-0.01030834298580885
1772812408167302000,4.633302001953125,-0.0016035200096666813,-0.013209951110184193,-0.0011453714687377214
1772812408177002500,4.64300244140625,-0.0012980876490473747,-0.0009926552884280682,0.004657844081521034
1772812408186703400,4.652703369140625,-0.006490438245236874,0.013057234697043896,0.010155626572668552
1772812408196404000,4.662404052734375,-0.018096869811415672,0.015806125476956367,0.015042545273900032
1772812408206104600,4.6721044921875,-0.03153589367866516,0.017027854919433594,0.02237292192876339
1772812408215805400,4.681805419921875,-0.04558578506112099,0.02283107116818428,0.03214675933122635
1772812408225506000,4.691506103515625,-0.05413788929581642,0.02283107116818428,0.037949975579977036
1772812408235207000,4.70120703125,-0.05230529606342316,0.01672242395579815,0.03672824427485466
1772812408244907500,4.710907470703125,-0.0449749194085598,0.012140937149524689,0.029703300446271896
1772812408254608100,4.720608154296875,-0.03581194952130318,0.011224640533328056,0.019013166427612305
1772812408264309000,4.73030908203125,-0.027259841561317444,0.010919207707047462,0.00954476185142994
1772812408274009600,4.740009521484375,-0.02390008419752121,0.009697478264570236,0.00954476185142994
1772812408283710200,4.749710205078125,-0.028176138177514076,0.006948587018996477,0.015347977168858051
1772812408293411000,4.7594111328125,-0.03214675933122635,0.0057268571108579636,0.025121813639998436
1772812408303111700,4.769111572265625,-0.03245219215750694,0.008170315995812416,0.03825540840625763
1772812408312812300,4.778812255859375,-0.02848157100379467,0.00603228947147727,0.04894553869962692
1772812408322513200,4.78851318359375,-0.025121813639998436,-0.004963276442140341,0.0501672700047493
1772812408332213800,4.7982138671875,-0.02328922040760517,-0.014126247726380825,0.04283689334988594
1772812408341914600,4.80791455078125,-0.02390008419752121,-0.018096869811415672,0.024510949850082397
1772812408351615200,4.817615234375,-0.02328922040760517,-0.013515383005142212,-0.000839939049910754
1772812408361315800,4.82731591796875,-0.024205517023801804,-0.0077121676877141,-0.028634287416934967
1772812408371016700,4.8370166015625,-0.021151192486286163,-0.004657844081521034,-0.0527634471654892
1772812408390418200,4.856418212890625,-0.0193185992538929,0.0035888305865228176,-0.0631481483578682
1772812408400118800,4.866118896484375,-0.030314164236187935,0.004810560029000044,-0.05123628303408623
1772812408409819400,4.8758193359375,-0.04039343446493149,0.007254019379615784,-0.026190826669335365
1772812408419520300,4.885520263671875,-0.04558578506112099,0.012140937149524689,0.004963276442140341
1772812408429220900,4.895220947265625,-0.049861837178468704,0.005421424750238657,0.034895651042461395
1772812408438921700,4.904921630859375,-0.05230529606342316,0.003283398225903511,0.053832460194826126
1772812408448622300,4.914622314453125,-0.04558578506112099,0.009086613543331623,0.06268999725580215
1772812408458323000,4.924322998046875,-0.03764454275369644,0.01672242395579815,0.059024810791015625
1772812408468023800,4.93402392578125,-0.03245219215750694,0.0243582334369421,0.051389001309871674
1772812408477724400,4.943724365234375,-0.027870705351233482,0.02588539570569992,0.0397825688123703
1772812408487425300,4.95342529296875,-0.017486004158854485,0.017333287745714188,0.030925029888749123
1772812408497126000,4.9631259765625,-0.00923932995647192,0.01000291109085083,0.025121813639998436
1772812408506826500,4.972826416015625,-0.0025198173243552446,-0.0009926552884280682,0.02084576152265072
1772812408516527400,4.98252734375,0.00022907429956831038,-0.016569707542657852,0.01565340906381607
1772812408526228000,4.99222802734375,0.002061668550595641,-0.026343543082475662,0.005268708802759647
1772812408535928800,5.0019287109375,0.008170315995812416,-0.025121813639998436,-0.009697478264570236
1772812408545629400,5.01162939453125,0.014278964139521122,-0.017486004158854485,-0.024052800610661507
1772812408555330000,5.021330078125,0.014278964139521122,-0.008628465235233307,-0.035964664071798325
1772812408565031000,5.031031005859375,0.012140937149524689,0.0035888305865228176,-0.03474293276667595
1772812408574731500,5.0407314453125,0.006337722297757864,0.013362666592001915,-0.022525638341903687
1772812408584432400,5.050432373046875,-0.0025198173243552446,0.015195261687040329,-0.0017562361899763346
1772812408594133000,5.060133056640625,-0.00923932995647192,0.010613775812089443,0.02390008419752121
1772812408603833600,5.06983349609375,-0.011377356946468353,-0.0012980876490473747,0.043753188103437424
1772812408613534500,5.079534423828125,-0.010461059398949146,-0.00954476185142994,0.05261072888970375
1772812408623235000,5.089235107421875,-0.008323032408952713,-0.008323032408952713,0.04741837829351425
1772812408632936000,5.09893603515625,-0.003741546766832471,-0.004352411720901728,0.02756527252495289
1772812408642636500,5.108636474609375,0.0011453714687377214,0.0005345066892914474,0.002825249684974551
1772812408652337200,5.118337158203125,0.01000291109085083,0.004505127668380737,-0.01763872057199478
1772812408662038000,5.1280380859375,0.01672242395579815,0.004505127668380737,-0.030466880649328232
1772812408671738600,5.137738525390625,0.020387612283229828,-0.0009926552884280682,-0.03474293276667595
1772812408681439500,5.147439453125,0.02130390889942646,-0.0034361144062131643,-0.028634287416934967
1772812408691140000,5.15714013671875,0.017027854919433594,-0.004963276442140341,-0.019471315667033195
1772812408700840700,5.1668408203125,0.01030834298580885,-0.010766491293907166,-0.01030834298580885
1772812408710541600,5.17654150390625,0.00847574882209301,-0.011377356946468353,-0.000839939049910754
1772812408720242200,5.1862421875,0.006337722297757864,-0.00954476185142994,0.0031306820455938578
1772812408729943000,5.195943115234375,0.004505127668380737,-0.014431680552661419,0.0031306820455938578
1772812408739643600,5.2056435546875,-0.0031306820455938578,-0.012904518283903599,0.006490438245236874
1772812408749344300,5.21534423828125,-0.00679587060585618,-0.008933897130191326,0.0009926552884280682
1772812408759045000,5.225045166015625,-0.004963276442140341,0.006948587018996477,-0.003283398225903511
1772812408768745700,5.234745849609375,-0.0058795735239982605,0.015500693581998348,-0.00603228947147727
1772812408778446600,5.244446533203125,-0.010155626572668552,0.012751801870763302,-0.0066431546583771706
1772812408788147200,5.254147216796875,-0.010766491293907166,0.0057268571108579636,-0.002061668550595641
1772812408797847800,5.263847900390625,-0.008628465235233307,-0.0031306820455938578,0.0012980876490473747
1772812408807548700,5.273548583984375,-0.0006872228696011007,-0.008017600513994694,-0.0005345066892914474
1772812408817249300,5.283249267578125,0.012446369975805283,-0.012293653562664986,-0.002061668550595641
1772812408826950100,5.2929501953125,0.020082179456949234,-0.019624030217528343,-0.00755945174023509
1772812408836650800,5.302650634765625,0.020693045109510422,-0.015347977168858051,-0.008170315995812416
1772812408846351400,5.312351318359375,0.014584396965801716,-0.005268708802759647,-0.004505127668380737
1772812408856052200,5.32205224609375,0.0023671009112149477,-0.00007635809743078426,-0.0011453714687377214
1772812408865752800,5.3317529296875,-0.010766491293907166,0.002061668550595641,-0.002672533504664898
1772812408875453400,5.341453369140625,-0.019013166427612305,-0.0025198173243552446,-0.007864884100854397
1772812408885154300,5.351154296875,-0.01870773360133171,-0.010155626572668552,-0.016416991129517555
1772812408894855000,5.36085498046875,-0.008323032408952713,-0.01565340906381607,-0.027107125148177147
1772812408904555500,5.370555419921875,0.0035888305865228176,-0.013820815831422806,-0.03352120518684387
1772812408914256400,5.38025634765625,0.008781181648373604,-0.004963276442140341,-0.03413207083940506
1772812408923957000,5.38995703125,0.005421424750238657,0.006948587018996477,-0.023747367784380913
1772812408933657600,5.39965771484375,-0.0031306820455938578,0.01183550525456667,-0.003894262947142124
1772812408943358500,5.4093583984375,-0.010461059398949146,0.006337722297757864,0.01779143698513508
1772812408953059000,5.41905908203125,-0.013515383005142212,-0.008628465235233307,0.03245219215750694
1772812408962760000,5.428760009765625,-0.007101302966475487,-0.015042545273900032,0.037949975579977036
1772812408972460500,5.43846044921875,0.003283398225903511,-0.011377356946468353,0.02909243479371071
1772812408982161200,5.4481611328125,0.007254019379615784,0.0023671009112149477,0.01565340906381607
1772812408991862000,5.457862060546875,0.0057268571108579636,0.014889828860759735,0.00007635809743078426
1772812409001562600,5.467562744140625,0.007864884100854397,0.015500693581998348,-0.012446369975805283
1772812409011263500,5.477263427734375,0.007864884100854397,0.01000291109085083,-0.015500693581998348
1772812409020964000,5.486964111328125,0.007254019379615784,0.002672533504664898,-0.01030834298580885
1772812409030664700,5.496664794921875,0.003894262947142124,-0.00954476185142994,-0.006948587018996477
1772812409040365600,5.506365478515625,0.002672533504664898,-0.010461059398949146,-0.0057268571108579636
1772812409050066200,5.516066162109375,0.0023671009112149477,-0.0006872228696011007,0.0009926552884280682
1772812409059767000,5.52576708984375,-0.0012980876490473747,-0.0006872228696011007,0.004657844081521034
1772812409069467600,5.535467529296875,-0.0022143847309052944,-0.008017600513994694,0.004657844081521034
1772812409079168300,5.545168212890625,0.001450803829357028,-0.013820815831422806,0.0009926552884280682
1772812409088869000,5.554869140625,0.008170315995812416,-0.010155626572668552,-0.004199695307761431
1772812409098569700,5.56456982421875,0.008170315995812416,0.002672533504664898,-0.005421424750238657
1772812409108270600,5.5742705078125,0.00022907429956831038,0.008781181648373604,-0.006337722297757864
1772812409117971200,5.58397119140625,-0.0058795735239982605,0.012751801870763302,-0.0066431546583771706
1772812409127671800,5.593671875,-0.008628465235233307,0.01824958436191082,-0.0017562361899763346
1772812409137372700,5.60337255859375,-0.010461059398949146,0.020387612283229828,0.010766491293907166
1772812409147073300,5.6130732421875,-0.014431680552661419,0.010919207707047462,0.020540328696370125
1772812409156774000,5.62277392578125,-0.015958841890096664,0.0029779658652842045,0.02695440873503685
1772812409166474800,5.632474853515625,-0.012904518283903599,0.0035888305865228176,0.02542724646627903
1772812409176175400,5.64217529296875,-0.007406735327094793,0.002061668550595641,0.013820815831422806
1772812409185876200,5.651876220703125,-0.0012980876490473747,-0.00007635809743078426,-0.0029779658652842045
1772812409195576800,5.661576904296875,0.010919207707047462,0.001450803829357028,-0.018555017188191414
1772812409205277400,5.67127734375,0.022220205515623093,0.0017562361899763346,-0.025579962879419327
1772812409214978300,5.680978271484375,0.022525638341903687,-0.0009926552884280682,-0.028634287416934967
1772812409224679000,5.690678955078125,0.021914774551987648,0.00755945174023509,-0.02283107116818428
1772812409234379800,5.7003798828125,0.01763872057199478,0.01183550525456667,-0.01030834298580885
1772812409244080400,5.710080322265625,0.004199695307761431,0.00755945174023509,0.0031306820455938578
1772812409253781000,5.719781005859375,-0.008323032408952713,0.00603228947147727,0.016875140368938446
1772812409263481900,5.72948193359375,-0.01259908638894558,0.010613775812089443,0.02542724646627903
1772812409273182500,5.739182373046875,-0.013515383005142212,0.009697478264570236,0.03000873140990734
1772812409282883300,5.74888330078125,-0.014737112447619438,0.002672533504664898,0.027259841561317444
1772812409292584000,5.758583984375,-0.010766491293907166,0.0011453714687377214,0.018402300775051117
1772812409302284500,5.768284423828125,-0.0025198173243552446,0.0035888305865228176,0.00923932995647192
1772812409311985400,5.7779853515625,0.0017562361899763346,0.01000291109085083,0.0019089524867013097
1772812409321686000,5.78768603515625,0.001450803829357028,0.01763872057199478,-0.002672533504664898
1772812409331387000,5.797386962890625,-0.0012980876490473747,0.0191658828407526,-0.0017562361899763346
1772812409341087500,5.80708740234375,-0.0019089524867013097,0.010613775812089443,0.0034361144062131643
1772812409350788000,5.8167880859375,0.004810560029000044,0.00022907429956831038,0.00679587060585618
1772812409360489000,5.826489013671875,0.011224640533328056,-0.009850194677710533,0.01107192412018776
1772812409370189600,5.836189453125,0.013057234697043896,-0.019624030217528343,0.006490438245236874
1772812409379890200,5.84589013671875,0.012446369975805283,-0.018402300775051117,-0.002061668550595641
1772812409389591000,5.855591064453125,0.009392046369612217,-0.007101302966475487,-0.014584396965801716
1772812409408992500,5.874992431640625,-0.00679587060585618,0.014584396965801716,-0.034437503665685654
1772812409418693000,5.884693115234375,-0.009850194677710533,0.014278964139521122,-0.0319940410554409
1772812409428393700,5.894393798828125,-0.008933897130191326,0.01000291109085083,-0.02283107116818428
1772812409438094600,5.904094482421875,-0.006490438245236874,0.005421424750238657,-0.011530072428286076
1772812409447795200,5.913795166015625,-0.005574141163378954,0.0029779658652842045,0.0025198173243552446
1772812409457496000,5.92349609375,-0.004963276442140341,0.0017562361899763346,0.01107192412018776
1772812409467196700,5.93319677734375,-0.005268708802759647,0.00603228947147727,0.02023489587008953
1772812409476897300,5.942897216796875,-0.005574141163378954,0.007864884100854397,0.025732679292559624
1772812409486598100,5.95259814453125,-0.004963276442140341,0.005421424750238657,0.03061959706246853
1772812409496298800,5.962298828125,-0.0031306820455938578,0.000839939049910754,0.03153589367866516
1772812409505999600,5.97199951171875,0.0035888305865228176,-0.004046979360282421,0.02695440873503685
1772812409515700200,5.9817001953125,0.013973532244563103,-0.00923932995647192,0.013209951110184193
1772812409525400800,5.99140087890625,0.022525638341903687,-0.0077121676877141,-0.0035888305865228176
1772812409535101700,6.001101806640625,0.0295505840331316,0.001450803829357028,-0.01977674663066864
1772812409544802300,6.01080224609375,0.030466880649328232,0.004810560029000044,-0.03168861195445061
1772812409554503000,6.0205029296875,0.027717988938093185,-0.0006872228696011007,-0.03321577236056328
1772812409564203800,6.030203857421875,0.021914774551987648,-0.008628465235233307,-0.02496909722685814
1772812409573904400,6.039904296875,0.015806125476956367,-0.020540328696370125,-0.014889828860759735
1772812409583605200,6.049605224609375,0.007864884100854397,-0.026038112118840218,-0.007864884100854397
1772812409593305900,6.059305908203125,0.003283398225903511,-0.024205517023801804,-0.00755945174023509
1772812409603006500,6.06900634765625,0.0023671009112149477,-0.010461059398949146,-0.012751801870763302
1772812409612707300,6.078707275390625,0.004810560029000044,0.0066431546583771706,-0.019471315667033195
1772812409622408000,6.088407958984375,0.0066431546583771706,0.017333287745714188,-0.02283107116818428
1772812409632108500,6.098108642578125,0.010919207707047462,0.0191658828407526,-0.01824958436191082
1772812409641809400,6.107809326171875,0.01763872057199478,0.012140937149524689,-0.00603228947147727
1772812409651510000,6.117510009765625,0.02130390889942646,-0.0009926552884280682,0.011377356946468353
1772812409661210600,6.127210693359375,0.024052800610661507,-0.008933897130191326,0.027259841561317444
1772812409670911500,6.136911376953125,0.024052800610661507,-0.010766491293907166,0.03611737862229347
1772812409680612000,6.146612060546875,0.020387612283229828,-0.008323032408952713,0.03611737862229347
1772812409690312700,6.156312744140625,0.015500693581998348,-0.004046979360282421,0.02756527252495289
1772812409700013600,6.166013671875,0.013362666592001915,0.004199695307761431,0.016569707542657852
1772812409709714200,6.175714111328125,0.015500693581998348,0.014278964139521122,0.004352411720901728
1772812409719415000,6.1854150390625,0.016416991129517555,0.017944153398275375,-0.004199695307761431
1772812409729115600,6.19511572265625,0.011530072428286076,0.011530072428286076,-0.006337722297757864
1772812409738816300,6.204816162109375,0.005421424750238657,0.003283398225903511,-0.009697478264570236
1772812409748517000,6.21451708984375,0.0005345066892914474,0.0011453714687377214,-0.008781181648373604
1772812409758217700,6.2242177734375,-0.0016035200096666813,-0.004046979360282421,-0.00603228947147727
1772812409767918600,6.233918701171875,-0.006185005884617567,-0.01259908638894558,-0.006948587018996477
1772812409777619200,6.243619140625,-0.006185005884617567,-0.0077121676877141,-0.013973532244563103
1772812409787319800,6.25331982421875,-0.00007635809743078426,0.013057234697043896,-0.017027854919433594
1772812409797020700,6.263020751953125,0.0029779658652842045,0.020693045109510422,-0.015806125476956367
1772812409806721300,6.27272119140625,0.000839939049910754,0.011530072428286076,-0.013057234697043896
1772812409816422000,6.282421875,0.007254019379615784,0.003894262947142124,-0.004810560029000044
1772812409826122800,6.292122802734375,0.015806125476956367,-0.007406735327094793,0.007406735327094793
1772812409835823400,6.3018232421875,0.015806125476956367,-0.014431680552661419,0.01259908638894558
1772812409845524200,6.311524169921875,0.013668099418282509,-0.009850194677710533,0.010155626572668552
1772812409855224800,6.321224853515625,0.015195261687040329,0.0057268571108579636,0.006490438245236874
1772812409864925400,6.330925537109375,0.020998476073145866,0.019471315667033195,0.006185005884617567
1772812409874626300,6.340626220703125,0.023747367784380913,0.019471315667033195,0.008323032408952713
1772812409884327000,6.350326904296875,0.020998476073145866,0.01183550525456667,0.01626427471637726
1772812409894027800,6.36002783203125,0.014584396965801716,-0.0009926552884280682,0.02328922040760517
1772812409903728400,6.369728271484375,0.00755945174023509,-0.01259908638894558,0.022983787581324577
1772812409913429000,6.379428955078125,0.0011453714687377214,-0.011988221667706966,0.015347977168858051
1772812409923129900,6.3891298828125,-0.005574141163378954,-0.0031306820455938578,-0.0011453714687377214
1772812409932830500,6.39883056640625,-0.0077121676877141,0.009392046369612217,-0.025274530053138733
1772812409942531000,6.408531005859375,-0.005574141163378954,0.018555017188191414,-0.044211339205503464
1772812409952232000,6.41823193359375,-0.00038179047987796366,0.017333287745714188,-0.04848739132285118
1772812409961932500,6.4279326171875,0.005421424750238657,0.010919207707047462,-0.03627009689807892
1772812409971633400,6.43763330078125,0.008781181648373604,0.004810560029000044,-0.009086613543331623
1772812409981334000,6.447333984375,0.00603228947147727,-0.0016035200096666813,0.023594651371240616
1772812409991034600,6.45703466796875,0.001450803829357028,-0.007406735327094793,0.05169443041086197
1772812410000735500,6.466735595703125,0.002672533504664898,-0.008933897130191326,0.07154753804206848
1772812410010436000,6.47643603515625,0.009392046369612217,-0.00954476185142994,0.07338013499975204
1772812410020137000,6.486136962890625,0.02130390889942646,-0.01259908638894558,0.05719221383333206
1772812410029837600,6.495837646484375,0.037491824477910995,-0.009850194677710533,0.03245219215750694
1772812410039538200,6.5055380859375,0.05429060757160187,-0.0022143847309052944,0.0009926552884280682
1772812410049239000,6.515239013671875,0.06589704006910324,0.004505127668380737,-0.020693045109510422
1772812410058939600,6.524939697265625,0.06223184987902641,0.00511599238961935,-0.02802342176437378
1772812410068640300,6.53464013671875,0.04818195849657059,-0.004046979360282421,-0.021609341725707054
1772812410078341000,6.544341064453125,0.03504836559295654,-0.015042545273900032,-0.01000291109085083
1772812410088041700,6.554041748046875,0.02741255611181259,-0.021151192486286163,0.00923932995647192
1772812410097742600,6.56374267578125,0.021609341725707054,-0.02848157100379467,0.02084576152265072
1772812410107443200,6.573443115234375,0.017333287745714188,-0.025732679292559624,0.022678354755043983
1772812410117143800,6.583143798828125,0.01611155830323696,-0.014126247726380825,0.014737112447619438
1772812410126844700,6.5928447265625,0.014278964139521122,0.0023671009112149477,0.0009926552884280682
1772812410136545300,6.602545166015625,0.014584396965801716,0.017027854919433594,-0.01000291109085083
1772812410146246000,6.612245849609375,0.009086613543331623,0.01977674663066864,-0.014584396965801716
1772812410155946800,6.62194677734375,0.000839939049910754,0.009392046369612217,-0.013057234697043896
1772812410165647400,6.6316474609375,-0.0012980876490473747,-0.0006872228696011007,-0.009697478264570236
1772812410175348200,6.64134814453125,0.004505127668380737,-0.00679587060585618,-0.008170315995812416
1772812410185048800,6.651048828125,0.007864884100854397,-0.0058795735239982605,-0.008170315995812416
1772812410194749400,6.66074951171875,0.0057268571108579636,-0.00007635809743078426,-0.01183550525456667
1772812410204450300,6.6704501953125,0.004505127668380737,0.006337722297757864,-0.011224640533328056
1772812410214151000,6.68015087890625,0.005421424750238657,0.005421424750238657,-0.013362666592001915
1772812410223851800,6.689851806640625,0.007254019379615784,0.008170315995812416,-0.011530072428286076
1772812410233552400,6.699552490234375,0.01183550525456667,0.01000291109085083,-0.008170315995812416
1772812410243253000,6.7092529296875,0.013362666592001915,0.003283398225903511,-0.001450803829357028
1772812410252953900,6.718953857421875,0.009086613543331623,-0.0012980876490473747,0.01107192412018776
1772812410262654500,6.728654541015625,0.0017562361899763346,0.002061668550595641,0.026343543082475662
1772812410272355000,6.73835498046875,0.00022907429956831038,0.007864884100854397,0.03153589367866516
1772812410282056000,6.748055908203125,0.0066431546583771706,0.012140937149524689,0.0345902182161808
1772812410291756500,6.757756591796875,0.0017562361899763346,-0.00007635809743078426,0.03825540840625763
1772812410301457400,6.76745751953125,-0.009850194677710533,0.00022907429956831038,0.037033677101135254
1772812410311158000,6.777157958984375,-0.011682788841426373,0.004505127668380737,0.026038112118840218
1772812410320858600,6.786858642578125,-0.007406735327094793,0.002672533504664898,0.004963276442140341
1772812410330559500,6.7965595703125,-0.002825249684974551,-0.00038179047987796366,-0.014584396965801716
1772812410340260000,6.806260009765625,0.003283398225903511,0.004199695307761431,-0.032910339534282684
1772812410349960700,6.815960693359375,0.003283398225903511,0.0035888305865228176,-0.041157014667987823
1772812410359661600,6.82566162109375,-0.0031306820455938578,0.002061668550595641,-0.04085158184170723
1772812410369362200,6.835362060546875,-0.005268708802759647,0.00022907429956831038,-0.03962985426187515
1772812410379063000,6.84506298828125,0.003283398225903511,-0.004963276442140341,-0.03993528336286545
1772812410388763600,6.854763671875,0.019471315667033195,-0.006490438245236874,-0.03962985426187515
1772812410398464300,6.86446435546875,0.028328854590654373,-0.013515383005142212,-0.04085158184170723
1772812410408165000,6.8741650390625,0.020693045109510422,-0.021151192486286163,-0.03932442143559456
1772812410417865700,6.88386572265625,0.002061668550595641,-0.018096869811415672,-0.042073313146829605
1772812410427566600,6.893566650390625,-0.00923932995647192,-0.008933897130191326,-0.05062541738152504
1772812410437267200,6.90326708984375,-0.015958841890096664,-0.008628465235233307,-0.05887209251523018
1772812410446967800,6.9129677734375,-0.019929463043808937,-0.023594651371240616,-0.07444914430379868
1772812410456668700,6.922668701171875,-0.014737112447619438,-0.024205517023801804,-0.08972076326608658
1772812410466369300,6.932369384765625,-0.008628465235233307,-0.015042545273900032,-0.09521854668855667
1772812410476070000,6.94206982421875,-0.01259908638894558,-0.005268708802759647,-0.08727730810642242
1772812410485770800,6.951770751953125,-0.022067490965127945,0.0029779658652842045,-0.07017309218645096
1772812410495471400,6.961471435546875,-0.02848157100379467,0.007864884100854397,-0.04543306678533554
1772812410505172200,6.971172119140625,-0.027870705351233482,0.0057268571108579636,-0.02741255611181259
1772812410514872800,6.980872802734375,-0.024510949850082397,-0.002825249684974551,-0.0191658828407526
1772812410524573400,6.990573486328125,-0.017486004158854485,-0.007101302966475487,-0.019471315667033195
1772812410534274300,7.0002744140625,-0.010155626572668552,-0.00038179047987796366,-0.01977674663066864
1772812410543975000,7.009974853515625,-0.006185005884617567,0.002672533504664898,-0.01824958436191082
1772812410553675500,7.019675537109375,-0.0058795735239982605,-0.006490438245236874,-0.018860450014472008
1772812410563376400,7.02937646484375,-0.006490438245236874,-0.01565340906381607,-0.018555017188191414
1772812410573077000,7.039076904296875,-0.006490438245236874,-0.010461059398949146,-0.01672242395579815
1772812410582777600,7.048777587890625,-0.005574141163378954,-0.0077121676877141,-0.01824958436191082
1772812410592478500,7.058478515625,-0.00954476185142994,-0.012293653562664986,-0.020387612283229828
1772812410602179000,7.068178955078125,-0.009850194677710533,-0.01626427471637726,-0.027717988938093185
1772812410611880000,7.0778798828125,-0.007101302966475487,-0.027259841561317444,-0.03138317912817001
1772812410621580500,7.08758056640625,-0.004657844081521034,-0.043142326176166534,-0.0371863916516304
1772812410631281200,7.09728125,0.009086613543331623,-0.018402300775051117,-0.03810269013047218
1772812410640982000,7.10698193359375,0.00603228947147727,-0.008933897130191326,-0.03840812295675278
1772812410650682600,7.1166826171875,-0.01626427471637726,0.015195261687040329,-0.021609341725707054
1772812410660383200,7.12638330078125,-0.03733910992741585,0.015806125476956367,0.008628465235233307
1772812410670084000,7.136083984375,-0.04711294546723366,-0.00038179047987796366,0.04650207981467247
1772812410679784700,7.14578466796875,-0.04344775900244713,-0.014126247726380825,0.08040507882833481
1772812410689485300,7.1554853515625,-0.0345902182161808,-0.017486004158854485,0.09292780607938766
1772812410699186200,7.165186279296875,-0.023594651371240616,-0.009850194677710533,0.0907897800207138
1772812410708886800,7.17488671875,-0.013820815831422806,-0.010155626572668552,0.08743002265691757
1772812410718587400,7.18458740234375,-0.013515383005142212,-0.030314164236187935,0.07796161621809006
1772812410728288300,7.194288330078125,-0.004963276442140341,-0.05169443041086197,0.06268999725580215
1772812410737988900,7.20398876953125,0.005421424750238657,-0.06757691502571106,0.03520108386874199
1772812410747689500,7.213689453125,0.014889828860759735,-0.07002037763595581,-0.001450803829357028
1772812410757390300,7.223390380859375,0.01977674663066864,-0.05780307948589325,-0.03504836559295654
1772812410767091000,7.233091064453125,0.021609341725707054,-0.04741837829351425,-0.07658717036247253
1772812410776791800,7.242791748046875,0.028328854590654373,-0.034895651042461395,-0.10865757614374161
1772812410786492400,7.252492431640625,0.033826638013124466,-0.013515383005142212,-0.11476621776819229
1772812410796193000,7.262193115234375,0.022525638341903687,0.008781181648373604,-0.09460768103599548
1772812410805894000,7.271893798828125,-0.0012980876490473747,0.018860450014472008,-0.04543306678533554
1772812410815594500,7.281594482421875,-0.03000873140990734,0.01763872057199478,0.008323032408952713
1772812410825295000,7.291295166015625,-0.04650207981467247,0.012140937149524689,0.05047270283102989
1772812410834996000,7.300995849609375,-0.04558578506112099,0.014584396965801716,0.07643445581197739
1772812410844696600,7.310696533203125,-0.03733910992741585,0.012751801870763302,0.0755181610584259
1772812410854397400,7.3203974609375,-0.022067490965127945,0.0066431546583771706,0.05627591907978058
1772812410864098000,7.33009814453125,-0.011377356946468353,0.012140937149524689,0.03000873140990734
1772812410873798700,7.339798583984375,-0.00954476185142994,0.020998476073145866,0.0012980876490473747
1772812410883499500,7.34949951171875,-0.01107192412018776,0.02283107116818428,-0.022220205515623093
1772812410893200100,7.3592001953125,-0.010766491293907166,0.01611155830323696,-0.03474293276667595
1772812410902900700,7.368900634765625,0.0005345066892914474,-0.0009926552884280682,-0.044211339205503464
1772812410912601600,7.3786015625,0.01824958436191082,-0.0193185992538929,-0.049709122627973557
1772812410922302200,7.38830224609375,0.030161447823047638,-0.028176138177514076,-0.042684175074100494
1772812410932003000,7.398003173828125,0.030161447823047638,-0.026343543082475662,-0.022220205515623093
1772812410941703700,7.40770361328125,0.021914774551987648,-0.034895651042461395,-0.00755945174023509
1772812410951404300,7.417404296875,0.01763872057199478,-0.046807512640953064,-0.011224640533328056
1772812410961105200,7.427105224609375,0.02283107116818428,-0.054443322122097015,-0.03260490670800209
1772812410970805800,7.4368056640625,0.030772313475608826,-0.0449749194085598,-0.06039925664663315
1772812410980506400,7.44650634765625,0.03413207083940506,-0.024205517023801804,-0.08697187155485153
1772812410990207200,7.456207275390625,0.029856016859412193,0.0023671009112149477,-0.10774127393960953
1772812410999907800,7.465907958984375,0.010919207707047462,0.022220205515623093,-0.11140646785497665
1772812411009608700,7.475608642578125,-0.023594651371240616,0.048792824149131775,-0.0939968153834343
1772812411019309300,7.485309326171875,-0.06452259421348572,0.0527634471654892,-0.07078395783901215
1772812411029010000,7.495010009765625,-0.0910952091217041,0.04634936526417732,-0.047265663743019104
1772812411038710800,7.504710693359375,-0.09445496648550034,0.04146244749426842,-0.0295505840331316
1772812411048411400,7.514411376953125,-0.08040507882833481,0.035964664071798325,-0.023747367784380913
1772812411058112000,7.524112060546875,-0.06085740402340889,0.03260490670800209,-0.023136503994464874
1772812411067812900,7.533812744140625,-0.041004300117492676,0.030772313475608826,-0.02893971838057041
1772812411077513500,7.543513427734375,-0.031230462715029716,0.04848739132285118,-0.04512763395905495
1772812411087214300,7.55321435546875,-0.031841326504945755,0.06039925664663315,-0.0628427118062973
1772812411096915000,7.5629150390625,-0.04528035223484039,0.035964664071798325,-0.07078395783901215
1772812411106615600,7.572615478515625,-0.06177370250225067,-0.013820815831422806,-0.06498073786497116
1772812411116316400,7.58231640625,-0.06482802331447601,-0.02023489587008953,-0.05123628303408623
1772812411126017000,7.59201708984375,-0.043753188103437424,-0.002825249684974551,-0.053374309092760086
1772812411135717600,7.601717529296875,-0.008628465235233307,0.008170315995812416,-0.06345357745885849
1772812411145418500,7.61141845703125,0.015195261687040329,0.019471315667033195,-0.07475458085536957
1772812411155119000,7.621119140625,0.021609341725707054,0.024052800610661507,-0.06925679743289948
1772812411164820000,7.630820068359375,0.009392046369612217,0.025579962879419327,-0.048792824149131775
1772812411174520600,7.6405205078125,-0.00923932995647192,0.018860450014472008,-0.0011453714687377214
1772812411184221200,7.65022119140625,-0.03611737862229347,0.0295505840331316,0.06849320977926254
1772812411193922000,7.659922119140625,-0.05322159454226494,0.03138317912817001,0.12591449916362762
1772812411203622700,7.66962255859375,-0.04222602769732475,0.02130390889942646,0.1738673895597458
1772812411213323300,7.6793232421875,-0.02023489587008953,0.024052800610661507,0.19677481055259705
1772812411223024000,7.689024169921875,-0.009850194677710533,0.010919207707047462,0.1836412250995636
1772812411232724700,7.698724853515625,-0.00679587060585618,-0.0012980876490473747,0.15370884537696838
1772812411242425300,7.70842529296875,-0.008933897130191326,0.0035888305865228176,0.11491893976926804
1772812411252126200,7.718126220703125,-0.010766491293907166,-0.0016035200096666813,0.07429642975330353
1772812411261826800,7.727826904296875,-0.00954476185142994,-0.0012980876490473747,0.043753188103437424
1772812411271527700,7.737527587890625,-0.010461059398949146,-0.018402300775051117,0.019624030217528343
1772812411281228300,7.747228271484375,-0.013515383005142212,-0.013515383005142212,0.0031306820455938578
1772812411290929000,7.756928955078125,-0.011377356946468353,-0.03000873140990734,-0.018555017188191414
1772812411300629800,7.766629638671875,0.0011453714687377214,-0.03825540840625763,-0.032910339534282684
1772812411310330400,7.776330322265625,0.010613775812089443,-0.053832460194826126,-0.04390590637922287
1772812411320031000,7.786031005859375,0.014584396965801716,-0.07124210149049759,-0.04543306678533554
1772812411329731800,7.79573193359375,0.012140937149524689,-0.06268999725580215,-0.03810269013047218
1772812411339432400,7.805432373046875,0.0011453714687377214,-0.04864010959863663,-0.014278964139521122
1772812411349133300,7.81513330078125,-0.012293653562664986,-0.009850194677710533,0.02023489587008953
1772812411358834000,7.824833984375,-0.026648975908756256,-0.016569707542657852,0.03825540840625763
1772812411368534500,7.834534423828125,-0.011377356946468353,-0.0034361144062131643,0.05047270283102989
1772812411378235400,7.8442353515625,0.004505127668380737,-0.00038179047987796366,0.0449749194085598
1772812411387936000,7.85393603515625,0.012140937149524689,0.021914774551987648,0.03611737862229347
1772812411397636600,7.86363671875,0.012446369975805283,0.05581776797771454,0.02695440873503685
1772812411407337500,7.87333740234375,0.009697478264570236,0.08086322247982025,0.024510949850082397
1772812411417038000,7.8830380859375,0.002061668550595641,0.08575014024972916,0.031841326504945755
1772812411426738700,7.89273876953125,-0.004657844081521034,0.06406444311141968,0.05413788929581642
1772812411436439600,7.902439453125,-0.0034361144062131643,0.03413207083940506,0.081015944480896
1772812411446140200,7.91214013671875,0.000839939049910754,-0.013209951110184193,0.09445496648550034
1772812411455841000,7.921841064453125,0.003894262947142124,-0.046807512640953064,0.08468113094568253
1772812411465541600,7.931541748046875,0.00603228947147727,-0.05352702736854553,0.04955640435218811
1772812411475242200,7.9412421875,0.006337722297757864,-0.03764454275369644,0.00007635809743078426
1772812411484943000,7.950943115234375,-0.008933897130191326,-0.008323032408952713,-0.05306887626647949
1772812411494643700,7.960643798828125,-0.026343543082475662,0.019471315667033195,-0.08605557680130005
1772812411504344300,7.97034423828125,-0.03825540840625763,0.03352120518684387,-0.09552398324012756
1772812411514045200,7.980045166015625,-0.04802924394607544,0.01824958436191082,-0.09521854668855667
1772812411523745800,7.989745849609375,-0.049861837178468704,0.004199695307761431,-0.08483384549617767
1772812411533446700,7.99944677734375,-0.05413788929581642,-0.002825249684974551,-0.07903063297271729
1772812411543147300,8.009147216796874,-0.05871937796473503,-0.006185005884617567,-0.07780890166759491
1772812411552848000,8.018847900390625,-0.05780307948589325,0.002061668550595641,-0.08055779337882996
1772812411562548700,8.028548828125,-0.0550541877746582,0.009697478264570236,-0.07872519642114639
1772812411572249300,8.038249267578125,-0.0550541877746582,0.017944153398275375,-0.07231111824512482
1772812411581950000,8.047949951171875,-0.061162836849689484,0.025579962879419327,-0.05734493210911751
1772812411591650800,8.05765087890625,-0.06207913160324097,0.02588539570569992,-0.0423787422478199
1772812411601351400,8.067351318359375,-0.05810851231217384,0.021914774551987648,-0.02893971838057041
1772812411611052000,8.077052001953126,-0.04864010959863663,0.020387612283229828,-0.01611155830323696
1772812411620753000,8.0867529296875,-0.03917170315980911,0.0191658828407526,-0.00755945174023509
1772812411630453500,8.09645361328125,-0.02909243479371071,0.02588539570569992,0.0022143847309052944
1772812411640154400,8.106154296875,-0.02023489587008953,0.026190826669335365,0.016569707542657852
1772812411649855000,8.11585498046875,-0.018096869811415672,0.01000291109085083,0.029703300446271896
1772812411659555600,8.1255556640625,-0.014737112447619438,0.002061668550595641,0.04069886729121208
1772812411669256400,8.13525634765625,-0.006185005884617567,-0.0012980876490473747,0.046196650713682175
1772812411678957000,8.14495703125,-0.003741546766832471,-0.008017600513994694,0.041615162044763565
1772812411688657700,8.15465771484375,-0.0012980876490473747,-0.009850194677710533,0.03764454275369644
1772812411708059100,8.17405908203125,0.008781181648373604,-0.010155626572668552,0.03245219215750694
1772812411717759700,8.183759765625,0.009392046369612217,-0.005268708802759647,0.024816380813717842
1772812411727460600,8.193460693359375,0.0066431546583771706,-0.004963276442140341,0.018096869811415672
1772812411737161200,8.2031611328125,0.003283398225903511,-0.010155626572668552,0.007101302966475487
1772812411746862000,8.212862060546875,0.000839939049910754,-0.0006872228696011007,-0.0057268571108579636
1772812411756562700,8.222562744140625,-0.0016035200096666813,0.009086613543331623,-0.011224640533328056
1772812411766263300,8.23226318359375,-0.0009926552884280682,0.00511599238961935,-0.017027854919433594
1772812411775964200,8.241964111328125,0.004505127668380737,-0.014126247726380825,-0.032910339534282684
1772812411785664800,8.251664794921876,0.01763872057199478,-0.023594651371240616,-0.0524580143392086
1772812411795365400,8.261365478515625,0.03107774630188942,-0.016875140368938446,-0.06956222653388977
1772812411805066200,8.271066162109374,0.032910339534282684,-0.0058795735239982605,-0.08819360285997391
1772812411814766800,8.280766845703125,0.023441936820745468,0.007254019379615784,-0.0884990319609642
1772812411824467500,8.290467529296874,0.013362666592001915,0.01183550525456667,-0.07383827865123749
1772812411834168300,8.300168212890625,0.006948587018996477,0.003894262947142124,-0.04940368980169296
1772812411843869000,8.309868896484375,0.004810560029000044,-0.008628465235233307,-0.020998476073145866
1772812411853569800,8.31956982421875,0.012446369975805283,-0.0031306820455938578,0.008323032408952713
1772812411863270400,8.3292705078125,0.018555017188191414,0.010919207707047462,0.03733910992741585
