time,seconds_elapsed,z,y,x
1772812441693844700,0.1098447265625,-0.029397867619991302,0.006948587018996477,-0.09613484144210815
1772812441713246200,0.12924609375,-0.046807512640953064,0.013057234697043896,-0.07628174126148224
1772812441722946800,0.13894677734375,-0.039477135986089706,0.018860450014472008,-0.051847148686647415
1772812441732647400,0.1486474609375,-0.02542724646627903,0.02496909722685814,-0.0191658828407526
1772812441742348000,0.15834814453125,-0.017486004158854485,0.003283398225903511,0.010155626572668552
1772812441752048600,0.168048583984375,0.0005345066892914474,-0.008628465235233307,0.03245219215750694
1772812441761749200,0.177749267578125,0.018555017188191414,-0.00679587060585618,0.04741837829351425
1772812441771450000,0.1874501953125,0.018860450014472008,-0.0058795735239982605,0.05047270283102989
1772812441781150700,0.197150634765625,0.00847574882209301,0.023747367784380913,0.04955640435218811
1772812441790851300,0.206851318359375,-0.006185005884617567,0.0423787422478199,0.04864010959863663
1772812441800552000,0.216552001953125,-0.008628465235233307,0.04818195849657059,0.04864010959863663
1772812441810252500,0.22625244140625,0.002672533504664898,0.04604393243789673,0.05169443041086197
1772812441819953200,0.235953125,0.023441936820745468,0.03535379841923714,0.046807512640953064
1772812441829654000,0.245654052734375,0.04543306678533554,0.010613775812089443,0.03917170315980911
1772812441839354600,0.255354736328125,0.05429060757160187,-0.014431680552661419,0.030925029888749123
1772812441849055200,0.26505517578125,0.05001455545425415,-0.027259841561317444,0.024205517023801804
1772812441858755800,0.274755859375,0.04024071618914604,-0.033979352563619614,0.019013166427612305
1772812441868456400,0.28445654296875,0.027717988938093185,-0.029703300446271896,0.012904518283903599
1772812441878157000,0.294156982421875,0.01611155830323696,-0.03214675933122635,-0.000839939049910754
1772812441887857700,0.303857666015625,0.015500693581998348,-0.029703300446271896,-0.02283107116818428
1772812441897558500,0.31355859375,0.023136503994464874,-0.01565340906381607,-0.037491824477910995
1772812441907259100,0.323259033203125,0.030466880649328232,-0.0031306820455938578,-0.051847148686647415
1772812441916959700,0.332959716796875,0.03168861195445061,0.00847574882209301,-0.04329504072666168
1772812441926660400,0.342660400390625,0.029245151206851006,0.008781181648373604,-0.02496909722685814
1772812441936361000,0.35236083984375,0.02496909722685814,0.0023671009112149477,0.00007635809743078426
1772812441946061800,0.362061767578125,0.017333287745714188,-0.0058795735239982605,0.030314164236187935
1772812441955762400,0.371762451171875,0.007864884100854397,-0.01626427471637726,0.05474875494837761
1772812441965463000,0.381463134765625,0.0005345066892914474,-0.015042545273900032,0.06879864633083344
1772812441975163600,0.39116357421875,-0.006490438245236874,-0.00038179047987796366,0.06910407543182373
1772812441984864300,0.4008642578125,-0.00679587060585618,0.014889828860759735,0.05566505342721939
1772812441994564900,0.41056494140625,-0.004352411720901728,0.02802342176437378,0.038560837507247925
1772812442004265500,0.420265380859375,-0.011682788841426373,0.00847574882209301,0.022983787581324577
1772812442013966300,0.42996630859375,-0.018096869811415672,-0.0012980876490473747,0.0031306820455938578
1772812442023667000,0.4396669921875,-0.0019089524867013097,-0.008933897130191326,-0.02649625949561596
1772812442033367600,0.449367431640625,0.027107125148177147,-0.005268708802759647,-0.05948295816779137
1772812442043068200,0.459068115234375,0.045738499611616135,-0.002825249684974551,-0.08147408813238144
1772812442052768800,0.468768798828125,0.05001455545425415,0.00022907429956831038,-0.0888044685125351
1772812442062469600,0.4784697265625,0.047265663743019104,-0.0058795735239982605,-0.08177952468395233
1772812442072170200,0.488170166015625,0.04482220485806465,-0.014737112447619438,-0.05887209251523018
1772812442081870800,0.497870849609375,0.0371863916516304,-0.02176205813884735,-0.0319940410554409
1772812442091571500,0.507571533203125,0.028328854590654373,-0.024816380813717842,-0.004810560029000044
1772812442101272000,0.51727197265625,0.020082179456949234,-0.02023489587008953,0.01718057133257389
1772812442110972700,0.52697265625,0.013668099418282509,-0.019929463043808937,0.026648975908756256
1772812442120673300,0.53667333984375,0.0066431546583771706,-0.013209951110184193,0.039477135986089706
1772812442130374000,0.546373779296875,-0.0006872228696011007,-0.0016035200096666813,0.04558578506112099
1772812442140074800,0.55607470703125,-0.004963276442140341,-0.00007635809743078426,0.04283689334988594
1772812442149775400,0.565775390625,-0.0058795735239982605,0.00603228947147727,0.03764454275369644
1772812442159476000,0.57547607421875,-0.010461059398949146,0.012140937149524689,0.031230462715029716
1772812442169176600,0.585176513671875,-0.012293653562664986,0.017027854919433594,0.022067490965127945
1772812442178877400,0.59487744140625,-0.006490438245236874,0.02283107116818428,0.00954476185142994
1772812442188578000,0.604578125,0.0035888305865228176,0.02496909722685814,0.0012980876490473747
1772812442198278700,0.614278564453125,0.010613775812089443,0.01763872057199478,0.002825249684974551
1772812442207979300,0.623979248046875,0.010613775812089443,0.00603228947147727,0.007101302966475487
1772812442217680000,0.633679931640625,0.004810560029000044,-0.005574141163378954,0.010155626572668552
1772812442227380500,0.64338037109375,-0.0019089524867013097,-0.014431680552661419,0.0034361144062131643
1772812442237081000,0.6530810546875,-0.0031306820455938578,-0.017486004158854485,-0.009086613543331623
1772812442246781700,0.66278173828125,-0.002825249684974551,-0.020540328696370125,-0.02649625949561596
1772812442256482600,0.672482666015625,0.00022907429956831038,-0.026038112118840218,-0.03871355578303337
1772812442266183200,0.68218310546875,-0.00007635809743078426,-0.025732679292559624,-0.04085158184170723
1772812442275883800,0.6918837890625,0.0011453714687377214,-0.017486004158854485,-0.036880962550640106
1772812442285584400,0.70158447265625,0.0017562361899763346,-0.0012980876490473747,-0.023441936820745468
1772812442295285000,0.711284912109375,-0.00038179047987796366,-0.009850194677710533,-0.010613775812089443
1772812442304985900,0.72098583984375,-0.002825249684974551,-0.023594651371240616,0.007406735327094793
1772812442314686500,0.7306865234375,0.005421424750238657,-0.02237292192876339,0.021151192486286163
1772812442324387000,0.740386962890625,0.017027854919433594,-0.018402300775051117,0.026648975908756256
1772812442334087700,0.750087646484375,0.024663666263222694,-0.008933897130191326,0.026648975908756256
1772812442343788300,0.759788330078125,0.023136503994464874,-0.00923932995647192,0.024510949850082397
1772812442353489000,0.769489013671875,0.015195261687040329,-0.005268708802759647,0.02023489587008953
1772812442363189500,0.779189453125,0.007254019379615784,-0.0009926552884280682,0.016875140368938446
1772812442372890400,0.788890380859375,-0.0016035200096666813,-0.004352411720901728,0.01107192412018776
1772812442382591000,0.798591064453125,-0.008017600513994694,-0.012293653562664986,0.008017600513994694
1772812442392291600,0.80829150390625,-0.009850194677710533,-0.014737112447619438,0.005268708802759647
1772812442401992200,0.8179921875,-0.007101302966475487,-0.00954476185142994,-0.009086613543331623
1772812442411692800,0.82769287109375,0.0011453714687377214,0.011530072428286076,-0.020387612283229828
1772812442421393700,0.8373935546875,0.003894262947142124,0.020998476073145866,-0.02649625949561596
1772812442431094300,0.84709423828125,-0.002825249684974551,0.010919207707047462,-0.02588539570569992
1772812442440795000,0.856794921875,-0.011377356946468353,0.004505127668380737,-0.013668099418282509
1772812442450495500,0.86649560546875,-0.01565340906381607,0.00022907429956831038,-0.0035888305865228176
1772812442460196000,0.876196044921875,-0.018402300775051117,-0.005268708802759647,0.0077121676877141
1772812442469896700,0.885896728515625,-0.016569707542657852,-0.014431680552661419,0.007101302966475487
1772812442479597600,0.89559765625,-0.004046979360282421,-0.016875140368938446,0.00038179047987796366
1772812442489298200,0.905298095703125,0.008170315995812416,-0.003741546766832471,-0.00511599238961935
1772812442498998800,0.914998779296875,0.009086613543331623,0.005421424750238657,-0.005421424750238657
1772812442508699400,0.924699462890625,0.006948587018996477,0.012140937149524689,-0.0017562361899763346
1772812442518400000,0.93439990234375,0.009697478264570236,0.014278964139521122,0.0077121676877141
1772812442528100600,0.9441005859375,0.012140937149524689,0.008781181648373604,0.01870773360133171
1772812442537801200,0.95380126953125,0.014889828860759735,0.00022907429956831038,0.024816380813717842
1772812442547502000,0.963502197265625,0.02130390889942646,-0.004963276442140341,0.025121813639998436
1772812442557202700,0.97320263671875,0.028328854590654373,-0.013515383005142212,0.020540328696370125
1772812442566903300,0.9829033203125,0.029856016859412193,-0.021456625312566757,0.011682788841426373
1772812442576604000,0.99260400390625,0.0319940410554409,-0.015347977168858051,0.0006872228696011007
1772812442586304500,1.002304443359375,0.03504836559295654,-0.0058795735239982605,-0.00847574882209301
1772812442596005400,1.01200537109375,0.033826638013124466,-0.00954476185142994,-0.015195261687040329
1772812442605706000,1.0217060546875,0.02893971838057041,-0.009850194677710533,-0.018860450014472008
1772812442615406600,1.031406494140625,0.024663666263222694,-0.008017600513994694,-0.02649625949561596
1772812442625107200,1.041107177734375,0.02283107116818428,-0.007406735327094793,-0.029245151206851006
1772812442634807800,1.050807861328125,0.0191658828407526,-0.011988221667706966,-0.02893971838057041
1772812442644508400,1.06050830078125,0.014584396965801716,-0.013515383005142212,-0.02649625949561596
1772812442654209000,1.070208984375,0.01030834298580885,-0.004657844081521034,-0.018860450014472008
1772812442663910000,1.079909912109375,-0.0006872228696011007,0.0029779658652842045,-0.00755945174023509
1772812442673610500,1.089610595703125,-0.01107192412018776,0.001450803829357028,-0.0005345066892914474
1772812442683311000,1.09931103515625,-0.009850194677710533,0.0011453714687377214,0.0016035200096666813
1772812442693011700,1.10901171875,-0.0012980876490473747,-0.00007635809743078426,0.00038179047987796366
1772812442702712300,1.11871240234375,0.007254019379615784,-0.008017600513994694,-0.009697478264570236
1772812442712413200,1.1284130859375,0.012140937149524689,-0.0058795735239982605,-0.015500693581998348
1772812442722113800,1.13811376953125,0.013057234697043896,0.001450803829357028,-0.024663666263222694
1772812442731814400,1.147814453125,0.014584396965801716,0.013057234697043896,-0.02802342176437378
1772812442741515000,1.157514892578125,0.013668099418282509,0.020998476073145866,-0.024663666263222694
1772812442751215600,1.167215576171875,0.013668099418282509,0.0191658828407526,-0.013362666592001915
1772812442760916200,1.176916259765625,0.015806125476956367,0.020998476073145866,0.004657844081521034
1772812442770616800,1.186616943359375,0.014584396965801716,0.008170315995812416,0.021151192486286163
1772812442780317400,1.1963173828125,0.01030834298580885,-0.01718057133257389,0.030314164236187935
1772812442790018300,1.206018310546875,0.01183550525456667,-0.030925029888749123,0.023594651371240616
1772812442799719000,1.215718994140625,0.013973532244563103,-0.02756527252495289,0.0034361144062131643
1772812442809419500,1.22541943359375,0.012751801870763302,-0.020540328696370125,-0.027717988938093185
1772812442819120000,1.2351201171875,0.017027854919433594,-0.010155626572668552,-0.0576503649353981
1772812442828820700,1.24482080078125,0.02496909722685814,0.0005345066892914474,-0.0781143307685852
1772812442838521600,1.254521484375,0.030466880649328232,0.01183550525456667,-0.07719803601503372
1772812442848222200,1.26422216796875,0.02130390889942646,0.004810560029000044,-0.055512335151433945
1772812442857922800,1.2739228515625,0.0066431546583771706,-0.012904518283903599,-0.026190826669335365
1772812442867623400,1.28362353515625,-0.00038179047987796366,-0.01718057133257389,0.0022143847309052944
1772812442877324000,1.293323974609375,0.001450803829357028,-0.004352411720901728,0.02328922040760517
1772812442887024600,1.303024658203125,0.003894262947142124,0.0066431546583771706,0.030925029888749123
1772812442906425900,1.32242578125,0.00603228947147727,0.01000291109085083,0.029703300446271896
1772812442916126700,1.332126708984375,0.009392046369612217,0.002061668550595641,0.02237292192876339
1772812442925827300,1.341827392578125,0.014278964139521122,-0.0025198173243552446,0.010461059398949146
1772812442935528000,1.35152783203125,0.016416991129517555,0.000839939049910754,-0.006948587018996477
1772812442945228500,1.361228515625,0.012140937149524689,0.009697478264570236,-0.017027854919433594
1772812442954929400,1.370929443359375,0.0029779658652842045,0.011224640533328056,-0.015806125476956367
1772812442964630000,1.380630126953125,-0.004657844081521034,-0.0006872228696011007,-0.008781181648373604
1772812442974330600,1.39033056640625,-0.004352411720901728,-0.019929463043808937,-0.008170315995812416
1772812442984031200,1.40003125,0.004505127668380737,-0.013820815831422806,-0.015195261687040329
1772812442993731800,1.40973193359375,0.010919207707047462,0.010919207707047462,-0.0191658828407526
1772812443003432400,1.419432373046875,0.0066431546583771706,0.021914774551987648,-0.018860450014472008
1772812443013133000,1.429133056640625,-0.002825249684974551,0.020998476073145866,-0.00755945174023509
1772812443022834000,1.438833984375,-0.009850194677710533,0.012140937149524689,0.003741546766832471
1772812443032534500,1.448534423828125,-0.008323032408952713,0.01183550525456667,0.014126247726380825
1772812443042235100,1.458235107421875,-0.004046979360282421,0.013668099418282509,0.023594651371240616
1772812443051935700,1.467935791015625,-0.0019089524867013097,-0.0016035200096666813,0.027870705351233482
1772812443061636400,1.47763623046875,0.004199695307761431,-0.018402300775051117,0.02237292192876339
1772812443071337000,1.4873369140625,0.013362666592001915,-0.024510949850082397,0.008628465235233307
1772812443081037800,1.497037841796875,0.020387612283229828,-0.008017600513994694,-0.0035888305865228176
1772812443090738400,1.506738525390625,0.01824958436191082,0.009392046369612217,-0.00847574882209301
1772812443100439000,1.51643896484375,0.010613775812089443,0.015195261687040329,-0.0005345066892914474
1772812443110139600,1.5261396484375,0.00755945174023509,0.008781181648373604,0.012293653562664986
1772812443119840300,1.53584033203125,0.010919207707047462,-0.0016035200096666813,0.023594651371240616
1772812443129540900,1.545540771484375,0.014889828860759735,-0.00954476185142994,0.02695440873503685
1772812443139241700,1.55524169921875,0.014584396965801716,-0.00954476185142994,0.01870773360133171
1772812443148942300,1.5649423828125,0.013668099418282509,0.008781181648373604,0.007406735327094793
1772812443158643000,1.574642822265625,0.009697478264570236,0.02649625949561596,0.0012980876490473747
1772812443168343600,1.584343505859375,0.004199695307761431,0.02649625949561596,0.0034361144062131643
1772812443178044200,1.594044189453125,-0.0019089524867013097,0.016416991129517555,0.01107192412018776
1772812443187744800,1.603744873046875,-0.002825249684974551,0.004505127668380737,0.017486004158854485
1772812443197445400,1.6134453125,-0.0025198173243552446,-0.0022143847309052944,0.020540328696370125
1772812443207146000,1.62314599609375,-0.005574141163378954,-0.004352411720901728,0.019624030217528343
1772812443216846800,1.632846923828125,-0.007406735327094793,-0.005574141163378954,0.01107192412018776
1772812443226547500,1.64254736328125,-0.006185005884617567,-0.0022143847309052944,-0.0011453714687377214
1772812443236248000,1.652248046875,0.0005345066892914474,-0.00038179047987796366,-0.017333287745714188
1772812443245948700,1.66194873046875,0.007864884100854397,0.005421424750238657,-0.027717988938093185
1772812443255649500,1.6716494140625,0.013057234697043896,0.009697478264570236,-0.030161447823047638
1772812443265350100,1.68135009765625,0.012446369975805283,0.010919207707047462,-0.028328854590654373
1772812443275050800,1.69105078125,0.009086613543331623,0.01030834298580885,-0.023441936820745468
1772812443284751400,1.70075146484375,0.00511599238961935,0.01030834298580885,-0.016416991129517555
1772812443294452000,1.710451904296875,0.0035888305865228176,0.013057234697043896,-0.003283398225903511
1772812443304152600,1.720152587890625,0.002061668550595641,0.00603228947147727,0.007406735327094793
1772812443313853200,1.729853271484375,-0.0058795735239982605,-0.008017600513994694,0.011682788841426373
1772812443323553800,1.7395537109375,-0.014737112447619438,-0.010155626572668552,0.007101302966475487
1772812443333254400,1.74925439453125,-0.022678354755043983,-0.004046979360282421,-0.002672533504664898
1772812443342955300,1.758955322265625,-0.02909243479371071,0.002061668550595641,-0.017027854919433594
1772812443352656000,1.76865576171875,-0.02756527252495289,0.015195261687040329,-0.029245151206851006
1772812443362356500,1.7783564453125,-0.016569707542657852,0.022220205515623093,-0.028328854590654373
1772812443372057000,1.78805712890625,-0.0077121676877141,0.02130390889942646,-0.014889828860759735
1772812443381758000,1.797758056640625,-0.0012980876490473747,0.015806125476956367,0.006490438245236874
1772812443391458600,1.80745849609375,0.0011453714687377214,0.004810560029000044,0.025121813639998436
1772812443401159200,1.8171591796875,0.0011453714687377214,-0.007101302966475487,0.03672824427485466
1772812443410859800,1.82685986328125,-0.00007635809743078426,-0.008933897130191326,0.036422811448574066
1772812443420560400,1.836560302734375,-0.0025198173243552446,-0.004963276442140341,0.02328922040760517
1772812443430261000,1.846260986328125,-0.004657844081521034,0.011224640533328056,0.008323032408952713
1772812443439961600,1.855961669921875,-0.0019089524867013097,0.01824958436191082,-0.0035888305865228176
1772812443449662500,1.865662353515625,0.0005345066892914474,0.002061668550595641,-0.01000291109085083
1772812443459363000,1.875363037109375,0.005421424750238657,-0.004963276442140341,-0.01030834298580885
1772812443469063700,1.885063720703125,0.014889828860759735,-0.0022143847309052944,-0.0057268571108579636
1772812443478764300,1.894764404296875,0.014278964139521122,-0.0022143847309052944,-0.0011453714687377214
1772812443488465000,1.90446484375,0.0066431546583771706,-0.005574141163378954,0.0016035200096666813
1772812443498165500,1.91416552734375,0.0005345066892914474,-0.005574141163378954,0.002825249684974551
1772812443507866000,1.9238662109375,-0.0077121676877141,-0.0077121676877141,-0.002061668550595641
1772812443517567000,1.93356689453125,-0.015042545273900032,-0.008323032408952713,-0.00511599238961935
1772812443527267600,1.943267578125,-0.020540328696370125,-0.010461059398949146,-0.010613775812089443
1772812443536968200,1.95296826171875,-0.021456625312566757,-0.004963276442140341,-0.021914774551987648
1772812443546668800,1.962668701171875,-0.019624030217528343,0.008170315995812416,-0.030161447823047638
1772812443556369400,1.972369384765625,-0.026038112118840218,0.012751801870763302,-0.03138317912817001
1772812443566070300,1.9820703125,-0.03275762498378754,0.011224640533328056,-0.027107125148177147
1772812443575771000,1.99177099609375,-0.03275762498378754,0.010613775812089443,-0.015806125476956367
1772812443585471500,2.001471435546875,-0.028787001967430115,0.013973532244563103,0.003741546766832471
1772812443595172000,2.011172119140625,-0.02542724646627903,0.0057268571108579636,0.019013166427612305
1772812443604872700,2.020872802734375,-0.016569707542657852,0.0035888305865228176,0.030925029888749123
1772812443614573300,2.0305732421875,-0.004657844081521034,0.003283398225903511,0.03611737862229347
1772812443624274000,2.04027392578125,0.008781181648373604,-0.004963276442140341,0.03275762498378754
1772812443633974500,2.049974609375,0.015195261687040329,-0.02023489587008953,0.022678354755043983
1772812443643675400,2.05967529296875,0.014584396965801716,-0.02328922040760517,0.009850194677710533
1772812443653376000,2.0693759765625,0.012446369975805283,-0.014126247726380825,-0.0011453714687377214
1772812443663076600,2.07907666015625,0.006948587018996477,0.0029779658652842045,-0.01030834298580885
1772812443672777200,2.088777099609375,-0.0006872228696011007,0.014278964139521122,-0.014584396965801716
1772812443682478000,2.09847802734375,-0.007101302966475487,0.01672242395579815,-0.012140937149524689
1772812443692178700,2.1081787109375,-0.007101302966475487,0.012751801870763302,-0.010613775812089443
1772812443701879300,2.11787939453125,-0.0019089524867013097,0.0029779658652842045,-0.003894262947142124
1772812443711580000,2.127579833984375,-0.0012980876490473747,-0.010461059398949146,0.004046979360282421
1772812443721280500,2.137280517578125,-0.0077121676877141,-0.019624030217528343,0.0077121676877141
1772812443730981000,2.146981201171875,-0.015347977168858051,-0.011682788841426373,0.004352411720901728
1772812443740681700,2.156681640625,-0.022067490965127945,-0.00007635809743078426,0.002825249684974551
1772812443750382300,2.16638232421875,-0.03000873140990734,0.009086613543331623,0.004963276442140341
1772812443760083000,2.1760830078125,-0.033979352563619614,0.009086613543331623,0.008017600513994694
1772812443769783800,2.18578369140625,-0.027870705351233482,0.01000291109085083,0.007406735327094793
1772812443779484400,2.195484375,-0.019624030217528343,0.009086613543331623,0.011988221667706966
1772812443789185000,2.20518505859375,-0.011682788841426373,0.0017562361899763346,0.018096869811415672
1772812443798885600,2.2148857421875,-0.0077121676877141,-0.004657844081521034,0.02542724646627903
1772812443808586200,2.224586181640625,-0.004657844081521034,-0.008628465235233307,0.02542724646627903
1772812443818287000,2.234287109375,-0.004657844081521034,-0.0019089524867013097,0.019013166427612305
1772812443827987700,2.24398779296875,-0.004046979360282421,0.01000291109085083,0.011377356946468353
1772812443837688300,2.253688232421875,-0.008628465235233307,0.01672242395579815,0.008933897130191326
1772812443847389000,2.263388916015625,-0.019013166427612305,0.014889828860759735,0.010766491293907166
1772812443857089500,2.273089599609375,-0.02848157100379467,0.009392046369612217,0.021456625312566757
1772812443866790100,2.2827900390625,-0.03428478538990021,-0.0019089524867013097,0.02848157100379467
1772812443876490800,2.29249072265625,-0.03153589367866516,-0.013515383005142212,0.026343543082475662
1772812443886191600,2.302191650390625,-0.02328922040760517,-0.018402300775051117,0.014126247726380825
1772812443895892200,2.311892333984375,-0.015042545273900032,-0.016875140368938446,-0.007864884100854397
1772812443905592800,2.3215927734375,-0.007101302966475487,-0.004352411720901728,-0.026801692321896553
1772812443915293400,2.33129345703125,0.0005345066892914474,0.004505127668380737,-0.03779725730419159
1772812443924994000,2.340994140625,0.004199695307761431,0.002672533504664898,-0.03627009689807892
1772812443934694700,2.350694580078125,0.0035888305865228176,-0.005574141163378954,-0.02649625949561596
1772812443944395300,2.360395263671875,0.0023671009112149477,-0.013820815831422806,-0.01183550525456667
1772812443954096000,2.37009619140625,0.002061668550595641,-0.011682788841426373,0.006185005884617567
1772812443963796700,2.379796630859375,0.004505127668380737,-0.006490438245236874,0.021151192486286163
1772812443973497300,2.389497314453125,0.00603228947147727,0.0011453714687377214,0.0397825688123703
1772812443983198000,2.399197998046875,0.004199695307761431,-0.00038179047987796366,0.04955640435218811
1772812443992898600,2.408898681640625,-0.0016035200096666813,-0.0031306820455938578,0.051389001309871674
1772812444002599400,2.418599365234375,-0.0016035200096666813,-0.0016035200096666813,0.04711294546723366
1772812444012300000,2.428300048828125,-0.00007635809743078426,0.0017562361899763346,0.03733910992741585
1772812444022000600,2.438000732421875,-0.0022143847309052944,0.000839939049910754,0.019929463043808937
1772812444031701200,2.447701171875,-0.007101302966475487,-0.0009926552884280682,0.0019089524867013097
1772812444041401900,2.45740185546875,-0.01107192412018776,-0.0009926552884280682,-0.015500693581998348
1772812444051102500,2.4671025390625,-0.013820815831422806,-0.003741546766832471,-0.030772313475608826
1772812444060803000,2.476802978515625,-0.014126247726380825,-0.0016035200096666813,-0.04085158184170723
1772812444070503700,2.486503662109375,-0.014431680552661419,0.004199695307761431,-0.042073313146829605
1772812444080204500,2.49620458984375,-0.017486004158854485,0.0017562361899763346,-0.03962985426187515
1772812444089905200,2.5059052734375,-0.016875140368938446,0.001450803829357028,-0.029245151206851006
1772812444099605800,2.515605712890625,-0.013209951110184193,-0.0016035200096666813,-0.013973532244563103
1772812444109306400,2.525306396484375,-0.011988221667706966,-0.0058795735239982605,0.004657844081521034
1772812444119007000,2.535007080078125,-0.00923932995647192,-0.008933897130191326,0.015958841890096664
1772812444128707600,2.54470751953125,-0.004352411720901728,-0.0022143847309052944,0.028176138177514076
1772812444138408400,2.554408447265625,-0.0006872228696011007,-0.00007635809743078426,0.02909243479371071
1772812444148109000,2.564109130859375,0.003894262947142124,-0.0022143847309052944,0.022678354755043983
1772812444157809700,2.5738095703125,0.00603228947147727,-0.00007635809743078426,0.011377356946468353
1772812444167510300,2.58351025390625,0.007864884100854397,0.006337722297757864,-0.0011453714687377214
1772812444177211000,2.5932109375,0.00603228947147727,0.012140937149524689,-0.012446369975805283
1772812444186911500,2.602911376953125,0.004505127668380737,0.01030834298580885,-0.016416991129517555
1772812444196612400,2.6126123046875,0.00755945174023509,0.008781181648373604,-0.01000291109085083
1772812444206313000,2.62231298828125,0.011224640533328056,0.003894262947142124,-0.0023671009112149477
1772812444216013600,2.632013671875,0.012446369975805283,-0.0034361144062131643,0.004657844081521034
1772812444225714200,2.641714111328125,0.013362666592001915,-0.0012980876490473747,0.007406735327094793
1772812444235414800,2.651414794921875,0.012446369975805283,0.002061668550595641,0.003741546766832471
1772812444245115400,2.661115478515625,0.00755945174023509,-0.00038179047987796366,-0.002672533504664898
1772812444254816000,2.67081591796875,0.004199695307761431,-0.003741546766832471,-0.006948587018996477
1772812444264516600,2.6805166015625,0.004810560029000044,-0.006185005884617567,-0.010919207707047462
1772812444274217500,2.690217529296875,0.010613775812089443,-0.01107192412018776,-0.014584396965801716
1772812444283918000,2.69991796875,0.014584396965801716,-0.011988221667706966,-0.014889828860759735
1772812444293618700,2.70961865234375,0.013057234697043896,-0.01259908638894558,-0.017944153398275375
1772812444303319300,2.7193193359375,0.011530072428286076,-0.008628465235233307,-0.02130390889942646
1772812444313020000,2.72902001953125,0.00755945174023509,-0.0016035200096666813,-0.022220205515623093
1772812444322720800,2.738720703125,0.000839939049910754,0.007864884100854397,-0.018860450014472008
1772812444332421400,2.74842138671875,-0.002825249684974551,0.012446369975805283,-0.013973532244563103
1772812444342122000,2.7581220703125,-0.004352411720901728,0.012751801870763302,-0.0066431546583771706
1772812444351822600,2.767822509765625,-0.00038179047987796366,0.009392046369612217,0.004352411720901728
1772812444361523200,2.777523193359375,0.0023671009112149477,0.00847574882209301,0.013515383005142212
1772812444371223800,2.787223876953125,0.0035888305865228176,0.009392046369612217,0.018096869811415672
1772812444380924400,2.79692431640625,0.000839939049910754,0.009086613543331623,0.02328922040760517
1772812444390625000,2.806625,-0.005574141163378954,0.0023671009112149477,0.02328922040760517
1772812444400326000,2.816325927734375,-0.01259908638894558,-0.004352411720901728,0.01565340906381607
1772812444410026500,2.826026611328125,-0.010155626572668552,-0.0058795735239982605,-0.002061668550595641
1772812444419727000,2.83572705078125,0.0005345066892914474,-0.0016035200096666813,-0.021914774551987648
1772812444429427700,2.845427734375,0.013057234697043896,0.003283398225903511,-0.03565923124551773
1772812444439128300,2.85512841796875,0.022525638341903687,0.011530072428286076,-0.037491824477910995
1772812444448829000,2.864828857421875,0.02496909722685814,0.020082179456949234,-0.02496909722685814
1772812444458529800,2.87452978515625,0.020693045109510422,0.015500693581998348,-0.004199695307761431
1772812444468230400,2.88423046875,0.009697478264570236,0.001450803829357028,0.020540328696370125
1772812444477931000,2.893930908203125,-0.00007635809743078426,-0.014737112447619438,0.03733910992741585
1772812444487631600,2.903631591796875,-0.002825249684974551,-0.016875140368938446,0.037949975579977036
1772812444497332200,2.913332275390625,-0.0031306820455938578,-0.010766491293907166,0.03000873140990734
1772812444507033000,2.923033203125,-0.0025198173243552446,-0.005574141163378954,0.012293653562664986
1772812444516733700,2.932733642578125,0.003894262947142124,0.003894262947142124,-0.0023671009112149477
1772812444526434300,2.942434326171875,0.013362666592001915,0.019471315667033195,-0.0066431546583771706
1772812444536135000,2.952135009765625,0.015195261687040329,0.011530072428286076,-0.009392046369612217
1772812444545835500,2.96183544921875,0.009697478264570236,-0.0031306820455938578,-0.0035888305865228176
1772812444555536100,2.9715361328125,0.00511599238961935,-0.006490438245236874,0.004963276442140341
1772812444565236700,2.98123681640625,0.001450803829357028,-0.006490438245236874,0.0077121676877141
1772812444574937300,2.990937255859375,-0.004046979360282421,0.0017562361899763346,0.00679587060585618
1772812444584638000,3.000637939453125,-0.008628465235233307,0.011530072428286076,0.007101302966475487
1772812444594338800,3.0103388671875,-0.014431680552661419,0.011530072428286076,0.01259908638894558
1772812444604039400,3.020039306640625,-0.017486004158854485,0.003283398225903511,0.01565340906381607
1772812444613740000,3.029739990234375,-0.015347977168858051,-0.00679587060585618,0.014737112447619438
1772812444623440600,3.039440673828125,-0.011682788841426373,-0.010461059398949146,0.00954476185142994
1772812444633141200,3.049141357421875,-0.007101302966475487,-0.010461059398949146,0.0006872228696011007
1772812444642841900,3.058841796875,-0.002825249684974551,-0.006490438245236874,-0.00847574882209301
1772812444652542700,3.068542724609375,-0.002825249684974551,0.0011453714687377214,-0.018555017188191414
1772812444662243300,3.078243408203125,-0.008933897130191326,0.01672242395579815,-0.02130390889942646
1772812444671944000,3.08794384765625,-0.014126247726380825,0.01977674663066864,-0.01183550525456667
1772812444681644500,3.09764453125,-0.017486004158854485,0.007864884100854397,0.006490438245236874
1772812444691345200,3.10734521484375,-0.015958841890096664,-0.010155626572668552,0.019013166427612305
1772812444701045800,3.117045654296875,-0.00923932995647192,-0.014126247726380825,0.02542724646627903
1772812444710746600,3.12674658203125,-0.0012980876490473747,-0.0025198173243552446,0.026343543082475662
1772812444720447200,3.136447265625,0.0011453714687377214,0.003283398225903511,0.026648975908756256
1772812444730147800,3.14614794921875,0.0005345066892914474,-0.0006872228696011007,0.023594651371240616
1772812444739848400,3.155848388671875,0.00603228947147727,-0.009850194677710533,0.014737112447619438
1772812444749549000,3.165549072265625,0.01000291109085083,-0.009850194677710533,0.003741546766832471
1772812444759249700,3.175249755859375,0.0035888305865228176,-0.0019089524867013097,-0.009086613543331623
1772812444768950300,3.1849501953125,-0.010461059398949146,0.012751801870763302,-0.01824958436191082
1772812444778651000,3.19465087890625,-0.016569707542657852,0.0191658828407526,-0.015195261687040329
1772812444788351500,3.2043515625,-0.01565340906381607,0.007254019379615784,-0.003894262947142124
1772812444798052400,3.21405224609375,-0.007101302966475487,-0.01107192412018776,0.004046979360282421
1772812444807753000,3.2237529296875,0.0023671009112149477,-0.0193185992538929,0.008933897130191326
1772812444817453600,3.23345361328125,0.00511599238961935,-0.014737112447619438,0.007406735327094793
1772812444827154200,3.243154296875,0.007254019379615784,-0.002825249684974551,0.002825249684974551
1772812444836855000,3.25285498046875,0.010613775812089443,0.0066431546583771706,0.004963276442140341
1772812444846555600,3.2625556640625,0.010613775812089443,0.002672533504664898,0.013515383005142212
1772812444856256300,3.27225634765625,0.01183550525456667,-0.003741546766832471,0.02023489587008953
1772812444865956900,3.281956787109375,0.014584396965801716,-0.017486004158854485,0.02176205813884735
1772812444875657500,3.291657470703125,0.02130390889942646,-0.014737112447619438,0.019929463043808937
1772812444885358000,3.301358154296875,0.02496909722685814,-0.009850194677710533,0.011682788841426373
1772812444895058700,3.31105859375,0.021609341725707054,0.0011453714687377214,0.003741546766832471
1772812444904759300,3.32075927734375,0.01030834298580885,0.015806125476956367,-0.002061668550595641
1772812444914460200,3.330460205078125,-0.0058795735239982605,0.014278964139521122,-0.006337722297757864
1772812444924160800,3.340160888671875,-0.01565340906381607,0.00603228947147727,-0.007864884100854397
1772812444933861400,3.349861328125,-0.02176205813884735,-0.008628465235233307,-0.014889828860759735
1772812444943562000,3.35956201171875,-0.018402300775051117,-0.00954476185142994,-0.023747367784380913
1772812444953262600,3.3692626953125,-0.00954476185142994,0.00022907429956831038,-0.03779725730419159
1772812444962963200,3.378963134765625,0.000839939049910754,0.020998476073145866,-0.04024071618914604
1772812444972663800,3.388663818359375,0.003283398225903511,0.03168861195445061,-0.03474293276667595
1772812444982364400,3.398364501953125,-0.0016035200096666813,0.03168861195445061,-0.013973532244563103
1772812444992065300,3.408065185546875,-0.004352411720901728,0.014889828860759735,0.010155626572668552
1772812445001766000,3.417765869140625,0.000839939049910754,-0.007101302966475487,0.03153589367866516
1772812445011466500,3.427466552734375,0.01183550525456667,-0.021151192486286163,0.04344775900244713
1772812445021167000,3.4371669921875,0.02496909722685814,-0.026343543082475662,0.03886627033352852
1772812445030867700,3.44686767578125,0.03260490670800209,-0.019013166427612305,0.021151192486286163
1772812445040568600,3.456568603515625,0.03321577236056328,-0.010155626572668552,-0.002061668550595641
1772812445050269200,3.466269287109375,0.02741255611181259,-0.0031306820455938578,-0.020693045109510422
1772812445059969800,3.4759697265625,0.024052800610661507,-0.0009926552884280682,-0.036880962550640106
1772812445069670400,3.48567041015625,0.024052800610661507,0.00022907429956831038,-0.04451677203178406
1772812445079371000,3.49537109375,0.01977674663066864,0.0017562361899763346,-0.03840812295675278
1772812445089071600,3.505071533203125,0.010613775812089443,-0.0022143847309052944,-0.025579962879419327
1772812445098772200,3.514772216796875,0.0011453714687377214,-0.0058795735239982605,-0.011224640533328056
1772812445108473000,3.52447314453125,-0.0034361144062131643,-0.00038179047987796366,-0.0005345066892914474
1772812445118173700,3.534173583984375,-0.006185005884617567,0.004505127668380737,0.008017600513994694
1772812445127874300,3.543874267578125,-0.0077121676877141,0.0029779658652842045,0.014431680552661419
1772812445137575000,3.553574951171875,-0.0034361144062131643,-0.002825249684974551,0.01259908638894558
1772812445147275500,3.563275634765625,0.00511599238961935,-0.0034361144062131643,0.007101302966475487
1772812445156976000,3.57297607421875,0.011530072428286076,-0.006185005884617567,-0.001450803829357028
1772812445166676700,3.5826767578125,0.01611155830323696,-0.012293653562664986,-0.011224640533328056
1772812445176377300,3.59237744140625,0.021609341725707054,-0.01779143698513508,-0.02283107116818428
1772812445186078200,3.602078125,0.024052800610661507,-0.018402300775051117,-0.03535379841923714
1772812445195778800,3.61177880859375,0.020998476073145866,-0.012293653562664986,-0.042684175074100494
1772812445205479400,3.6214794921875,0.01183550525456667,-0.0058795735239982605,-0.045738499611616135
1772812445215180000,3.631179931640625,0.00022907429956831038,0.0035888305865228176,-0.0423787422478199
1772812445224880600,3.640880615234375,-0.009850194677710533,0.016416991129517555,-0.03413207083940506
1772812445234581500,3.65058154296875,-0.014431680552661419,0.01977674663066864,-0.01824958436191082
1772812445244282000,3.6602822265625,-0.013820815831422806,0.01672242395579815,0.0034361144062131643
1772812445253982700,3.669982666015625,-0.005268708802759647,0.006337722297757864,0.021151192486286163
1772812445263683300,3.679683349609375,0.006948587018996477,-0.0016035200096666813,0.03428478538990021
1772812445273384000,3.689384033203125,0.01611155830323696,-0.0025198173243552446,0.03825540840625763
1772812445283084500,3.69908447265625,0.020998476073145866,-0.0022143847309052944,0.03733910992741585
1772812445292785200,3.70878515625,0.021914774551987648,-0.004963276442140341,0.031230462715029716
1772812445302485800,3.71848583984375,0.0191658828407526,-0.011988221667706966,0.021456625312566757
1772812445312186600,3.7281865234375,0.01672242395579815,-0.009850194677710533,0.0077121676877141
1772812445321887200,3.73788720703125,0.017944153398275375,0.007254019379615784,-0.0029779658652842045
1772812445331587800,3.747587890625,0.016416991129517555,0.012140937149524689,-0.00847574882209301
1772812445341288400,3.757288330078125,0.012751801870763302,0.005421424750238657,-0.01000291109085083
1772812445350989000,3.766989013671875,0.017027854919433594,-0.008933897130191326,-0.011224640533328056
1772812445360689700,3.776689697265625,0.024663666263222694,-0.018402300775051117,-0.013668099418282509
1772812445370390300,3.786390380859375,0.02802342176437378,-0.01870773360133171,-0.017333287745714188
1772812445380091000,3.7960908203125,0.020998476073145866,-0.01565340906381607,-0.020082179456949234
1772812445389791700,3.805791748046875,0.011530072428286076,-0.007101302966475487,-0.017944153398275375
1772812445399492400,3.815492431640625,-0.0009926552884280682,0.003894262947142124,-0.014584396965801716
1772812445409193000,3.82519287109375,-0.004046979360282421,0.007254019379615784,-0.00603228947147727
1772812445418893600,3.8348935546875,-0.0025198173243552446,0.00603228947147727,0.005268708802759647
1772812445428594200,3.84459423828125,0.00022907429956831038,0.0005345066892914474,0.008323032408952713
1772812445438295000,3.854294921875,-0.0009926552884280682,-0.0012980876490473747,0.008017600513994694
1772812445447995600,3.86399560546875,-0.0031306820455938578,-0.00679587060585618,-0.001450803829357028
1772812445457696300,3.8736962890625,-0.0031306820455938578,-0.0058795735239982605,-0.012446369975805283
1772812445467396900,3.88339697265625,-0.00038179047987796366,-0.0022143847309052944,-0.0243582334369421
1772812445477097500,3.893097412109375,0.00511599238961935,-0.0012980876490473747,-0.03168861195445061
1772812445486798000,3.902798095703125,0.011530072428286076,-0.003741546766832471,-0.03413207083940506
1772812445496498700,3.912498779296875,0.017333287745714188,0.0005345066892914474,-0.02588539570569992
1772812445506199300,3.92219921875,0.015195261687040329,0.0005345066892914474,-0.0066431546583771706
1772812445515900200,3.931900146484375,0.0029779658652842045,-0.0031306820455938578,0.01870773360133171
1772812445525600800,3.941600830078125,-0.008933897130191326,-0.008933897130191326,0.036422811448574066
1772812445535301400,3.95130126953125,-0.008323032408952713,-0.015347977168858051,0.044669486582279205
1772812445545002000,3.961001953125,0.004810560029000044,-0.014431680552661419,0.03611737862229347
1772812445554702600,3.97070263671875,0.020693045109510422,-0.008017600513994694,0.021151192486286163
1772812445564403200,3.9804033203125,0.03260490670800209,-0.0012980876490473747,0.002825249684974551
1772812445574103800,3.990103759765625,0.03627009689807892,0.002672533504664898,-0.013362666592001915
1772812445583804400,3.999804443359375,0.034437503665685654,-0.0016035200096666813,-0.0191658828407526
1772812445593505300,4.00950537109375,0.027717988938093185,-0.013515383005142212,-0.020387612283229828
1772812445603206000,4.019205810546875,0.021914774551987648,-0.024816380813717842,-0.014584396965801716
1772812445612906500,4.028906494140625,0.017027854919433594,-0.03275762498378754,-0.007254019379615784
1772812445622607000,4.038607177734375,0.010919207707047462,-0.029703300446271896,-0.0035888305865228176
1772812445632307700,4.0483076171875,0.003894262947142124,-0.014126247726380825,-0.009086613543331623
1772812445642008600,4.058008544921875,-0.004963276442140341,0.0066431546583771706,-0.01611155830323696
1772812445651709200,4.067709228515625,-0.016875140368938446,0.020082179456949234,-0.01824958436191082
1772812445661409800,4.077409912109375,-0.024816380813717842,0.020693045109510422,-0.013362666592001915
1772812445671110400,4.0871103515625,-0.02695440873503685,0.011224640533328056,-0.003283398225903511
1772812445680811000,4.09681103515625,-0.024205517023801804,-0.0009926552884280682,0.00954476185142994
1772812445690511600,4.10651171875,-0.021151192486286163,-0.010155626572668552,0.02023489587008953
1772812445700212200,4.116212158203125,-0.014737112447619438,-0.012904518283903599,0.03061959706246853
1772812445709913000,4.1259130859375,-0.008017600513994694,-0.004046979360282421,0.03672824427485466
1772812445719613700,4.13561376953125,-0.004046979360282421,0.009392046369612217,0.039477135986089706
1772812445729314300,4.145314208984375,-0.0006872228696011007,0.011224640533328056,0.04039343446493149
1772812445739015000,4.155014892578125,0.004199695307761431,-0.00007635809743078426,0.037949975579977036
1772812445748715500,4.164715576171875,0.009392046369612217,-0.013515383005142212,0.033368486911058426
1772812445758416100,4.174416015625,0.014278964139521122,-0.019624030217528343,0.02695440873503685
1772812445768116700,4.18411669921875,0.018555017188191414,-0.019624030217528343,0.0193185992538929
1772812445777817300,4.1938173828125,0.018860450014472008,-0.01779143698513508,0.011682788841426373
1772812445787518000,4.20351806640625,0.020082179456949234,-0.01565340906381607,0.005268708802759647
1772812445797218800,4.21321875,0.018555017188191414,-0.00679587060585618,0.0006872228696011007
1772812445806919400,4.22291943359375,0.008781181648373604,0.000839939049910754,0.00038179047987796366
1772812445816620000,4.2326201171875,-0.00679587060585618,-0.00038179047987796366,0.0034361144062131643
1772812445826320600,4.242320556640625,-0.018402300775051117,-0.00923932995647192,-0.0005345066892914474
1772812445836021200,4.252021240234375,-0.02084576152265072,-0.005268708802759647,-0.0029779658652842045
1772812445845722000,4.26172216796875,-0.01779143698513508,0.008781181648373604,-0.004505127668380737
1772812445855422700,4.271422607421875,-0.016875140368938446,0.013057234697043896,-0.00511599238961935
1772812445865123300,4.281123291015625,-0.01565340906381607,0.011530072428286076,0.0016035200096666813
1772812445874824000,4.290823974609375,-0.013515383005142212,0.007864884100854397,0.014737112447619438
1772812445884524500,4.300524658203125,-0.012904518283903599,0.0005345066892914474,0.03153589367866516
1772812445894225200,4.31022509765625,-0.016569707542657852,-0.00679587060585618,0.043142326176166534
1772812445903925800,4.31992578125,-0.020540328696370125,-0.013209951110184193,0.04344775900244713
1772812445913626600,4.329626708984375,-0.024510949850082397,-0.004352411720901728,0.030925029888749123
1772812445923327200,4.3393271484375,-0.026648975908756256,0.012751801870763302,0.01107192412018776
1772812445933027800,4.34902783203125,-0.025732679292559624,0.02283107116818428,-0.004810560029000044
1772812445942728400,4.358728515625,-0.01779143698513508,0.0191658828407526,-0.015806125476956367
1772812445952429000,4.368428955078125,-0.010155626572668552,0.01030834298580885,-0.01824958436191082
1772812445962129700,4.378129638671875,-0.01107192412018776,0.0005345066892914474,-0.014278964139521122
1772812445971830300,4.387830322265625,-0.015958841890096664,-0.005574141163378954,-0.010919207707047462
1772812445981531000,4.39753076171875,-0.02542724646627903,-0.004657844081521034,-0.00847574882209301
1772812445991231500,4.4072314453125,-0.0345902182161808,0.001450803829357028,-0.011224640533328056
1772812446000932400,4.416932373046875,-0.036422811448574066,0.008781181648373604,-0.013668099418282509
1772812446010633000,4.426633056640625,-0.028787001967430115,0.010613775812089443,-0.008170315995812416
1772812446020333600,4.43633349609375,-0.015958841890096664,0.0029779658652842045,-0.004810560029000044
1772812446030034200,4.4460341796875,-0.00007635809743078426,-0.010155626572668552,-0.00022907429956831038
1772812446039734800,4.45573486328125,0.009697478264570236,-0.018096869811415672,0.008323032408952713
1772812446049435400,4.465435302734375,0.010613775812089443,-0.019013166427612305,0.025732679292559624
1772812446059136000,4.475135986328125,0.003894262947142124,-0.011988221667706966,0.0397825688123703
1772812446068836900,4.4848369140625,-0.00038179047987796366,0.0017562361899763346,0.0550541877746582
1772812446078537500,4.494537353515625,0.00022907429956831038,0.01183550525456667,0.0654388889670372
1772812446088238000,4.504238037109375,0.001450803829357028,0.009697478264570236,0.06788235157728195
1772812446097938700,4.513938720703125,0.0029779658652842045,0.00511599238961935,0.0602465383708477
1772812446107639300,4.523639404296875,0.007254019379615784,0.002061668550595641,0.04253146052360535
1772812446117340200,4.533340087890625,0.013057234697043896,-0.0022143847309052944,0.024816380813717842
1772812446127040800,4.543040771484375,0.013057234697043896,-0.005574141163378954,0.010155626572668552
1772812446136741400,4.552741455078125,0.008170315995812416,-0.003741546766832471,0.0016035200096666813
1772812446146442000,4.56244189453125,0.002672533504664898,-0.005268708802759647,0.004352411720901728
1772812446156142600,4.572142578125,-0.002825249684974551,-0.015347977168858051,0.005574141163378954
1772812446165843200,4.58184326171875,-0.003741546766832471,-0.026038112118840218,0.0019089524867013097
1772812446175543800,4.591543701171875,0.0011453714687377214,-0.02328922040760517,-0.006948587018996477
1772812446185244400,4.601244384765625,0.004810560029000044,-0.012904518283903599,-0.015806125476956367
1772812446194945000,4.610945068359375,0.0057268571108579636,-0.005268708802759647,-0.02588539570569992
1772812446204646000,4.62064599609375,0.003894262947142124,0.007864884100854397,-0.03413207083940506
1772812446214346500,4.630346435546875,0.00022907429956831038,0.02130390889942646,-0.026801692321896553
1772812446224047000,4.640047119140625,-0.00679587060585618,0.018555017188191414,-0.003283398225903511
1772812446233747700,4.649747802734375,-0.010766491293907166,0.006337722297757864,0.026343543082475662
1772812446243448300,4.6594482421875,-0.00923932995647192,-0.002825249684974551,0.046807512640953064
1772812446253149000,4.66914892578125,-0.005574141163378954,-0.007101302966475487,0.05261072888970375
1772812446262849500,4.678849609375,-0.0016035200096666813,-0.008323032408952713,0.047723811119794846
1772812446272550100,4.688550048828125,0.0011453714687377214,0.0011453714687377214,0.028787001967430115
1772812446282250800,4.698250732421875,0.004199695307761431,0.015195261687040329,0.006490438245236874
1772812446291951600,4.70795166015625,0.000839939049910754,0.021609341725707054,-0.014889828860759735
1772812446301652200,4.71765234375,-0.003741546766832471,0.017027854919433594,-0.027717988938093185
1772812446311352800,4.727352783203125,-0.008323032408952713,0.014278964139521122,-0.030161447823047638
1772812446321053400,4.737053466796875,-0.011377356946468353,0.008781181648373604,-0.02802342176437378
1772812446330754000,4.746754150390625,-0.011682788841426373,0.003283398225903511,-0.018555017188191414
1772812446340455000,4.756454833984375,-0.008933897130191326,-0.0009926552884280682,-0.004505127668380737
1772812446350155500,4.766155517578125,-0.007406735327094793,-0.00007635809743078426,0.013209951110184193
1772812446359856000,4.775856201171875,-0.011682788841426373,-0.007406735327094793,0.024510949850082397
1772812446369556700,4.785556640625,-0.01259908638894558,-0.0012980876490473747,0.029397867619991302
1772812446379257300,4.79525732421875,-0.009850194677710533,0.004810560029000044,0.027870705351233482
1772812446388958000,4.8049580078125,-0.009850194677710533,0.006337722297757864,0.02176205813884735
1772812446398658800,4.814658935546875,-0.004657844081521034,0.00511599238961935,0.01107192412018776
1772812446408359400,4.824359375,0.0057268571108579636,-0.0025198173243552446,0.00007635809743078426
1772812446418060000,4.83406005859375,0.016416991129517555,-0.008017600513994694,-0.008170315995812416
1772812446427760600,4.8437607421875,0.018860450014472008,-0.004046979360282421,-0.009697478264570236
1772812446437461200,4.853461181640625,0.012751801870763302,0.006337722297757864,-0.00511599238961935
1772812446447161900,4.863161865234375,0.007254019379615784,0.013057234697043896,0.006490438245236874
1772812446456862500,4.872862548828125,0.00511599238961935,0.00511599238961935,0.016875140368938446
1772812446466563000,4.88256298828125,0.009086613543331623,-0.008628465235233307,0.025732679292559624
1772812446476263700,4.892263671875,0.009697478264570236,-0.015958841890096664,0.026343543082475662
1772812446485964500,4.901964599609375,0.0035888305865228176,-0.015958841890096664,0.01626427471637726
1772812446495665200,4.9116650390625,-0.004657844081521034,-0.00923932995647192,0.00007635809743078426
1772812446505365800,4.92136572265625,-0.014737112447619438,0.002061668550595641,-0.01824958436191082
1772812446515066400,4.93106640625,-0.01870773360133171,0.012446369975805283,-0.035964664071798325
1772812446524767000,4.94076708984375,-0.011377356946468353,0.01672242395579815,-0.0423787422478199
1772812446534467600,4.950467529296875,-0.0006872228696011007,0.00847574882209301,-0.03810269013047218
1772812446544168200,4.960168212890625,0.008781181648373604,-0.005574141163378954,-0.024663666263222694
1772812446553868800,4.969868896484375,0.015806125476956367,-0.015042545273900032,-0.00755945174023509
1772812446563569700,4.979569580078125,0.013973532244563103,-0.013515383005142212,0.0077121676877141
1772812446573270300,4.989270263671875,0.00755945174023509,-0.01259908638894558,0.01870773360133171
1772812446582971000,4.998970947265625,0.0035888305865228176,-0.012293653562664986,0.024510949850082397
1772812446592671500,5.00867138671875,0.003894262947142124,-0.007406735327094793,0.02328922040760517
1772812446602372000,5.0183720703125,0.007864884100854397,-0.0019089524867013097,0.02023489587008953
1772812446612072700,5.02807275390625,0.009697478264570236,-0.004657844081521034,0.01259908638894558
1772812446621773600,5.037773681640625,0.013057234697043896,-0.0006872228696011007,0.004046979360282421
1772812446631474200,5.04747412109375,0.018555017188191414,0.010919207707047462,0.0031306820455938578
1772812446641174800,5.0571748046875,0.013973532244563103,0.004810560029000044,-0.004810560029000044
1772812446650875400,5.06687548828125,0.00847574882209301,0.004199695307761431,-0.007864884100854397
1772812446660576000,5.076575927734375,0.0035888305865228176,-0.0022143847309052944,-0.009392046369612217
1772812446670276600,5.086276611328125,-0.0019089524867013097,-0.015347977168858051,-0.013973532244563103
1772812446679977200,5.095977294921875,-0.0019089524867013097,-0.019624030217528343,-0.017027854919433594
1772812446689678000,5.105677978515625,0.001450803829357028,-0.01779143698513508,-0.019471315667033195
1772812446699378700,5.115378662109375,0.002061668550595641,-0.018096869811415672,-0.023747367784380913
1772812446709079300,5.125079345703125,0.0017562361899763346,-0.00923932995647192,-0.02283107116818428
1772812446718780000,5.13477978515625,0.0017562361899763346,0.002672533504664898,-0.015195261687040329
1772812446728480500,5.14448046875,-0.003741546766832471,0.00511599238961935,-0.003894262947142124
1772812446738181000,5.15418115234375,-0.008628465235233307,0.003894262947142124,0.010155626572668552
1772812446747881700,5.1638818359375,-0.00923932995647192,0.0023671009112149477,0.023594651371240616
1772812446757582300,5.173582275390625,-0.003741546766832471,0.0029779658652842045,0.03428478538990021
1772812446767283000,5.183282958984375,0.001450803829357028,0.0017562361899763346,0.03550651669502258
1772812446776983800,5.19298388671875,0.0023671009112149477,0.001450803829357028,0.028176138177514076
1772812446786684400,5.202684326171875,0.0029779658652842045,0.0005345066892914474,0.015042545273900032
1772812446796385000,5.212385009765625,0.0023671009112149477,0.004505127668380737,0.0034361144062131643
1772812446806085600,5.222085693359375,0.0057268571108579636,0.007254019379615784,-0.007254019379615784
1772812446815786200,5.2317861328125,0.011530072428286076,0.006337722297757864,-0.01183550525456667
1772812446825486800,5.24148681640625,0.01611155830323696,-0.0031306820455938578,-0.012751801870763302
1772812446835187500,5.2511875,0.021609341725707054,-0.014126247726380825,-0.01000291109085083
1772812446844888000,5.26088818359375,0.023441936820745468,-0.01718057133257389,-0.008170315995812416
1772812446854589000,5.2705888671875,0.021914774551987648,-0.019624030217528343,-0.006948587018996477
1772812446864289500,5.28028955078125,0.017333287745714188,-0.021456625312566757,-0.006337722297757864
1772812446873990100,5.289990234375,0.01183550525456667,-0.01870773360133171,-0.010919207707047462
1772812446883690800,5.299690673828125,0.004810560029000044,-0.008933897130191326,-0.015806125476956367
1772812446893391400,5.309391357421875,-0.004657844081521034,-0.0031306820455938578,-0.020082179456949234
1772812446903092000,5.319092041015625,-0.013515383005142212,-0.0019089524867013097,-0.023136503994464874
1772812446912792800,5.328792724609375,-0.0193185992538929,-0.011988221667706966,-0.02893971838057041
1772812446922493400,5.338493408203125,-0.019013166427612305,-0.017486004158854485,-0.032910339534282684
1772812446932194000,5.348194091796875,-0.014126247726380825,-0.025732679292559624,-0.03627009689807892
1772812446941894700,5.357894775390625,-0.008017600513994694,-0.03428478538990021,-0.03474293276667595
1772812446951595300,5.36759521484375,-0.003741546766832471,-0.028787001967430115,-0.027717988938093185
1772812446961296000,5.3772958984375,-0.010766491293907166,-0.01565340906381607,-0.017027854919433594
1772812446970996700,5.386996826171875,-0.02909243479371071,0.004505127668380737,-0.004810560029000044
1772812446980697300,5.396697265625,-0.043753188103437424,0.02649625949561596,0.004046979360282421
1772812446990398000,5.40639794921875,-0.04192059487104416,0.035964664071798325,0.012904518283903599
1772812447000098600,5.4160986328125,-0.029703300446271896,0.02802342176437378,0.019013166427612305
1772812447009799200,5.425799072265625,-0.02176205813884735,0.017027854919433594,0.026343543082475662
1772812447019499800,5.435499755859375,-0.022983787581324577,0.008170315995812416,0.028176138177514076
1772812447029200400,5.445200439453125,-0.02909243479371071,0.000839939049910754,0.019929463043808937
1772812447038901000,5.45490087890625,-0.038560837507247925,-0.00007635809743078426,0.005574141163378954
1772812447048601600,5.4646015625,-0.04558578506112099,0.008170315995812416,-0.016416991129517555
1772812447058302500,5.474302490234375,-0.04069886729121208,0.021914774551987648,-0.03810269013047218
1772812447068003000,5.484003173828125,-0.022678354755043983,0.0319940410554409,-0.0524580143392086
1772812447077703700,5.49370361328125,0.0005345066892914474,0.02496909722685814,-0.05673406645655632
1772812447087404300,5.503404296875,0.018860450014472008,0.0035888305865228176,-0.04390590637922287
1772812447097105000,5.51310498046875,0.027107125148177147,-0.0193185992538929,-0.02130390889942646
1772812447106805500,5.522805419921875,0.030772313475608826,-0.028176138177514076,0.003741546766832471
1772812447116506000,5.532506103515625,0.0295505840331316,-0.024510949850082397,0.024816380813717842
1772812447126206700,5.542206787109375,0.027107125148177147,-0.01626427471637726,0.03581194952130318
1772812447135907300,5.5519072265625,0.0243582334369421,-0.00679587060585618,0.03611737862229347
1772812447145608200,5.561608154296875,0.020387612283229828,0.0023671009112149477,0.028787001967430115
1772812447165009400,5.581009521484375,0.007254019379615784,0.01183550525456667,0.006185005884617567
1772812447174710000,5.5907099609375,-0.00007635809743078426,0.008781181648373604,-0.0011453714687377214
1772812447184410600,5.60041064453125,-0.0019089524867013097,0.005421424750238657,-0.003283398225903511
1772812447194111200,5.610111328125,0.00022907429956831038,0.005421424750238657,-0.004505127668380737
1772812447203811800,5.619811767578125,-0.0009926552884280682,-0.0012980876490473747,-0.004810560029000044
1772812447213512400,5.629512451171875,-0.008017600513994694,-0.007406735327094793,-0.0057268571108579636
1772812447223213300,5.63921337890625,-0.01565340906381607,-0.002825249684974551,-0.00847574882209301
1772812447232914000,5.648913818359375,-0.02328922040760517,0.003894262947142124,-0.01000291109085083
1772812447242614500,5.658614501953125,-0.029397867619991302,0.0005345066892914474,-0.009392046369612217
1772812447252315100,5.668315185546875,-0.02695440873503685,-0.008628465235233307,-0.00847574882209301
1772812447262015700,5.678015625,-0.014126247726380825,-0.012904518283903599,-0.007254019379615784
1772812447271716400,5.68771630859375,0.0017562361899763346,-0.01565340906381607,-0.012140937149524689
1772812447281417200,5.697417236328125,0.012140937149524689,-0.00679587060585618,-0.014584396965801716
1772812447291117800,5.707117919921875,0.015806125476956367,0.0029779658652842045,-0.013668099418282509
1772812447300818400,5.716818359375,0.011224640533328056,0.008781181648373604,-0.009086613543331623
1772812447310519000,5.72651904296875,0.000839939049910754,0.006337722297757864,-0.0023671009112149477
1772812447320219600,5.7362197265625,-0.004963276442140341,0.009086613543331623,0.007406735327094793
1772812447329920300,5.745920166015625,0.0005345066892914474,0.007864884100854397,0.019013166427612305
1772812447339620900,5.755620849609375,0.01183550525456667,-0.0031306820455938578,0.025121813639998436
1772812447349321700,5.76532177734375,0.023747367784380913,-0.010461059398949146,0.02542724646627903
1772812447359022300,5.775022216796875,0.033826638013124466,-0.01259908638894558,0.021456625312566757
1772812447368723000,5.784722900390625,0.03413207083940506,-0.00679587060585618,0.01779143698513508
1772812447378423600,5.794423583984375,0.027107125148177147,-0.007101302966475487,0.013515383005142212
1772812447388124200,5.804124267578125,0.021609341725707054,-0.013515383005142212,0.00923932995647192
1772812447397824800,5.81382470703125,0.019471315667033195,-0.014126247726380825,0.002825249684974551
1772812447407525400,5.823525390625,0.022525638341903687,-0.010766491293907166,-0.006337722297757864
1772812447417226000,5.83322607421875,0.0243582334369421,-0.0058795735239982605,-0.013668099418282509
1772812447426926600,5.842926513671875,0.01824958436191082,0.0057268571108579636,-0.017333287745714188
1772812447436627500,5.85262744140625,0.009392046369612217,0.01611155830323696,-0.012751801870763302
1772812447446328000,5.862328125,0.0035888305865228176,0.013668099418282509,-0.006948587018996477
1772812447456028700,5.872028564453125,0.002061668550595641,0.0017562361899763346,0.0031306820455938578
1772812447465729300,5.881729248046875,0.002672533504664898,-0.00679587060585618,0.008323032408952713
1772812447475430000,5.891429931640625,0.0023671009112149477,-0.006490438245236874,0.011377356946468353
1772812447485130500,5.901130615234375,-0.0012980876490473747,-0.002825249684974551,0.010766491293907166
1772812447494831000,5.9108310546875,-0.005268708802759647,-0.005574141163378954,0.004963276442140341
1772812447504531700,5.92053173828125,-0.004352411720901728,-0.00679587060585618,-0.003283398225903511
1772812447514232300,5.930232421875,0.0017562361899763346,-0.004963276442140341,-0.009697478264570236
1772812447523933200,5.93993310546875,0.006337722297757864,-0.0006872228696011007,-0.012751801870763302
1772812447533633800,5.9496337890625,0.008170315995812416,0.005421424750238657,-0.013057234697043896
1772812447543334400,5.95933447265625,0.007864884100854397,0.009392046369612217,-0.01183550525456667
1772812447553035000,5.969034912109375,0.00511599238961935,0.015195261687040329,-0.0057268571108579636
1772812447562735600,5.978735595703125,0.004199695307761431,0.013362666592001915,0.0019089524867013097
1772812447572436200,5.988436279296875,0.004810560029000044,0.002672533504664898,0.010461059398949146
1772812447582136800,5.99813671875,0.005421424750238657,-0.00954476185142994,0.012904518283903599
1772812447591837700,6.007837646484375,0.00511599238961935,-0.01870773360133171,0.006185005884617567
1772812447601538300,6.017538330078125,0.0017562361899763346,-0.023594651371240616,-0.014889828860759735
1772812447611239000,6.027239013671875,-0.0016035200096666813,-0.02237292192876339,-0.045738499611616135
1772812447620939500,6.036939453125,-0.0022143847309052944,-0.01259908638894558,-0.0784197673201561
1772812447630640000,6.04664013671875,0.000839939049910754,0.004199695307761431,-0.09980003535747528
1772812447640340700,6.0563408203125,0.0017562361899763346,0.01183550525456667,-0.09949459880590439
1772812447650041600,6.06604150390625,0.000839939049910754,0.015806125476956367,-0.07506000995635986
1772812447659742200,6.0757421875,-0.00038179047987796366,0.014889828860759735,-0.03810269013047218
1772812447669442800,6.08544287109375,-0.00038179047987796366,-0.0009926552884280682,-0.0005345066892914474
1772812447679143400,6.095143310546875,0.00022907429956831038,-0.01107192412018776,0.031841326504945755
1772812447688844000,6.104843994140625,0.0023671009112149477,-0.013515383005142212,0.04894553869962692
1772812447698544600,6.114544677734375,0.006948587018996477,-0.01107192412018776,0.04833467677235603
1772812447708245200,6.124245361328125,0.01611155830323696,-0.0022143847309052944,0.03061959706246853
1772812447717945900,6.13394580078125,0.026801692321896553,0.00847574882209301,0.006490438245236874
1772812447727646700,6.143646728515625,0.039018988609313965,0.01977674663066864,-0.018555017188191414
1772812447737347300,6.153347412109375,0.04848739132285118,0.026801692321896553,-0.03321577236056328
1772812447747048000,6.1630478515625,0.04787652567028999,0.030772313475608826,-0.03260490670800209
1772812447756748500,6.17274853515625,0.03871355578303337,0.020998476073145866,-0.015500693581998348
1772812447766449200,6.18244921875,0.02283107116818428,0.0005345066892914474,0.007101302966475487
1772812447776149800,6.192149658203125,0.010919207707047462,-0.016569707542657852,0.026038112118840218
1772812447785850400,6.201850341796875,0.002672533504664898,-0.028176138177514076,0.031841326504945755
1772812447795551000,6.211551025390625,0.001450803829357028,-0.024816380813717842,0.02695440873503685
1772812447805251800,6.221251953125,0.004199695307761431,-0.016569707542657852,0.011377356946468353
1772812447814952400,6.230952392578125,0.004199695307761431,-0.007101302966475487,-0.013668099418282509
1772812447824653000,6.240653076171875,0.004810560029000044,0.00847574882209301,-0.03413207083940506
1772812447834353700,6.250353759765625,0.004505127668380737,0.026190826669335365,-0.03840812295675278
1772812447844054300,6.26005419921875,-0.0016035200096666813,0.02649625949561596,-0.03168861195445061
1772812447853755000,6.2697548828125,-0.010461059398949146,0.015195261687040329,-0.015195261687040329
1772812447863455500,6.27945556640625,-0.01626427471637726,0.001450803829357028,0.004352411720901728
1772812447873156000,6.289156005859375,-0.016875140368938446,-0.008933897130191326,0.01779143698513508
1772812447882856700,6.298856689453125,-0.011988221667706966,-0.01107192412018776,0.019013166427612305
1772812447892557600,6.3085576171875,-0.0012980876490473747,-0.0034361144062131643,0.008323032408952713
1772812447902258200,6.318258056640625,0.009392046369612217,0.00603228947147727,-0.00755945174023509
1772812447911958800,6.327958740234375,0.013057234697043896,0.009086613543331623,-0.017333287745714188
1772812447921659400,6.337659423828125,0.011530072428286076,0.005421424750238657,-0.02130390889942646
1772812447931360000,6.347360107421875,0.01000291109085083,0.001450803829357028,-0.017333287745714188
1772812447941060600,6.357060546875,0.011530072428286076,0.003283398225903511,-0.006948587018996477
1772812447950761200,6.36676123046875,0.01672242395579815,0.004199695307761431,0.004046979360282421
1772812447960461800,6.3764619140625,0.021609341725707054,-0.0019089524867013097,0.01107192412018776
1772812447970162400,6.386162353515625,0.02283107116818428,-0.005268708802759647,0.01626427471637726
1772812447979863300,6.39586328125,0.023136503994464874,-0.0022143847309052944,0.016569707542657852
1772812447989564000,6.40556396484375,0.021914774551987648,-0.0006872228696011007,0.015347977168858051
1772812447999264500,6.415264404296875,0.01611155830323696,-0.007101302966475487,0.012293653562664986
1772812448008965000,6.424965087890625,0.012140937149524689,-0.005268708802759647,0.01259908638894558
1772812448018665700,6.434665771484375,0.008170315995812416,-0.0009926552884280682,0.012904518283903599
1772812448028366300,6.444366455078125,0.0005345066892914474,0.000839939049910754,0.007101302966475487
1772812448038067200,6.454067138671875,-0.0022143847309052944,0.009697478264570236,0.00007635809743078426
1772812448047767800,6.463767822265625,-0.0034361144062131643,0.01611155830323696,-0.008170315995812416
1772812448057468400,6.473468505859375,-0.0034361144062131643,0.010919207707047462,-0.013362666592001915
1772812448067169000,6.4831689453125,-0.0058795735239982605,0.00755945174023509,-0.020387612283229828
1772812448076869600,6.49286962890625,-0.006185005884617567,0.020387612283229828,-0.016416991129517555
1772812448086570200,6.5025703125,-0.013820815831422806,0.028328854590654373,-0.004505127668380737
1772812448096270800,6.512270751953125,-0.025732679292559624,0.015195261687040329,0.011988221667706966
1772812448105971500,6.521971435546875,-0.03061959706246853,-0.002825249684974551,0.024205517023801804
1772812448115672300,6.53167236328125,-0.024510949850082397,-0.006185005884617567,0.025121813639998436
1772812448125373000,6.541373046875,-0.010461059398949146,-0.004963276442140341,0.02176205813884735
1772812448135073500,6.551073486328125,0.000839939049910754,-0.004352411720901728,0.010461059398949146
1772812448144774100,6.560774169921875,0.00511599238961935,0.004505127668380737,-0.000839939049910754
1772812448154474800,6.570474853515625,-0.0016035200096666813,0.013668099418282509,-0.00603228947147727
1772812448164175400,6.58017529296875,-0.013209951110184193,0.011530072428286076,-0.007864884100854397
1772812448173876000,6.5898759765625,-0.02084576152265072,0.004810560029000044,-0.008170315995812416
1772812448183576800,6.599576904296875,-0.022067490965127945,0.0023671009112149477,-0.00847574882209301
1772812448193277400,6.60927734375,-0.015042545273900032,0.003283398225903511,-0.009392046369612217
1772812448202978000,6.61897802734375,-0.004963276442140341,0.003894262947142124,-0.008170315995812416
1772812448212678700,6.6286787109375,0.003283398225903511,0.0035888305865228176,-0.00022907429956831038
1772812448222379300,6.638379150390625,0.005421424750238657,0.004199695307761431,0.010766491293907166
1772812448232080000,6.648079833984375,-0.0019089524867013097,-0.0012980876490473747,0.022067490965127945
1772812448241780500,6.657780517578125,-0.011682788841426373,-0.004963276442140341,0.031841326504945755
1772812448251481000,6.667481201171875,-0.01779143698513508,-0.007406735327094793,0.03367391973733902
1772812448261181700,6.677181640625,-0.01779143698513508,-0.0077121676877141,0.02542724646627903
1772812448270882600,6.686882568359375,-0.013820815831422806,-0.002825249684974551,0.011988221667706966
1772812448280583200,6.696583251953125,-0.008323032408952713,0.005421424750238657,-0.00022907429956831038
1772812448290283800,6.70628369140625,-0.0058795735239982605,0.013057234697043896,-0.010613775812089443
1772812448299984400,6.715984375,-0.008323032408952713,0.015500693581998348,-0.01183550525456667
1772812448309685000,6.72568505859375,-0.013209951110184193,0.010919207707047462,-0.007864884100854397
1772812448319385600,6.735385498046875,-0.01779143698513508,0.007254019379615784,0.0009926552884280682
1772812448329086200,6.745086181640625,-0.022067490965127945,0.001450803829357028,0.01107192412018776
1772812448338786800,6.754786865234375,-0.023594651371240616,-0.004657844081521034,0.0193185992538929
1772812448348487400,6.7644873046875,-0.025121813639998436,-0.008628465235233307,0.022678354755043983
1772812448358188300,6.774188232421875,-0.027259841561317444,-0.00923932995647192,0.018402300775051117
1772812448367889000,6.783888916015625,-0.030925029888749123,-0.0019089524867013097,0.009850194677710533
1772812448377589500,6.793589599609375,-0.033979352563619614,0.012446369975805283,-0.001450803829357028
1772812448387290000,6.8032900390625,-0.03367391973733902,0.02130390889942646,-0.007254019379615784
1772812448396990700,6.81299072265625,-0.027870705351233482,0.020693045109510422,-0.009697478264570236
1772812448406691300,6.82269140625,-0.017486004158854485,0.018860450014472008,-0.004505127668380737
1772812448416392000,6.832391845703125,-0.007101302966475487,0.007254019379615784,0.0031306820455938578
1772812448426092500,6.842092529296875,0.0011453714687377214,-0.010155626572668552,0.011988221667706966
1772812448435793200,6.851793212890625,0.00755945174023509,-0.019929463043808937,0.014126247726380825
1772812448445494000,6.861493896484375,0.012446369975805283,-0.02390008419752121,0.010461059398949146
1772812448455194600,6.871194580078125,0.013973532244563103,-0.01779143698513508,0.004352411720901728
1772812448464895200,6.880895263671875,0.01030834298580885,-0.00038179047987796366,0.0022143847309052944
1772812448474595800,6.890595947265625,0.002672533504664898,0.012140937149524689,0.004352411720901728
1772812448484296400,6.90029638671875,-0.006185005884617567,0.013973532244563103,0.011988221667706966
1772812448493997000,6.9099970703125,-0.011377356946468353,0.00603228947147727,0.02023489587008953
1772812448503697700,6.91969775390625,-0.013515383005142212,-0.0012980876490473747,0.026648975908756256
1772812448513398300,6.929398193359375,-0.010155626572668552,-0.006185005884617567,0.029397867619991302
1772812448523099100,6.93909912109375,-0.007406735327094793,-0.006185005884617567,0.024816380813717842
1772812448532799700,6.9487998046875,-0.007406735327094793,-0.00007635809743078426,0.01870773360133171
1772812448542500400,6.958500244140625,-0.0077121676877141,0.00511599238961935,0.010766491293907166
1772812448552201000,6.968200927734375,-0.011377356946468353,0.0066431546583771706,0.007406735327094793
1772812448561901600,6.977901611328125,-0.013209951110184193,0.0017562361899763346,0.0022143847309052944
1772812448571602200,6.987602294921875,-0.01107192412018776,-0.004657844081521034,-0.000839939049910754
1772812448581302800,6.997302734375,-0.008323032408952713,-0.004352411720901728,-0.0029779658652842045
1772812448591003400,7.00700341796875,-0.00038179047987796366,-0.00007635809743078426,-0.0035888305865228176
1772812448600704300,7.016704345703125,0.00847574882209301,0.0029779658652842045,-0.004505127668380737
1772812448610404900,7.02640478515625,0.011530072428286076,0.003894262947142124,-0.003894262947142124
1772812448620105500,7.03610546875,0.007864884100854397,0.0023671009112149477,0.0009926552884280682
1772812448629806000,7.04580615234375,0.005421424750238657,-0.00679587060585618,0.003741546766832471
1772812448639506700,7.055506591796875,0.007254019379615784,-0.016569707542657852,0.004963276442140341
1772812448649207300,7.065207275390625,0.01000291109085083,-0.013820815831422806,0.004963276442140341
1772812448658908000,7.074907958984375,0.009697478264570236,-0.0019089524867013097,0.00038179047987796366
1772812448668608800,7.08460888671875,0.009392046369612217,0.01183550525456667,-0.0057268571108579636
1772812448678309400,7.094309326171875,0.006337722297757864,0.013057234697043896,-0.01183550525456667
1772812448688010000,7.104010009765625,-0.0012980876490473747,0.023136503994464874,-0.00511599238961935
1772812448697710600,7.113710693359375,-0.00923932995647192,0.03168861195445061,0.005268708802759647
1772812448707411200,7.1234111328125,-0.019929463043808937,0.021609341725707054,0.02023489587008953
1772812448717111800,7.13311181640625,-0.030314164236187935,0.004505127668380737,0.03611737862229347
1772812448726812400,7.1428125,-0.03245219215750694,0.0011453714687377214,0.04192059487104416
1772812448736513300,7.15251318359375,-0.023594651371240616,0.0023671009112149477,0.03061959706246853
1772812448746214000,7.1622138671875,-0.006490438245236874,0.004810560029000044,0.011988221667706966
1772812448755914500,7.17191455078125,0.01000291109085083,0.0057268571108579636,-0.007864884100854397
1772812448765615000,7.181614990234375,0.02283107116818428,0.002672533504664898,-0.01977674663066864
1772812448775315700,7.191315673828125,0.026801692321896553,-0.0022143847309052944,-0.02496909722685814
1772812448785016300,7.201016357421875,0.023747367784380913,-0.0025198173243552446,-0.020693045109510422
1772812448794717000,7.210717041015625,0.012140937149524689,-0.0019089524867013097,-0.009697478264570236
1772812448804417500,7.22041748046875,0.002061668550595641,0.009392046369612217,0.00007635809743078426
1772812448814118400,7.230118408203125,0.0023671009112149477,0.022525638341903687,0.008628465235233307
1772812448823819000,7.239819091796875,0.007864884100854397,0.020693045109510422,0.014126247726380825
1772812448833519600,7.24951953125,0.00603228947147727,0.01763872057199478,0.019624030217528343
1772812448843220200,7.25922021484375,-0.003741546766832471,0.013362666592001915,0.02176205813884735
1772812448852920800,7.2689208984375,-0.011377356946468353,0.004199695307761431,0.023594651371240616
1772812448862621400,7.278621337890625,-0.014431680552661419,0.01030834298580885,0.022678354755043983
1772812448872322000,7.288322021484375,-0.018402300775051117,0.01763872057199478,0.015347977168858051
1772812448882022700,7.298022705078125,-0.023594651371240616,0.029245151206851006,0.00679587060585618
1772812448891723300,7.30772314453125,-0.027870705351233482,0.053374309092760086,0.003741546766832471
1772812448901424000,7.317424072265625,-0.027870705351233482,0.06101011857390404,0.0009926552884280682
1772812448911124700,7.327124755859375,-0.026038112118840218,0.057955797761678696,0.005574141163378954
1772812448920825300,7.336825439453125,-0.02756527252495289,0.05001455545425415,0.016569707542657852
1772812448930526000,7.34652587890625,-0.026038112118840218,0.040546149015426636,0.030925029888749123
1772812448940226600,7.3562265625,-0.02237292192876339,0.02741255611181259,0.0397825688123703
1772812448949927200,7.36592724609375,-0.016875140368938446,0.02283107116818428,0.036422811448574066
1772812448959627800,7.375627685546875,-0.002825249684974551,0.030466880649328232,0.027259841561317444
1772812448969328400,7.385328369140625,0.01030834298580885,0.02802342176437378,0.017486004158854485
1772812448979029000,7.395029052734375,0.015806125476956367,0.012446369975805283,0.009850194677710533
1772812448988729900,7.404729736328125,0.016416991129517555,0.00022907429956831038,0.008933897130191326
1772812448998430500,7.414430419921875,0.01611155830323696,0.0035888305865228176,0.012904518283903599
1772812449008131000,7.424131103515625,0.014278964139521122,-0.004657844081521034,0.0193185992538929
1772812449017831700,7.433831787109375,0.00847574882209301,-0.019013166427612305,0.021151192486286163
1772812449027532300,7.4435322265625,0.00847574882209301,-0.013515383005142212,0.019013166427612305
1772812449037233000,7.45323291015625,0.008781181648373604,-0.00038179047987796366,0.0058795735239982605
1772812449046933500,7.46293359375,0.01030834298580885,0.014584396965801716,-0.009697478264570236
1772812449056634000,7.472634033203125,0.007254019379615784,0.01763872057199478,-0.017944153398275375
1772812449066334700,7.482334716796875,0.002672533504664898,0.009697478264570236,-0.024663666263222694
1772812449076035600,7.49203564453125,-0.0012980876490473747,0.006337722297757864,-0.025579962879419327
1772812449085736200,7.501736083984375,-0.007406735327094793,0.0066431546583771706,-0.02588539570569992
1772812449095436800,7.511436767578125,-0.012904518283903599,0.000839939049910754,-0.024052800610661507
1772812449105137400,7.521137451171875,-0.015042545273900032,-0.008933897130191326,-0.0191658828407526
1772812449114838000,7.530838134765625,-0.014737112447619438,-0.020540328696370125,-0.013973532244563103
1772812449124538600,7.54053857421875,-0.011377356946468353,-0.03367391973733902,-0.009086613543331623
1772812449134239200,7.5502392578125,-0.009850194677710533,-0.04894553869962692,-0.008170315995812416
1772812449143939800,7.55993994140625,-0.007406735327094793,-0.05658135190606117,-0.01030834298580885
1772812449153640400,7.569640380859375,-0.0031306820455938578,-0.05322159454226494,-0.010919207707047462
1772812449163341300,7.57934130859375,-0.0031306820455938578,-0.05352702736854553,-0.01183550525456667
1772812449173042000,7.5890419921875,0.000839939049910754,-0.04955640435218811,-0.010919207707047462
1772812449182742500,7.598742431640625,0.010919207707047462,-0.03000873140990734,-0.006948587018996477
1772812449192443100,7.608443115234375,0.01763872057199478,-0.02328922040760517,0.0016035200096666813
1772812449202143700,7.618143798828125,0.021609341725707054,-0.02237292192876339,0.011377356946468353
1772812449211844400,7.62784423828125,0.017333287745714188,-0.03214675933122635,0.019013166427612305
1772812449221545000,7.637544921875,0.005421424750238657,-0.03520108386874199,0.021151192486286163
1772812449231245600,7.64724560546875,-0.010461059398949146,-0.02328922040760517,0.010461059398949146
1772812449240946200,7.6569462890625,-0.019624030217528343,0.00022907429956831038,-0.007864884100854397
1772812449250647000,7.66664697265625,-0.021151192486286163,0.027717988938093185,-0.03627009689807892
1772812449260347600,7.67634765625,-0.013209951110184193,0.05734493210911751,-0.060704685747623444
1772812449270048300,7.68604833984375,-0.01259908638894558,0.06589704006910324,-0.07108938694000244
1772812449279748900,7.695748779296875,-0.02237292192876339,0.055512335151433945,-0.06406444311141968
1772812449289449500,7.705449462890625,-0.03825540840625763,0.03993528336286545,-0.04848739132285118
1772812449299150000,7.715150146484375,-0.0550541877746582,0.03138317912817001,-0.026801692321896553
1772812449308850700,7.7248505859375,-0.06696604937314987,0.013973532244563103,-0.012751801870763302
