time,seconds_elapsed,z,y,x
1772812187884149800,0.094149658203125,-0.025121813639998436,0.13064870238304138,0.13881902396678925
1772812187903550700,0.11355078125,-0.07673988491296768,0.15172353386878967,0.0896444097161293
1772812187913251000,0.1232509765625,-0.08376483619213104,0.20395247638225555,0.08261945843696594
1772812187922951400,0.132951416015625,-0.081015944480896,0.24640758335590363,0.08323032408952713
1772812187932652000,0.142652099609375,-0.09201150387525558,0.23846633732318878,0.07834340631961823
1772812187942352400,0.152352294921875,-0.11003202199935913,0.2222784161567688,0.08170316368341446
1772812187952053000,0.162052978515625,-0.11827868968248367,0.18806999921798706,0.07009673118591309
1772812187961753300,0.17175341796875,-0.11094831675291061,0.14103341102600098,0.047494735568761826
1772812187971454000,0.181453857421875,-0.08009964227676392,0.11110103130340576,0.02825249545276165
1772812187981154300,0.191154296875,-0.041615162044763565,0.08941533416509628,0.006872228812426329
1772812187990854700,0.200854736328125,-0.004657844081521034,0.07872519642114639,-0.018784092739224434
1772812188000555300,0.21055517578125,0.023441936820745468,0.06436987966299057,-0.04535670951008797
1772812188010255600,0.220255615234375,0.042073313146829605,0.0371863916516304,-0.07620538026094437
1772812188019956200,0.229956298828125,0.05367974191904068,0.012751801870763302,-0.09605848789215088
1772812188029656600,0.239656494140625,0.0628427118062973,-0.006185005884617567,-0.11285726726055145
1772812188039357200,0.249357177734375,0.06406444311141968,-0.004352411720901728,-0.11652245372533798
1772812188049057500,0.2590576171875,0.05001455545425415,0.0005345066892914474,-0.10705405473709106
1772812188058758100,0.268758056640625,0.0319940410554409,0.004505127668380737,-0.07773254066705704
1772812188068458500,0.27845849609375,0.018555017188191414,0.00755945174023509,-0.03436114266514778
1772812188078158800,0.288158935546875,0.01763872057199478,0.006337722297757864,-0.012675444595515728
1772812188087859500,0.297859375,0.02496909722685814,0.03565923124551773,0.0102319847792387
1772812188097559800,0.307559814453125,0.028634287416934967,0.057955797761678696,0.019700389355421066
1772812188107260400,0.317260498046875,0.028328854590654373,0.0524580143392086,0.031612250953912735
1772812188116960800,0.326960693359375,0.021609341725707054,0.03474293276667595,0.024281874299049377
1772812188126661400,0.336661376953125,0.01672242395579815,0.04085158184170723,0.019700389355421066
1772812188136361700,0.34636181640625,0.014889828860759735,0.06620246917009354,0.01847865991294384
1772812188146062300,0.356062255859375,0.018555017188191414,0.0884990319609642,0.029474224895238876
1772812188155762700,0.3657626953125,0.01824958436191082,0.0784197673201561,0.05238165333867073
1772812188165463000,0.375463134765625,0.013668099418282509,0.03779725730419159,0.07559451460838318
1772812188175163600,0.38516357421875,0.01030834298580885,-0.0019089524867013097,0.0948367565870285
1772812188184864000,0.394864013671875,0.007864884100854397,-0.028176138177514076,0.10125083476305008
1772812188194564600,0.404564697265625,0.007254019379615784,-0.043753188103437424,0.07864884287118912
1772812188204265000,0.414264892578125,0.013362666592001915,-0.02909243479371071,0.04505127668380737
1772812188213965600,0.423965576171875,0.01672242395579815,0.00755945174023509,0.02153298258781433
1772812188223666000,0.433666015625,0.009697478264570236,0.023441936820745468,0.0019853105768561363
1772812188233366300,0.4433662109375,0.003894262947142124,0.019471315667033195,-0.008704823441803455
1772812188243067000,0.45306689453125,0.004505127668380737,0.014584396965801716,-0.015729768201708794
1772812188252767200,0.462767333984375,0.00511599238961935,0.008781181648373604,-0.03711003437638283
1772812188262467800,0.4724677734375,0.008170315995812416,0.033826638013124466,-0.041386090219020844
1772812188272168200,0.482168212890625,0.0005345066892914474,0.047265663743019104,-0.02825249545276165
1772812188281868800,0.491868896484375,-0.00923932995647192,0.039018988609313965,-0.007483093533664942
1772812188291569200,0.501569091796875,-0.007406735327094793,0.026190826669335365,0.016035201027989388
1772812188301269500,0.51126953125,0.006948587018996477,0.0023671009112149477,0.02367101050913334
1772812188310970000,0.52097021484375,0.01977674663066864,-0.01870773360133171,0.016340631991624832
1772812188320670500,0.53067041015625,0.030466880649328232,-0.018096869811415672,-0.002290742937475443
1772812188330371000,0.54037109375,0.042684175074100494,-0.0012980876490473747,-0.0206166859716177
1772812188340071400,0.550071533203125,0.04634936526417732,0.0057268571108579636,-0.030390523374080658
1772812188349772000,0.55977197265625,0.048792824149131775,0.005421424750238657,-0.03283398225903511
1772812188359472400,0.569472412109375,0.05581776797771454,0.005421424750238657,-0.03497200831770897
1772812188369172700,0.5791728515625,0.05734493210911751,0.013057234697043896,-0.03588830679655075
1772812188378873300,0.588873291015625,0.050319984555244446,0.02496909722685814,-0.022449281066656113
1772812188388573700,0.59857373046875,0.03535379841923714,0.03260490670800209,0.001679878099821508
1772812188398274300,0.6082744140625,0.025579962879419327,0.023441936820745468,0.02000582218170166
1772812188407974700,0.617974609375,0.026801692321896553,0.014278964139521122,0.03894263133406639
1772812188417675300,0.62767529296875,0.03321577236056328,0.003894262947142124,0.04199695214629173
1772812188427375600,0.637375732421875,0.029856016859412193,-0.004963276442140341,0.028863361105322838
1772812188437076200,0.647076171875,0.023441936820745468,0.013668099418282509,0.0038179049734026194
1772812188446776600,0.656776611328125,0.017027854919433594,0.04390590637922287,-0.02000582218170166
1772812188456477200,0.666477294921875,0.013057234697043896,0.04848739132285118,-0.04169152304530144
1772812188466177500,0.676177490234375,0.024663666263222694,0.03535379841923714,-0.05849030241370201
1772812188475878100,0.685878173828125,0.04390590637922287,0.012446369975805283,-0.06856957077980042
1772812188485578500,0.69557861328125,0.06223184987902641,-0.018096869811415672,-0.08048143237829208
1772812188495279000,0.705279052734375,0.07597630470991135,-0.02756527252495289,-0.08567378669977188
1772812188504979500,0.7149794921875,0.07567087560892105,-0.021151192486286163,-0.08842267841100693
1772812188514679800,0.7246796875,0.06742420047521591,-0.010461059398949146,-0.0850629210472107
1772812188524380400,0.73438037109375,0.060704685747623444,0.00603228947147727,-0.07406735420227051
1772812188534080800,0.744080810546875,0.05429060757160187,0.011530072428286076,-0.06551524996757507
1772812188543781400,0.753781494140625,0.05062541738152504,0.007864884100854397,-0.05543597787618637
1772812188553481700,0.763481689453125,0.04909825697541237,0.015500693581998348,-0.039858926087617874
1772812188563182300,0.773182373046875,0.04085158184170723,0.02130390889942646,-0.02214384824037552
1772812188572882700,0.782882568359375,0.029856016859412193,0.018860450014472008,-0.004123337101191282
1772812188582583000,0.7925830078125,0.024052800610661507,0.0057268571108579636,0.006566796451807022
1772812188592283600,0.80228369140625,0.02496909722685814,-0.013515383005142212,0.005039634648710489
1772812188601984000,0.81198388671875,0.03260490670800209,-0.0193185992538929,-0.004428769461810589
1772812188611684600,0.8216845703125,0.03962985426187515,-0.008017600513994694,-0.012675444595515728
1772812188621385000,0.831385009765625,0.03932442143559456,-0.0058795735239982605,-0.02306014485657215
1772812188631085600,0.84108544921875,0.03535379841923714,-0.003741546766832471,-0.028863361105322838
1772812188640786000,0.850785888671875,0.03168861195445061,0.00022907429956831038,-0.02519817277789116
1772812188650486500,0.860486572265625,0.022525638341903687,-0.00038179047987796366,-0.019700389355421066
1772812188660187000,0.870186767578125,0.014889828860759735,-0.0025198173243552446,-0.0102319847792387
1772812188669887500,0.879887451171875,0.012751801870763302,-0.00038179047987796366,0.00045814859913662076
1772812188679587800,0.889587890625,0.004505127668380737,0.001450803829357028,0.015729768201708794
1772812188689288400,0.899288330078125,-0.00679587060585618,-0.0022143847309052944,0.025809036567807198
1772812188698988800,0.90898876953125,-0.0077121676877141,0.002061668550595641,0.0334448479115963
1772812188708689400,0.918689453125,-0.004352411720901728,0.007864884100854397,0.03222311660647392
1772812188718389800,0.9283896484375,-0.0058795735239982605,0.00511599238961935,0.023976443335413933
1772812188728090400,0.93809033203125,-0.006185005884617567,-0.004046979360282421,0.009010255336761475
1772812188737790700,0.947790771484375,-0.00007635809743078426,-0.011377356946468353,-0.016340631991624832
1772812188747491000,0.957490966796875,0.007864884100854397,-0.01107192412018776,-0.04108065739274025
1772812188757191700,0.967191650390625,0.012446369975805283,-0.011988221667706966,-0.05757400393486023
1772812188766892000,0.97689208984375,0.013057234697043896,-0.01626427471637726,-0.06979130208492279
1772812188776592600,0.986592529296875,0.012140937149524689,-0.013820815831422806,-0.06979130208492279
1772812188786293000,0.99629296875,0.00603228947147727,-0.00679587060585618,-0.05329795181751251
1772812188795993300,1.005993408203125,-0.005268708802759647,-0.004657844081521034,-0.03436114266514778
1772812188805694000,1.01569384765625,-0.01626427471637726,0.002672533504664898,-0.009315688163042068
1772812188815394300,1.025394287109375,-0.02023489587008953,0.017333287745714188,0.014508038759231567
1772812188825095000,1.035094970703125,-0.016569707542657852,0.028634287416934967,0.03649916872382164
1772812188834795300,1.044795166015625,-0.013515383005142212,0.03138317912817001,0.050549060106277466
1772812188844496000,1.054495849609375,-0.01870773360133171,0.01183550525456667,0.05482511222362518
1772812188854196500,1.064196533203125,-0.02023489587008953,-0.007406735327094793,0.060322895646095276
1772812188863896800,1.073896728515625,-0.013515383005142212,-0.014126247726380825,0.058795735239982605
1772812188873597400,1.083597412109375,-0.004657844081521034,-0.016875140368938446,0.04566214233636856
1772812188883297800,1.0932978515625,0.004199695307761431,-0.011988221667706966,0.031612250953912735
1772812188892998100,1.102998046875,0.010919207707047462,-0.00923932995647192,0.017256930470466614
1772812188902698800,1.11269873046875,0.016416991129517555,-0.014126247726380825,0.004123337101191282
1772812188912399000,1.122399169921875,0.018555017188191414,-0.018096869811415672,-0.007483093533664942
1772812188922099700,1.132099609375,0.012140937149524689,-0.004963276442140341,-0.010537417605519295
1772812188931800000,1.141800048828125,-0.006185005884617567,0.013362666592001915,-0.01206457894295454
1772812188941500700,1.151500732421875,-0.02756527252495289,0.01824958436191082,-0.0206166859716177
1772812188951201000,1.161200927734375,-0.03520108386874199,0.023136503994464874,-0.034666575491428375
1772812188960901600,1.170901611328125,-0.02848157100379467,0.035964664071798325,-0.033139415085315704
1772812188970602000,1.18060205078125,-0.02176205813884735,0.03260490670800209,-0.017867794260382652
1772812188980302600,1.190302490234375,-0.016569707542657852,0.01000291109085083,0.00045814859913662076
1772812188990003000,1.2000029296875,-0.013515383005142212,-0.010155626572668552,0.012675444595515728
1772812188999703600,1.20970361328125,-0.011988221667706966,-0.01259908638894558,0.017256930470466614
1772812189009404000,1.21940380859375,-0.01259908638894558,-0.010461059398949146,0.014508038759231567
1772812189019104500,1.2291044921875,-0.008933897130191326,-0.010155626572668552,0.013286309316754341
1772812189028804900,1.238804931640625,0.002061668550595641,0.0017562361899763346,0.006566796451807022
1772812189038505500,1.24850537109375,0.00755945174023509,0.014889828860759735,-0.0025961752980947495
1772812189048205800,1.258205810546875,0.0066431546583771706,0.01030834298580885,-0.008704823441803455
1772812189057906200,1.26790625,0.000839939049910754,0.009086613543331623,-0.005955931730568409
1772812189067606800,1.277606689453125,-0.010155626572668552,0.0035888305865228176,0.0038179049734026194
1772812189077307100,1.28730712890625,-0.021151192486286163,-0.010461059398949146,0.008399390615522861
1772812189087007700,1.2970078125,-0.02328922040760517,-0.019013166427612305,0.00045814859913662076
1772812189096708000,1.3067080078125,-0.015347977168858051,-0.017486004158854485,-0.016340631991624832
1772812189106408700,1.31640869140625,-0.01107192412018776,-0.00007635809743078426,-0.024281874299049377
1772812189116109000,1.326109130859375,-0.014737112447619438,0.013668099418282509,-0.016035201027989388
1772812189125809700,1.3358095703125,-0.022678354755043983,0.00511599238961935,0.0019853105768561363
1772812189135510000,1.345510009765625,-0.030925029888749123,-0.019624030217528343,0.017256930470466614
1772812189145210600,1.355210693359375,-0.03061959706246853,-0.037033677101135254,0.021227551624178886
1772812189154911000,1.364910888671875,-0.02390008419752121,-0.04405862092971802,0.01206457894295454
1772812189164611600,1.374611572265625,-0.0193185992538929,-0.04436405375599861,-0.0038179049734026194
1772812189174312000,1.38431201171875,-0.015042545273900032,-0.039477135986089706,-0.019700389355421066
1772812189184012500,1.394012451171875,-0.013209951110184193,-0.026648975908756256,-0.025809036567807198
1772812189193713000,1.403712890625,-0.01626427471637726,-0.01870773360133171,-0.024892739951610565
1772812189203413200,1.413413330078125,-0.017486004158854485,-0.021456625312566757,-0.020311253145337105
1772812189213113900,1.42311376953125,-0.011682788841426373,-0.011377356946468353,-0.005039634648710489
1772812189222814200,1.432814208984375,-0.009850194677710533,-0.008323032408952713,0.0062613640911877155
1772812189232514800,1.442514892578125,-0.01565340906381607,-0.019624030217528343,0.018173227086663246
1772812189242215400,1.45221533203125,-0.021456625312566757,-0.022983787581324577,0.03130681812763214
1772812189251915800,1.461915771484375,-0.02084576152265072,-0.036422811448574066,0.03527744114398956
1772812189261616400,1.471616455078125,-0.016875140368938446,-0.039477135986089706,0.029474224895238876
1772812189271316700,1.481316650390625,-0.006185005884617567,-0.02756527252495289,0.016646064817905426
1772812189281017300,1.491017333984375,-0.00007635809743078426,-0.008628465235233307,0.0025961752980947495
1772812189290717700,1.5007177734375,-0.0034361144062131643,0.00511599238961935,-0.004734201822429895
1772812189300418000,1.51041796875,-0.012904518283903599,0.0029779658652842045,-0.004734201822429895
1772812189310118700,1.52011865234375,-0.02084576152265072,-0.004352411720901728,-0.004734201822429895
1772812189319819000,1.529819091796875,-0.02695440873503685,-0.010766491293907166,-0.004734201822429895
1772812189329519600,1.53951953125,-0.03367391973733902,-0.011377356946468353,-0.006566796451807022
1772812189339220000,1.549219970703125,-0.03733910992741585,-0.00038179047987796366,-0.014508038759231567
1772812189348920600,1.558920654296875,-0.039477135986089706,0.014278964139521122,-0.0206166859716177
1772812189358621200,1.56862109375,-0.04069886729121208,0.024663666263222694,-0.02306014485657215
1772812189368321500,1.578321533203125,-0.04344775900244713,0.029856016859412193,-0.018784092739224434
1772812189378022000,1.58802197265625,-0.05047270283102989,0.02588539570569992,-0.005345067009329796
1772812189387722500,1.597722412109375,-0.05261072888970375,0.009086613543331623,0.007788525894284248
1772812189397422800,1.6074228515625,-0.04711294546723366,-0.007101302966475487,0.019394956529140472
1772812189407123500,1.61712353515625,-0.03550651669502258,-0.01565340906381607,0.02367101050913334
1772812189416823800,1.62682373046875,-0.02909243479371071,-0.011682788841426373,0.01908952370285988
1772812189426524400,1.6365244140625,-0.028787001967430115,0.002061668550595641,0.010842849500477314
1772812189436224800,1.646224853515625,-0.03550651669502258,0.007864884100854397,-0.0038179049734026194
1772812189445925400,1.65592529296875,-0.0449749194085598,0.0066431546583771706,-0.014508038759231567
1772812189455625700,1.665625732421875,-0.04650207981467247,0.011530072428286076,-0.01511890348047018
1772812189465326300,1.675326416015625,-0.04436405375599861,0.008170315995812416,-0.011148282326757908
1772812189475026700,1.685026611328125,-0.040088001638650894,-0.00007635809743078426,-0.007483093533664942
1772812189484727300,1.694727294921875,-0.027259841561317444,0.014584396965801716,-0.0010690133785828948
1772812189494427600,1.704427734375,-0.018096869811415672,0.020693045109510422,0.006872228812426329
1772812189504128300,1.714128173828125,-0.011377356946468353,0.004505127668380737,0.01695149764418602
1772812189513828600,1.72382861328125,-0.0016035200096666813,-0.01107192412018776,0.028557928279042244
1772812189523529200,1.733529296875,0.00755945174023509,-0.018402300775051117,0.036193739622831345
1772812189533229600,1.7432294921875,0.014889828860759735,-0.020540328696370125,0.030695954337716103
1772812189542930200,1.75293017578125,0.020998476073145866,-0.018402300775051117,0.016646064817905426
1772812189552630500,1.762630615234375,0.024052800610661507,-0.011988221667706966,-0.0032070400193333626
1772812189562331100,1.7723310546875,0.025579962879419327,-0.004657844081521034,-0.020311253145337105
1772812189572031500,1.782031494140625,0.0243582334369421,-0.0016035200096666813,-0.02977965772151947
1772812189581732000,1.791732177734375,0.016416991129517555,-0.005574141163378954,-0.02916879393160343
1772812189591432400,1.801432373046875,0.0017562361899763346,-0.004657844081521034,-0.025809036567807198
1772812189601133000,1.811133056640625,-0.00923932995647192,-0.0012980876490473747,-0.027947064489126205
1772812189610833400,1.82083349609375,-0.013209951110184193,0.0035888305865228176,-0.03375028073787689
1772812189620534000,1.830533935546875,-0.017486004158854485,0.0023671009112149477,-0.036804601550102234
1772812189639935000,1.84993505859375,-0.0193185992538929,0.008170315995812416,-0.043829549103975296
1772812189659336000,1.8693359375,-0.020540328696370125,0.018555017188191414,-0.04566214233636856
1772812189669036300,1.879036376953125,-0.016875140368938446,0.025274530053138733,-0.03436114266514778
1772812189678737000,1.88873681640625,-0.01107192412018776,0.026190826669335365,-0.02764163166284561
1772812189688437200,1.898437255859375,-0.00679587060585618,0.01672242395579815,-0.016035201027989388
1772812189698137900,1.908137939453125,-0.004046979360282421,0.0029779658652842045,-0.010842849500477314
1772812189707838200,1.917838134765625,-0.0025198173243552446,-0.0012980876490473747,-0.006566796451807022
1772812189717538800,1.927538818359375,0.0005345066892914474,0.008781181648373604,-0.004734201822429895
1772812189727239200,1.9372392578125,-0.00007635809743078426,0.014889828860759735,-0.008704823441803455
1772812189736939800,1.946939697265625,-0.004963276442140341,0.01611155830323696,0.0019853105768561363
1772812189746640100,1.95664013671875,-0.015347977168858051,0.009697478264570236,0.0154243353754282
1772812189756340700,1.9663408203125,-0.02328922040760517,0.01183550525456667,0.027947064489126205
1772812189766041000,1.976041015625,-0.027870705351233482,0.024663666263222694,0.03436114266514778
1772812189775741700,1.98574169921875,-0.022983787581324577,0.03413207083940506,0.03405570983886719
1772812189785442000,1.995442138671875,-0.015042545273900032,0.03535379841923714,0.027030766010284424
1772812189795142700,2.005142578125,-0.013209951110184193,0.032910339534282684,0.024892739951610565
1772812189804843000,2.014843017578125,-0.013820815831422806,0.030161447823047638,0.017867794260382652
1772812189814543600,2.024543701171875,-0.013515383005142212,0.03352120518684387,0.014202605932950974
1772812189824244000,2.034243896484375,-0.007406735327094793,0.030466880649328232,0.01511890348047018
1772812189833944600,2.043944580078125,0.002061668550595641,0.01977674663066864,0.018173227086663246
1772812189843645000,2.05364501953125,0.007864884100854397,0.000839939049910754,0.01908952370285988
1772812189882446800,2.09244677734375,0.024663666263222694,0.009392046369612217,-0.008704823441803455
1772812189892147500,2.1021474609375,0.037491824477910995,0.004810560029000044,-0.009010255336761475
1772812189901848000,2.11184814453125,0.03993528336286545,0.003283398225903511,-0.0032070400193333626
1772812189911548400,2.12154833984375,0.026801692321896553,0.006948587018996477,0.006872228812426329
1772812189921248800,2.131248779296875,0.0057268571108579636,0.012140937149524689,0.016340631991624832
1772812189930949400,2.140949462890625,-0.00954476185142994,0.008170315995812416,0.016646064817905426
1772812189940649700,2.150649658203125,-0.012293653562664986,-0.0022143847309052944,0.011453714221715927
1772812189950350300,2.160350341796875,-0.004046979360282421,-0.01718057133257389,0.0007635809597559273
1772812189960051000,2.170051025390625,0.00755945174023509,-0.02237292192876339,-0.008704823441803455
1772812189969751300,2.179751220703125,0.01763872057199478,-0.01718057133257389,-0.012675444595515728
1772812189979452000,2.189451904296875,0.024663666263222694,-0.00954476185142994,-0.013286309316754341
1772812189989152300,2.19915234375,0.023136503994464874,-0.006490438245236874,-0.0102319847792387
1772812189998852900,2.208852783203125,0.021609341725707054,-0.00038179047987796366,-0.004428769461810589
1772812190008553200,2.21855322265625,0.02130390889942646,0.0023671009112149477,-0.004123337101191282
1772812190018253600,2.228253662109375,0.019471315667033195,-0.0022143847309052944,0.0001527161948615685
1772812190027954200,2.2379541015625,0.020082179456949234,-0.006185005884617567,0.007177661173045635
1772812190037654800,2.24765478515625,0.01824958436191082,-0.007406735327094793,0.016340631991624832
1772812190047355100,2.257355224609375,0.016416991129517555,-0.00038179047987796366,0.02519817277789116
1772812190057055700,2.2670556640625,0.014889828860759735,0.0029779658652842045,0.030695954337716103
1772812190066756000,2.276756103515625,0.013973532244563103,-0.006185005884617567,0.029474224895238876
1772812190076456700,2.286456787109375,0.012446369975805283,-0.014431680552661419,0.014813470654189587
1772812190086157000,2.296156982421875,0.015500693581998348,0.008781181648373604,0.001679878099821508
1772812190095857700,2.305857666015625,0.012140937149524689,0.0319940410554409,0.00045814859913662076
1772812190105558000,2.31555810546875,0.002672533504664898,0.02588539570569992,0.005039634648710489
1772812190115258600,2.325258544921875,-0.004963276442140341,0.004505127668380737,0.014508038759231567
1772812190124959000,2.334958984375,-0.0077121676877141,-0.015042545273900032,0.017256930470466614
1772812190134659600,2.34465966796875,-0.005268708802759647,-0.02328922040760517,0.011148282326757908
1772812190144360000,2.35435986328125,-0.0009926552884280682,-0.014737112447619438,0.007483093533664942
1772812190154060500,2.364060546875,0.000839939049910754,-0.006490438245236874,0.009621120058000088
1772812190163761000,2.373760986328125,-0.0006872228696011007,-0.0077121676877141,0.014202605932950974
1772812190173461500,2.38346142578125,-0.0006872228696011007,-0.006490438245236874,0.01695149764418602
1772812190183161900,2.393161865234375,0.0017562361899763346,0.0029779658652842045,0.012980876490473747
1772812190192862500,2.402862548828125,0.0035888305865228176,0.01611155830323696,0.012980876490473747
1772812190202563000,2.41256298828125,-0.002825249684974551,0.021914774551987648,0.018784092739224434
1772812190212263400,2.422263427734375,-0.013209951110184193,0.017944153398275375,0.027947064489126205
1772812190221963800,2.4319638671875,-0.015042545273900032,0.006337722297757864,0.033139415085315704
1772812190231664400,2.441664306640625,-0.01107192412018776,-0.0058795735239982605,0.02825249545276165
1772812190241364700,2.45136474609375,-0.005268708802759647,-0.01626427471637726,0.011453714221715927
1772812190251065300,2.4610654296875,0.0035888305865228176,-0.02237292192876339,-0.009926552884280682
1772812190260766000,2.470765869140625,0.011224640533328056,-0.03061959706246853,-0.0334448479115963
1772812190270466300,2.48046630859375,0.014889828860759735,-0.024510949850082397,-0.052687086164951324
1772812190280167000,2.4901669921875,0.012751801870763302,0.010613775812089443,-0.04505127668380737
1772812190289867300,2.4998671875,0.002672533504664898,0.026190826669335365,-0.016035201027989388
1772812190299567600,2.509567626953125,-0.008323032408952713,0.01763872057199478,0.01908952370285988
1772812190309268200,2.519268310546875,-0.015042545273900032,0.012140937149524689,0.04993819445371628
1772812190318968800,2.52896875,-0.019929463043808937,0.0035888305865228176,0.06276635825634003
1772812190328669200,2.538669189453125,-0.02023489587008953,-0.0034361144062131643,0.060322895646095276
1772812190338369800,2.548369873046875,-0.014126247726380825,-0.007101302966475487,0.044440411031246185
1772812190348070100,2.558070068359375,-0.01107192412018776,-0.010766491293907166,0.0206166859716177
1772812190357770800,2.567770751953125,-0.013515383005142212,-0.00038179047987796366,-0.003512472379952669
1772812190367471000,2.57747119140625,-0.014431680552661419,0.020387612283229828,-0.01847865991294384
1772812190377171700,2.587171630859375,-0.015042545273900032,0.0295505840331316,-0.013286309316754341
1772812190386872000,2.5968720703125,-0.019624030217528343,0.019471315667033195,-0.0001527161948615685
1772812190396572700,2.60657275390625,-0.030925029888749123,0.001450803829357028,0.006872228812426329
1772812190406273300,2.616273193359375,-0.03917170315980911,-0.0016035200096666813,-0.0001527161948615685
1772812190415973600,2.6259736328125,-0.043753188103437424,0.011224640533328056,-0.017562363296747208
1772812190425674000,2.635674072265625,-0.04405862092971802,0.008781181648373604,-0.04169152304530144
1772812190435374600,2.64537451171875,-0.030925029888749123,-0.00007635809743078426,-0.06337722390890121
1772812190445075000,2.655074951171875,-0.007101302966475487,0.00511599238961935,-0.07131846249103546
1772812190454775600,2.664775634765625,0.00603228947147727,0.026801692321896553,-0.05177079141139984
1772812190464476200,2.67447607421875,-0.0022143847309052944,0.03260490670800209,-0.008704823441803455
1772812190474176500,2.684176513671875,-0.01626427471637726,0.017027854919433594,0.037720900028944016
1772812190483877000,2.693877197265625,-0.019929463043808937,0.0035888305865228176,0.07254019379615784
1772812190493577500,2.703577392578125,-0.01565340906381607,-0.0022143847309052944,0.08414662629365921
1772812190503278000,2.713278076171875,-0.010766491293907166,-0.0077121676877141,0.0743727833032608
1772812190512978400,2.722978515625,-0.0019089524867013097,-0.01107192412018776,0.052687086164951324
1772812190522679000,2.732678955078125,0.005421424750238657,-0.008628465235233307,0.02916879393160343
1772812190532379400,2.74237939453125,0.008170315995812416,-0.013820815831422806,0.007177661173045635
1772812190542080000,2.752080078125,0.00755945174023509,-0.01718057133257389,-0.009621120058000088
1772812190551780400,2.7617802734375,0.012446369975805283,-0.015042545273900032,-0.024892739951610565
1772812190561481000,2.77148095703125,0.015500693581998348,-0.014126247726380825,-0.04016435891389847
1772812190571181300,2.781181396484375,0.013973532244563103,-0.007101302966475487,-0.04780016839504242
1772812190580882000,2.7908818359375,0.009086613543331623,0.002061668550595641,-0.04780016839504242
1772812190590582500,2.80058251953125,-0.004352411720901728,-0.002825249684974551,-0.04016435891389847
1772812190600283000,2.810282958984375,-0.01565340906381607,-0.010766491293907166,-0.028863361105322838
1772812190609983500,2.8199833984375,-0.016569707542657852,-0.011988221667706966,-0.031001387163996696
1772812190619683800,2.829683837890625,-0.010766491293907166,-0.008323032408952713,-0.040775224566459656
1772812190629384400,2.839384521484375,-0.0009926552884280682,0.002061668550595641,-0.05543597787618637
1772812190639084800,2.849084716796875,0.010613775812089443,0.015195261687040329,-0.06001746281981468
1772812190648785400,2.858785400390625,0.017333287745714188,0.00755945174023509,-0.0539088174700737
1772812190658485800,2.86848583984375,0.019471315667033195,-0.010461059398949146,-0.0386371985077858
1772812190668186400,2.878186279296875,0.017944153398275375,-0.01626427471637726,-0.02214384824037552
1772812190677886700,2.88788671875,0.014889828860759735,-0.015042545273900032,-0.005650499369949102
1772812190687587300,2.89758740234375,0.011530072428286076,-0.00954476185142994,0.008399390615522861
1772812190697288000,2.907287841796875,0.011224640533328056,0.001450803829357028,0.020922118797898293
1772812190706988300,2.91698828125,0.014584396965801716,0.013973532244563103,0.030695954337716103
1772812190716689000,2.92668896484375,0.021609341725707054,0.019471315667033195,0.041386090219020844
1772812190726389200,2.93638916015625,0.025274530053138733,0.0191658828407526,0.05085449293255806
1772812190736089600,2.946089599609375,0.023747367784380913,0.012140937149524689,0.06062832847237587
1772812190745790200,2.955790283203125,0.021914774551987648,-0.0009926552884280682,0.06368265300989151
1772812190755490800,2.96549072265625,0.023747367784380913,-0.0031306820455938578,0.06123919412493706
1772812190765191200,2.975191162109375,0.027717988938093185,0.008170315995812416,0.05177079141139984
1772812190774891800,2.984891845703125,0.027717988938093185,0.014889828860759735,0.03558287397027016
1772812190784592100,2.994592041015625,0.023136503994464874,0.01763872057199478,0.016035201027989388
1772812190794292700,3.004292724609375,0.018860450014472008,0.017027854919433594,-0.0019853105768561363
1772812190803993000,3.0139931640625,0.01763872057199478,0.008170315995812416,-0.02000582218170166
1772812190813693700,3.023693603515625,0.023136503994464874,-0.0058795735239982605,-0.04169152304530144
1772812190823394300,3.033394287109375,0.0319940410554409,-0.010766491293907166,-0.06307178735733032
1772812190833094700,3.0430947265625,0.035964664071798325,-0.013820815831422806,-0.08261945843696594
1772812190842795300,3.052795166015625,0.03260490670800209,-0.010766491293907166,-0.09605848789215088
1772812190852495600,3.06249560546875,0.02893971838057041,-0.0012980876490473747,-0.09575305134057999
1772812190862196200,3.0721962890625,0.026190826669335365,-0.00038179047987796366,-0.0850629210472107
1772812190871896600,3.081896484375,0.020693045109510422,0.0029779658652842045,-0.07009673118591309
1772812190881597200,3.09159716796875,0.009086613543331623,0.02130390889942646,-0.052076224237680435
1772812190891297500,3.101297607421875,-0.008323032408952713,0.043600473552942276,-0.03252854943275452
1772812190900998100,3.110998046875,-0.026038112118840218,0.0527634471654892,-0.011148282326757908
1772812190910698500,3.120698486328125,-0.038560837507247925,0.04512763395905495,0.01847865991294384
1772812190920399000,3.130399169921875,-0.04039343446493149,0.025274530053138733,0.043829549103975296
1772812190930099700,3.140099609375,-0.028787001967430115,0.006948587018996477,0.06062832847237587
1772812190939800000,3.149800048828125,-0.01259908638894558,0.002672533504664898,0.0743727833032608
1772812190959201000,3.169200927734375,0.007254019379615784,0.009392046369612217,0.07864884287118912
1772812190968901600,3.178901611328125,0.014278964139521122,0.0057268571108579636,0.07162389904260635
1772812190978602000,3.18860205078125,0.021914774551987648,0.0011453714687377214,0.06123919412493706
1772812190988302600,3.198302490234375,0.030161447823047638,-0.004046979360282421,0.042913250625133514
1772812190998003000,3.2080029296875,0.03840812295675278,0.0005345066892914474,0.02519817277789116
1772812191007703600,3.21770361328125,0.042073313146829605,0.012751801870763302,0.011148282326757908
1772812191017404000,3.22740380859375,0.03810269013047218,0.012140937149524689,0.002901607658714056
1772812191027104500,3.2371044921875,0.03474293276667595,0.009697478264570236,0.003512472379952669
1772812191036805000,3.24680517578125,0.027107125148177147,0.0005345066892914474,-0.0010690133785828948
1772812191046505500,3.25650537109375,0.01824958436191082,-0.01107192412018776,-0.008399390615522861
1772812191056206000,3.2662060546875,0.015195261687040329,-0.012904518283903599,-0.02367101050913334
1772812191065906400,3.275906494140625,0.012751801870763302,-0.004657844081521034,-0.0383317656815052
1772812191075606800,3.285606689453125,0.010613775812089443,0.003283398225903511,-0.052076224237680435
1772812191085307400,3.295307373046875,0.008781181648373604,0.01000291109085083,-0.053603384643793106
1772812191095008000,3.305008056640625,0.0017562361899763346,0.00847574882209301,-0.044440411031246185
1772812191104708400,3.314708251953125,-0.007406735327094793,0.006337722297757864,-0.03283398225903511
1772812191114409000,3.324408935546875,-0.015347977168858051,0.00847574882209301,-0.021838415414094925
1772812191124109300,3.334109375,-0.018096869811415672,0.012751801870763302,-0.016340631991624832
1772812191133810000,3.343809814453125,-0.015042545273900032,0.012751801870763302,-0.012370011769235134
1772812191143510500,3.353510498046875,-0.008933897130191326,0.011530072428286076,-0.006566796451807022
1772812191153211000,3.3632109375,-0.003741546766832471,0.002672533504664898,-0.002901607658714056
1772812191162911500,3.372911376953125,-0.0019089524867013097,0.0017562361899763346,0.0019853105768561363
1772812191172611800,3.38261181640625,-0.002825249684974551,0.007864884100854397,0.0032070400193333626
1772812191182312400,3.3923125,-0.004963276442140341,0.009392046369612217,0.0007635809597559273
1772812191192012800,3.4020126953125,0.0023671009112149477,0.011224640533328056,-0.004428769461810589
1772812191201713400,3.41171337890625,0.015500693581998348,0.013668099418282509,-0.010537417605519295
1772812191211413800,3.421413818359375,0.020082179456949234,0.006337722297757864,-0.012980876490473747
1772812191221114400,3.4311142578125,0.01824958436191082,-0.004046979360282421,-0.011759147047996521
1772812191230814700,3.440814697265625,0.011224640533328056,-0.010461059398949146,-0.007177661173045635
1772812191240515300,3.450515380859375,0.001450803829357028,-0.00923932995647192,-0.0013744457392022014
1772812191250216000,3.4602158203125,-0.004352411720901728,-0.006185005884617567,0.004734201822429895
1772812191259916300,3.469916259765625,-0.0019089524867013097,-0.003741546766832471,0.010842849500477314
1772812191269617000,3.479616943359375,0.006337722297757864,0.004810560029000044,0.01847865991294384
1772812191279317200,3.489317138671875,0.012446369975805283,0.005421424750238657,0.02458730712532997
1772812191289017900,3.499017822265625,0.010919207707047462,-0.0025198173243552446,0.02611446939408779
1772812191298718500,3.508718505859375,0.011224640533328056,-0.0012980876490473747,0.02367101050913334
1772812191308418800,3.518418701171875,0.013057234697043896,0.006337722297757864,0.016646064817905426
1772812191318119400,3.528119384765625,0.011530072428286076,0.00022907429956831038,0.008399390615522861
1772812191327819800,3.53781982421875,0.010919207707047462,-0.00954476185142994,0.0001527161948615685
1772812191337520400,3.547520263671875,0.01672242395579815,-0.006185005884617567,-0.0032070400193333626
1772812191347220700,3.557220703125,0.016416991129517555,-0.004352411720901728,-0.008399390615522861
1772812191356921300,3.56692138671875,0.011224640533328056,-0.0022143847309052944,-0.011453714221715927
1772812191366621700,3.57662158203125,0.0011453714687377214,0.0066431546583771706,-0.014813470654189587
1772812191376322300,3.586322265625,-0.008323032408952713,0.00755945174023509,-0.020922118797898293
1772812191386022700,3.596022705078125,-0.01565340906381607,-0.00038179047987796366,-0.03130681812763214
1772812191395723300,3.60572314453125,-0.014737112447619438,0.00022907429956831038,-0.042913250625133514
1772812191405423900,3.615423828125,-0.00679587060585618,0.007254019379615784,-0.049632761627435684
1772812191415124200,3.625124267578125,0.0005345066892914474,0.003894262947142124,-0.0487164668738842
1772812191424824800,3.634824951171875,0.00755945174023509,-0.004352411720901728,-0.03588830679655075
1772812191434525200,3.644525146484375,0.008170315995812416,-0.0025198173243552446,-0.013897174037992954
1772812191444225800,3.654225830078125,0.002061668550595641,0.00022907429956831038,0.005650499369949102
1772812191453926400,3.663926513671875,-0.0016035200096666813,0.0066431546583771706,0.022449281066656113
1772812191463626800,3.673626708984375,-0.0025198173243552446,0.01672242395579815,0.03130681812763214
1772812191473327000,3.6833271484375,-0.008017600513994694,0.019471315667033195,0.03283398225903511
1772812191483027700,3.69302783203125,-0.010155626572668552,0.020998476073145866,0.03191768378019333
1772812191492728300,3.702728271484375,-0.010766491293907166,0.009697478264570236,0.030390523374080658
1772812191502428700,3.7124287109375,-0.015958841890096664,-0.00923932995647192,0.023976443335413933
1772812191512129300,3.72212939453125,-0.019929463043808937,-0.015958841890096664,0.01908952370285988
1772812191521829600,3.73182958984375,-0.021151192486286163,-0.00923932995647192,0.011453714221715927
1772812191531530200,3.7415302734375,-0.02237292192876339,0.003894262947142124,0.0025961752980947495
1772812191541230800,3.75123095703125,-0.022983787581324577,0.00603228947147727,-0.005955931730568409
1772812191550931200,3.76093115234375,-0.016569707542657852,0.004505127668380737,-0.013286309316754341
1772812191560631800,3.7706318359375,-0.010461059398949146,0.00511599238961935,-0.020311253145337105
1772812191570332200,3.780332275390625,-0.006490438245236874,0.0035888305865228176,-0.020922118797898293
1772812191580032800,3.79003271484375,-0.004657844081521034,0.002672533504664898,-0.020311253145337105
1772812191589733000,3.799733154296875,-0.0009926552884280682,0.003283398225903511,-0.012370011769235134
1772812191599433700,3.809433837890625,0.003894262947142124,0.003283398225903511,0.0007635809597559273
1772812191609134000,3.819134033203125,0.009697478264570236,-0.0022143847309052944,0.0102319847792387
1772812191618834700,3.828834716796875,0.011530072428286076,-0.005574141163378954,0.014508038759231567
1772812191628535300,3.838535400390625,0.013668099418282509,-0.007406735327094793,0.012980876490473747
1772812191638235600,3.848235595703125,0.01824958436191082,-0.003741546766832471,0.009926552884280682
1772812191647936300,3.857936279296875,0.020998476073145866,0.0011453714687377214,0.008399390615522861
1772812191657636600,3.86763671875,0.01824958436191082,-0.00007635809743078426,0.007177661173045635
1772812191667337200,3.877337158203125,0.01183550525456667,-0.0012980876490473747,0.011453714221715927
1772812191677037800,3.887037841796875,0.004505127668380737,0.0005345066892914474,0.012980876490473747
1772812191686738200,3.89673828125,0.004199695307761431,0.0023671009112149477,0.011759147047996521
1772812191696438800,3.906438720703125,0.01000291109085083,0.0023671009112149477,0.010537417605519295
1772812191706139100,3.91613916015625,0.013973532244563103,-0.00038179047987796366,0.011148282326757908
1772812191715839700,3.92583984375,0.015500693581998348,-0.0034361144062131643,0.009010255336761475
1772812191725540000,3.9355400390625,0.013668099418282509,-0.00679587060585618,0.0062613640911877155
1772812191735240700,3.94524072265625,0.00755945174023509,-0.006490438245236874,0.001679878099821508
1772812191744941000,3.954941162109375,0.00603228947147727,-0.004657844081521034,-0.004734201822429895
1772812191754641700,3.9646416015625,0.006948587018996477,-0.007406735327094793,-0.011759147047996521
1772812191764342300,3.97434228515625,0.009697478264570236,-0.004963276442140341,-0.012675444595515728
1772812191774042600,3.984042724609375,0.012751801870763302,0.00022907429956831038,-0.01206457894295454
1772812191783743200,3.9937431640625,0.012446369975805283,-0.0016035200096666813,-0.009010255336761475
1772812191793443600,4.003443603515625,0.00755945174023509,-0.0058795735239982605,-0.005955931730568409
1772812191803144200,4.013144287109375,0.003283398225903511,-0.009850194677710533,-0.007483093533664942
1772812191812844500,4.022844482421875,0.0029779658652842045,-0.012293653562664986,-0.013897174037992954
1772812191822545200,4.032545166015625,0.00511599238961935,-0.00679587060585618,-0.0154243353754282
1772812191832245800,4.042245849609375,0.00511599238961935,0.00511599238961935,-0.014202605932950974
1772812191841946000,4.051946044921875,-0.004046979360282421,0.012446369975805283,-0.0062613640911877155
1772812191851646700,4.061646728515625,-0.01565340906381607,0.007254019379615784,-0.005345067009329796
1772812191861347000,4.07134716796875,-0.02390008419752121,-0.0034361144062131643,-0.009621120058000088
1772812191871047700,4.081047607421875,-0.02756527252495289,-0.01107192412018776,-0.022754713892936707
1772812191880748000,4.090748046875,-0.02237292192876339,-0.013820815831422806,-0.04016435891389847
1772812191890448600,4.10044873046875,-0.011988221667706966,-0.00954476185142994,-0.05329795181751251
1772812191900149200,4.110149169921875,0.002672533504664898,-0.006490438245236874,-0.05299251899123192
1772812191909849600,4.119849609375,0.012140937149524689,-0.012293653562664986,-0.04108065739274025
1772812191919550200,4.12955029296875,0.013362666592001915,-0.018402300775051117,-0.028557928279042244
1772812191929250600,4.13925048828125,0.014889828860759735,-0.00954476185142994,-0.011453714221715927
1772812191938951200,4.148951171875,0.015806125476956367,-0.00038179047987796366,0.0019853105768561363
1772812191948651800,4.15865185546875,0.017027854919433594,0.0029779658652842045,0.013286309316754341
1772812191958352100,4.16835205078125,0.017027854919433594,0.004505127668380737,0.02458730712532997
1772812191968052700,4.178052734375,0.012140937149524689,0.0011453714687377214,0.03741546720266342
1772812191977753000,4.187753173828125,0.0035888305865228176,-0.0058795735239982605,0.04841103404760361
1772812191987453700,4.19745361328125,-0.0025198173243552446,-0.008628465235233307,0.052687086164951324
1772812191997154300,4.207154296875,-0.0034361144062131643,-0.006490438245236874,0.046883873641490936
1772812192006854700,4.216854736328125,-0.004657844081521034,-0.0006872228696011007,0.03558287397027016
1772812192016555300,4.22655517578125,-0.0058795735239982605,0.0011453714687377214,0.02519817277789116
1772812192026255600,4.236255615234375,-0.006490438245236874,-0.0012980876490473747,0.01511890348047018
1772812192045656600,4.255656494140625,-0.0077121676877141,0.0005345066892914474,0.0001527161948615685
1772812192055357200,4.265357177734375,-0.006185005884617567,0.00022907429956831038,-0.005039634648710489
1772812192065057500,4.2750576171875,-0.003741546766832471,-0.002825249684974551,-0.008704823441803455
1772812192074758100,4.284758056640625,0.001450803829357028,-0.006490438245236874,-0.010842849500477314
1772812192084458800,4.294458740234375,0.006337722297757864,-0.007406735327094793,-0.009926552884280682
1772812192094159000,4.3041591796875,0.009392046369612217,-0.010461059398949146,-0.004428769461810589
1772812192103859700,4.313859619140625,0.012751801870763302,-0.011377356946468353,0.005345067009329796
1772812192113560000,4.32356005859375,0.010613775812089443,-0.0058795735239982605,0.015729768201708794
1772812192123260700,4.3332607421875,0.004810560029000044,-0.0012980876490473747,0.024892739951610565
1772812192132961300,4.342961181640625,-0.0006872228696011007,-0.003741546766832471,0.02764163166284561
1772812192142661600,4.35266162109375,-0.0031306820455938578,-0.00007635809743078426,0.02916879393160343
1772812192152362200,4.3623623046875,0.0005345066892914474,0.00511599238961935,0.026419902220368385
1772812192162062600,4.3720625,0.003894262947142124,0.0035888305865228176,0.0206166859716177
1772812192171763200,4.38176318359375,0.0035888305865228176,-0.0025198173243552446,0.0154243353754282
1772812192181463600,4.391463623046875,0.001450803829357028,-0.00954476185142994,0.008093958720564842
1772812192191164200,4.4011640625,-0.0022143847309052944,-0.015042545273900032,-0.004734201822429895
1772812192200864800,4.41086474609375,-0.0034361144062131643,-0.010461059398949146,-0.014202605932950974
1772812192210565000,4.420565185546875,-0.0009926552884280682,-0.0031306820455938578,-0.018173227086663246
1772812192220265700,4.430265625,-0.0022143847309052944,-0.0009926552884280682,-0.016340631991624832
1772812192229966000,4.439966064453125,-0.004046979360282421,-0.008628465235233307,-0.014202605932950974
1772812192239666700,4.449666748046875,-0.0009926552884280682,-0.009850194677710533,-0.010537417605519295
1772812192249367300,4.4593671875,0.002061668550595641,-0.008323032408952713,-0.006566796451807022
1772812192259067600,4.469067626953125,0.0029779658652842045,-0.004657844081521034,0.0013744457392022014
1772812192268768300,4.478768310546875,-0.0019089524867013097,0.0005345066892914474,0.012675444595515728
1772812192278468600,4.488468505859375,-0.009850194677710533,0.003283398225903511,0.024281874299049377
1772812192288169200,4.498169189453125,-0.013515383005142212,-0.00007635809743078426,0.03130681812763214
1772812192297869800,4.507869873046875,-0.004352411720901728,-0.0016035200096666813,0.030390523374080658
1772812192307570200,4.517570068359375,0.007864884100854397,0.001450803829357028,0.02458730712532997
1772812192317270800,4.527270751953125,0.012751801870763302,0.00511599238961935,0.019394956529140472
1772812192326971100,4.53697119140625,0.004810560029000044,0.0011453714687377214,0.017562363296747208
1772812192336671700,4.546671630859375,-0.00679587060585618,-0.002825249684974551,0.011453714221715927
1772812192346372000,4.5563720703125,-0.013820815831422806,-0.00679587060585618,-0.003512472379952669
1772812192356072700,4.56607275390625,-0.015042545273900032,-0.00007635809743078426,-0.01847865991294384
1772812192365773300,4.575773193359375,-0.00954476185142994,0.004505127668380737,-0.03252854943275452
1772812192375473700,4.5854736328125,-0.0019089524867013097,0.002061668550595641,-0.03558287397027016
1772812192385174300,4.59517431640625,0.0023671009112149477,-0.0019089524867013097,-0.02519817277789116
1772812192394874600,4.60487451171875,0.004199695307761431,-0.00923932995647192,-0.009010255336761475
1772812192404575200,4.6145751953125,0.006948587018996477,-0.008017600513994694,0.0038179049734026194
1772812192414275800,4.62427587890625,0.01030834298580885,-0.004657844081521034,0.009010255336761475
1772812192423976200,4.63397607421875,0.011530072428286076,-0.006490438245236874,0.008704823441803455
1772812192433676800,4.6436767578125,0.009697478264570236,-0.0077121676877141,0.007177661173045635
1772812192443377400,4.65337744140625,0.008170315995812416,-0.0022143847309052944,0.005650499369949102
1772812192453077800,4.663077880859375,0.004505127668380737,0.006337722297757864,0.006872228812426329
1772812192462778400,4.6727783203125,0.001450803829357028,0.002672533504664898,0.007788525894284248
1772812192472478700,4.682478759765625,0.001450803829357028,0.000839939049910754,0.011759147047996521
1772812192482179300,4.692179443359375,-0.0006872228696011007,0.002061668550595641,0.015729768201708794
1772812192491880000,4.7018798828125,-0.006185005884617567,-0.004963276442140341,0.018173227086663246
1772812192501580300,4.711580322265625,-0.010155626572668552,-0.00954476185142994,0.01695149764418602
1772812192511280600,4.72128076171875,-0.012904518283903599,-0.006185005884617567,0.011148282326757908
1772812192520981200,4.730981201171875,-0.016569707542657852,-0.00038179047987796366,0.004428769461810589
1772812192530681900,4.740681884765625,-0.0193185992538929,-0.00007635809743078426,-0.0062613640911877155
1772812192540382200,4.75038232421875,-0.015958841890096664,0.0017562361899763346,-0.011148282326757908
1772812192550082800,4.760082763671875,-0.013209951110184193,-0.0016035200096666813,-0.012675444595515728
1772812192559783400,4.769783447265625,-0.011988221667706966,-0.004657844081521034,-0.010537417605519295
1772812192569483800,4.77948388671875,-0.008933897130191326,-0.0009926552884280682,-0.004734201822429895
1772812192579184400,4.789184326171875,-0.0058795735239982605,-0.0031306820455938578,-0.004123337101191282
1772812192588884700,4.798884765625,-0.0009926552884280682,-0.0016035200096666813,-0.005039634648710489
1772812192598585300,4.80858544921875,0.004199695307761431,0.01000291109085083,-0.004428769461810589
1772812192608286000,4.818285888671875,0.0035888305865228176,0.01000291109085083,-0.0013744457392022014
1772812192617986300,4.827986328125,0.00603228947147727,0.0011453714687377214,0.0013744457392022014
1772812192627687000,4.83768701171875,0.012446369975805283,-0.00923932995647192,0.0032070400193333626
1772812192637387300,4.84738720703125,0.015195261687040329,-0.014431680552661419,0.0013744457392022014
1772812192647087900,4.857087890625,0.014889828860759735,-0.017486004158854485,-0.005039634648710489
1772812192656788500,4.86678857421875,0.014278964139521122,-0.013820815831422806,-0.015729768201708794
1772812192666488800,4.87648876953125,0.013057234697043896,-0.003741546766832471,-0.0206166859716177
1772812192676189400,4.886189453125,0.009697478264570236,0.002672533504664898,-0.02000582218170166
1772812192685890000,4.89589013671875,0.0066431546583771706,0.001450803829357028,-0.015729768201708794
1772812192695590400,4.90559033203125,0.0035888305865228176,0.00511599238961935,-0.007483093533664942
1772812192705290800,4.915290771484375,-0.003741546766832471,0.008170315995812416,-0.0007635809597559273
1772812192714991400,4.924991455078125,-0.014126247726380825,0.009086613543331623,0.007177661173045635
1772812192724692000,4.93469189453125,-0.021456625312566757,0.007864884100854397,0.013897174037992954
1772812192734392300,4.944392333984375,-0.022983787581324577,0.000839939049910754,0.0154243353754282
1772812192744093000,4.954093017578125,-0.01870773360133171,-0.0016035200096666813,0.0102319847792387
1772812192753793500,4.96379345703125,-0.008933897130191326,-0.00007635809743078426,-0.006872228812426329
1772812192763494000,4.973493896484375,-0.0012980876490473747,0.003894262947142124,-0.019700389355421066
1772812192773194500,4.983194580078125,0.0029779658652842045,0.005421424750238657,-0.025809036567807198
1772812192782894800,4.992894775390625,0.00847574882209301,0.003894262947142124,-0.021838415414094925
1772812192792595500,5.002595458984375,0.013057234697043896,-0.008933897130191326,-0.011148282326757908
1772812192802296000,5.012296142578125,0.011530072428286076,-0.024816380813717842,-0.00045814859913662076
1772812192811996400,5.021996337890625,0.00511599238961935,-0.03061959706246853,0.009010255336761475
1772812192821697000,5.031697021484375,-0.0025198173243552446,-0.02695440873503685,0.0032070400193333626
1772812192831397600,5.041397705078125,-0.010155626572668552,-0.013820815831422806,-0.007788525894284248
1772812192841098000,5.051097900390625,-0.016569707542657852,-0.0009926552884280682,-0.017256930470466614
1772812192850798600,5.060798583984375,-0.015042545273900032,-0.00038179047987796366,-0.02153298258781433
1772812192860499000,5.0704990234375,-0.008933897130191326,-0.0009926552884280682,-0.011453714221715927
1772812192870199600,5.080199462890625,-0.006185005884617567,-0.011988221667706966,-0.0038179049734026194
1772812192879900200,5.089900146484375,-0.0016035200096666813,-0.025732679292559624,0.0013744457392022014
1772812192889600500,5.0996005859375,0.004810560029000044,-0.02390008419752121,0.003512472379952669
1772812192899301000,5.109301025390625,0.01030834298580885,-0.016875140368938446,0.002290742937475443
1772812192909001500,5.11900146484375,0.01672242395579815,-0.01107192412018776,-0.0013744457392022014
1772812192918702000,5.1287021484375,0.020387612283229828,-0.006185005884617567,-0.0007635809597559273
1772812192928402400,5.13840234375,0.018555017188191414,-0.01107192412018776,0.001679878099821508
1772812192938103000,5.14810302734375,0.013362666592001915,-0.01565340906381607,0.004428769461810589
1772812192947803600,5.1578037109375,0.009697478264570236,-0.013515383005142212,0.0025961752980947495
1772812192957504000,5.16750390625,0.011224640533328056,-0.008017600513994694,-0.0019853105768561363
1772812192967204600,5.17720458984375,0.009697478264570236,-0.007406735327094793,-0.0062613640911877155
1772812192976905200,5.1869052734375,0.004810560029000044,-0.01107192412018776,-0.009621120058000088
1772812192986605600,5.19660546875,-0.0006872228696011007,-0.005574141163378954,-0.01206457894295454
1772812192996306200,5.20630615234375,-0.0058795735239982605,0.00022907429956831038,-0.011759147047996521
1772812193006006500,5.216006591796875,-0.010155626572668552,-0.0022143847309052944,-0.013897174037992954
1772812193015707100,5.22570703125,-0.01107192412018776,-0.005574141163378954,-0.01511890348047018
1772812193025407700,5.23540771484375,-0.008628465235233307,-0.003741546766832471,-0.017562363296747208
1772812193035108000,5.245108154296875,-0.0077121676877141,-0.008628465235233307,-0.022449281066656113
1772812193044808700,5.25480859375,-0.00679587060585618,-0.01107192412018776,-0.023976443335413933
1772812193054509300,5.26450927734375,-0.002825249684974551,-0.010155626572668552,-0.025503603741526604
1772812193064209700,5.274209716796875,0.000839939049910754,-0.004046979360282421,-0.02306014485657215
1772812193073910000,5.283909912109375,0.007864884100854397,0.001450803829357028,-0.016340631991624832
1772812193083610600,5.293610595703125,0.013668099418282509,-0.0009926552884280682,-0.006872228812426329
1772812193093311200,5.303311279296875,0.017027854919433594,-0.004963276442140341,0.0019853105768561363
1772812193103011600,5.313011474609375,0.021914774551987648,-0.006185005884617567,0.013897174037992954
1772812193112712200,5.322712158203125,0.021609341725707054,-0.018402300775051117,0.021227551624178886
1772812193122412800,5.332412841796875,0.014584396965801716,-0.023594651371240616,0.02367101050913334
1772812193132113200,5.342113037109375,0.01030834298580885,-0.012904518283903599,0.024281874299049377
1772812193141813800,5.351813720703125,0.0035888305865228176,-0.0022143847309052944,0.017256930470466614
1772812193151514000,5.36151416015625,-0.00007635809743078426,0.00022907429956831038,0.01206457894295454
1772812193161214700,5.371214599609375,0.003894262947142124,-0.00007635809743078426,0.010537417605519295
1772812193170915300,5.380915283203125,0.00603228947147727,-0.005574141163378954,0.009010255336761475
1772812193180615700,5.39061572265625,-0.00038179047987796366,-0.007101302966475487,0.007483093533664942
1772812193190316300,5.40031640625,-0.004963276442140341,-0.0034361144062131643,-0.0001527161948615685
1772812193200017000,5.410016845703125,-0.005574141163378954,0.000839939049910754,-0.010537417605519295
1772812193209717200,5.41971728515625,-0.0022143847309052944,0.000839939049910754,-0.019700389355421066
1772812193219417900,5.42941796875,0.002061668550595641,-0.00038179047987796366,-0.022754713892936707
1772812193229118500,5.439118408203125,0.003283398225903511,-0.0058795735239982605,-0.02367101050913334
1772812193238818800,5.44881884765625,0.0023671009112149477,-0.0009926552884280682,-0.018173227086663246
1772812193248519400,5.45851953125,0.003283398225903511,0.004199695307761431,-0.009315688163042068
1772812193258219800,5.4682197265625,0.005421424750238657,-0.00007635809743078426,-0.002901607658714056
1772812193267920400,5.47792041015625,0.008170315995812416,0.005421424750238657,0.003512472379952669
1772812193277621000,5.48762109375,0.00847574882209301,0.015500693581998348,0.010842849500477314
1772812193287321300,5.4973212890625,0.004505127668380737,0.01611155830323696,0.018173227086663246
1772812193297022000,5.50702197265625,0.002061668550595641,0.009697478264570236,0.024281874299049377
1772812193306722300,5.516722412109375,0.007254019379615784,0.0017562361899763346,0.02611446939408779
1772812193316423000,5.5264228515625,0.010919207707047462,-0.0019089524867013097,0.024892739951610565
1772812193326123500,5.53612353515625,0.007864884100854397,-0.00038179047987796366,0.01695149764418602
1772812193335824000,5.545823974609375,-0.0019089524867013097,0.002672533504664898,0.007177661173045635
1772812193345524500,5.5555244140625,-0.01107192412018776,0.00511599238961935,-0.009315688163042068
1772812193355224800,5.565224853515625,-0.013820815831422806,0.0066431546583771706,-0.027336198836565018
1772812193364925400,5.574925537109375,-0.00923932995647192,0.009392046369612217,-0.0386371985077858
1772812193374626000,5.5846259765625,-0.0022143847309052944,0.00847574882209301,-0.039858926087617874
1772812193384326400,5.594326416015625,0.00022907429956831038,-0.0006872228696011007,-0.03222311660647392
1772812193394027000,5.604027099609375,0.00511599238961935,-0.010766491293907166,-0.021227551624178886
1772812193403727600,5.6137275390625,0.009392046369612217,-0.012904518283903599,-0.009010255336761475
1772812193413428000,5.623427978515625,0.01183550525456667,-0.007101302966475487,-0.002290742937475443
1772812193423128600,5.633128662109375,0.013057234697043896,-0.0016035200096666813,0.0010690133785828948
1772812193432829200,5.6428291015625,0.015806125476956367,0.003283398225903511,0.006566796451807022
1772812193442529500,5.652529541015625,0.01824958436191082,0.01183550525456667,0.01359174121171236
1772812193452230100,5.662230224609375,0.017027854919433594,0.014584396965801716,0.022754713892936707
1772812193461930500,5.671930419921875,0.014584396965801716,0.0066431546583771706,0.027336198836565018
1772812193471631000,5.681631103515625,0.015195261687040329,0.004505127668380737,0.027947064489126205
1772812193481331700,5.691331787109375,0.017027854919433594,0.0035888305865228176,0.02153298258781433
1772812193491032000,5.701031982421875,0.020387612283229828,0.000839939049910754,0.006872228812426329
1772812193500732700,5.710732666015625,0.023441936820745468,-0.00038179047987796366,-0.004734201822429895
1772812193510433300,5.720433349609375,0.02496909722685814,-0.008933897130191326,-0.01847865991294384
1772812193520133600,5.730133544921875,0.023747367784380913,-0.008017600513994694,-0.02672533318400383
1772812193529834200,5.739834228515625,0.0191658828407526,0.0011453714687377214,-0.03283398225903511
1772812193539534800,5.749534912109375,0.012446369975805283,0.010919207707047462,-0.03222311660647392
1772812193549235200,5.759235107421875,0.0011453714687377214,0.012446369975805283,-0.022449281066656113
1772812193558935600,5.768935546875,-0.00679587060585618,0.011530072428286076,-0.005039634648710489
1772812193568636200,5.77863623046875,-0.013515383005142212,0.011224640533328056,0.013897174037992954
1772812193578336800,5.788336669921875,-0.018402300775051117,0.00755945174023509,0.02672533318400383
1772812193588037000,5.798037109375,-0.016569707542657852,0.00511599238961935,0.03130681812763214
1772812193597737700,5.80773779296875,-0.0077121676877141,0.009697478264570236,0.03130681812763214
1772812193607438300,5.817438232421875,-0.0006872228696011007,0.010613775812089443,0.027030766010284424
1772812193617138700,5.827138671875,0.00603228947147727,0.002672533504664898,0.02306014485657215
1772812193626839300,5.83683935546875,0.008781181648373604,-0.0031306820455938578,0.01908952370285988
1772812193636540000,5.846539794921875,0.009086613543331623,-0.0019089524867013097,0.016340631991624832
1772812193646240300,5.856240234375,0.011530072428286076,0.001450803829357028,0.014813470654189587
1772812193655940900,5.86594091796875,0.017944153398275375,0.00022907429956831038,0.012370011769235134
1772812193665641500,5.875641357421875,0.026190826669335365,-0.0006872228696011007,0.014202605932950974
1772812193675341800,5.885341796875,0.030466880649328232,-0.0025198173243552446,0.013286309316754341
1772812193685042400,5.89504248046875,0.030466880649328232,-0.009850194677710533,0.012675444595515728
1772812193694742800,5.90474267578125,0.0295505840331316,-0.013820815831422806,0.008093958720564842
1772812193704443400,5.914443359375,0.02496909722685814,-0.011682788841426373,-0.0025961752980947495
1772812193714144000,5.92414404296875,0.021914774551987648,-0.010155626572668552,-0.01206457894295454
1772812193723844400,5.93384423828125,0.022525638341903687,-0.013209951110184193,-0.017562363296747208
1772812193733545000,5.943544921875,0.02649625949561596,-0.024816380813717842,-0.01847865991294384
1772812193743245600,5.95324560546875,0.03168861195445061,-0.02909243479371071,-0.016340631991624832
1772812193752946000,5.96294580078125,0.035964664071798325,-0.024816380813717842,-0.01695149764418602
1772812193762646500,5.972646484375,0.032910339534282684,-0.008628465235233307,-0.011759147047996521
1772812193772347100,5.98234716796875,0.023136503994464874,0.006337722297757864,-0.00045814859913662076
1772812193782047500,5.992047607421875,0.008170315995812416,0.00847574882209301,0.014202605932950974
1772812193791748000,6.001748046875,-0.0016035200096666813,0.005421424750238657,0.02916879393160343
1772812193801448400,6.011448486328125,-0.0016035200096666813,0.002061668550595641,0.0386371985077858
1772812193811149000,6.021149169921875,0.002672533504664898,-0.004046979360282421,0.03711003437638283
1772812193820849400,6.030849365234375,0.013362666592001915,-0.011988221667706966,0.026419902220368385
1772812193830550000,6.040550048828125,0.024663666263222694,-0.011377356946468353,0.017562363296747208
1772812193840250600,6.050250732421875,0.02496909722685814,-0.006490438245236874,0.011453714221715927
1772812193849951000,6.059950927734375,0.011224640533328056,-0.007101302966475487,0.005345067009329796
1772812193859651600,6.069651611328125,-0.0012980876490473747,-0.008933897130191326,-0.004734201822429895
1772812193869352200,6.079352294921875,-0.00038179047987796366,0.0029779658652842045,-0.0154243353754282
1772812193879052500,6.089052490234375,0.003894262947142124,0.0035888305865228176,-0.02764163166284561
1772812193888753200,6.098753173828125,0.01183550525456667,-0.00679587060585618,-0.0386371985077858
1772812193898453800,6.108453857421875,0.020693045109510422,-0.010155626572668552,-0.03802633285522461
1772812193908154000,6.118154052734375,0.02283107116818428,-0.005268708802759647,-0.033139415085315704
1772812193917854700,6.127854736328125,0.018555017188191414,-0.00038179047987796366,-0.02519817277789116
1772812193927555300,6.137555419921875,0.017944153398275375,-0.00007635809743078426,-0.016646064817905426
1772812193937255700,6.147255615234375,0.020693045109510422,0.0057268571108579636,-0.008704823441803455
1772812193946956300,6.156956298828125,0.023747367784380913,0.013668099418282509,0.0025961752980947495
1772812193956657000,6.166656982421875,0.021914774551987648,0.01000291109085083,0.010842849500477314
1772812193966357200,6.176357177734375,0.017944153398275375,0.002672533504664898,0.017256930470466614
1772812193976057900,6.186057861328125,0.015195261687040329,-0.0016035200096666813,0.016646064817905426
1772812193985758500,6.195758544921875,0.020998476073145866,0.012751801870763302,0.013286309316754341
1772812193995458800,6.205458740234375,0.014584396965801716,-0.007406735327094793,-0.005345067009329796
1772812194005159400,6.215159423828125,0.011530072428286076,-0.01626427471637726,-0.021838415414094925
1772812194014859800,6.22485986328125,0.01763872057199478,-0.0009926552884280682,-0.02672533318400383
1772812194024560400,6.234560302734375,0.013668099418282509,-0.00038179047987796366,-0.028863361105322838
1772812194034261000,6.244260986328125,0.006337722297757864,0.0017562361899763346,-0.02458730712532997
1772812194043961300,6.25396142578125,0.003283398225903511,0.011224640533328056,-0.012980876490473747
1772812194053662000,6.263661865234375,-0.002825249684974551,0.018555017188191414,0.0038179049734026194
1772812194063362300,6.2733623046875,-0.01107192412018776,0.014584396965801716,0.02306014485657215
1772812194073063000,6.28306298828125,-0.010461059398949146,0.00603228947147727,0.03955349326133728
1772812194082763500,6.292763427734375,-0.00007635809743078426,0.002061668550595641,0.04413498193025589
1772812194092463900,6.3024638671875,0.012751801870763302,0.001450803829357028,0.039248060435056686
1772812194102164500,6.31216455078125,0.021914774551987648,-0.0022143847309052944,0.025503603741526604
1772812194111865000,6.321864990234375,0.026190826669335365,-0.0077121676877141,0.006566796451807022
1772812194121565400,6.3315654296875,0.026801692321896553,-0.00007635809743078426,-0.007788525894284248
1772812194131266000,6.34126611328125,0.0243582334369421,0.009392046369612217,-0.014813470654189587
1772812194140966700,6.350966552734375,0.021609341725707054,0.009697478264570236,-0.01511890348047018
1772812194150667000,6.3606669921875,0.023441936820745468,0.00511599238961935,-0.014813470654189587
1772812194160367600,6.37036767578125,0.02649625949561596,-0.00038179047987796366,-0.017256930470466614
1772812194170068200,6.380068115234375,0.022220205515623093,-0.0006872228696011007,-0.02000582218170166
1772812194179768600,6.3897685546875,0.014584396965801716,-0.0031306820455938578,-0.02977965772151947
1772812194189469200,6.39946923828125,0.011530072428286076,0.0017562361899763346,-0.03558287397027016
1772812194199169800,6.409169677734375,0.012751801870763302,0.008781181648373604,-0.03802633285522461
1772812194208870100,6.4188701171875,0.013668099418282509,0.014278964139521122,-0.03375028073787689
1772812194218570800,6.42857080078125,0.006948587018996477,0.01183550525456667,-0.02367101050913334
1772812194228271000,6.43827099609375,0.002061668550595641,0.004810560029000044,-0.010537417605519295
1772812194237971700,6.4479716796875,-0.0009926552884280682,0.0017562361899763346,0.002290742937475443
1772812194247672300,6.45767236328125,-0.004352411720901728,0.002061668550595641,0.008704823441803455
1772812194257372700,6.46737255859375,-0.004352411720901728,0.0066431546583771706,0.009315688163042068
1772812194267073300,6.4770732421875,-0.0009926552884280682,0.009086613543331623,0.007483093533664942
1772812194276774000,6.48677392578125,0.0005345066892914474,0.002672533504664898,0.005650499369949102
1772812194286474200,6.49647412109375,-0.0006872228696011007,-0.008017600513994694,0.003512472379952669
1772812194296174800,6.5061748046875,-0.0009926552884280682,-0.008323032408952713,0.005345067009329796
1772812194305875500,6.51587548828125,0.003894262947142124,0.00022907429956831038,0.006566796451807022
1772812194315575800,6.525575927734375,0.00755945174023509,0.003283398225903511,0.007788525894284248
1772812194325276400,6.5352763671875,0.009697478264570236,-0.0012980876490473747,0.0062613640911877155
1772812194334977000,6.54497705078125,0.012751801870763302,-0.005574141163378954,0.00045814859913662076
1772812194344677400,6.554677490234375,0.015806125476956367,-0.00954476185142994,-0.007483093533664942
1772812194354378000,6.5643779296875,0.01977674663066864,-0.008933897130191326,-0.017867794260382652
1772812194364078600,6.57407861328125,0.016416991129517555,0.0005345066892914474,-0.021227551624178886
1772812194373779000,6.583779052734375,0.006337722297757864,0.003283398225903511,-0.02458730712532997
1772812194383479600,6.5934794921875,-0.0077121676877141,0.001450803829357028,-0.028863361105322838
1772812194393180200,6.60318017578125,-0.01259908638894558,0.007864884100854397,-0.031612250953912735
1772812194402880500,6.612880615234375,-0.00954476185142994,0.006337722297757864,-0.029474224895238876
1772812194412581000,6.6225810546875,-0.0022143847309052944,-0.0034361144062131643,-0.021227551624178886
1772812194422281500,6.632281494140625,0.00847574882209301,-0.011988221667706966,-0.008704823441803455
1772812194431982000,6.641982177734375,0.015806125476956367,-0.012293653562664986,0.007177661173045635
1772812194441682700,6.6516826171875,0.017944153398275375,-0.009850194677710533,0.01908952370285988
1772812194451383000,6.661383056640625,0.020082179456949234,-0.007101302966475487,0.026419902220368385
1772812194461083600,6.671083740234375,0.022220205515623093,-0.004352411720901728,0.028557928279042244
1772812194470784300,6.6807841796875,0.022525638341903687,-0.009850194677710533,0.027030766010284424
1772812194480484600,6.690484619140625,0.027107125148177147,-0.016875140368938446,0.024892739951610565
1772812194490185200,6.700185302734375,0.029245151206851006,-0.02176205813884735,0.020922118797898293
1772812194499885600,6.709885498046875,0.025274530053138733,-0.022067490965127945,0.012675444595515728
1772812194509586200,6.719586181640625,0.019471315667033195,-0.02023489587008953,0.0007635809597559273
1772812194519286800,6.729286865234375,0.016416991129517555,-0.017486004158854485,-0.01206457894295454
1772812194528987100,6.738987060546875,0.014584396965801716,-0.009850194677710533,-0.021227551624178886
1772812194538687700,6.748687744140625,0.01183550525456667,-0.0012980876490473747,-0.022754713892936707
1772812194548388400,6.758388427734375,0.000839939049910754,0.007254019379615784,-0.01847865991294384
1772812194558088700,6.768088623046875,-0.008933897130191326,0.014889828860759735,-0.011453714221715927
1772812194567789300,6.777789306640625,-0.012293653562664986,0.023441936820745468,0.004123337101191282
1772812194577490000,6.787489990234375,-0.013209951110184193,0.021914774551987648,0.014813470654189587
1772812194587190300,6.797190185546875,-0.008323032408952713,0.017027854919433594,0.020311253145337105
1772812194596891000,6.806890869140625,-0.0016035200096666813,0.015195261687040329,0.025809036567807198
1772812194606591500,6.816591552734375,0.00511599238961935,0.008170315995812416,0.02672533318400383
1772812194616291800,6.826291748046875,0.01183550525456667,-0.0006872228696011007,0.02214384824037552
1772812194625992400,6.835992431640625,0.0191658828407526,-0.01107192412018776,0.013286309316754341
1772812194635693000,6.845693115234375,0.026801692321896553,-0.019624030217528343,0.0019853105768561363
1772812194645393400,6.855393310546875,0.03168861195445061,-0.022678354755043983,-0.009621120058000088
1772812194655094000,6.865093994140625,0.03107774630188942,-0.014126247726380825,-0.01511890348047018
1772812194664794600,6.874794677734375,0.025579962879419327,0.0005345066892914474,-0.013286309316754341
1772812194674495000,6.884494873046875,0.017027854919433594,0.013973532244563103,-0.008399390615522861
1772812194684195600,6.894195556640625,0.007864884100854397,0.015806125476956367,-0.0007635809597559273
1772812194693896200,6.903896240234375,-0.00038179047987796366,0.005421424750238657,0.002290742937475443
1772812194703596500,6.913596435546875,-0.0012980876490473747,-0.003741546766832471,0.002290742937475443
1772812194713297200,6.923297119140625,0.0017562361899763346,-0.006185005884617567,-0.002901607658714056
1772812194722997800,6.932997802734375,0.003283398225903511,-0.00038179047987796366,-0.009621120058000088
1772812194732698000,6.942697998046875,0.0017562361899763346,0.00755945174023509,-0.010537417605519295
1772812194742398700,6.952398681640625,-0.0016035200096666813,0.012751801870763302,-0.004734201822429895
1772812194752099000,6.96209912109375,-0.0058795735239982605,0.014584396965801716,0.008399390615522861
1772812194761799700,6.971799560546875,-0.007101302966475487,0.007254019379615784,0.018784092739224434
1772812194771500300,6.981500244140625,-0.003741546766832471,0.0017562361899763346,0.02306014485657215
1772812194781200600,6.99120068359375,0.0023671009112149477,-0.0031306820455938578,0.01847865991294384
1772812194790901200,7.0009013671875,0.00022907429956831038,-0.004657844081521034,0.014508038759231567
1772812194800601900,7.010601806640625,-0.004352411720901728,-0.0006872228696011007,0.011148282326757908
1772812194810302200,7.02030224609375,-0.004046979360282421,-0.0009926552884280682,0.008399390615522861
1772812194820002800,7.0300029296875,0.0017562361899763346,-0.0019089524867013097,0.0102319847792387
1772812194829703400,7.039703369140625,0.006337722297757864,0.0011453714687377214,0.012370011769235134
1772812194839403800,7.04940380859375,0.004199695307761431,0.0005345066892914474,0.012980876490473747
1772812194849104400,7.0591044921875,-0.0009926552884280682,0.004505127668380737,0.014202605932950974
1772812194858805000,7.068804931640625,-0.005574141163378954,0.004810560029000044,0.01695149764418602
1772812194868505300,7.07850537109375,-0.00679587060585618,0.0035888305865228176,0.01695149764418602
1772812194878206000,7.0882060546875,-0.0058795735239982605,0.011530072428286076,0.018784092739224434
1772812194887906600,7.097906494140625,-0.012293653562664986,0.01763872057199478,0.01695149764418602
1772812194897607000,7.10760693359375,-0.024816380813717842,0.02130390889942646,0.009926552884280682
1772812194907307500,7.1173076171875,-0.037033677101135254,0.02496909722685814,0.0032070400193333626
1772812194917008100,7.127008056640625,-0.03764454275369644,0.02893971838057041,-0.004123337101191282
1772812194926708500,7.13670849609375,-0.02756527252495289,0.021914774551987648,-0.005039634648710489
1772812194936409000,7.1464091796875,-0.014737112447619438,0.008781181648373604,0.002901607658714056
1772812194946109700,7.156109619140625,-0.0025198173243552446,-0.003741546766832471,0.013286309316754341
1772812194955810000,7.16581005859375,0.004810560029000044,-0.006185005884617567,0.020922118797898293
1772812194965510700,7.1755107421875,0.00755945174023509,-0.0034361144062131643,0.02458730712532997
1772812194975211300,7.185211181640625,0.0057268571108579636,-0.0009926552884280682,0.028863361105322838
1772812194984911600,7.19491162109375,0.004199695307761431,-0.004352411720901728,0.02916879393160343
1772812194994612200,7.2046123046875,0.0029779658652842045,-0.004352411720901728,0.025503603741526604
1772812195004312800,7.214312744140625,0.001450803829357028,0.001450803829357028,0.021838415414094925
1772812195014013200,7.22401318359375,-0.0031306820455938578,0.002672533504664898,0.018173227086663246
1772812195023713800,7.2337138671875,-0.006490438245236874,-0.00007635809743078426,0.011148282326757908
1772812195033414400,7.243414306640625,-0.010766491293907166,0.00511599238961935,0.005955931730568409
1772812195043114800,7.25311474609375,-0.018402300775051117,0.009392046369612217,0.0001527161948615685
1772812195052815400,7.2628154296875,-0.024510949850082397,0.00847574882209301,-0.003512472379952669
1772812195062516000,7.272515869140625,-0.026648975908756256,0.009392046369612217,-0.0038179049734026194
1772812195072216300,7.28221630859375,-0.026648975908756256,0.0023671009112149477,-0.003512472379952669
1772812195091617500,7.301617431640625,-0.021151192486286163,0.0057268571108579636,-0.003512472379952669
1772812195101318000,7.31131787109375,-0.021456625312566757,-0.00038179047987796366,-0.005955931730568409
1772812195111018500,7.3210185546875,-0.022067490965127945,-0.005574141163378954,-0.005039634648710489
1772812195120719000,7.330718994140625,-0.018096869811415672,-0.008323032408952713,-0.0025961752980947495
1772812195130419500,7.34041943359375,-0.011377356946468353,-0.005268708802759647,-0.001679878099821508
1772812195140120000,7.3501201171875,-0.0077121676877141,0.004810560029000044,0.007788525894284248
1772812195149820700,7.359820556640625,-0.009850194677710533,0.004810560029000044,0.01695149764418602
1772812195159521000,7.36952099609375,-0.01718057133257389,-0.0022143847309052944,0.02977965772151947
1772812195169221600,7.3792216796875,-0.01718057133257389,0.005421424750238657,0.03741546720266342
1772812195178922200,7.388922119140625,-0.01565340906381607,0.007254019379615784,0.03558287397027016
1772812195188622800,7.398622802734375,-0.014737112447619438,0.008170315995812416,0.030695954337716103
1772812195198323200,7.4083232421875,-0.010461059398949146,0.010919207707047462,0.023976443335413933
1772812195208023800,7.41802392578125,-0.008017600513994694,0.010613775812089443,0.02214384824037552
1772812195217724400,7.427724365234375,-0.00954476185142994,0.00511599238961935,0.021227551624178886
1772812195227424800,7.4374248046875,-0.012904518283903599,0.001450803829357028,0.0206166859716177
1772812195237125400,7.44712548828125,-0.0193185992538929,0.000839939049910754,0.02214384824037552
1772812195246826000,7.456825927734375,-0.02328922040760517,-0.0009926552884280682,0.017867794260382652
1772812195256526300,7.4665263671875,-0.021151192486286163,-0.00038179047987796366,0.010842849500477314
1772812195266227000,7.47622705078125,-0.01779143698513508,0.004199695307761431,0.004123337101191282
1772812195275927600,7.485927490234375,-0.015042545273900032,0.01000291109085083,-0.00045814859913662076
1772812195285628000,7.4956279296875,-0.015958841890096664,0.009086613543331623,0.003512472379952669
1772812195295328500,7.50532861328125,-0.014737112447619438,0.010919207707047462,0.012675444595515728
1772812195305028900,7.51502880859375,-0.01565340906381607,0.006337722297757864,0.016646064817905426
1772812195314729500,7.5247294921875,-0.013820815831422806,-0.004352411720901728,0.017256930470466614
1772812195324430000,7.53443017578125,-0.008628465235233307,-0.01565340906381607,0.011453714221715927
1772812195334130400,7.54413037109375,-0.004046979360282421,-0.01779143698513508,-0.0013744457392022014
1772812195343831000,7.5538310546875,-0.005268708802759647,-0.011682788841426373,-0.008704823441803455
1772812195353531600,7.56353173828125,-0.011377356946468353,-0.011988221667706966,-0.008704823441803455
1772812195363232000,7.57323193359375,-0.020540328696370125,-0.03000873140990734,-0.00045814859913662076
1772812195372932600,7.5829326171875,-0.015958841890096664,-0.020540328696370125,0.013897174037992954
1772812195382633200,7.59263330078125,-0.012293653562664986,-0.014737112447619438,0.02153298258781433
1772812195392333600,7.60233349609375,-0.020540328696370125,-0.0022143847309052944,0.025809036567807198
1772812195402034200,7.6120341796875,-0.03611737862229347,0.01000291109085083,0.028863361105322838
1772812195411734800,7.62173486328125,-0.05261072888970375,0.012140937149524689,0.02458730712532997
1772812195421435100,7.63143505859375,-0.06452259421348572,0.012140937149524689,0.016646064817905426
1772812195431135700,7.6411357421875,-0.07154753804206848,0.018860450014472008,0.010537417605519295
1772812195440836400,7.65083642578125,-0.06849320977926254,0.021609341725707054,0.006566796451807022
1772812195450536700,7.66053662109375,-0.059635672718286514,0.008170315995812416,0.005039634648710489
1772812195460237300,7.6702373046875,-0.05230529606342316,-0.01565340906381607,0.010537417605519295
1772812195469938000,7.67993798828125,-0.04039343446493149,-0.037949975579977036,0.01695149764418602
1772812195479638500,7.689638427734375,-0.026648975908756256,-0.05047270283102989,0.02519817277789116
1772812195489339000,7.6993388671875,-0.013209951110184193,-0.05474875494837761,0.034666575491428375
1772812195499039500,7.70903955078125,0.004810560029000044,-0.04253146052360535,0.047494735568761826
1772812195508740000,7.718739990234375,0.011530072428286076,-0.03550651669502258,0.06246092543005943
1772812195518440400,7.7284404296875,0.004810560029000044,-0.05108356848359108,0.07162389904260635
1772812195528141000,7.73814111328125,0.00022907429956831038,-0.04864010959863663,0.07803797721862793
1772812195537841700,7.747841552734375,-0.006490438245236874,-0.04130972921848297,0.07345648854970932
1772812195547542000,7.7575419921875,-0.0193185992538929,-0.03611737862229347,0.05818486958742142
1772812195557242600,7.76724267578125,-0.031841326504945755,-0.01626427471637726,0.036804601550102234
1772812195566943200,7.776943115234375,-0.03550651669502258,0.00755945174023509,0.01206457894295454
1772812195576643600,7.7866435546875,-0.03886627033352852,0.006337722297757864,-0.0206166859716177
1772812195586344200,7.79634423828125,-0.04130972921848297,-0.006490438245236874,-0.0539088174700737
1772812195596044800,7.806044921875,-0.037949975579977036,-0.024205517023801804,-0.08109229803085327
1772812195605745200,7.8157451171875,-0.031841326504945755,-0.04253146052360535,-0.1049160286784172
1772812195615445800,7.82544580078125,-0.02176205813884735,-0.03611737862229347,-0.11407899856567383
1772812195625146400,7.835146484375,-0.015958841890096664,-0.034895651042461395,-0.11896591633558273
1772812195634846700,7.8448466796875,-0.009850194677710533,-0.02756527252495289,-0.11316270381212234
1772812195644547300,7.85454736328125,0.0011453714687377214,-0.0077121676877141,-0.09819651395082474
1772812195654248000,7.864248046875,0.008781181648373604,-0.00923932995647192,-0.07651081681251526
1772812195663948300,7.8739482421875,0.01000291109085083,-0.016569707542657852,-0.05543597787618637
1772812195673649000,7.88364892578125,0.008781181648373604,-0.008323032408952713,-0.028557928279042244
1772812195683349500,7.893349609375,0.004199695307761431,0.010613775812089443,-0.001679878099821508
1772812195693050000,7.903050048828125,-0.0025198173243552446,0.01672242395579815,0.017867794260382652
1772812195702750500,7.91275048828125,-0.004352411720901728,0.016416991129517555,0.0386371985077858
1772812195712451000,7.922451171875,-0.008323032408952713,0.015806125476956367,0.054214250296354294
1772812195722151700,7.932151611328125,-0.00923932995647192,0.011530072428286076,0.060322895646095276
1772812195731852000,7.94185205078125,-0.0077121676877141,0.01763872057199478,0.05635227635502815
1772812195741552600,7.951552734375,-0.004657844081521034,0.013668099418282509,0.040775224566459656
1772812195751253200,7.961253173828125,-0.0058795735239982605,-0.01626427471637726,0.013897174037992954
1772812195760953600,7.97095361328125,0.002672533504664898,-0.018402300775051117,-0.004123337101191282
1772812195770654200,7.980654296875,0.004810560029000044,-0.037949975579977036,-0.02214384824037552
1772812195780354800,7.990354736328125,-0.0022143847309052944,-0.05994110554456711,-0.03955349326133728
1772812195790055200,8.00005517578125,-0.010766491293907166,-0.04650207981467247,-0.049632761627435684
1772812195799755800,8.009755859375,-0.014737112447619438,-0.009850194677710533,-0.05146535858511925
1772812195809456400,8.019456298828125,-0.018096869811415672,0.003894262947142124,-0.0487164668738842
1772812195819156700,8.02915673828125,-0.017486004158854485,-0.0022143847309052944,-0.04046979174017906
1772812195828857300,8.038857421875,-0.01565340906381607,-0.014126247726380825,-0.03436114266514778
1772812195838558000,8.048557861328124,-0.015347977168858051,-0.02542724646627903,-0.028863361105322838
1772812195848258300,8.05825830078125,-0.014126247726380825,-0.019929463043808937,-0.02214384824037552
1772812195857959000,8.067958984375,-0.007406735327094793,0.011530072428286076,-0.00045814859913662076
1772812195867659500,8.077659423828125,-0.004657844081521034,0.02893971838057041,0.02519817277789116
1772812195877360000,8.087360107421874,-0.00679587060585618,0.013973532244563103,0.04718930274248123
1772812195887060500,8.097060546875,-0.014431680552661419,-0.02756527252495289,0.06154462695121765
1772812195896761000,8.106760986328124,-0.022678354755043983,-0.0807105079293251,0.07315105944871902
1772812195906461700,8.116461669921875,-0.004963276442140341,-0.06635518372058868,0.08567378669977188
1772812195916162000,8.126162109375,0.01763872057199478,-0.031230462715029716,0.09605848789215088
1772812195925862700,8.135862548828126,0.023747367784380913,-0.013820815831422806,0.09972367435693741
1772812195935563300,8.145563232421875,0.016416991129517555,-0.008628465235233307,0.09422589093446732
1772812195945263600,8.155263671875,0.0035888305865228176,-0.00679587060585618,0.07376192510128021
1772812195954964200,8.164964111328125,-0.0034361144062131643,-0.00007635809743078426,0.03741546720266342
1772812195964664800,8.174664794921876,-0.0031306820455938578,0.009392046369612217,-0.007483093533664942
1772812195974365200,8.184365234375,0.00755945174023509,0.020693045109510422,-0.039248060435056686
1772812195984065800,8.194065673828124,0.013362666592001915,0.018860450014472008,-0.05299251899123192
1772812195993766400,8.203766357421875,0.015195261687040329,0.015806125476956367,-0.049021899700164795
1772812196003467000,8.213467041015624,0.01000291109085083,0.009697478264570236,-0.04046979174017906
1772812196013167400,8.22316748046875,0.0017562361899763346,0.008781181648373604,-0.03222311660647392
1772812196022868000,8.232867919921874,0.00022907429956831038,0.007864884100854397,-0.03405570983886719
1772812196032568600,8.242568603515625,0.003894262947142124,0.017944153398275375,-0.03497200831770897
1772812196042269000,8.25226904296875,0.0029779658652842045,0.025579962879419327,-0.030390523374080658
1772812196051969500,8.261969482421875,-0.0016035200096666813,0.024052800610661507,-0.020311253145337105
1772812196061670100,8.271670166015625,-0.0019089524867013097,0.023747367784380913,-0.009315688163042068
1772812196071370500,8.28137060546875,-0.00007635809743078426,0.027717988938093185,-0.007483093533664942
1772812196081071000,8.291071044921875,-0.0006872228696011007,0.02588539570569992,-0.007177661173045635
1772812196090771700,8.300771728515626,0.00603228947147727,0.034437503665685654,-0.011759147047996521
1772812196100472000,8.31047216796875,0.015195261687040329,0.04512763395905495,-0.009621120058000088
1772812196110172700,8.320172607421876,0.010919207707047462,0.04146244749426842,-0.014508038759231567
1772812196119873300,8.329873291015625,-0.013209951110184193,0.018555017188191414,-0.0334448479115963
1772812196129574000,8.339573974609374,-0.029703300446271896,0.050930850207805634,-0.024281874299049377
1772812196139274200,8.349274169921875,-0.02909243479371071,0.09216422587633133,-0.0032070400193333626
1772812196148974800,8.358974853515624,-0.012293653562664986,0.07047852128744125,0.007177661173045635
1772812196158675500,8.368675537109375,0.010613775812089443,0.04329504072666168,0.017867794260382652
1772812196168375800,8.378375732421874,0.017027854919433594,0.0066431546583771706,0.013897174037992954
1772812196178076400,8.388076416015625,0.020693045109510422,-0.025121813639998436,-0.014813470654189587
1772812196187777000,8.397777099609375,0.03138317912817001,-0.024205517023801804,-0.04810560122132301
1772812196197477400,8.407477294921875,0.04298960790038109,-0.02848157100379467,-0.09086613357067108
1772812196207178000,8.417177978515625,0.05612320080399513,-0.024205517023801804,-0.12873975932598114
1772812196216878600,8.426878662109376,0.05887209251523018,-0.025121813639998436,-0.15470150113105774
1772812196226579000,8.436578857421875,0.049709122627973557,-0.05352702736854553,-0.17058399319648743
1772812196236279600,8.446279541015626,0.045738499611616135,-0.07154753804206848,-0.17088942229747772
1772812196245980200,8.455980224609375,0.03810269013047218,-0.09689842909574509,-0.16783510148525238
1772812196255680800,8.4656806640625,0.023747367784380913,-0.10270164161920547,-0.16050471365451813
1772812196265381000,8.475381103515625,0.016416991129517555,-0.05810851231217384,-0.13942988216876984
1772812196275081700,8.485081787109374,-0.0034361144062131643,0.00022907429956831038,-0.09972367435693741
1772812196284782300,8.4947822265625,-0.026343543082475662,0.039018988609313965,-0.054214250296354294
1772812196294482700,8.504482666015624,-0.04528035223484039,0.054901473224163055,0.0019853105768561363
1772812196304183300,8.514183349609375,-0.04711294546723366,0.06375901401042938,0.0639880821108818
1772812196313884000,8.5238837890625,-0.041615162044763565,0.042073313146829605,0.11163553595542908
1772812196323584300,8.533584228515625,-0.028787001967430115,0.01824958436191082,0.141262486577034
1772812196333284900,8.543284912109375,-0.011988221667706966,0.0011453714687377214,0.14492766559123993
1772812196342985500,8.5529853515625,0.007254019379615784,-0.002825249684974551,0.12843431532382965
1772812196352685800,8.562685791015625,0.0243582334369421,-0.008933897130191326,0.09880737960338593
1772812196362386400,8.572386474609376,0.037491824477910995,-0.013209951110184193,0.06704241037368774
1772812196372087000,8.582087158203125,0.043600473552942276,-0.024205517023801804,0.037720900028944016
1772812196381787600,8.59178759765625,0.04512763395905495,-0.0345902182161808,0.008399390615522861
1772812196391488000,8.601488037109375,0.045738499611616135,-0.021151192486286163,-0.015729768201708794
1772812196401188600,8.611188720703124,0.04146244749426842,-0.015042545273900032,-0.04199695214629173
1772812196410889200,8.62088916015625,0.029245151206851006,-0.010155626572668552,-0.0642935186624527
1772812196420589600,8.630589599609374,0.0191658828407526,0.0057268571108579636,-0.07345648854970932
1772812196430290200,8.640290283203125,-0.0012980876490473747,0.01030834298580885,-0.07498364895582199
1772812196439990800,8.64999072265625,-0.02176205813884735,0.01030834298580885,-0.06490438431501389
1772812196449691100,8.659691162109375,-0.027870705351233482,0.004199695307761431,-0.05085449293255806
1772812196459391700,8.669391845703124,-0.018096869811415672,-0.0058795735239982605,-0.03741546720266342
1772812196469092400,8.67909228515625,-0.007406735327094793,-0.011988221667706966,-0.029474224895238876
1772812196478793000,8.68879296875,-0.005574141163378954,-0.004963276442140341,-0.022449281066656113
1772812196488493300,8.698493408203126,-0.008323032408952713,0.006948587018996477,-0.02000582218170166
1772812196498194000,8.70819384765625,-0.010766491293907166,0.007864884100854397,-0.016646064817905426
1772812196507894500,8.71789453125,-0.007406735327094793,0.002672533504664898,-0.01359174121171236
1772812196517595000,8.727594970703125,0.008170315995812416,0.00755945174023509,-0.005039634648710489
1772812196527295500,8.73729541015625,0.02741255611181259,0.035964664071798325,0.008704823441803455
1772812196536996000,8.74699609375,0.03260490670800209,0.04451677203178406,0.02306014485657215
1772812196546696400,8.756696533203124,0.029245151206851006,0.03138317912817001,0.03283398225903511
1772812196556397000,8.76639697265625,0.005421424750238657,0.01611155830323696,0.022449281066656113
1772812196566097700,8.77609765625,-0.039477135986089706,-0.00038179047987796366,0.0032070400193333626
1772812196575798300,8.78579833984375,-0.05566505342721939,0.05734493210911751,0.0062613640911877155
1772812196585498600,8.79549853515625,-0.04436405375599861,0.06039925664663315,-0.009621120058000088
1772812196595199200,8.80519921875,-0.019929463043808937,0.045738499611616135,-0.021838415414094925
1772812196604899800,8.81489990234375,-0.004657844081521034,0.0322994738817215,-0.031001387163996696
1772812196614600200,8.82460009765625,-0.004352411720901728,-0.008628465235233307,-0.05299251899123192
1772812196624300800,8.83430078125,0.003894262947142124,-0.022983787581324577,-0.07864884287118912
1772812196634001400,8.84400146484375,0.00847574882209301,-0.02084576152265072,-0.10155627131462097
1772812196643701800,8.85370166015625,0.004810560029000044,-0.04130972921848297,-0.12843431532382965
1772812196653402400,8.86340234375,0.008781181648373604,-0.05199986323714256,-0.1516471803188324
1772812196663103000,8.87310302734375,0.011224640533328056,-0.059024810791015625,-0.1513417512178421
1772812196672803600,8.882803466796876,0.012140937149524689,-0.06604975461959839,-0.13209950923919678
1772812196682504000,8.89250390625,0.008170315995812416,-0.06910407543182373,-0.1055268943309784
1772812196692204500,8.90220458984375,0.007864884100854397,-0.059635672718286514,-0.07681624591350555
1772812196701905200,8.9119052734375,0.006948587018996477,-0.03214675933122635,-0.04535670951008797
1772812196711605500,8.92160546875,0.002672533504664898,-0.005574141163378954,-0.011759147047996521
1772812196721306000,8.93130615234375,-0.0016035200096666813,0.017333287745714188,0.03527744114398956
1772812196731006700,8.9410068359375,-0.0077121676877141,0.011224640533328056,0.07681624591350555
1772812196740707300,8.950707275390625,-0.005268708802759647,0.007254019379615784,0.10797034949064255
1772812196750407700,8.96040771484375,0.0005345066892914474,0.0023671009112149477,0.11621702462434769
1772812196760108300,8.9701083984375,0.007864884100854397,0.0035888305865228176,0.09789107739925385
1772812196769809000,8.979808837890625,0.015806125476956367,0.015806125476956367,0.07162389904260635
1772812196779509200,8.98950927734375,0.015806125476956367,0.027107125148177147,0.053603384643793106
1772812196789209900,8.9992099609375,0.01611155830323696,0.015195261687040329,0.036804601550102234
1772812196798910500,9.008910400390626,0.01824958436191082,-0.0025198173243552446,0.022754713892936707
1772812196808610800,9.01861083984375,0.015195261687040329,-0.01718057133257389,-0.0032070400193333626
1772812196818311400,9.0283115234375,0.017944153398275375,-0.011377356946468353,-0.036193739622831345
1772812196828012000,9.038011962890625,0.022220205515623093,0.009086613543331623,-0.06856957077980042
1772812196837712600,9.047712646484374,0.013973532244563103,0.01977674663066864,-0.08842267841100693
1772812196847413000,9.0574130859375,0.0057268571108579636,0.024663666263222694,-0.0902552679181099
1772812196857113600,9.067113525390624,-0.0025198173243552446,0.015500693581998348,-0.08414662629365921
1772812196866814200,9.076814208984375,-0.005574141163378954,0.007864884100854397,-0.07528908550739288
1772812196876514600,9.0865146484375,-0.00679587060585618,0.010919207707047462,-0.07101303339004517
1772812196886215200,9.096215087890625,-0.0034361144062131643,0.007254019379615784,-0.06673697382211685
1772812196895915800,9.105915771484375,-0.0031306820455938578,0.0023671009112149477,-0.05787943676114082
1772812196905616400,9.115616455078126,-0.0009926552884280682,0.014889828860759735,-0.0386371985077858
1772812196915316700,9.125316650390625,0.0005345066892914474,0.018860450014472008,-0.01908952370285988
1772812196925017300,9.135017333984376,-0.0031306820455938578,0.011224640533328056,-0.0010690133785828948
1772812196934718000,9.144718017578125,-0.006185005884617567,0.0005345066892914474,0.010537417605519295
1772812196944418300,9.154418212890626,-0.0016035200096666813,0.0023671009112149477,0.019394956529140472
1772812196954119000,9.164118896484375,0.000839939049910754,0.011530072428286076,0.02611446939408779
1772812196963819500,9.173819580078124,-0.003741546766832471,0.004505127668380737,0.03130681812763214
1772812196973520000,9.183519775390625,0.0005345066892914474,-0.00679587060585618,0.03191768378019333
1772812196983220500,9.193220458984374,0.00847574882209301,-0.009850194677710533,0.023976443335413933
1772812196992921000,9.202921142578125,0.013057234697043896,-0.010461059398949146,0.008093958720564842
1772812197002621700,9.21262158203125,0.013362666592001915,-0.012904518283903599,-0.01359174121171236
1772812197012322000,9.222322021484375,0.014584396965801716,-0.0077121676877141,-0.03436114266514778
1772812197022022700,9.232022705078125,0.01824958436191082,-0.0019089524867013097,-0.05482511222362518
1772812197031723300,9.24172314453125,0.02496909722685814,0.018860450014472008,-0.06856957077980042
1772812197041423600,9.251423583984375,0.013668099418282509,0.02496909722685814,-0.08139773458242416
1772812197051124200,9.261124267578126,-0.005268708802759647,0.024052800610661507,-0.0792597085237503
1772812197060824800,9.270824951171875,-0.019929463043808937,0.021609341725707054,-0.07254019379615784
1772812197070525400,9.280525390625,-0.027259841561317444,0.03413207083940506,-0.054214250296354294
1772812197080225800,9.290225830078125,-0.03764454275369644,0.04085158184170723,-0.024281874299049377
1772812197089926400,9.299926513671876,-0.04069886729121208,0.029856016859412193,0.010537417605519295
1772812197099627000,9.309626953125,-0.03000873140990734,0.018555017188191414,0.04016435891389847
1772812197109327400,9.319327392578124,-0.014126247726380825,0.0057268571108579636,0.060322895646095276
1772812197119028000,9.329028076171875,0.0035888305865228176,-0.006185005884617567,0.0639880821108818
1772812197128728600,9.338728515625,0.015500693581998348,-0.010461059398949146,0.06643154472112656
1772812197138429200,9.34842919921875,0.0191658828407526,-0.018096869811415672,0.06490438431501389
1772812197148129500,9.358129638671874,0.01977674663066864,-0.03214675933122635,0.052687086164951324
1772812197157830100,9.367830078125,0.026801692321896553,-0.03306305781006813,0.02764163166284561
1772812197167530800,9.37753076171875,0.0322994738817215,-0.02909243479371071,-0.006872228812426329
1772812197177231000,9.387231201171875,0.0322994738817215,-0.019013166427612305,-0.042913250625133514
1772812197186931700,9.396931640625,0.02802342176437378,-0.022983787581324577,-0.07223475724458694
1772812197196632300,9.40663232421875,0.018860450014472008,-0.033979352563619614,-0.07712167501449585
1772812197206333000,9.4163330078125,0.011530072428286076,-0.030314164236187935,-0.05329795181751251
1772812197216033300,9.426033203125,-0.0019089524867013097,-0.021456625312566757,-0.02214384824037552
