time,seconds_elapsed,z,y,x
1772812461288129500,0.095129638671875,-0.09262236952781677,0.05887209251523018,0.014126247726380825
1772812461297830100,0.104830078125,-0.04650207981467247,0.05367974191904068,0.01718057133257389
1772812461307530800,0.11453076171875,0.0023671009112149477,0.044211339205503464,0.0193185992538929
1772812461317231600,0.124231689453125,0.0322994738817215,0.051847148686647415,0.029703300446271896
1772812461326932200,0.13393212890625,0.03565923124551773,0.019471315667033195,0.037949975579977036
1772812461336632800,0.1436328125,0.020387612283229828,-0.014431680552661419,0.04558578506112099
1772812461346333400,0.15333349609375,0.013057234697043896,-0.025121813639998436,0.04283689334988594
1772812461356034000,0.163033935546875,0.01183550525456667,-0.02176205813884735,0.027259841561317444
1772812461365734700,0.172734619140625,0.014278964139521122,-0.004352411720901728,0.01565340906381607
1772812461375435300,0.182435302734375,0.017027854919433594,0.010919207707047462,0.0058795735239982605
1772812461385135900,0.192135986328125,0.017944153398275375,0.020998476073145866,0.00007635809743078426
1772812461394836500,0.20183642578125,0.0243582334369421,0.013668099418282509,-0.00022907429956831038
1772812461404537000,0.211537109375,0.030466880649328232,0.0035888305865228176,0.006490438245236874
1772812461414237700,0.22123779296875,0.03260490670800209,-0.0012980876490473747,0.01259908638894558
1772812461423938300,0.230938232421875,0.0319940410554409,0.00022907429956831038,0.017486004158854485
1772812461433639000,0.240638916015625,0.029856016859412193,0.01183550525456667,0.01626427471637726
1772812461443339500,0.250339599609375,0.020387612283229828,0.01824958436191082,0.02390008419752121
1772812461453040000,0.2600400390625,-0.004046979360282421,0.00603228947147727,0.031841326504945755
1772812461462741000,0.269740966796875,-0.02023489587008953,-0.007101302966475487,0.03581194952130318
1772812461472441600,0.279441650390625,-0.011988221667706966,-0.008017600513994694,0.029397867619991302
1772812461482142200,0.28914208984375,0.004810560029000044,-0.007101302966475487,0.00923932995647192
1772812461491842800,0.2988427734375,0.015500693581998348,0.004199695307761431,-0.01824958436191082
1772812461501543400,0.30854345703125,0.01763872057199478,0.03107774630188942,-0.035964664071798325
1772812461511244000,0.318244140625,0.006337722297757864,0.03504836559295654,-0.03504836559295654
1772812461520944600,0.327944580078125,-0.007101302966475487,0.013973532244563103,-0.025579962879419327
1772812461530645200,0.337645263671875,-0.005574141163378954,-0.008933897130191326,-0.017027854919433594
1772812461540345900,0.347345947265625,0.005421424750238657,0.001450803829357028,-0.009697478264570236
1772812461550046500,0.35704638671875,0.004810560029000044,0.02588539570569992,0.0016035200096666813
1772812461559747000,0.3667470703125,-0.008017600513994694,0.03138317912817001,0.018096869811415672
1772812461569447700,0.37644775390625,-0.019013166427612305,0.014584396965801716,0.03672824427485466
1772812461579148300,0.386148193359375,-0.015042545273900032,-0.008628465235233307,0.04222602769732475
1772812461588849000,0.395848876953125,0.000839939049910754,-0.01626427471637726,0.0345902182161808
1772812461598549500,0.405549560546875,0.012751801870763302,-0.007406735327094793,0.02084576152265072
1772812461608250000,0.41525,0.009697478264570236,0.017027854919433594,0.012293653562664986
1772812461617950700,0.42495068359375,-0.002825249684974551,0.030466880649328232,0.011988221667706966
1772812461627651300,0.4346513671875,-0.01107192412018776,0.028634287416934967,0.016875140368938446
1772812461637352000,0.44435205078125,-0.006490438245236874,0.01183550525456667,0.01718057133257389
1772812461647052500,0.454052490234375,0.004505127668380737,-0.01107192412018776,0.011682788841426373
1772812461656753200,0.463753173828125,0.01611155830323696,-0.03061959706246853,-0.0057268571108579636
1772812461666454000,0.4734541015625,0.023747367784380913,-0.03245219215750694,-0.023441936820745468
1772812461676154600,0.483154541015625,0.023136503994464874,-0.008933897130191326,-0.03779725730419159
1772812461685855200,0.492855224609375,0.020387612283229828,0.008781181648373604,-0.04512763395905495
1772812461695555800,0.502555908203125,0.020998476073145866,0.006948587018996477,-0.04024071618914604
1772812461705256400,0.51225634765625,0.015500693581998348,-0.0006872228696011007,-0.02496909722685814
1772812461714957000,0.52195703125,0.004199695307761431,-0.004352411720901728,-0.010613775812089443
1772812461724657700,0.53165771484375,-0.004963276442140341,-0.004046979360282421,-0.0011453714687377214
1772812461734358300,0.541358154296875,-0.014737112447619438,-0.0077121676877141,-0.0029779658652842045
1772812461744059000,0.551058837890625,-0.022067490965127945,-0.0058795735239982605,-0.007864884100854397
1772812461753759500,0.560759521484375,-0.023594651371240616,0.000839939049910754,-0.014278964139521122
1772812461763460000,0.570460205078125,-0.022983787581324577,0.009392046369612217,-0.014584396965801716
1772812461773160700,0.58016064453125,-0.022067490965127945,0.014584396965801716,-0.005421424750238657
1772812461782861300,0.589861328125,-0.0193185992538929,0.009086613543331623,0.004963276442140341
1772812461792562000,0.59956201171875,-0.014126247726380825,0.0017562361899763346,0.015347977168858051
1772812461802262500,0.609262451171875,-0.010766491293907166,0.0023671009112149477,0.02084576152265072
1772812461811963400,0.61896337890625,-0.010461059398949146,0.003894262947142124,0.018402300775051117
1772812461821664000,0.6286640625,-0.00923932995647192,0.00511599238961935,0.014737112447619438
1772812461831364600,0.638364501953125,-0.0019089524867013097,0.002672533504664898,0.002825249684974551
1772812461841065200,0.648065185546875,0.016416991129517555,0.0011453714687377214,-0.007254019379615784
1772812461850765800,0.657765869140625,0.03168861195445061,-0.007101302966475487,-0.015195261687040329
1772812461860466400,0.667466552734375,0.036880962550640106,-0.015958841890096664,-0.01672242395579815
1772812461870167000,0.6771669921875,0.03504836559295654,-0.021456625312566757,-0.011530072428286076
1772812461879867600,0.68686767578125,0.02893971838057041,-0.016875140368938446,-0.003283398225903511
1772812461889568300,0.696568359375,0.029245151206851006,-0.01259908638894558,0.0009926552884280682
1772812461899268900,0.706268798828125,0.02802342176437378,-0.014737112447619438,0.0016035200096666813
1772812461918670000,0.725670166015625,0.019471315667033195,-0.010155626572668552,-0.004810560029000044
1772812461928370700,0.73537060546875,0.015806125476956367,-0.007101302966475487,-0.009086613543331623
1772812461938071300,0.7450712890625,0.013668099418282509,-0.0025198173243552446,-0.009086613543331623
1772812461947772000,0.75477197265625,0.013668099418282509,0.002061668550595641,-0.004199695307761431
1772812461957472500,0.764472412109375,0.013362666592001915,0.002672533504664898,0.003741546766832471
1772812461967173000,0.774173095703125,0.012446369975805283,0.00603228947147727,0.012904518283903599
1772812461976873700,0.783873779296875,0.010919207707047462,0.004505127668380737,0.020540328696370125
1772812461986574300,0.79357421875,0.008781181648373604,0.0023671009112149477,0.02756527252495289
1772812461996275000,0.80327490234375,0.00603228947147727,-0.00038179047987796366,0.029703300446271896
1772812462005975600,0.8129755859375,0.00603228947147727,-0.0058795735239982605,0.02237292192876339
1772812462015676400,0.822676513671875,0.014278964139521122,-0.004657844081521034,0.009850194677710533
1772812462025377000,0.832376953125,0.026190826669335365,-0.0022143847309052944,-0.00847574882209301
1772812462035077600,0.84207763671875,0.037491824477910995,-0.0016035200096666813,-0.023747367784380913
1772812462044778200,0.8517783203125,0.03932442143559456,-0.005268708802759647,-0.0322994738817215
1772812462054478800,0.861478759765625,0.03504836559295654,-0.008628465235233307,-0.037491824477910995
1772812462064179500,0.871179443359375,0.0319940410554409,-0.003741546766832471,-0.03535379841923714
1772812462073880000,0.880880126953125,0.029856016859412193,-0.0022143847309052944,-0.030466880649328232
1772812462083580700,0.89058056640625,0.022220205515623093,-0.004046979360282421,-0.023747367784380913
1772812462093281300,0.90028125,0.013973532244563103,-0.008323032408952713,-0.01611155830323696
1772812462102982000,0.90998193359375,0.007864884100854397,-0.0077121676877141,-0.01183550525456667
1772812462112682500,0.9196826171875,0.003894262947142124,0.0011453714687377214,-0.002061668550595641
1772812462122383000,0.929383056640625,-0.0016035200096666813,0.01183550525456667,0.004046979360282421
1772812462132083700,0.939083740234375,-0.0019089524867013097,0.018555017188191414,0.007406735327094793
1772812462141784300,0.948784423828125,0.000839939049910754,0.020693045109510422,0.010461059398949146
1772812462151485000,0.95848486328125,0.003894262947142124,0.014584396965801716,0.011988221667706966
1772812462161185800,0.968185791015625,0.004810560029000044,0.01030834298580885,0.013209951110184193
1772812462170886400,0.977886474609375,0.004810560029000044,0.00603228947147727,0.01107192412018776
1772812462180587000,0.9875869140625,0.005421424750238657,-0.0006872228696011007,-0.0017562361899763346
1772812462190287600,0.99728759765625,0.008170315995812416,-0.003741546766832471,-0.01611155830323696
1772812462199988200,1.00698828125,0.01030834298580885,-0.003741546766832471,-0.03260490670800209
1772812462209688800,1.016688720703125,0.013057234697043896,0.002061668550595641,-0.043600473552942276
1772812462219389400,1.026389404296875,0.012751801870763302,0.0057268571108579636,-0.04176788032054901
1772812462229090000,1.036090087890625,0.013057234697043896,-0.004046979360282421,-0.03840812295675278
1772812462238790700,1.045790771484375,0.012140937149524689,-0.014431680552661419,-0.035964664071798325
1772812462248491300,1.0554912109375,0.010919207707047462,-0.01626427471637726,-0.03840812295675278
1772812462258192000,1.06519189453125,0.009086613543331623,-0.01107192412018776,-0.04818195849657059
1772812462267892500,1.074892578125,0.009392046369612217,-0.00038179047987796366,-0.06131555140018463
1772812462277593000,1.084593017578125,0.009697478264570236,0.009086613543331623,-0.06681333482265472
1772812462287293700,1.094293701171875,-0.00007635809743078426,0.01000291109085083,-0.06467530876398087
1772812462296994300,1.103994384765625,-0.012904518283903599,-0.004657844081521034,-0.05673406645655632
1772812462306695200,1.113695068359375,-0.015958841890096664,-0.019624030217528343,-0.05367974191904068
1772812462316395500,1.1233955078125,-0.00923932995647192,-0.03214675933122635,-0.056428633630275726
1772812462326096100,1.13309619140625,0.003894262947142124,-0.04069886729121208,-0.07047852128744125
1772812462335796700,1.142796630859375,0.02496909722685814,-0.037033677101135254,-0.08697187155485153
1772812462345497300,1.152497314453125,0.04482220485806465,-0.024816380813717842,-0.10163262486457825
1772812462355198000,1.162197998046875,0.054901473224163055,-0.021151192486286163,-0.10682497918605804
1772812462364898800,1.17189892578125,0.056428633630275726,-0.016875140368938446,-0.0988837331533432
1772812462374599400,1.181599365234375,0.05306887626647949,-0.012904518283903599,-0.072921983897686
1772812462384300000,1.191300048828125,0.047265663743019104,-0.021151192486286163,-0.034437503665685654
1772812462394000600,1.201000732421875,0.04543306678533554,-0.027259841561317444,0.004352411720901728
1772812462403701200,1.210701171875,0.053374309092760086,-0.024205517023801804,0.03428478538990021
1772812462413401900,1.22040185546875,0.06436987966299057,-0.01565340906381607,0.051389001309871674
1772812462423102500,1.2301025390625,0.06772962957620621,-0.005574141163378954,0.0553596206009388
1772812462432803000,1.239802978515625,0.06498073786497116,0.0057268571108579636,0.055970486253499985
1772812462442503700,1.249503662109375,0.0576503649353981,0.009697478264570236,0.05474875494837761
1772812462452204300,1.259204345703125,0.045738499611616135,0.0029779658652842045,0.05322159454226494
1772812462461905000,1.26890478515625,0.037491824477910995,0.0017562361899763346,0.051389001309871674
1772812462471605500,1.27860546875,0.027717988938093185,0.004199695307761431,0.04528035223484039
1772812462481306000,1.28830615234375,0.015195261687040329,0.0057268571108579636,0.036422811448574066
1772812462491006700,1.2980068359375,0.002061668550595641,0.01030834298580885,0.02237292192876339
1772812462500707300,1.307707275390625,-0.010461059398949146,0.018555017188191414,0.007101302966475487
1772812462510408200,1.317408203125,-0.022983787581324577,0.02649625949561596,-0.00755945174023509
1772812462520108800,1.32710888671875,-0.03764454275369644,0.029245151206851006,-0.013362666592001915
1772812462529809400,1.336809326171875,-0.04894553869962692,0.020387612283229828,-0.012446369975805283
1772812462539510000,1.346510009765625,-0.055970486253499985,0.01672242395579815,-0.006337722297757864
1772812462549210600,1.356210693359375,-0.05780307948589325,0.014889828860759735,-0.0023671009112149477
1772812462558911200,1.3659111328125,-0.05688678100705147,0.02130390889942646,-0.0035888305865228176
1772812462568611800,1.37561181640625,-0.053832460194826126,0.023747367784380913,-0.006948587018996477
1772812462578312400,1.3853125,-0.04955640435218811,0.018555017188191414,-0.011530072428286076
1772812462588013000,1.395012939453125,-0.04253146052360535,0.009392046369612217,-0.017333287745714188
1772812462597713700,1.404713623046875,-0.029703300446271896,0.00755945174023509,-0.024052800610661507
1772812462607414300,1.414414306640625,-0.015347977168858051,0.01000291109085083,-0.026190826669335365
1772812462617115000,1.424114990234375,-0.008933897130191326,0.017027854919433594,-0.021609341725707054
1772812462626815500,1.4338154296875,-0.00038179047987796366,0.017027854919433594,-0.014889828860759735
1772812462636516000,1.44351611328125,0.01030834298580885,0.009697478264570236,-0.0029779658652842045
1772812462646216700,1.453216796875,0.019471315667033195,-0.0031306820455938578,0.011988221667706966
1772812462655917300,1.462917236328125,0.0295505840331316,-0.014737112447619438,0.024205517023801804
1772812462665618000,1.472617919921875,0.03932442143559456,-0.018402300775051117,0.027259841561317444
1772812462675318500,1.482318603515625,0.04543306678533554,-0.015958841890096664,0.02542724646627903
1772812462685019100,1.49201904296875,0.04085158184170723,-0.008323032408952713,0.022983787581324577
1772812462694719700,1.5017197265625,0.029856016859412193,-0.004352411720901728,0.02084576152265072
1772812462704420400,1.51142041015625,0.021609341725707054,-0.00038179047987796366,0.019929463043808937
1772812462714121200,1.521121337890625,0.01763872057199478,-0.004657844081521034,0.015958841890096664
1772812462723821800,1.53082177734375,0.01977674663066864,-0.01107192412018776,0.008628465235233307
1772812462733522400,1.5405224609375,0.022220205515623093,-0.015042545273900032,-0.0029779658652842045
1772812462743223000,1.55022314453125,0.023136503994464874,-0.0077121676877141,-0.012140937149524689
1772812462752923600,1.559923583984375,0.018555017188191414,-0.0006872228696011007,-0.022525638341903687
1772812462762624300,1.569624267578125,0.012446369975805283,-0.004352411720901728,-0.029856016859412193
1772812462772324900,1.579324951171875,0.003894262947142124,-0.013820815831422806,-0.029245151206851006
1772812462782025500,1.589025390625,-0.005268708802759647,-0.020540328696370125,-0.025579962879419327
1772812462791726000,1.59872607421875,-0.01718057133257389,-0.015042545273900032,-0.0191658828407526
1772812462801426700,1.6084267578125,-0.03520108386874199,-0.005268708802759647,-0.007864884100854397
1772812462811127300,1.618127197265625,-0.05169443041086197,0.001450803829357028,-0.0029779658652842045
1772812462820828000,1.627827880859375,-0.05627591907978058,0.012140937149524689,-0.0017562361899763346
1772812462830528500,1.637528564453125,-0.05199986323714256,0.021914774551987648,-0.001450803829357028
1772812462840229000,1.64722900390625,-0.04864010959863663,0.021609341725707054,-0.0005345066892914474
1772812462849929700,1.6569296875,-0.0501672700047493,0.017944153398275375,-0.00022907429956831038
1772812462859630300,1.66663037109375,-0.0550541877746582,0.011224640533328056,0.0022143847309052944
1772812462869331200,1.676331298828125,-0.06299543380737305,-0.0006872228696011007,0.002825249684974551
1772812462879031800,1.68603173828125,-0.0651334598660469,-0.011682788841426373,-0.0011453714687377214
1772812462888732400,1.695732421875,-0.05352702736854553,-0.013820815831422806,-0.010613775812089443
1772812462898433000,1.70543310546875,-0.033979352563619614,-0.012293653562664986,-0.024052800610661507
1772812462908133600,1.715133544921875,-0.014431680552661419,-0.010766491293907166,-0.033826638013124466
1772812462917834200,1.724834228515625,-0.0016035200096666813,-0.015347977168858051,-0.03962985426187515
1772812462927534800,1.734534912109375,0.003894262947142124,-0.01259908638894558,-0.03138317912817001
1772812462937235500,1.7442353515625,0.0017562361899763346,-0.012904518283903599,-0.021609341725707054
1772812462946936000,1.75393603515625,0.0023671009112149477,-0.019929463043808937,-0.004505127668380737
1772812462956636700,1.76363671875,0.0035888305865228176,-0.028787001967430115,0.011377356946468353
1772812462966337300,1.773337158203125,0.01030834298580885,-0.027870705351233482,0.020540328696370125
1772812462976038000,1.783037841796875,0.0191658828407526,-0.019929463043808937,0.02084576152265072
1772812462985738500,1.792738525390625,0.026190826669335365,-0.005574141163378954,0.016569707542657852
1772812462995439000,1.802439208984375,0.027107125148177147,0.009392046369612217,0.014737112447619438
1772812463005139700,1.8121396484375,0.019471315667033195,0.010613775812089443,0.01626427471637726
1772812463014840300,1.82184033203125,0.010613775812089443,0.00022907429956831038,0.01565340906381607
1772812463024541000,1.831541015625,0.004810560029000044,-0.014126247726380825,0.012293653562664986
1772812463034241500,1.841241455078125,0.005421424750238657,-0.023594651371240616,0.004046979360282421
1772812463043942100,1.850942138671875,0.004810560029000044,-0.022067490965127945,-0.00511599238961935
1772812463053642800,1.860642822265625,0.003283398225903511,-0.013820815831422806,-0.01672242395579815
1772812463063343400,1.87034326171875,0.0005345066892914474,-0.0009926552884280682,-0.028328854590654373
1772812463073044200,1.880044189453125,-0.007406735327094793,0.001450803829357028,-0.036880962550640106
1772812463082744800,1.889744873046875,-0.015042545273900032,0.0029779658652842045,-0.03504836559295654
1772812463092445400,1.899445556640625,-0.014737112447619438,0.0066431546583771706,-0.027717988938093185
1772812463102146000,1.90914599609375,-0.005574141163378954,0.00847574882209301,-0.01763872057199478
1772812463111846700,1.9188466796875,0.004505127668380737,0.010613775812089443,-0.00022907429956831038
1772812463121547300,1.92854736328125,0.0066431546583771706,0.0035888305865228176,0.017486004158854485
1772812463131247900,1.938247802734375,0.002061668550595641,-0.006490438245236874,0.03000873140990734
1772812463140948500,1.947948486328125,-0.0009926552884280682,-0.01718057133257389,0.03245219215750694
1772812463150649000,1.957649169921875,0.003283398225903511,-0.017486004158854485,0.02023489587008953
1772812463160349700,1.967349609375,0.012751801870763302,-0.0034361144062131643,0.002825249684974551
1772812463170050300,1.97705029296875,0.02496909722685814,0.01000291109085083,-0.013362666592001915
1772812463179751000,1.9867509765625,0.032910339534282684,0.014278964139521122,-0.01763872057199478
1772812463189451500,1.996451416015625,0.0319940410554409,0.006948587018996477,-0.014278964139521122
1772812463199152000,2.006152099609375,0.02649625949561596,-0.004352411720901728,-0.00022907429956831038
1772812463208852700,2.015852783203125,0.018860450014472008,-0.006490438245236874,0.017486004158854485
1772812463218553600,2.0255537109375,0.015806125476956367,-0.007406735327094793,0.026038112118840218
1772812463228254000,2.03525390625,0.026801692321896553,-0.007101302966475487,0.031230462715029716
1772812463237954600,2.04495458984375,0.04085158184170723,-0.005574141163378954,0.03245219215750694
1772812463247655200,2.0546552734375,0.04848739132285118,0.002061668550595641,0.03611737862229347
1772812463257355800,2.064355712890625,0.04176788032054901,0.011530072428286076,0.0501672700047493
1772812463267056400,2.074056396484375,0.023441936820745468,0.008781181648373604,0.06696604937314987
1772812463276757200,2.08375732421875,0.006948587018996477,-0.0019089524867013097,0.08254310488700867
1772812463286457900,2.093457763671875,-0.0058795735239982605,-0.015347977168858051,0.08437569439411163
1772812463296158500,2.103158447265625,-0.011682788841426373,-0.024205517023801804,0.06788235157728195
1772812463305859000,2.112859130859375,-0.00923932995647192,-0.017486004158854485,0.04192059487104416
1772812463315559700,2.1225595703125,-0.0034361144062131643,0.002672533504664898,0.012904518283903599
1772812463325260300,2.13226025390625,0.004505127668380737,0.017944153398275375,-0.006948587018996477
1772812463334961000,2.1419609375,0.00755945174023509,0.024663666263222694,-0.014278964139521122
1772812463344661500,2.15166162109375,0.000839939049910754,0.019471315667033195,-0.00511599238961935
1772812463354362000,2.161362060546875,-0.012293653562664986,0.008781181648373604,0.010461059398949146
1772812463364062700,2.171062744140625,-0.026038112118840218,-0.0025198173243552446,0.02084576152265072
1772812463373763300,2.180763427734375,-0.03367391973733902,-0.008933897130191326,0.015347977168858051
1772812463383464000,2.1904638671875,-0.03245219215750694,-0.005574141163378954,0.00007635809743078426
1772812463393164500,2.20016455078125,-0.028176138177514076,0.003894262947142124,-0.020693045109510422
1772812463402865200,2.209865234375,-0.023594651371240616,0.008170315995812416,-0.04298960790038109
1772812463412565800,2.219565673828125,-0.019929463043808937,0.0029779658652842045,-0.057955797761678696
1772812463422266600,2.2292666015625,-0.01259908638894558,-0.0058795735239982605,-0.06406444311141968
1772812463431967200,2.23896728515625,-0.0034361144062131643,-0.01565340906381607,-0.0628427118062973
1772812463441667800,2.248667724609375,0.005421424750238657,-0.029397867619991302,-0.05978839099407196
1772812463451368400,2.258368408203125,0.014584396965801716,-0.025732679292559624,-0.05154171586036682
1772812463461069000,2.268069091796875,0.02283107116818428,-0.008628465235233307,-0.03993528336286545
1772812463470769700,2.277769775390625,0.0243582334369421,0.003894262947142124,-0.027107125148177147
1772812463480470300,2.28747021484375,0.02130390889942646,0.007864884100854397,-0.012140937149524689
1772812463490171000,2.2971708984375,0.018555017188191414,0.004810560029000044,0.00038179047987796366
1772812463499871500,2.30687158203125,0.020998476073145866,0.0023671009112149477,0.00923932995647192
1772812463509572000,2.316572021484375,0.02802342176437378,-0.0006872228696011007,0.011988221667706966
1772812463519272700,2.326272705078125,0.03474293276667595,-0.008628465235233307,0.005268708802759647
1772812463528973300,2.335973388671875,0.04298960790038109,-0.010155626572668552,-0.01030834298580885
1772812463538674000,2.345673828125,0.050319984555244446,-0.008933897130191326,-0.02893971838057041
1772812463548374500,2.35537451171875,0.05001455545425415,-0.011682788841426373,-0.045738499611616135
1772812463558075100,2.3650751953125,0.04390590637922287,-0.01870773360133171,-0.053985174745321274
1772812463567775700,2.374775634765625,0.03962985426187515,-0.02542724646627903,-0.05612320080399513
1772812463577476400,2.384476318359375,0.036880962550640106,-0.024510949850082397,-0.053374309092760086
1772812463587177000,2.394177001953125,0.0319940410554409,-0.022678354755043983,-0.04940368980169296
1772812463596877600,2.403877685546875,0.01977674663066864,-0.012293653562664986,-0.043600473552942276
1772812463606578200,2.413578125,0.004505127668380737,-0.0009926552884280682,-0.03871355578303337
1772812463616278800,2.42327880859375,-0.00954476185142994,-0.00038179047987796366,-0.035964664071798325
1772812463625979600,2.432979736328125,-0.01870773360133171,-0.0019089524867013097,-0.03138317912817001
1772812463635680300,2.44268017578125,-0.02176205813884735,-0.004352411720901728,-0.0319940410554409
1772812463645380900,2.452380859375,-0.014126247726380825,-0.004046979360282421,-0.03810269013047218
1772812463655081500,2.46208154296875,0.0005345066892914474,-0.0019089524867013097,-0.04604393243789673
1772812463664782000,2.471781982421875,0.012446369975805283,-0.0006872228696011007,-0.05001455545425415
1772812463674482700,2.481482666015625,0.019471315667033195,-0.0006872228696011007,-0.04604393243789673
1772812463684183300,2.491183349609375,0.023441936820745468,-0.0022143847309052944,-0.03474293276667595
1772812463693884000,2.5008837890625,0.020998476073145866,-0.008323032408952713,-0.020693045109510422
1772812463703584500,2.51058447265625,0.015500693581998348,-0.010461059398949146,-0.00847574882209301
1772812463713285000,2.52028515625,0.010919207707047462,-0.00923932995647192,-0.002061668550595641
1772812463722985700,2.52998583984375,0.011530072428286076,-0.0034361144062131643,-0.004810560029000044
1772812463732686300,2.539686279296875,0.013668099418282509,0.0017562361899763346,-0.006337722297757864
1772812463742387000,2.549386962890625,0.011224640533328056,0.004199695307761431,-0.002061668550595641
1772812463752087600,2.559087646484375,0.009392046369612217,-0.0012980876490473747,0.002825249684974551
1772812463761788200,2.5687880859375,0.013973532244563103,-0.0025198173243552446,0.008933897130191326
1772812463771488800,2.57848876953125,0.021914774551987648,-0.003741546766832471,0.013209951110184193
1772812463781189400,2.588189453125,0.025274530053138733,-0.0034361144062131643,0.01870773360133171
1772812463790890000,2.597889892578125,0.027107125148177147,0.000839939049910754,0.023594651371240616
1772812463800590600,2.607590576171875,0.0295505840331316,0.006948587018996477,0.026648975908756256
1772812463810291200,2.617291259765625,0.02496909722685814,0.013362666592001915,0.028787001967430115
1772812463819991800,2.62699169921875,0.010613775812089443,0.024052800610661507,0.03733910992741585
1772812463829692700,2.636692626953125,-0.008933897130191326,0.019471315667033195,0.04192059487104416
1772812463839393300,2.646393310546875,-0.02023489587008953,0.009697478264570236,0.04650207981467247
1772812463849094000,2.656093994140625,-0.019013166427612305,0.007254019379615784,0.0449749194085598
1772812463858794500,2.66579443359375,-0.006490438245236874,-0.0012980876490473747,0.02848157100379467
1772812463868495000,2.6754951171875,0.006337722297757864,-0.00679587060585618,0.00679587060585618
1772812463878195700,2.68519580078125,0.010919207707047462,-0.004963276442140341,-0.017944153398275375
1772812463887896300,2.694896240234375,0.009697478264570236,0.006948587018996477,-0.0371863916516304
1772812463897597000,2.704596923828125,0.007254019379615784,0.022525638341903687,-0.04818195849657059
1772812463907297500,2.714297607421875,0.004505127668380737,0.028328854590654373,-0.04482220485806465
1772812463916998100,2.723998046875,0.003283398225903511,0.0191658828407526,-0.0319940410554409
1772812463926698800,2.73369873046875,0.00755945174023509,0.00847574882209301,-0.013973532244563103
1772812463936399400,2.7433994140625,0.015195261687040329,-0.003741546766832471,0.00679587060585618
1772812463946100000,2.753099853515625,0.020693045109510422,-0.008323032408952713,0.022678354755043983
1772812463955800600,2.762800537109375,0.021609341725707054,-0.0034361144062131643,0.037033677101135254
1772812463965501200,2.772501220703125,0.010919207707047462,0.0029779658652842045,0.041004300117492676
1772812463975201800,2.782201904296875,-0.006490438245236874,0.011530072428286076,0.03611737862229347
1772812463984902400,2.79190234375,-0.019929463043808937,0.015195261687040329,0.026343543082475662
1772812463994603000,2.80160302734375,-0.02328922040760517,0.009697478264570236,0.01107192412018776
1772812464004303600,2.8113037109375,-0.01779143698513508,0.002672533504664898,-0.00755945174023509
1772812464014004200,2.821004150390625,-0.0077121676877141,0.003283398225903511,-0.027717988938093185
1772812464023704800,2.830704833984375,-0.0022143847309052944,0.009392046369612217,-0.0371863916516304
1772812464033405400,2.840405517578125,-0.00679587060585618,0.018555017188191414,-0.0295505840331316
1772812464043106300,2.850106201171875,-0.01259908638894558,0.01977674663066864,-0.015806125476956367
1772812464052807000,2.859806884765625,-0.016875140368938446,0.01763872057199478,0.005574141163378954
1772812464062507500,2.869507568359375,-0.019624030217528343,0.014889828860759735,0.028787001967430115
1772812464072208100,2.8792080078125,-0.02023489587008953,0.017027854919433594,0.04405862092971802
1772812464081908700,2.88890869140625,-0.015042545273900032,0.013362666592001915,0.04589121788740158
1772812464091609300,2.898609375,-0.008628465235233307,0.005421424750238657,0.043142326176166534
1772812464101310000,2.90831005859375,-0.009850194677710533,-0.006185005884617567,0.02909243479371071
1772812464111010600,2.918010498046875,-0.00923932995647192,-0.00679587060585618,0.008017600513994694
1772812464120711200,2.927711181640625,-0.008017600513994694,0.0005345066892914474,-0.01763872057199478
1772812464130411800,2.937411865234375,-0.007101302966475487,0.004505127668380737,-0.03779725730419159
1772812464140112400,2.9471123046875,-0.010461059398949146,0.009697478264570236,-0.04634936526417732
1772812464149813000,2.95681298828125,-0.018402300775051117,0.017333287745714188,-0.04329504072666168
1772812464159513600,2.966513671875,-0.028176138177514076,0.015500693581998348,-0.03260490670800209
1772812464169214200,2.976214111328125,-0.03275762498378754,0.00847574882209301,-0.015195261687040329
1772812464178914800,2.985914794921875,-0.03061959706246853,-0.0009926552884280682,0.0006872228696011007
1772812464188615400,2.995615478515625,-0.024205517023801804,-0.007406735327094793,0.004352411720901728
1772812464198316000,3.00531591796875,-0.015347977168858051,-0.002825249684974551,0.004657844081521034
1772812464208016600,3.0150166015625,-0.01259908638894558,0.003894262947142124,0.005268708802759647
1772812464217717200,3.02471728515625,-0.014431680552661419,0.014584396965801716,0.004046979360282421
1772812464227417900,3.03441796875,-0.010766491293907166,0.025274530053138733,0.005268708802759647
1772812464237118500,3.044118408203125,-0.008628465235233307,0.02741255611181259,0.010766491293907166
1772812464246819300,3.0538193359375,-0.004963276442140341,0.01672242395579815,0.01870773360133171
1772812464256520000,3.06352001953125,0.003283398225903511,0.000839939049910754,0.02695440873503685
1772812464266220500,3.073220458984375,0.015195261687040329,-0.018096869811415672,0.02695440873503685
1772812464275921200,3.082921142578125,0.023747367784380913,-0.028787001967430115,0.016569707542657852
1772812464285621800,3.092621826171875,0.028634287416934967,-0.027870705351233482,0.004352411720901728
1772812464295322400,3.102322265625,0.028634287416934967,-0.02023489587008953,-0.013973532244563103
1772812464305023000,3.11202294921875,0.024663666263222694,-0.005268708802759647,-0.03413207083940506
1772812464314723600,3.1217236328125,0.020082179456949234,0.010613775812089443,-0.04298960790038109
1772812464324424200,3.131424072265625,0.013973532244563103,0.017027854919433594,-0.03810269013047218
1772812464334124800,3.141124755859375,0.008170315995812416,0.007864884100854397,-0.021914774551987648
1772812464343825400,3.150825439453125,0.009392046369612217,-0.006490438245236874,-0.0029779658652842045
1772812464353526000,3.160526123046875,0.011224640533328056,-0.008933897130191326,0.010766491293907166
1772812464363226600,3.1702265625,0.006337722297757864,-0.006490438245236874,0.02084576152265072
1772812464372927200,3.17992724609375,-0.0034361144062131643,0.0023671009112149477,0.02542724646627903
1772812464382627800,3.1896279296875,-0.011377356946468353,0.013668099418282509,0.019013166427612305
1772812464392328400,3.199328369140625,-0.013209951110184193,0.024663666263222694,0.01259908638894558
1772812464402029000,3.209029052734375,-0.011377356946468353,0.018860450014472008,0.007101302966475487
1772812464411729700,3.218729736328125,-0.007101302966475487,0.009086613543331623,0.004657844081521034
1772812464421430300,3.22843017578125,0.003894262947142124,-0.0025198173243552446,-0.002061668550595641
1772812464431131000,3.238130859375,0.01763872057199478,-0.010766491293907166,-0.012446369975805283
1772812464440831500,3.24783154296875,0.0243582334369421,-0.013515383005142212,-0.024052800610661507
1772812464450532400,3.257532470703125,0.025274530053138733,-0.00923932995647192,-0.03168861195445061
1772812464460233000,3.26723291015625,0.021609341725707054,0.0005345066892914474,-0.03504836559295654
1772812464469933600,3.27693359375,0.010613775812089443,0.006948587018996477,-0.029856016859412193
1772812464479634200,3.28663427734375,-0.0019089524867013097,0.01030834298580885,-0.012751801870763302
1772812464489334800,3.296334716796875,-0.011377356946468353,0.008170315995812416,0.00923932995647192
1772812464499035100,3.30603515625,-0.015042545273900032,0.003894262947142124,0.028176138177514076
1772812464508736000,3.315736083984375,-0.010155626572668552,0.007254019379615784,0.041004300117492676
1772812464518436600,3.3254365234375,-0.0034361144062131643,0.013057234697043896,0.04436405375599861
1772812464528137200,3.33513720703125,-0.006185005884617567,0.01824958436191082,0.03825540840625763
1772812464537837800,3.344837890625,-0.011377356946468353,0.0191658828407526,0.021456625312566757
1772812464547538400,3.354538330078125,-0.013820815831422806,0.022220205515623093,0.0031306820455938578
1772812464557239000,3.364239013671875,-0.011377356946468353,0.020387612283229828,-0.013668099418282509
1772812464566939600,3.373939697265625,-0.0019089524867013097,0.014584396965801716,-0.026190826669335365
1772812464576640300,3.38364013671875,0.013362666592001915,0.009086613543331623,-0.029856016859412193
1772812464586340900,3.3933408203125,0.02649625949561596,-0.0019089524867013097,-0.030161447823047638
1772812464596041500,3.40304150390625,0.033826638013124466,-0.009850194677710533,-0.021914774551987648
1772812464605742000,3.4127421875,0.0319940410554409,-0.021151192486286163,-0.015500693581998348
1772812464615442700,3.422442626953125,0.024663666263222694,-0.03000873140990734,-0.013362666592001915
1772812464625143300,3.432143310546875,0.018555017188191414,-0.022983787581324577,-0.013362666592001915
1772812464634844000,3.441843994140625,0.010919207707047462,-0.00954476185142994,-0.014278964139521122
1772812464644544500,3.45154443359375,0.0011453714687377214,-0.0006872228696011007,-0.014584396965801716
1772812464654245400,3.461245361328125,-0.0019089524867013097,0.0029779658652842045,-0.011224640533328056
1772812464663946000,3.470946044921875,0.003894262947142124,-0.0009926552884280682,-0.00847574882209301
1772812464673646300,3.480646240234375,0.013668099418282509,0.000839939049910754,-0.0011453714687377214
1772812464683347000,3.490346923828125,0.02283107116818428,-0.0025198173243552446,0.006185005884617567
1772812464693047600,3.500047607421875,0.02588539570569992,-0.004046979360282421,0.012293653562664986
1772812464702748200,3.509748046875,0.0243582334369421,0.000839939049910754,0.02023489587008953
1772812464712449000,3.519448974609375,0.01763872057199478,-0.005268708802759647,0.020540328696370125
1772812464722149600,3.529149658203125,0.010613775812089443,-0.012904518283903599,0.015347977168858051
1772812464731850200,3.538850341796875,0.0023671009112149477,-0.01259908638894558,0.007406735327094793
1772812464741550800,3.54855078125,-0.002825249684974551,-0.004657844081521034,-0.00511599238961935
1772812464751251500,3.55825146484375,-0.0019089524867013097,0.005421424750238657,-0.019471315667033195
1772812464760952000,3.5679521484375,0.00511599238961935,0.00603228947147727,-0.0319940410554409
1772812464770652700,3.577652587890625,0.013668099418282509,0.00847574882209301,-0.03535379841923714
1772812464780353300,3.587353271484375,0.020998476073145866,0.014278964139521122,-0.02741255611181259
1772812464790054000,3.597053955078125,0.02130390889942646,0.002061668550595641,-0.008170315995812416
1772812464799754500,3.60675439453125,0.017333287745714188,-0.019624030217528343,0.01107192412018776
1772812464809455000,3.616455078125,0.013057234697043896,-0.02328922040760517,0.02328922040760517
1772812464819155700,3.62615576171875,0.006948587018996477,-0.022678354755043983,0.02023489587008953
1772812464828856300,3.635856201171875,-0.0009926552884280682,-0.019929463043808937,0.0031306820455938578
1772812464838557000,3.645556884765625,0.000839939049910754,-0.005268708802759647,-0.01672242395579815
1772812464848257500,3.655257568359375,0.00755945174023509,0.018555017188191414,-0.03321577236056328
1772812464857958100,3.664958251953125,0.009392046369612217,0.029245151206851006,-0.03840812295675278
1772812464867658800,3.67465869140625,0.004810560029000044,0.020387612283229828,-0.029245151206851006
1772812464877359400,3.684359375,-0.0019089524867013097,0.0057268571108579636,-0.013668099418282509
1772812464887060000,3.69406005859375,-0.0016035200096666813,-0.004963276442140341,0.0009926552884280682
1772812464896760600,3.703760498046875,0.000839939049910754,-0.006185005884617567,0.00923932995647192
1772812464906461200,3.713461181640625,0.004199695307761431,-0.005574141163378954,0.01107192412018776
1772812464916162000,3.723162109375,0.005421424750238657,-0.0077121676877141,0.006185005884617567
1772812464925862700,3.732862548828125,0.007864884100854397,-0.008323032408952713,-0.002061668550595641
1772812464935563300,3.742563232421875,0.009086613543331623,-0.0077121676877141,-0.01030834298580885
1772812464945263900,3.752263916015625,0.00603228947147727,-0.002825249684974551,-0.014889828860759735
1772812464954964500,3.761964599609375,0.00022907429956831038,-0.002825249684974551,-0.018860450014472008
1772812464964665000,3.7716650390625,-0.0016035200096666813,-0.0016035200096666813,-0.019471315667033195
1772812464974365700,3.78136572265625,0.00022907429956831038,-0.0006872228696011007,-0.0191658828407526
1772812464984066300,3.79106640625,-0.0019089524867013097,0.004505127668380737,-0.01000291109085083
1772812464993767000,3.800766845703125,-0.011682788841426373,0.0035888305865228176,0.0012980876490473747
1772812465003467500,3.810467529296875,-0.020540328696370125,0.0017562361899763346,0.01259908638894558
1772812465013168000,3.820168212890625,-0.024510949850082397,0.002672533504664898,0.024205517023801804
1772812465032569300,3.8395693359375,-0.02390008419752121,-0.002825249684974551,0.026343543082475662
1772812465042270000,3.84927001953125,-0.022067490965127945,0.00847574882209301,0.021151192486286163
1772812465051970600,3.858970458984375,-0.01718057133257389,0.021914774551987648,0.019013166427612305
1772812465061671200,3.868671142578125,-0.01259908638894558,0.0243582334369421,0.02084576152265072
1772812465071371800,3.878371826171875,-0.011682788841426373,0.01672242395579815,0.028176138177514076
1772812465081072400,3.888072265625,-0.014431680552661419,-0.0031306820455938578,0.03153589367866516
1772812465090773000,3.89777294921875,-0.01107192412018776,-0.02176205813884735,0.02909243479371071
1772812465100473600,3.9074736328125,-0.0022143847309052944,-0.03214675933122635,0.014737112447619438
1772812465110174200,3.91717431640625,0.008170315995812416,-0.03306305781006813,-0.007254019379615784
1772812465119874800,3.926874755859375,0.017027854919433594,-0.02023489587008953,-0.03107774630188942
1772812465129575700,3.93657568359375,0.020998476073145866,0.0023671009112149477,-0.04696023091673851
1772812465139276300,3.9462763671875,0.015195261687040329,0.020082179456949234,-0.045738499611616135
1772812465148977000,3.955976806640625,-0.0019089524867013097,0.020387612283229828,-0.027717988938093185
1772812465158677200,3.96567724609375,-0.01626427471637726,0.0029779658652842045,-0.0029779658652842045
1772812465168377900,3.9753779296875,-0.021151192486286163,-0.016569707542657852,0.02176205813884735
1772812465178078500,3.985078369140625,-0.018096869811415672,-0.030925029888749123,0.030314164236187935
1772812465187779300,3.994779296875,-0.008323032408952713,-0.02542724646627903,0.02695440873503685
1772812465197480000,4.00447998046875,-0.0006872228696011007,-0.008323032408952713,0.01259908638894558
1772812465207180500,4.0141806640625,0.001450803829357028,0.0017562361899763346,0.0016035200096666813
1772812465216881200,4.023881103515625,-0.0006872228696011007,-0.006185005884617567,-0.0017562361899763346
1772812465226581800,4.033581787109375,0.004810560029000044,0.000839939049910754,0.004046979360282421
1772812465236282400,4.043282470703125,0.009392046369612217,0.006337722297757864,0.015042545273900032
1772812465245983000,4.05298291015625,0.0066431546583771706,0.00603228947147727,0.025121813639998436
1772812465255683600,4.06268359375,0.006337722297757864,0.0011453714687377214,0.033979352563619614
1772812465265384200,4.07238427734375,0.005421424750238657,-0.006185005884617567,0.03825540840625763
1772812465275084800,4.082084716796875,-0.0006872228696011007,-0.01779143698513508,0.03672824427485466
1772812465284785400,4.091785400390625,-0.00954476185142994,-0.02023489587008953,0.028176138177514076
1772812465294486000,4.101486083984375,-0.01779143698513508,-0.004657844081521034,0.0193185992538929
1772812465304186600,4.1111865234375,-0.025121813639998436,0.012446369975805283,0.0022143847309052944
1772812465313887200,4.12088720703125,-0.02756527252495289,0.02741255611181259,-0.012446369975805283
1772812465323587800,4.130587890625,-0.025732679292559624,0.032910339534282684,-0.023441936820745468
1772812465333288400,4.140288330078125,-0.023594651371240616,0.026801692321896553,-0.02802342176437378
1772812465342989000,4.149989013671875,-0.021151192486286163,0.013057234697043896,-0.026190826669335365
1772812465352689700,4.159689697265625,-0.018402300775051117,0.005421424750238657,-0.01977674663066864
1772812465362390300,4.169390380859375,-0.0193185992538929,0.00603228947147727,-0.012751801870763302
1772812465372091000,4.1790908203125,-0.026343543082475662,0.012446369975805283,-0.003894262947142124
1772812465381791500,4.18879150390625,-0.03306305781006813,0.01672242395579815,0.00007635809743078426
1772812465391492400,4.198492431640625,-0.030314164236187935,0.02588539570569992,0.0016035200096666813
1772812465401193000,4.20819287109375,-0.021456625312566757,0.025579962879419327,-0.0023671009112149477
1772812465410893600,4.2178935546875,-0.007406735327094793,0.010919207707047462,-0.009392046369612217
1772812465420594200,4.22759423828125,0.006337722297757864,0.001450803829357028,-0.012446369975805283
1772812465430294800,4.237294677734375,0.013362666592001915,-0.004657844081521034,-0.009697478264570236
1772812465439995400,4.246995361328125,0.014278964139521122,-0.011377356946468353,-0.0057268571108579636
1772812465449696000,4.256696044921875,0.013362666592001915,-0.01779143698513508,-0.00511599238961935
1772812465459396600,4.266396728515625,0.013057234697043896,-0.019624030217528343,-0.0066431546583771706
1772812465469097200,4.27609716796875,0.011530072428286076,-0.010461059398949146,-0.013973532244563103
1772812465478797800,4.2857978515625,0.009697478264570236,0.004810560029000044,-0.020998476073145866
1772812465488498400,4.29549853515625,0.0066431546583771706,0.010919207707047462,-0.023747367784380913
1772812465498199000,4.305198974609375,0.003283398225903511,0.008781181648373604,-0.021914774551987648
1772812465507899600,4.314899658203125,0.000839939049910754,0.0066431546583771706,-0.01183550525456667
1772812465517600300,4.324600341796875,-0.002825249684974551,0.004505127668380737,-0.00022907429956831038
1772812465527300900,4.33430078125,-0.0058795735239982605,0.004810560029000044,0.009850194677710533
1772812465537001500,4.34400146484375,-0.008017600513994694,0.002672533504664898,0.015958841890096664
1772812465546702000,4.3537021484375,-0.004963276442140341,0.00603228947147727,0.020540328696370125
1772812465556402700,4.363402587890625,-0.0006872228696011007,0.01030834298580885,0.02542724646627903
1772812465566103300,4.373103271484375,-0.00038179047987796366,0.009086613543331623,0.026038112118840218
1772812465575804000,4.382803955078125,0.00022907429956831038,0.003894262947142124,0.022983787581324577
1772812465585504500,4.39250439453125,0.0057268571108579636,-0.00038179047987796366,0.021456625312566757
1772812465595205000,4.402205078125,0.010919207707047462,-0.004657844081521034,0.017486004158854485
1772812465604905700,4.41190576171875,0.015500693581998348,-0.009850194677710533,0.008628465235233307
1772812465614606300,4.4216064453125,0.011224640533328056,-0.010461059398949146,0.0006872228696011007
1772812465624307000,4.431306884765625,-0.0019089524867013097,-0.004352411720901728,-0.009697478264570236
1772812465634007600,4.441007568359375,-0.01870773360133171,0.009697478264570236,-0.018555017188191414
1772812465643708200,4.450708251953125,-0.031230462715029716,0.02130390889942646,-0.023747367784380913
1772812465653409000,4.460408935546875,-0.03306305781006813,0.017333287745714188,-0.023747367784380913
1772812465663109600,4.470109619140625,-0.025121813639998436,0.0057268571108579636,-0.021609341725707054
1772812465672810200,4.479810302734375,-0.010766491293907166,0.0011453714687377214,-0.014584396965801716
1772812465682510800,4.4895107421875,-0.0019089524867013097,0.002672533504664898,-0.003894262947142124
1772812465692211500,4.49921142578125,-0.004352411720901728,0.003283398225903511,0.008017600513994694
1772812465701912000,4.508912109375,-0.010461059398949146,0.002672533504664898,0.020540328696370125
1772812465711612700,4.51861279296875,-0.013820815831422806,0.006337722297757864,0.029703300446271896
1772812465721313300,4.528313232421875,-0.010461059398949146,0.009086613543331623,0.033368486911058426
1772812465731014000,4.538013916015625,-0.004046979360282421,0.001450803829357028,0.030314164236187935
1772812465740714500,4.547714599609375,0.0066431546583771706,-0.005574141163378954,0.025121813639998436
1772812465750415000,4.5574150390625,0.01672242395579815,-0.008628465235233307,0.019013166427612305
1772812465760115700,4.56711572265625,0.020082179456949234,-0.012293653562664986,0.010461059398949146
1772812465769816300,4.57681640625,0.018860450014472008,-0.013820815831422806,0.004963276442140341
1772812465779517000,4.586516845703125,0.017027854919433594,-0.013515383005142212,0.004657844081521034
1772812465789217500,4.596217529296875,0.01824958436191082,-0.014431680552661419,0.00923932995647192
1772812465798918100,4.605918212890625,0.020693045109510422,-0.021151192486286163,0.011377356946468353
1772812465808618800,4.61561865234375,0.022525638341903687,-0.02542724646627903,0.0058795735239982605
1772812465818319400,4.6253193359375,0.01977674663066864,-0.022067490965127945,0.003741546766832471
1772812465828020000,4.63502001953125,0.008170315995812416,-0.015958841890096664,-0.000839939049910754
1772812465837720600,4.644720458984375,-0.0031306820455938578,-0.0016035200096666813,-0.0029779658652842045
1772812465847421200,4.654421142578125,-0.010155626572668552,0.012446369975805283,-0.0029779658652842045
1772812465857121800,4.664121826171875,-0.012904518283903599,0.009086613543331623,0.00007635809743078426
1772812465866822400,4.673822509765625,-0.00679587060585618,-0.002825249684974551,0.004963276442140341
1772812465876523000,4.68352294921875,-0.00007635809743078426,-0.00923932995647192,0.015958841890096664
1772812465886223600,4.6932236328125,0.004199695307761431,-0.01565340906381607,0.023594651371240616
1772812465895924200,4.70292431640625,0.003283398225903511,-0.014431680552661419,0.030925029888749123
1772812465905624800,4.712624755859375,-0.002825249684974551,-0.010461059398949146,0.028787001967430115
1772812465915325400,4.722325439453125,-0.008628465235233307,-0.005268708802759647,0.01870773360133171
1772812465925026300,4.7320263671875,-0.011377356946468353,0.004199695307761431,0.007406735327094793
1772812465934727000,4.741726806640625,-0.01259908638894558,0.010613775812089443,-0.007864884100854397
1772812465944427500,4.751427490234375,-0.013209951110184193,0.023136503994464874,-0.017333287745714188
1772812465954128100,4.761128173828125,-0.016875140368938446,0.026190826669335365,-0.017027854919433594
1772812465963828700,4.770828857421875,-0.02023489587008953,0.017027854919433594,-0.013057234697043896
1772812465973529300,4.780529296875,-0.018402300775051117,0.00511599238961935,-0.005421424750238657
1772812465983230000,4.79022998046875,-0.013209951110184193,-0.0009926552884280682,0.006185005884617567
1772812465992930600,4.7999306640625,-0.010155626572668552,-0.0031306820455938578,0.017486004158854485
1772812466002631200,4.809631103515625,-0.010766491293907166,0.0011453714687377214,0.026038112118840218
1772812466012331800,4.819331787109375,-0.013515383005142212,0.000839939049910754,0.02848157100379467
1772812466022032400,4.829032470703125,-0.013820815831422806,0.012140937149524689,0.03000873140990734
1772812466031733000,4.83873291015625,-0.011988221667706966,0.009697478264570236,0.025732679292559624
1772812466041433600,4.84843359375,-0.004963276442140341,0.009697478264570236,0.024816380813717842
1772812466051134200,4.85813427734375,-0.0022143847309052944,0.010919207707047462,0.023594651371240616
1772812466060834800,4.867834716796875,-0.005574141163378954,0.005421424750238657,0.024205517023801804
1772812466070535400,4.877535400390625,-0.011988221667706966,0.004505127668380737,0.02328922040760517
1772812466080236000,4.887236083984375,-0.012904518283903599,0.00511599238961935,0.02023489587008953
1772812466089936600,4.8969365234375,-0.006185005884617567,-0.0016035200096666813,0.015958841890096664
1772812466099637200,4.90663720703125,0.002061668550595641,-0.005574141163378954,0.014737112447619438
1772812466109337900,4.916337890625,0.006948587018996477,-0.011377356946468353,0.012293653562664986
1772812466119038500,4.92603857421875,0.009697478264570236,-0.010155626572668552,0.009850194677710533
1772812466128739000,4.935739013671875,0.009697478264570236,-0.006185005884617567,0.004657844081521034
1772812466138439700,4.945439697265625,0.008170315995812416,-0.004963276442140341,-0.00022907429956831038
1772812466148140300,4.955140380859375,0.006948587018996477,-0.009850194677710533,-0.003894262947142124
1772812466157841000,4.9648408203125,0.0023671009112149477,-0.01626427471637726,-0.01030834298580885
1772812466167541500,4.97454150390625,-0.004046979360282421,-0.01718057133257389,-0.020082179456949234
1772812466177242000,4.9842421875,-0.007406735327094793,-0.014126247726380825,-0.0371863916516304
1772812466186943000,4.99394287109375,-0.00679587060585618,0.000839939049910754,-0.05673406645655632
1772812466196643600,5.0036435546875,-0.004046979360282421,0.0066431546583771706,-0.07200568914413452
1772812466206344200,5.01334423828125,-0.0006872228696011007,0.003283398225903511,-0.06681333482265472
1772812466216044800,5.023044921875,0.004810560029000044,-0.010155626572668552,-0.05062541738152504
1772812466225745400,5.032745361328125,0.015806125476956367,-0.02390008419752121,-0.03138317912817001
1772812466235445800,5.04244580078125,0.025579962879419327,-0.025732679292559624,-0.008781181648373604
1772812466245146600,5.052146728515625,0.025274530053138733,-0.014431680552661419,0.011988221667706966
1772812466254847200,5.06184716796875,0.017944153398275375,-0.004046979360282421,0.025732679292559624
1772812466264547800,5.0715478515625,0.017027854919433594,0.00847574882209301,0.03275762498378754
1772812466274248400,5.08124853515625,0.025579962879419327,0.01977674663066864,0.033979352563619614
1772812466283949000,5.090948974609375,0.03657552972435951,0.020082179456949234,0.03214675933122635
1772812466293649700,5.100649658203125,0.039018988609313965,0.0066431546583771706,0.025732679292559624
1772812466303350300,5.110350341796875,0.03321577236056328,-0.008323032408952713,0.019013166427612305
1772812466313051000,5.12005078125,0.021609341725707054,-0.019624030217528343,0.008017600513994694
1772812466322751500,5.12975146484375,0.01183550525456667,-0.02084576152265072,-0.00022907429956831038
1772812466332452000,5.1394521484375,0.0023671009112149477,-0.0025198173243552446,-0.004810560029000044
1772812466342152700,5.149152587890625,-0.002825249684974551,0.0023671009112149477,-0.01183550525456667
1772812466351853300,5.158853271484375,-0.0016035200096666813,0.0029779658652842045,-0.011224640533328056
1772812466361554000,5.168553955078125,-0.0016035200096666813,-0.0006872228696011007,-0.008781181648373604
1772812466371254500,5.178254638671875,-0.0034361144062131643,-0.0077121676877141,-0.0017562361899763346
1772812466380955100,5.187955078125,-0.00679587060585618,-0.00954476185142994,0.0022143847309052944
1772812466390655700,5.19765576171875,-0.012904518283903599,-0.010155626572668552,0.004046979360282421
1772812466400356400,5.2073564453125,-0.020540328696370125,-0.0022143847309052944,0.014737112447619438
1772812466410057000,5.217056884765625,-0.027259841561317444,0.007254019379615784,0.022067490965127945
1772812466419757600,5.226757568359375,-0.02695440873503685,0.010919207707047462,0.027259841561317444
1772812466429458200,5.236458251953125,-0.019929463043808937,0.017944153398275375,0.026038112118840218
1772812466439158800,5.24615869140625,-0.012293653562664986,0.018555017188191414,0.0193185992538929
1772812466448859600,5.255859619140625,-0.002825249684974551,0.01672242395579815,0.00923932995647192
1772812466458560300,5.265560302734375,0.0035888305865228176,0.009697478264570236,-0.0017562361899763346
1772812466468260900,5.2752607421875,0.00511599238961935,-0.0034361144062131643,-0.006948587018996477
1772812466477961200,5.284961181640625,0.002061668550595641,-0.0031306820455938578,-0.001450803829357028
1772812466487661800,5.294661865234375,-0.002825249684974551,-0.0009926552884280682,0.0012980876490473747
1772812466497362400,5.304362548828125,0.0035888305865228176,0.000839939049910754,0.007406735327094793
1772812466507063300,5.314063232421875,0.01611155830323696,-0.0016035200096666813,0.009850194677710533
1772812466516764000,5.323763916015625,0.032910339534282684,-0.004046979360282421,0.009850194677710533
1772812466526464500,5.333464599609375,0.047265663743019104,-0.007406735327094793,0.00679587060585618
1772812466536165000,5.3431650390625,0.054901473224163055,-0.010461059398949146,0.00679587060585618
1772812466545865700,5.35286572265625,0.05123628303408623,-0.004963276442140341,0.012293653562664986
1772812466555566300,5.36256640625,0.03871355578303337,-0.0034361144062131643,0.01870773360133171
1772812466565267000,5.372266845703125,0.02893971838057041,-0.002825249684974551,0.022067490965127945
1772812466574967600,5.381967529296875,0.02283107116818428,-0.0019089524867013097,0.02176205813884735
1772812466584668200,5.391668212890625,0.014278964139521122,-0.00007635809743078426,0.015958841890096664
1772812466594368800,5.40136865234375,0.003894262947142124,0.000839939049910754,0.004963276442140341
1772812466604069400,5.4110693359375,-0.007101302966475487,0.0057268571108579636,-0.006337722297757864
1772812466613770000,5.42077001953125,-0.01626427471637726,0.005421424750238657,-0.01183550525456667
1772812466623470600,5.430470703125,-0.02023489587008953,0.0029779658652842045,-0.014278964139521122
1772812466633171200,5.440171142578125,-0.019013166427612305,0.0023671009112149477,-0.013362666592001915
1772812466642871800,5.449871826171875,-0.02023489587008953,0.003894262947142124,-0.012751801870763302
1772812466652572400,5.459572509765625,-0.02176205813884735,0.00847574882209301,-0.007864884100854397
1772812466662273000,5.46927294921875,-0.020540328696370125,0.01183550525456667,-0.007254019379615784
1772812466671973600,5.4789736328125,-0.01870773360133171,0.015195261687040329,-0.006337722297757864
1772812466681674200,5.48867431640625,-0.018096869811415672,0.01183550525456667,-0.00755945174023509
1772812466691374800,5.498374755859375,-0.017486004158854485,0.009086613543331623,-0.008781181648373604
1772812466701075500,5.508075439453125,-0.014126247726380825,0.014584396965801716,-0.009697478264570236
1772812466710776000,5.517776123046875,-0.011988221667706966,0.017333287745714188,-0.007254019379615784
1772812466720476700,5.5274765625,-0.01259908638894558,0.011530072428286076,-0.0005345066892914474
1772812466730177300,5.53717724609375,-0.014126247726380825,0.009697478264570236,0.005574141163378954
1772812466739878000,5.5468779296875,-0.013515383005142212,0.002672533504664898,0.0077121676877141
1772812466749578500,5.55657861328125,-0.015042545273900032,-0.0019089524867013097,0.007406735327094793
1772812466759279000,5.566279052734375,-0.015042545273900032,-0.0025198173243552446,0.0009926552884280682
1772812466768979700,5.575979736328125,-0.011377356946468353,0.0023671009112149477,-0.001450803829357028
1772812466778680600,5.5856806640625,-0.0019089524867013097,0.00511599238961935,-0.00755945174023509
1772812466788381200,5.595381103515625,0.008781181648373604,0.007864884100854397,-0.005421424750238657
1772812466798081800,5.605081787109375,0.00847574882209301,0.004810560029000044,-0.00511599238961935
1772812466807782100,5.6147822265625,0.007254019379615784,0.004810560029000044,0.0016035200096666813
1772812466817482800,5.624482666015625,0.008170315995812416,0.004810560029000044,0.011682788841426373
1772812466827183400,5.634183349609375,0.008781181648373604,-0.004963276442140341,0.02023489587008953
1772812466836884200,5.64388427734375,0.01183550525456667,-0.011988221667706966,0.025732679292559624
1772812466846584800,5.653584716796875,0.02130390889942646,-0.008323032408952713,0.026038112118840218
1772812466856285400,5.663285400390625,0.02741255611181259,-0.0058795735239982605,0.023594651371240616
1772812466865986000,5.672986083984375,0.02802342176437378,-0.00007635809743078426,0.013515383005142212
1772812466875686700,5.682686767578125,0.02130390889942646,0.002672533504664898,-0.0023671009112149477
1772812466885387300,5.69238720703125,0.019471315667033195,0.006948587018996477,-0.014584396965801716
1772812466895087900,5.702087890625,0.022220205515623093,0.006948587018996477,-0.021609341725707054
1772812466904788500,5.71178857421875,0.023136503994464874,0.000839939049910754,-0.01977674663066864
1772812466914489000,5.721489013671875,0.017027854919433594,-0.0058795735239982605,-0.009392046369612217
1772812466924189700,5.731189697265625,0.006337722297757864,-0.004657844081521034,-0.000839939049910754
1772812466933890300,5.740890380859375,-0.0034361144062131643,0.004505127668380737,0.006185005884617567
1772812466943591000,5.7505908203125,-0.006490438245236874,0.01030834298580885,0.0025198173243552446
1772812466953291500,5.76029150390625,-0.004352411720901728,0.014889828860759735,-0.004810560029000044
1772812466962992000,5.7699921875,0.002672533504664898,0.015195261687040329,-0.013668099418282509
1772812466972692700,5.779692626953125,0.013668099418282509,0.014584396965801716,-0.013973532244563103
1772812466982393300,5.789393310546875,0.02283107116818428,0.006948587018996477,-0.0066431546583771706
1772812466992094000,5.799093994140625,0.02588539570569992,-0.0019089524867013097,0.008017600513994694
1772812467001794600,5.808794677734375,0.025579962879419327,-0.00923932995647192,0.024816380813717842
1772812467011495200,5.8184951171875,0.025274530053138733,-0.016569707542657852,0.0345902182161808
1772812467021195800,5.82819580078125,0.024663666263222694,-0.02176205813884735,0.031841326504945755
1772812467030896400,5.837896484375,0.02649625949561596,-0.022678354755043983,0.014737112447619438
1772812467040597000,5.847596923828125,0.029856016859412193,-0.01565340906381607,-0.01183550525456667
1772812467050297600,5.857297607421875,0.03474293276667595,-0.0031306820455938578,-0.03413207083940506
1772812467059998200,5.866998291015625,0.03627009689807892,0.01183550525456667,-0.04482220485806465
1772812467069698800,5.87669873046875,0.03321577236056328,0.01824958436191082,-0.04176788032054901
1772812467079399400,5.8863994140625,0.03138317912817001,0.012140937149524689,-0.027717988938093185
1772812467089100000,5.89610009765625,0.02741255611181259,0.006337722297757864,-0.004810560029000044
1772812467098801000,5.90580078125,0.023136503994464874,0.0005345066892914474,0.014737112447619438
1772812467108501500,5.91550146484375,0.01763872057199478,-0.0009926552884280682,0.031230462715029716
1772812467118202000,5.9252021484375,0.013057234697043896,0.000839939049910754,0.04436405375599861
1772812467127902700,5.93490283203125,0.007864884100854397,0.002672533504664898,0.04802924394607544
1772812467137603000,5.94460302734375,0.002061668550595641,0.013362666592001915,0.04589121788740158
1772812467147303700,5.9543037109375,-0.013209951110184193,0.013973532244563103,0.041004300117492676
1772812467157004500,5.964004638671875,-0.04069886729121208,0.009086613543331623,0.030925029888749123
1772812467166705200,5.973705078125,-0.06330086290836334,0.011530072428286076,0.012904518283903599
1772812467176405800,5.98340576171875,-0.07154753804206848,0.011530072428286076,-0.011224640533328056
1772812467186106400,5.9931064453125,-0.07338013499975204,0.019471315667033195,-0.03413207083940506
1772812467195807000,6.002806884765625,-0.06879864633083344,0.021609341725707054,-0.0527634471654892
1772812467205507600,6.012507568359375,-0.05627591907978058,0.0191658828407526,-0.0631481483578682
1772812467215208200,6.022208251953125,-0.039477135986089706,0.010613775812089443,-0.06039925664663315
1772812467224908800,6.03190869140625,-0.024510949850082397,0.00022907429956831038,-0.04176788032054901
1772812467234609400,6.041609375,-0.01626427471637726,-0.005268708802759647,-0.013057234697043896
1772812467244310000,6.05131005859375,-0.018402300775051117,-0.0077121676877141,0.017486004158854485
1772812467254010600,6.0610107421875,-0.026038112118840218,-0.00923932995647192,0.043142326176166534
1772812467263711200,6.070711181640625,-0.03367391973733902,0.0011453714687377214,0.06452259421348572
1772812467273411800,6.080411865234375,-0.0345902182161808,0.017333287745714188,0.07673988491296768
1772812467283112400,6.090112548828125,-0.021456625312566757,0.033826638013124466,0.07918334752321243
1772812467292813000,6.09981298828125,-0.005574141163378954,0.028328854590654373,0.08040507882833481
1772812467302513700,6.109513671875,-0.00038179047987796366,0.015500693581998348,0.08254310488700867
1772812467312214300,6.11921435546875,-0.00007635809743078426,-0.004963276442140341,0.07948877662420273
1772812467321915000,6.128914794921875,0.0005345066892914474,-0.019013166427612305,0.07154753804206848
1772812467331615500,6.138615478515625,-0.0009926552884280682,-0.017486004158854485,0.06238456442952156
1772812467341316000,6.148316162109375,-0.006185005884617567,-0.00923932995647192,0.0501672700047493
1772812467351016700,6.1580166015625,-0.01259908638894558,0.01000291109085083,0.04253146052360535
1772812467360717300,6.16771728515625,-0.019624030217528343,0.021609341725707054,0.034895651042461395
1772812467370418000,6.17741796875,-0.02237292192876339,0.024052800610661507,0.03917170315980911
1772812467380118500,6.187118408203125,-0.031230462715029716,0.022220205515623093,0.04528035223484039
1772812467389819100,6.196819091796875,-0.041004300117492676,0.015806125476956367,0.04650207981467247
1772812467399519700,6.206519775390625,-0.04344775900244713,0.01824958436191082,0.04436405375599861
1772812467409220400,6.216220458984375,-0.04192059487104416,0.01183550525456667,0.03428478538990021
1772812467418921000,6.2259208984375,-0.03917170315980911,0.0066431546583771706,0.02237292192876339
1772812467428621800,6.235621826171875,-0.03611737862229347,0.006337722297757864,0.008323032408952713
1772812467438322400,6.245322509765625,-0.03367391973733902,0.0035888305865228176,-0.003283398225903511
1772812467448022800,6.255022705078125,-0.02695440873503685,0.003283398225903511,-0.01183550525456667
1772812467457723400,6.264723388671875,-0.014737112447619438,0.00022907429956831038,-0.014889828860759735
1772812467467424000,6.274424072265625,-0.0031306820455938578,0.0011453714687377214,-0.017027854919433594
1772812467477124600,6.28412451171875,0.00755945174023509,0.004505127668380737,-0.012751801870763302
1772812467486825500,6.293825439453125,0.014889828860759735,-0.006490438245236874,-0.00511599238961935
1772812467496526000,6.303526123046875,0.023136503994464874,-0.019929463043808937,0.006185005884617567
1772812467506226700,6.313226806640625,0.03260490670800209,-0.02756527252495289,0.009850194677710533
1772812467515927300,6.32292724609375,0.04024071618914604,-0.018402300775051117,0.015958841890096664
1772812467525628000,6.3326279296875,0.03993528336286545,-0.007406735327094793,0.019013166427612305
1772812467535328500,6.34232861328125,0.0322994738817215,-0.0016035200096666813,0.023594651371240616
1772812467545029000,6.352029052734375,0.028634287416934967,-0.0019089524867013097,0.029397867619991302
1772812467554729700,6.361729736328125,0.027107125148177147,-0.0077121676877141,0.02909243479371071
1772812467564430300,6.371430419921875,0.0295505840331316,-0.024205517023801804,0.018096869811415672
1772812467574131000,6.381130859375,0.03657552972435951,-0.03153589367866516,0.007406735327094793
1772812467583831600,6.39083154296875,0.039018988609313965,-0.025121813639998436,-0.00511599238961935
1772812467593532200,6.4005322265625,0.03627009689807892,-0.011377356946468353,-0.01977674663066864
1772812467603232800,6.410232666015625,0.028328854590654373,-0.0009926552884280682,-0.028328854590654373
1772812467612933400,6.419933349609375,0.01611155830323696,0.006948587018996477,-0.02741255611181259
1772812467622634000,6.429634033203125,0.006948587018996477,0.01977674663066864,-0.015500693581998348
1772812467632334600,6.43933447265625,-0.00038179047987796366,0.017333287745714188,-0.002672533504664898
1772812467642035200,6.44903515625,-0.004046979360282421,0.007254019379615784,0.008323032408952713
1772812467651735800,6.45873583984375,-0.0022143847309052944,-0.004963276442140341,0.013515383005142212
1772812467661436400,6.4684365234375,-0.00038179047987796366,-0.01565340906381607,0.00954476185142994
1772812467671137000,6.478136962890625,0.004810560029000044,-0.02023489587008953,-0.00022907429956831038
1772812467680837600,6.487837646484375,0.004199695307761431,-0.0193185992538929,-0.021609341725707054
1772812467690538200,6.497538330078125,-0.0025198173243552446,-0.014431680552661419,-0.042073313146829605
1772812467700238800,6.50723876953125,-0.01259908638894558,0.003283398225903511,-0.053985174745321274
1772812467709939500,6.516939453125,-0.023594651371240616,0.013057234697043896,-0.05673406645655632
1772812467719640000,6.52664013671875,-0.022983787581324577,0.010613775812089443,-0.05154171586036682
1772812467729340700,6.536340576171875,-0.011988221667706966,0.010613775812089443,-0.041157014667987823
1772812467739041300,6.546041259765625,0.0023671009112149477,0.003894262947142124,-0.028634287416934967
1772812467748742000,6.555741943359375,0.008781181648373604,0.004199695307761431,-0.011224640533328056
1772812467758442500,6.5654423828125,0.008170315995812416,0.002672533504664898,0.0034361144062131643
1772812467768143000,6.57514306640625,0.007254019379615784,0.0029779658652842045,0.02023489587008953
1772812467777843700,6.58484375,0.0023671009112149477,0.004505127668380737,0.037949975579977036
1772812467787544300,6.59454443359375,-0.004657844081521034,0.002672533504664898,0.04436405375599861
1772812467797245000,6.604244873046875,-0.009850194677710533,0.0035888305865228176,0.04741837829351425
1772812467806945800,6.61394580078125,-0.014431680552661419,0.005421424750238657,0.038560837507247925
1772812467816646400,6.623646484375,-0.015958841890096664,0.010613775812089443,0.026648975908756256
1772812467826347000,6.633346923828125,-0.01718057133257389,0.017944153398275375,0.015347977168858051
1772812467836047400,6.64304736328125,-0.014126247726380825,0.017027854919433594,0.0006872228696011007
1772812467845748000,6.652748046875,-0.013515383005142212,0.009086613543331623,-0.006337722297757864
1772812467855448600,6.662448486328125,-0.018096869811415672,-0.0031306820455938578,-0.009392046369612217
1772812467865149400,6.6721494140625,-0.027259841561317444,-0.01565340906381607,-0.014889828860759735
1772812467874850000,6.68185009765625,-0.04192059487104416,-0.0077121676877141,-0.01824958436191082
1772812467884550700,6.691550537109375,-0.05169443041086197,0.008170315995812416,-0.022220205515623093
1772812467894251300,6.701251220703125,-0.04589121788740158,0.024052800610661507,-0.023747367784380913
1772812467903952000,6.710951904296875,-0.03061959706246853,0.027107125148177147,-0.01763872057199478
1772812467913652500,6.720652587890625,-0.019013166427612305,0.015806125476956367,-0.0029779658652842045
1772812467923353000,6.73035302734375,-0.015958841890096664,-0.0006872228696011007,0.016875140368938446
1772812467933053700,6.7400537109375,-0.02023489587008953,-0.01626427471637726,0.02695440873503685
1772812467942754300,6.74975439453125,-0.03000873140990734,-0.01870773360133171,0.02328922040760517
1772812467952455000,6.759454833984375,-0.034895651042461395,-0.009850194677710533,0.00954476185142994
1772812467962155500,6.769155517578125,-0.03214675933122635,0.002672533504664898,-0.012140937149524689
1772812467971856100,6.778856201171875,-0.019013166427612305,0.004505127668380737,-0.03352120518684387
1772812467981556700,6.788556640625,-0.004963276442140341,0.0035888305865228176,-0.04818195849657059
1772812467991257300,6.79825732421875,0.010613775812089443,0.002672533504664898,-0.05826122686266899
1772812468000958000,6.8079580078125,0.021609341725707054,0.0057268571108579636,-0.05429060757160187
1772812468010658600,6.817658447265625,0.01977674663066864,0.012446369975805283,-0.03321577236056328
1772812468020359200,6.827359130859375,0.009086613543331623,0.01611155830323696,0.0012980876490473747
1772812468030059800,6.837059814453125,-0.00007635809743078426,0.0066431546583771706,0.03550651669502258
1772812468039760400,6.846760498046875,-0.005268708802759647,-0.011377356946468353,0.06238456442952156
1772812468049461000,6.8564609375,0.00022907429956831038,-0.02328922040760517,0.0758235901594162
1772812468059161600,6.86616162109375,0.013362666592001915,-0.0193185992538929,0.0703258067369461
1772812468068862200,6.8758623046875,0.027107125148177147,-0.008628465235233307,0.049861837178468704
1772812468078562800,6.885562744140625,0.03413207083940506,0.0029779658652842045,0.028176138177514076
1772812468088263400,6.895263427734375,0.02741255611181259,0.017944153398275375,0.02023489587008953
1772812468097964000,6.904964111328125,0.017027854919433594,0.01977674663066864,0.01718057133257389
1772812468107664600,6.91466455078125,0.012751801870763302,0.012446369975805283,0.02176205813884735
1772812468117365200,6.924365234375,0.007864884100854397,-0.00007635809743078426,0.02542724646627903
1772812468127065900,6.93406591796875,0.0023671009112149477,-0.008933897130191326,0.02023489587008953
1772812468136766500,6.943766357421875,-0.002825249684974551,-0.006490438245236874,0.01259908638894558
1772812468146467000,6.953467041015625,-0.011682788841426373,0.004505127668380737,-0.000839939049910754
1772812468156167700,6.963167724609375,-0.015347977168858051,0.018860450014472008,-0.009697478264570236
1772812468165868300,6.972868408203125,-0.013209951110184193,0.023136503994464874,-0.013362666592001915
1772812468175569000,6.98256884765625,-0.01779143698513508,0.028634287416934967,-0.001450803829357028
1772812468185269500,6.99226953125,-0.02176205813884735,0.02802342176437378,0.008017600513994694
1772812468194970400,7.001970458984375,-0.020540328696370125,0.01672242395579815,0.019013166427612305
1772812468204670700,7.011670654296875,-0.02084576152265072,0.01977674663066864,0.027870705351233482
1772812468214371300,7.021371337890625,-0.022983787581324577,0.030466880649328232,0.027870705351233482
1772812468224072000,7.031072021484375,-0.014737112447619438,0.03871355578303337,0.011988221667706966
1772812468233772500,7.0407724609375,-0.003741546766832471,0.02802342176437378,0.0009926552884280682
1772812468243473200,7.05047314453125,-0.0019089524867013097,0.0191658828407526,-0.0057268571108579636
1772812468253174000,7.060174072265625,-0.004963276442140341,0.015195261687040329,-0.005421424750238657
1772812468262874600,7.06987451171875,-0.012293653562664986,0.01183550525456667,-0.001450803829357028
1772812468272575200,7.0795751953125,-0.013820815831422806,0.013973532244563103,-0.0023671009112149477
1772812468282275800,7.08927587890625,-0.0058795735239982605,0.020387612283229828,-0.010613775812089443
1772812468291976200,7.09897607421875,0.0005345066892914474,-0.004963276442140341,-0.015500693581998348
1772812468301676800,7.1086767578125,-0.0009926552884280682,-0.024816380813717842,-0.01183550525456667
1772812468311377700,7.118377685546875,0.0035888305865228176,-0.02023489587008953,-0.011224640533328056
1772812468321078300,7.128078369140625,0.0066431546583771706,-0.018402300775051117,-0.01030834298580885
1772812468330779000,7.13777880859375,0.00847574882209301,-0.0077121676877141,-0.0057268571108579636
1772812468340479500,7.1474794921875,0.008781181648373604,0.0005345066892914474,0.0012980876490473747
1772812468350180000,7.15718017578125,0.009086613543331623,0.003894262947142124,0.011988221667706966
1772812468359880700,7.166880615234375,0.00755945174023509,0.008170315995812416,0.02695440873503685
1772812468369581300,7.176581298828125,0.007254019379615784,0.018555017188191414,0.04222602769732475
1772812468379282000,7.186281982421875,0.00603228947147727,0.01672242395579815,0.05413788929581642
1772812468388982500,7.195982421875,0.00022907429956831038,-0.0034361144062131643,0.059635672718286514
1772812468398683100,7.20568310546875,-0.0034361144062131643,-0.02084576152265072,0.05627591907978058
1772812468408383700,7.2153837890625,-0.006185005884617567,-0.020540328696370125,0.040088001638650894
1772812468418084400,7.22508447265625,-0.01259908638894558,-0.019624030217528343,0.008628465235233307
1772812468427785000,7.234784912109375,-0.014737112447619438,-0.013209951110184193,-0.029245151206851006
1772812468437485600,7.244485595703125,-0.01107192412018776,-0.009850194677710533,-0.06742420047521591
1772812468447186200,7.254186279296875,-0.004046979360282421,-0.005574141163378954,-0.09185878932476044
1772812468456886800,7.26388671875,0.003283398225903511,0.004199695307761431,-0.09552398324012756
1772812468466587400,7.27358740234375,0.00603228947147727,0.0029779658652842045,-0.08025235682725906
1772812468476288000,7.2832880859375,0.002061668550595641,-0.01779143698513508,-0.05306887626647949
1772812468485988600,7.292988525390625,-0.00038179047987796366,-0.024816380813717842,-0.018555017188191414
1772812468495689200,7.302689208984375,0.0005345066892914474,-0.014737112447619438,0.008323032408952713
1772812468505389800,7.312389892578125,-0.0031306820455938578,-0.0077121676877141,0.024816380813717842
1772812468515090400,7.32209033203125,-0.00679587060585618,-0.010461059398949146,0.02909243479371071
1772812468524791000,7.331791015625,-0.00007635809743078426,-0.00007635809743078426,0.028176138177514076
1772812468534491600,7.34149169921875,0.006948587018996477,0.010919207707047462,0.02023489587008953
1772812468544192300,7.351192138671875,0.00511599238961935,0.013973532244563103,0.015042545273900032
1772812468553892900,7.360892822265625,0.0017562361899763346,0.01030834298580885,0.015042545273900032
1772812468563593500,7.370593505859375,-0.00007635809743078426,-0.00007635809743078426,0.013820815831422806
1772812468573294000,7.380294189453125,0.0011453714687377214,-0.013209951110184193,0.008017600513994694
1772812468582994700,7.38999462890625,0.00847574882209301,-0.02237292192876339,-0.0057268571108579636
1772812468592695300,7.3996953125,0.016416991129517555,-0.03000873140990734,-0.02283107116818428
1772812468602396000,7.40939599609375,0.021609341725707054,-0.03367391973733902,-0.04085158184170723
1772812468612096500,7.419096435546875,0.022220205515623093,-0.016875140368938446,-0.053374309092760086
1772812468631498000,7.438498046875,0.0023671009112149477,0.006337722297757864,-0.049709122627973557
1772812468641198300,7.4481982421875,-0.005268708802759647,0.002061668550595641,-0.03413207083940506
1772812468650899000,7.45789892578125,-0.006185005884617567,-0.0058795735239982605,-0.01977674663066864
1772812468660599600,7.467599609375,-0.005268708802759647,-0.014126247726380825,-0.007254019379615784
1772812468670300200,7.477300048828125,0.002061668550595641,-0.014431680552661419,0.009850194677710533
1772812468680000800,7.487000732421875,0.007864884100854397,-0.03550651669502258,0.02756527252495289
1772812468689701600,7.49670166015625,0.020693045109510422,-0.059635672718286514,0.040088001638650894
1772812468699402200,7.50640234375,0.039018988609313965,-0.06788235157728195,0.050778135657310486
1772812468709102800,7.516102783203125,0.05948295816779137,-0.07765618711709976,0.05688678100705147
1772812468718803500,7.525803466796875,0.07719803601503372,-0.07429642975330353,0.05047270283102989
1772812468728503800,7.53550390625,0.08788817375898361,-0.04955640435218811,0.03672824427485466
1772812468738204400,7.545204345703125,0.09430225193500519,-0.0193185992538929,0.00038179047987796366
1772812468747905000,7.554905029296875,0.09735657274723053,0.017944153398275375,-0.037491824477910995
1772812468757606000,7.56460595703125,0.08788817375898361,0.041157014667987823,-0.07383827865123749
1772812468767306500,7.574306396484375,0.06742420047521591,0.05826122686266899,-0.07567087560892105
1772812468777007000,7.584007080078125,0.04512763395905495,0.06864593178033829,-0.04604393243789673
1772812468786707700,7.593707763671875,0.017027854919433594,0.04696023091673851,-0.0023671009112149477
1772812468796408300,7.603408203125,-0.011377356946468353,0.009392046369612217,0.04741837829351425
