time,seconds_elapsed,z,y,x
1772812423077268500,0.0972685546875,-0.028176138177514076,0.050319984555244446,0.011988221667706966
1772812423086969000,0.106968994140625,-0.028176138177514076,0.02802342176437378,0.010461059398949146
1772812423096669700,0.116669677734375,-0.024205517023801804,0.013973532244563103,0.007406735327094793
1772812423106370600,0.12637060546875,-0.01565340906381607,0.002672533504664898,0.005574141163378954
1772812423116071200,0.1360712890625,-0.002825249684974551,-0.0031306820455938578,0.004046979360282421
1772812423125771800,0.145771728515625,0.024052800610661507,0.012751801870763302,0.010461059398949146
1772812423135472400,0.155472412109375,0.0576503649353981,0.03321577236056328,0.009850194677710533
1772812423145173200,0.16517333984375,0.055512335151433945,-0.0077121676877141,0.004963276442140341
1772812423154873900,0.174873779296875,0.04604393243789673,-0.02176205813884735,-0.006337722297757864
1772812423164574500,0.184574462890625,0.04543306678533554,-0.01565340906381607,-0.019471315667033195
1772812423174275000,0.194275146484375,0.054901473224163055,0.020998476073145866,-0.03657552972435951
1772812423183976000,0.203975830078125,0.03840812295675278,0.027107125148177147,-0.06039925664663315
1772812423193676500,0.213676513671875,0.025274530053138733,0.05826122686266899,-0.06711876392364502
1772812423203377200,0.223377197265625,0.01030834298580885,0.0784197673201561,-0.05826122686266899
1772812423213077800,0.233077880859375,-0.0019089524867013097,0.06498073786497116,-0.03535379841923714
1772812423222778600,0.242778564453125,-0.0022143847309052944,0.05062541738152504,-0.004505127668380737
1772812423232479200,0.252479248046875,0.009697478264570236,0.035964664071798325,0.02176205813884735
1772812423242179800,0.262179931640625,0.020387612283229828,0.017027854919433594,0.041004300117492676
1772812423251880700,0.271880615234375,0.02649625949561596,0.003283398225903511,0.05108356848359108
1772812423261581300,0.281581298828125,0.02588539570569992,-0.0009926552884280682,0.04802924394607544
1772812423271282000,0.291281982421875,0.027107125148177147,-0.00007635809743078426,0.03825540840625763
1772812423280982500,0.300982421875,0.022220205515623093,-0.002825249684974551,0.019624030217528343
1772812423290683400,0.310683349609375,0.009697478264570236,0.0017562361899763346,0.0006872228696011007
1772812423300384000,0.320384033203125,0.0005345066892914474,0.013973532244563103,-0.008781181648373604
1772812423310084600,0.330084716796875,-0.006490438245236874,0.013362666592001915,-0.01611155830323696
1772812423319785500,0.339785400390625,-0.008323032408952713,0.003283398225903511,-0.0191658828407526
1772812423329486000,0.349486083984375,-0.005268708802759647,-0.010766491293907166,-0.021914774551987648
1772812423339186700,0.359186767578125,-0.005574141163378954,-0.01565340906381607,-0.02893971838057041
1772812423348887600,0.368887451171875,-0.008017600513994694,0.0011453714687377214,-0.0322994738817215
1772812423358588200,0.378588134765625,-0.013820815831422806,0.018555017188191414,-0.03413207083940506
1772812423368288800,0.388288818359375,-0.019624030217528343,0.03168861195445061,-0.024663666263222694
1772812423377989400,0.3979892578125,-0.026648975908756256,0.034437503665685654,-0.006948587018996477
1772812423387690200,0.407690185546875,-0.03000873140990734,0.0191658828407526,0.00954476185142994
1772812423397390800,0.417390869140625,-0.030314164236187935,0.006948587018996477,0.02328922040760517
1772812423407091500,0.427091552734375,-0.02756527252495289,0.00755945174023509,0.02909243479371071
1772812423416792000,0.4367919921875,-0.02084576152265072,0.015806125476956367,0.028176138177514076
1772812423426493000,0.446492919921875,-0.013820815831422806,0.019471315667033195,0.022678354755043983
1772812423436193500,0.456193603515625,-0.005574141163378954,0.01763872057199478,0.014737112447619438
1772812423445894100,0.46589404296875,0.004199695307761431,0.014889828860759735,0.009850194677710533
1772812423455595000,0.475594970703125,0.006948587018996477,0.009086613543331623,0.0058795735239982605
1772812423465295600,0.485295654296875,0.003894262947142124,0.004810560029000044,0.006490438245236874
1772812423474996200,0.494996337890625,-0.003741546766832471,-0.005268708802759647,0.0022143847309052944
1772812423484696800,0.50469677734375,-0.008323032408952713,-0.00954476185142994,-0.007864884100854397
1772812423494397700,0.514397705078125,-0.008323032408952713,-0.004657844081521034,-0.018555017188191414
1772812423504098300,0.524098388671875,-0.0022143847309052944,-0.003741546766832471,-0.029856016859412193
1772812423513799000,0.533798828125,0.009086613543331623,-0.0058795735239982605,-0.040546149015426636
1772812423523499500,0.54349951171875,0.017944153398275375,-0.012904518283903599,-0.04482220485806465
1772812423533200400,0.553200439453125,0.0191658828407526,-0.011377356946468353,-0.03779725730419159
1772812423542901000,0.56290087890625,0.015195261687040329,-0.003741546766832471,-0.02283107116818428
1772812423552601600,0.5726015625,0.0057268571108579636,0.0057268571108579636,-0.003894262947142124
1772812423562302500,0.582302490234375,-0.0016035200096666813,0.012446369975805283,0.01779143698513508
1772812423572003000,0.592003173828125,-0.0012980876490473747,0.01000291109085083,0.0345902182161808
1772812423581703700,0.60170361328125,0.0057268571108579636,0.006337722297757864,0.043753188103437424
1772812423591404500,0.611404541015625,0.012751801870763302,0.00603228947147727,0.04558578506112099
1772812423601105200,0.621105224609375,0.016416991129517555,0.00511599238961935,0.043753188103437424
1772812423610805800,0.6308056640625,0.014584396965801716,-0.0006872228696011007,0.037033677101135254
1772812423620506600,0.640506591796875,0.01183550525456667,-0.006490438245236874,0.025732679292559624
1772812423630207200,0.650207275390625,0.008170315995812416,0.009086613543331623,0.013820815831422806
1772812423639907800,0.659907958984375,-0.0016035200096666813,0.03535379841923714,0.009850194677710533
1772812423649608400,0.6696083984375,-0.01259908638894558,0.044211339205503464,0.012293653562664986
1772812423659309300,0.679309326171875,-0.019013166427612305,0.02741255611181259,0.021456625312566757
1772812423669010000,0.689010009765625,-0.01565340906381607,-0.0058795735239982605,0.02237292192876339
1772812423678710500,0.69871044921875,-0.002825249684974551,-0.031230462715029716,0.012293653562664986
1772812423688411100,0.7084111328125,0.007864884100854397,-0.03764454275369644,-0.00755945174023509
1772812423698112000,0.718112060546875,0.01000291109085083,-0.01870773360133171,-0.03474293276667595
1772812423707812600,0.7278125,-0.0006872228696011007,0.020693045109510422,-0.053374309092760086
1772812423717513200,0.73751318359375,-0.014737112447619438,0.040546149015426636,-0.05367974191904068
1772812423727213800,0.7472138671875,-0.02756527252495289,0.03413207083940506,-0.03962985426187515
1772812423736914700,0.756914794921875,-0.027259841561317444,0.01030834298580885,-0.023747367784380913
1772812423746615300,0.766615234375,-0.013515383005142212,-0.015347977168858051,-0.012446369975805283
1772812423756316000,0.77631591796875,0.0029779658652842045,-0.024816380813717842,-0.01000291109085083
1772812423766016500,0.7860166015625,0.015500693581998348,-0.02176205813884735,-0.01611155830323696
1772812423775717400,0.79571728515625,0.022220205515623093,-0.012293653562664986,-0.028328854590654373
1772812423785418000,0.80541796875,0.02741255611181259,-0.005268708802759647,-0.03810269013047218
1772812423795118600,0.81511865234375,0.02893971838057041,-0.005268708802759647,-0.0423787422478199
1772812423804819200,0.824819091796875,0.027107125148177147,-0.006185005884617567,-0.03474293276667595
1772812423814520000,0.83452001953125,0.025579962879419327,-0.010461059398949146,-0.021609341725707054
1772812423824220700,0.844220703125,0.02496909722685814,-0.017486004158854485,-0.006948587018996477
1772812423833921300,0.85392138671875,0.023747367784380913,-0.02542724646627903,0.005574141163378954
1772812423843622100,0.8636220703125,0.017333287745714188,-0.028176138177514076,0.01107192412018776
1772812423853322800,0.87332275390625,0.01000291109085083,-0.017486004158854485,0.006185005884617567
1772812423863023400,0.8830234375,0.003894262947142124,0.01183550525456667,0.004657844081521034
1772812423872724200,0.89272412109375,-0.007406735327094793,0.03260490670800209,0.003741546766832471
1772812423882424800,0.9024248046875,-0.016569707542657852,0.0371863916516304,0.009850194677710533
1772812423892125400,0.91212548828125,-0.018402300775051117,0.03138317912817001,0.019013166427612305
1772812423901826300,0.921826416015625,-0.014737112447619438,0.012446369975805283,0.024510949850082397
1772812423911527000,0.93152685546875,-0.005268708802759647,-0.004352411720901728,0.026038112118840218
1772812423921227500,0.9412275390625,0.003894262947142124,-0.014431680552661419,0.019624030217528343
1772812423930928000,0.95092822265625,0.010613775812089443,-0.01779143698513508,0.00679587060585618
1772812423940629000,0.96062890625,0.01000291109085083,-0.015042545273900032,-0.012751801870763302
1772812423950329600,0.97032958984375,0.009086613543331623,-0.009850194677710533,-0.03413207083940506
1772812423960030200,0.9800302734375,0.013057234697043896,-0.003741546766832471,-0.05123628303408623
1772812423969730800,0.989730712890625,0.0191658828407526,-0.0006872228696011007,-0.06589704006910324
1772812423979431700,0.999431640625,0.022525638341903687,-0.00038179047987796366,-0.0732274129986763
1772812423989132300,1.00913232421875,0.018555017188191414,0.005421424750238657,-0.07047852128744125
1772812423998833000,1.0188330078125,0.004199695307761431,0.012446369975805283,-0.05520690605044365
1772812424008533500,1.028533447265625,-0.011377356946468353,0.0057268571108579636,-0.033826638013124466
1772812424018234400,1.038234375,-0.022983787581324577,-0.015347977168858051,-0.01763872057199478
1772812424027935000,1.04793505859375,-0.022983787581324577,-0.031841326504945755,-0.009392046369612217
1772812424037635600,1.057635498046875,-0.011377356946468353,-0.03214675933122635,-0.017333287745714188
1772812424047336400,1.06733642578125,0.002061668550595641,0.0005345066892914474,-0.028328854590654373
1772812424057037000,1.077037109375,0.01000291109085083,0.041157014667987823,-0.027717988938093185
1772812424066737700,1.086737548828125,0.002672533504664898,0.05001455545425415,-0.014889828860759735
1772812424076438300,1.096438232421875,-0.005268708802759647,0.03565923124551773,0.011682788841426373
1772812424086139100,1.10613916015625,-0.004963276442140341,0.01030834298580885,0.03917170315980911
1772812424095839700,1.11583984375,0.000839939049910754,-0.015347977168858051,0.05566505342721939
1772812424105540400,1.125540283203125,0.00847574882209301,-0.027870705351233482,0.05413788929581642
1772812424115241000,1.135240966796875,0.01824958436191082,-0.022983787581324577,0.03306305781006813
1772812424124941800,1.14494189453125,0.030466880649328232,-0.004046979360282421,0.0016035200096666813
1772812424134642400,1.154642333984375,0.04085158184170723,0.014584396965801716,-0.02893971838057041
1772812424144343300,1.16434326171875,0.040546149015426636,0.020082179456949234,-0.04634936526417732
1772812424154044000,1.1740439453125,0.028634287416934967,0.015195261687040329,-0.044211339205503464
1772812424163744500,1.18374462890625,0.014584396965801716,0.004810560029000044,-0.030772313475608826
1772812424173445000,1.193445068359375,0.002061668550595641,-0.006185005884617567,-0.014889828860759735
1772812424183146000,1.20314599609375,-0.004657844081521034,-0.011988221667706966,-0.0029779658652842045
1772812424192846600,1.2128466796875,-0.004963276442140341,-0.002825249684974551,-0.0023671009112149477
1772812424202547200,1.222547119140625,-0.007406735327094793,0.01183550525456667,-0.010613775812089443
1772812424212247800,1.232247802734375,-0.012293653562664986,0.019471315667033195,-0.02893971838057041
1772812424221948700,1.24194873046875,-0.01565340906381607,0.025274530053138733,-0.04818195849657059
1772812424231649300,1.251649169921875,-0.019624030217528343,0.018860450014472008,-0.06620246917009354
1772812424241350000,1.261349853515625,-0.0193185992538929,0.00511599238961935,-0.08147408813238144
1772812424251050800,1.27105078125,-0.011682788841426373,-0.008323032408952713,-0.09735657274723053
1772812424260751400,1.28075146484375,0.003283398225903511,-0.011682788841426373,-0.11293362826108932
1772812424270452000,1.290451904296875,0.018555017188191414,-0.009850194677710533,-0.12118030339479446
1772812424280152600,1.300152587890625,0.026190826669335365,-0.004963276442140341,-0.1190422773361206
1772812424289853400,1.309853515625,0.02893971838057041,0.002061668550595641,-0.10743584483861923
1772812424299554000,1.319553955078125,0.026801692321896553,0.004810560029000044,-0.08513928204774857
1772812424309254700,1.329254638671875,0.0243582334369421,0.007254019379615784,-0.058566659688949585
1772812424318955300,1.338955322265625,0.02649625949561596,0.013057234697043896,-0.02588539570569992
1772812424328656100,1.34865625,0.030466880649328232,0.008781181648373604,0.003741546766832471
1772812424338356700,1.358356689453125,0.03107774630188942,-0.0012980876490473747,0.02542724646627903
1772812424348057300,1.368057373046875,0.03138317912817001,-0.009850194677710533,0.03061959706246853
1772812424357758000,1.377758056640625,0.03779725730419159,-0.008628465235233307,0.019624030217528343
1772812424367458800,1.387458740234375,0.05215258151292801,0.007254019379615784,0.005574141163378954
1772812424377159400,1.397159423828125,0.06620246917009354,0.020998476073145866,-0.01030834298580885
1772812424386860000,1.406860107421875,0.07170025259256363,0.023441936820745468,-0.015500693581998348
1772812424396561000,1.416560791015625,0.06650790572166443,0.011530072428286076,-0.010919207707047462
1772812424406261500,1.426261474609375,0.05154171586036682,-0.0077121676877141,-0.008170315995812416
1772812424415962000,1.435962158203125,0.03535379841923714,-0.01259908638894558,-0.006948587018996477
1772812424425663000,1.4456630859375,0.022525638341903687,-0.0058795735239982605,-0.01672242395579815
1772812424435363600,1.455363525390625,0.020693045109510422,0.010919207707047462,-0.030466880649328232
1772812424445064200,1.465064208984375,0.02283107116818428,0.029245151206851006,-0.03993528336286545
1772812424454764800,1.474764892578125,0.017333287745714188,0.03352120518684387,-0.0423787422478199
1772812424464465700,1.484465576171875,0.002672533504664898,0.021609341725707054,-0.037491824477910995
1772812424474166300,1.494166259765625,-0.010461059398949146,0.009392046369612217,-0.03138317912817001
1772812424483867000,1.503866943359375,-0.01870773360133171,0.0066431546583771706,-0.02649625949561596
1772812424493567700,1.513567626953125,-0.02237292192876339,0.017944153398275375,-0.02588539570569992
1772812424503268400,1.523268310546875,-0.022067490965127945,0.0295505840331316,-0.032910339534282684
1772812424512969000,1.532968994140625,-0.023594651371240616,0.0322994738817215,-0.04482220485806465
1772812424522669600,1.542669677734375,-0.022678354755043983,0.02496909722685814,-0.051847148686647415
1772812424532370400,1.552370361328125,-0.013820815831422806,0.01000291109085083,-0.054901473224163055
1772812424542071000,1.562071044921875,-0.002825249684974551,-0.003741546766832471,-0.057955797761678696
1772812424551771600,1.571771728515625,0.01030834298580885,-0.011988221667706966,-0.057955797761678696
1772812424561472300,1.58147216796875,0.025274530053138733,-0.015347977168858051,-0.054901473224163055
1772812424571173000,1.591173095703125,0.03962985426187515,-0.015958841890096664,-0.05215258151292801
1772812424580873700,1.600873779296875,0.049709122627973557,-0.011988221667706966,-0.04543306678533554
1772812424590574300,1.61057421875,0.056428633630275726,-0.008628465235233307,-0.03840812295675278
1772812424600275000,1.62027490234375,0.05917752534151077,-0.004352411720901728,-0.02802342176437378
1772812424609975800,1.629975830078125,0.05978839099407196,-0.0025198173243552446,-0.015195261687040329
1772812424619676400,1.639676513671875,0.05581776797771454,-0.005268708802759647,-0.001450803829357028
1772812424629377000,1.649376953125,0.0524580143392086,-0.008933897130191326,0.010461059398949146
1772812424639077600,1.65907763671875,0.05062541738152504,-0.012293653562664986,0.017486004158854485
1772812424648778500,1.668778564453125,0.05154171586036682,-0.011988221667706966,0.018402300775051117
1772812424658479000,1.67847900390625,0.0527634471654892,-0.01259908638894558,0.013820815831422806
1772812424668179700,1.6881796875,0.04451677203178406,-0.007101302966475487,0.004963276442140341
1772812424677880600,1.697880615234375,0.029245151206851006,0.003894262947142124,-0.006337722297757864
1772812424687581200,1.707581298828125,0.01183550525456667,0.013362666592001915,-0.015500693581998348
1772812424697281800,1.71728173828125,-0.004657844081521034,0.017333287745714188,-0.027717988938093185
1772812424706982700,1.726982666015625,-0.012904518283903599,0.017944153398275375,-0.03932442143559456
1772812424716683300,1.736683349609375,-0.016569707542657852,0.010919207707047462,-0.047265663743019104
1772812424726383900,1.7463837890625,-0.019929463043808937,0.002061668550595641,-0.051847148686647415
1772812424736084500,1.75608447265625,-0.021151192486286163,-0.00007635809743078426,-0.05123628303408623
1772812424745785300,1.765785400390625,-0.020540328696370125,0.009392046369612217,-0.0475710928440094
1772812424755486000,1.77548583984375,-0.02084576152265072,0.023747367784380913,-0.03810269013047218
1772812424765186600,1.7851865234375,-0.023594651371240616,0.029856016859412193,-0.025274530053138733
1772812424774887200,1.79488720703125,-0.021456625312566757,0.0243582334369421,-0.01000291109085083
1772812424784588000,1.804588134765625,-0.015042545273900032,0.009697478264570236,0.004657844081521034
1772812424794288600,1.81428857421875,-0.0058795735239982605,-0.0031306820455938578,0.016569707542657852
1772812424803989200,1.8239892578125,0.0035888305865228176,-0.011988221667706966,0.02390008419752121
1772812424813689900,1.83368994140625,0.009086613543331623,-0.013820815831422806,0.023594651371240616
1772812424823390700,1.843390625,0.009392046369612217,-0.010461059398949146,0.0193185992538929
1772812424833091300,1.85309130859375,0.006948587018996477,-0.007406735327094793,0.009850194677710533
1772812424842792000,1.8627919921875,0.003894262947142124,-0.0006872228696011007,-0.000839939049910754
1772812424852492500,1.872492431640625,0.004810560029000044,0.004810560029000044,-0.006337722297757864
1772812424862193400,1.882193359375,0.006948587018996477,0.009392046369612217,-0.00603228947147727
1772812424871894000,1.89189404296875,0.009392046369612217,0.016416991129517555,0.004046979360282421
1772812424881594600,1.9015947265625,0.01030834298580885,0.020998476073145866,0.018096869811415672
1772812424891295200,1.911295166015625,0.009697478264570236,0.022220205515623093,0.033979352563619614
1772812424900996000,1.92099609375,0.008781181648373604,0.013362666592001915,0.046807512640953064
1772812424910696700,1.93069677734375,0.007254019379615784,0.004505127668380737,0.057497646659612656
1772812424920397600,1.9403974609375,0.0023671009112149477,-0.003741546766832471,0.05933023989200592
1772812424930098200,1.95009814453125,-0.0034361144062131643,-0.008628465235233307,0.05566505342721939
1772812424939798800,1.959798828125,-0.014431680552661419,-0.005268708802759647,0.04711294546723366
1772812424949499600,1.969499755859375,-0.022678354755043983,0.002061668550595641,0.031841326504945755
1772812424959200300,1.9792001953125,-0.02237292192876339,0.011224640533328056,0.01259908638894558
1772812424968900900,1.98890087890625,-0.01718057133257389,0.01763872057199478,-0.00755945174023509
1772812424978601500,1.9986015625,-0.014737112447619438,0.012140937149524689,-0.02893971838057041
1772812424988302300,2.00830224609375,-0.013820815831422806,0.0066431546583771706,-0.043600473552942276
1772812424998003000,2.0180029296875,-0.008933897130191326,0.003283398225903511,-0.050319984555244446
1772812425007703600,2.02770361328125,-0.004352411720901728,-0.0019089524867013097,-0.04512763395905495
1772812425017404200,2.037404052734375,-0.010461059398949146,-0.010461059398949146,-0.03107774630188942
1772812425027105000,2.04710498046875,-0.022067490965127945,-0.022678354755043983,-0.017944153398275375
1772812425036805600,2.0568056640625,-0.031230462715029716,-0.03061959706246853,-0.013668099418282509
1772812425046506200,2.06650634765625,-0.033979352563619614,-0.019929463043808937,-0.017027854919433594
1772812425056206800,2.076206787109375,-0.03306305781006813,-0.0034361144062131643,-0.02893971838057041
1772812425065907700,2.08590771484375,-0.03214675933122635,0.00755945174023509,-0.03840812295675278
1772812425075608300,2.0956083984375,-0.030314164236187935,0.017333287745714188,-0.037491824477910995
1772812425085309000,2.105308837890625,-0.028176138177514076,0.023747367784380913,-0.020998476073145866
1772812425095009500,2.115009521484375,-0.030314164236187935,0.020998476073145866,0.008017600513994694
1772812425104710400,2.12471044921875,-0.031841326504945755,0.007254019379615784,0.040088001638650894
1772812425114411000,2.134410888671875,-0.03275762498378754,-0.013820815831422806,0.059024810791015625
1772812425124111600,2.144111572265625,-0.03061959706246853,-0.03367391973733902,0.05994110554456711
1772812425133812200,2.153812255859375,-0.023594651371240616,-0.03917170315980911,0.037033677101135254
1772812425143513000,2.16351318359375,-0.010155626572668552,-0.026648975908756256,0.0012980876490473747
1772812425153213700,2.173213623046875,0.0029779658652842045,-0.0025198173243552446,-0.03627009689807892
1772812425162914300,2.182914306640625,0.009697478264570236,0.02283107116818428,-0.0576503649353981
1772812425172615200,2.192615234375,0.0035888305865228176,0.029245151206851006,-0.060704685747623444
1772812425182315800,2.202315673828125,-0.004963276442140341,0.01763872057199478,-0.04390590637922287
1772812425192016400,2.212016357421875,-0.011988221667706966,-0.0031306820455938578,-0.02130390889942646
1772812425201717200,2.22171728515625,-0.014431680552661419,-0.011988221667706966,0.0022143847309052944
1772812425211417900,2.23141796875,-0.016569707542657852,-0.013515383005142212,0.019624030217528343
1772812425221118500,2.241118408203125,-0.022678354755043983,-0.010461059398949146,0.03306305781006813
1772812425230819000,2.250819091796875,-0.02909243479371071,-0.008323032408952713,0.03275762498378754
1772812425240520000,2.26052001953125,-0.03061959706246853,-0.0025198173243552446,0.021151192486286163
1772812425250220500,2.270220458984375,-0.02848157100379467,0.00847574882209301,0.0034361144062131643
1772812425259921200,2.279921142578125,-0.024205517023801804,0.014889828860759735,-0.013668099418282509
1772812425269621800,2.289621826171875,-0.019929463043808937,0.01824958436191082,-0.026801692321896553
1772812425279322600,2.299322509765625,-0.013820815831422806,0.025274530053138733,-0.03107774630188942
1772812425289023200,2.309023193359375,-0.010155626572668552,0.030161447823047638,-0.021914774551987648
1772812425298723800,2.318723876953125,-0.012293653562664986,0.019471315667033195,-0.002061668550595641
1772812425308424400,2.328424560546875,-0.01565340906381607,-0.004657844081521034,0.018096869811415672
1772812425318125300,2.338125244140625,-0.012293653562664986,-0.02328922040760517,0.02909243479371071
1772812425327826000,2.347825927734375,-0.0006872228696011007,-0.02237292192876339,0.02756527252495289
1772812425337526500,2.357526611328125,0.009392046369612217,-0.01626427471637726,0.01565340906381607
1772812425347227100,2.36722705078125,0.01183550525456667,-0.00954476185142994,0.0006872228696011007
1772812425356928000,2.376927978515625,0.008781181648373604,-0.0031306820455938578,-0.009392046369612217
1772812425366628600,2.386628662109375,0.0023671009112149477,0.0011453714687377214,-0.015195261687040329
1772812425376329200,2.3963291015625,-0.0034361144062131643,0.00755945174023509,-0.013668099418282509
1772812425386029800,2.40602978515625,-0.010766491293907166,0.014889828860759735,-0.00847574882209301
1772812425395730700,2.415730712890625,-0.022067490965127945,0.014889828860759735,-0.003283398225903511
1772812425405431300,2.425431396484375,-0.03214675933122635,0.015806125476956367,0.004046979360282421
1772812425415132000,2.4351318359375,-0.03611737862229347,0.015195261687040329,0.014126247726380825
1772812425424832800,2.444832763671875,-0.034895651042461395,0.00603228947147727,0.018402300775051117
1772812425434533400,2.454533447265625,-0.030314164236187935,-0.0022143847309052944,0.0193185992538929
1772812425444234000,2.46423388671875,-0.021456625312566757,-0.005268708802759647,0.017486004158854485
1772812425453934800,2.473934814453125,-0.013515383005142212,-0.00923932995647192,0.008933897130191326
1772812425463635500,2.483635498046875,-0.007406735327094793,-0.007406735327094793,-0.00511599238961935
1772812425473336000,2.493336181640625,-0.004963276442140341,0.006337722297757864,-0.012446369975805283
1772812425483036700,2.50303662109375,-0.002825249684974551,0.01000291109085083,-0.014278964139521122
1772812425492737500,2.512737548828125,0.00022907429956831038,0.0017562361899763346,-0.009392046369612217
1772812425502438100,2.522438232421875,0.006337722297757864,-0.005574141163378954,-0.0023671009112149477
1772812425512138800,2.532138671875,0.013973532244563103,0.00022907429956831038,0.01107192412018776
1772812425521839400,2.54183935546875,0.01611155830323696,0.00755945174023509,0.024510949850082397
1772812425531540200,2.551540283203125,0.006948587018996477,0.003283398225903511,0.0345902182161808
1772812425541240800,2.56124072265625,-0.008017600513994694,-0.0022143847309052944,0.034895651042461395
1772812425550941400,2.57094140625,-0.01870773360133171,-0.0022143847309052944,0.030314164236187935
1772812425560642000,2.58064208984375,-0.024205517023801804,-0.004657844081521034,0.014737112447619438
1772812425570343000,2.590343017578125,-0.02390008419752121,-0.007101302966475487,-0.004810560029000044
1772812425580043500,2.60004345703125,-0.01626427471637726,-0.004657844081521034,-0.03138317912817001
1772812425589744000,2.609744140625,-0.0034361144062131643,0.009392046369612217,-0.05062541738152504
1772812425599444700,2.61944482421875,0.0029779658652842045,0.015500693581998348,-0.05734493210911751
1772812425609145600,2.6291455078125,0.00511599238961935,0.00847574882209301,-0.05062541738152504
1772812425618846200,2.63884619140625,0.009086613543331623,-0.0009926552884280682,-0.03474293276667595
1772812425628546800,2.648546875,0.012140937149524689,-0.01107192412018776,-0.014278964139521122
1772812425638247400,2.658247314453125,0.009392046369612217,-0.017486004158854485,0.008628465235233307
1772812425647948300,2.6679482421875,0.00755945174023509,-0.021456625312566757,0.02328922040760517
1772812425657649000,2.67764892578125,0.01183550525456667,-0.011682788841426373,0.02909243479371071
1772812425667349500,2.687349609375,0.017027854919433594,0.004505127668380737,0.028176138177514076
1772812425677050400,2.69705029296875,0.017333287745714188,0.004810560029000044,0.02237292192876339
1772812425686751000,2.7067509765625,0.018555017188191414,0.001450803829357028,0.013515383005142212
1772812425696451600,2.71645166015625,0.024663666263222694,0.00022907429956831038,0.0022143847309052944
1772812425706152400,2.72615234375,0.03168861195445061,-0.0022143847309052944,-0.01030834298580885
1772812425715853000,2.73585302734375,0.03168861195445061,-0.008017600513994694,-0.015195261687040329
1772812425725553700,2.7455537109375,0.025579962879419327,-0.011377356946468353,-0.015806125476956367
1772812425735254300,2.755254150390625,0.017333287745714188,-0.00923932995647192,-0.012446369975805283
1772812425744955100,2.764955078125,0.003894262947142124,-0.011682788841426373,-0.010613775812089443
1772812425754655700,2.77465576171875,-0.013209951110184193,-0.010461059398949146,-0.006948587018996477
1772812425764356400,2.7843564453125,-0.025121813639998436,-0.004657844081521034,-0.007864884100854397
1772812425774057000,2.794056884765625,-0.03214675933122635,0.002672533504664898,-0.009392046369612217
1772812425783757800,2.8037578125,-0.033368486911058426,0.012446369975805283,-0.011224640533328056
1772812425793458400,2.81345849609375,-0.030925029888749123,0.0191658828407526,-0.01000291109085083
1772812425803159000,2.823158935546875,-0.024816380813717842,0.017333287745714188,-0.004505127668380737
1772812425812859600,2.832859619140625,-0.018402300775051117,0.00603228947147727,0.0022143847309052944
1772812425822560500,2.842560546875,-0.011988221667706966,-0.005574141163378954,0.0077121676877141
1772812425832261000,2.85226123046875,-0.007406735327094793,-0.010461059398949146,0.00954476185142994
1772812425841961700,2.861961669921875,-0.0019089524867013097,-0.006185005884617567,0.005268708802759647
1772812425851662300,2.871662353515625,0.000839939049910754,0.003283398225903511,0.0025198173243552446
1772812425861363200,2.88136328125,-0.00007635809743078426,0.004810560029000044,-0.003894262947142124
1772812425871063800,2.891063720703125,0.003283398225903511,0.005421424750238657,-0.00755945174023509
1772812425880764400,2.900764404296875,0.009697478264570236,0.004810560029000044,-0.009086613543331623
1772812425890465000,2.910465087890625,0.014889828860759735,-0.00038179047987796366,-0.01030834298580885
1772812425900166000,2.920165771484375,0.017027854919433594,-0.00923932995647192,-0.008781181648373604
1772812425909866500,2.929866455078125,0.013057234697043896,-0.010155626572668552,-0.004199695307761431
1772812425919567000,2.939567138671875,0.004505127668380737,-0.008933897130191326,0.0022143847309052944
1772812425929268000,2.94926806640625,-0.0034361144062131643,-0.012904518283903599,0.007101302966475487
1772812425938968600,2.958968505859375,-0.005268708802759647,-0.011988221667706966,0.005268708802759647
1772812425948669200,2.968669189453125,-0.0012980876490473747,-0.005574141163378954,-0.00022907429956831038
1772812425958370000,2.9783701171875,0.00022907429956831038,0.000839939049910754,-0.007254019379615784
1772812425968070700,2.988070556640625,-0.0016035200096666813,0.002672533504664898,-0.014584396965801716
1772812425977771300,2.997771240234375,-0.0022143847309052944,0.0017562361899763346,-0.01763872057199478
1772812425987472000,3.007471923828125,-0.0006872228696011007,-0.004657844081521034,-0.0191658828407526
1772812425997172500,3.01717236328125,0.0035888305865228176,-0.011988221667706966,-0.015500693581998348
1772812426006873300,3.026873291015625,0.003894262947142124,-0.010461059398949146,-0.00847574882209301
1772812426016574000,3.036573974609375,0.00022907429956831038,-0.0058795735239982605,-0.002061668550595641
1772812426026274600,3.046274658203125,-0.0031306820455938578,0.004199695307761431,-0.00022907429956831038
1772812426035975200,3.05597509765625,-0.004963276442140341,0.016416991129517555,0.00679587060585618
1772812426045676000,3.065676025390625,-0.015042545273900032,0.019471315667033195,0.01626427471637726
1772812426055376600,3.075376708984375,-0.031230462715029716,0.01824958436191082,0.027870705351233482
1772812426065077200,3.0850771484375,-0.04711294546723366,0.011530072428286076,0.03214675933122635
1772812426074777900,3.09477783203125,-0.05566505342721939,0.00603228947147727,0.02756527252495289
1772812426084478700,3.104478759765625,-0.05322159454226494,0.003283398225903511,0.011988221667706966
1772812426094179300,3.114179443359375,-0.04436405375599861,0.001450803829357028,-0.008170315995812416
1772812426103880000,3.1238798828125,-0.031230462715029716,0.00603228947147727,-0.029245151206851006
1772812426113580500,3.13358056640625,-0.01870773360133171,0.01030834298580885,-0.04024071618914604
1772812426123281400,3.143281494140625,-0.010155626572668552,0.002672533504664898,-0.04146244749426842
1772812426132982000,3.15298193359375,-0.004963276442140341,-0.006490438245236874,-0.03138317912817001
1772812426142683000,3.162682861328125,-0.003741546766832471,-0.011988221667706966,-0.01611155830323696
1772812426152383500,3.172383544921875,-0.004657844081521034,-0.013515383005142212,0.0006872228696011007
1772812426162084000,3.182083984375,-0.004352411720901728,-0.00679587060585618,0.01565340906381607
1772812426171784700,3.19178466796875,0.0017562361899763346,0.0035888305865228176,0.029703300446271896
1772812426181485600,3.201485595703125,0.011530072428286076,0.006948587018996477,0.03917170315980911
1772812426191186200,3.211186279296875,0.019471315667033195,-0.0012980876490473747,0.05047270283102989
1772812426200886800,3.22088671875,0.02741255611181259,-0.013515383005142212,0.05688678100705147
1772812426210587400,3.23058740234375,0.03321577236056328,-0.02176205813884735,0.05413788929581642
1772812426220288300,3.240288330078125,0.03871355578303337,-0.022983787581324577,0.046196650713682175
1772812426229988900,3.24998876953125,0.03993528336286545,-0.020540328696370125,0.029703300446271896
1772812426239689500,3.259689453125,0.03627009689807892,-0.008017600513994694,0.015958841890096664
1772812426249390000,3.26939013671875,0.02741255611181259,0.012140937149524689,0.007406735327094793
1772812426259091000,3.279091064453125,0.014278964139521122,0.020998476073145866,0.004657844081521034
1772812426268791600,3.28879150390625,0.003283398225903511,0.011224640533328056,0.003741546766832471
1772812426278492200,3.2984921875,0.0011453714687377214,0.002061668550595641,0.0077121676877141
1772812426288192800,3.30819287109375,0.004199695307761431,-0.004657844081521034,0.010461059398949146
1772812426297893400,3.317893310546875,0.0066431546583771706,-0.010766491293907166,0.010461059398949146
1772812426307594200,3.32759423828125,0.002061668550595641,-0.010461059398949146,0.010155626572668552
1772812426317294800,3.337294921875,-0.00679587060585618,-0.0031306820455938578,0.010461059398949146
1772812426326995500,3.346995361328125,-0.01870773360133171,0.00603228947147727,0.008017600513994694
1772812426336696300,3.3566962890625,-0.028787001967430115,0.015500693581998348,0.011377356946468353
1772812426346397000,3.36639697265625,-0.0345902182161808,0.01763872057199478,0.010155626572668552
1772812426356097500,3.37609765625,-0.03520108386874199,0.020082179456949234,0.010461059398949146
1772812426365798400,3.38579833984375,-0.0345902182161808,0.020693045109510422,0.009850194677710533
1772812426375499000,3.3954990234375,-0.031841326504945755,0.01977674663066864,0.010155626572668552
1772812426385199600,3.40519970703125,-0.027870705351233482,0.016416991129517555,0.014126247726380825
1772812426394900200,3.414900146484375,-0.024205517023801804,0.01000291109085083,0.015958841890096664
1772812426404601000,3.42460107421875,-0.015958841890096664,0.004505127668380737,0.016569707542657852
1772812426414301700,3.4343017578125,-0.00679587060585618,-0.004963276442140341,0.011682788841426373
1772812426424002300,3.444002197265625,0.004199695307761431,-0.015958841890096664,0.0025198173243552446
1772812426433703000,3.453702880859375,0.011224640533328056,-0.024205517023801804,-0.008170315995812416
1772812426443403800,3.46340380859375,0.011224640533328056,-0.018096869811415672,-0.014889828860759735
1772812426453104400,3.4731044921875,0.006948587018996477,-0.00038179047987796366,-0.015806125476956367
1772812426462805000,3.482804931640625,0.004199695307761431,0.015500693581998348,-0.00755945174023509
1772812426472505600,3.492505615234375,0.0035888305865228176,0.022220205515623093,0.005574141163378954
1772812426482206500,3.50220654296875,0.008170315995812416,0.008170315995812416,0.02023489587008953
1772812426491907000,3.511906982421875,0.014584396965801716,-0.012293653562664986,0.03581194952130318
1772812426501607700,3.521607666015625,0.022220205515623093,-0.02909243479371071,0.04192059487104416
1772812426511308300,3.531308349609375,0.02496909722685814,-0.028176138177514076,0.04192059487104416
1772812426521009200,3.541009033203125,0.023441936820745468,-0.015958841890096664,0.03367391973733902
1772812426530709800,3.550709716796875,0.021914774551987648,-0.0025198173243552446,0.022067490965127945
1772812426540410400,3.560410400390625,0.02283107116818428,0.003894262947142124,0.009850194677710533
1772812426550111000,3.570111083984375,0.023441936820745468,0.002061668550595641,0.002825249684974551
1772812426559811800,3.579811767578125,0.021609341725707054,-0.003741546766832471,-0.003283398225903511
1772812426569512400,3.589512451171875,0.020082179456949234,-0.008933897130191326,-0.004810560029000044
1772812426579213000,3.599213134765625,0.023747367784380913,-0.013209951110184193,-0.003894262947142124
1772812426588914000,3.608913818359375,0.02741255611181259,-0.00954476185142994,0.003741546766832471
1772812426598614500,3.618614501953125,0.028634287416934967,-0.008017600513994694,0.00923932995647192
1772812426608315100,3.628315185546875,0.0243582334369421,-0.013209951110184193,0.015347977168858051
1772812426618015700,3.638015625,0.018555017188191414,-0.013209951110184193,0.019929463043808937
1772812426627716600,3.647716552734375,0.014584396965801716,-0.01107192412018776,0.0193185992538929
1772812426637417200,3.657417236328125,0.00847574882209301,-0.00954476185142994,0.016569707542657852
1772812426647117800,3.667117919921875,0.0023671009112149477,-0.007406735327094793,0.011377356946468353
1772812426656818400,3.676818359375,0.00022907429956831038,0.002672533504664898,0.010766491293907166
1772812426666519300,3.686519287109375,-0.004963276442140341,0.004199695307761431,0.014431680552661419
1772812426676220000,3.696219970703125,-0.013515383005142212,0.000839939049910754,0.017486004158854485
1772812426685920500,3.70592041015625,-0.02176205813884735,-0.0031306820455938578,0.024205517023801804
1772812426695621000,3.71562109375,-0.027870705351233482,-0.004657844081521034,0.02756527252495289
1772812426705322000,3.725322021484375,-0.027870705351233482,-0.00038179047987796366,0.02176205813884735
1772812426715022600,3.735022705078125,-0.025121813639998436,0.015195261687040329,0.013515383005142212
1772812426724723200,3.74472314453125,-0.022067490965127945,0.021609341725707054,0.003741546766832471
1772812426734423800,3.754423828125,-0.015347977168858051,0.01000291109085083,-0.00755945174023509
1772812426744124400,3.76412451171875,-0.0025198173243552446,0.000839939049910754,-0.010919207707047462
1772812426753825300,3.7738251953125,0.011530072428286076,-0.009850194677710533,-0.013668099418282509
1772812426763526000,3.78352587890625,0.022525638341903687,-0.02084576152265072,-0.013362666592001915
1772812426773226500,3.7932265625,0.030466880649328232,-0.02542724646627903,-0.017333287745714188
1772812426782927400,3.80292724609375,0.03535379841923714,-0.022983787581324577,-0.020387612283229828
1772812426792628000,3.8126279296875,0.028328854590654373,-0.01779143698513508,-0.023136503994464874
1772812426802328600,3.82232861328125,0.017333287745714188,-0.0077121676877141,-0.023136503994464874
1772812426812029400,3.832029541015625,0.007254019379615784,0.0029779658652842045,-0.025579962879419327
1772812426821730000,3.84172998046875,-0.00038179047987796366,0.008781181648373604,-0.024052800610661507
1772812426831430700,3.8514306640625,-0.006185005884617567,0.012140937149524689,-0.01763872057199478
1772812426841131300,3.86113134765625,-0.010766491293907166,0.006948587018996477,-0.004810560029000044
1772812426850832100,3.87083203125,-0.011377356946468353,-0.004352411720901728,0.006185005884617567
1772812426860532700,3.88053271484375,-0.009850194677710533,-0.009850194677710533,0.015958841890096664
1772812426870233300,3.8902333984375,-0.00923932995647192,-0.01107192412018776,0.02176205813884735
1772812426879934000,3.899933837890625,-0.012293653562664986,-0.003741546766832471,0.016875140368938446
1772812426889634800,3.909634765625,-0.015958841890096664,0.00755945174023509,0.005574141163378954
1772812426899335400,3.91933544921875,-0.019624030217528343,0.0191658828407526,-0.007254019379615784
1772812426909036000,3.9290361328125,-0.018402300775051117,0.030772313475608826,-0.01183550525456667
1772812426918736600,3.938736572265625,-0.015042545273900032,0.02588539570569992,-0.013668099418282509
1772812426928437500,3.9484375,-0.004657844081521034,0.013057234697043896,-0.013668099418282509
1772812426938138000,3.95813818359375,0.01030834298580885,-0.0019089524867013097,-0.013057234697043896
1772812426947838700,3.967838623046875,0.020082179456949234,-0.008933897130191326,-0.01030834298580885
1772812426957539300,3.977539306640625,0.020693045109510422,-0.0034361144062131643,-0.002061668550595641
1772812426967240000,3.987239990234375,0.013973532244563103,0.00511599238961935,0.00679587060585618
1772812426976940800,3.99694091796875,0.00755945174023509,0.0057268571108579636,0.015958841890096664
1772812426986641400,4.006641357421875,0.003894262947142124,0.002061668550595641,0.01626427471637726
1772812426996342000,4.016342041015625,0.009392046369612217,0.005421424750238657,0.014737112447619438
1772812427006043000,4.02604296875,0.014584396965801716,0.010919207707047462,0.01259908638894558
1772812427015743500,4.035743408203125,0.014278964139521122,0.00847574882209301,0.011988221667706966
1772812427025444000,4.045444091796875,0.00603228947147727,0.007254019379615784,0.008017600513994694
1772812427035145000,4.05514501953125,0.000839939049910754,0.012446369975805283,0.0022143847309052944
1772812427044845600,4.064845458984375,-0.00038179047987796366,0.024663666263222694,0.0009926552884280682
1772812427054546200,4.074546142578125,0.0023671009112149477,0.023441936820745468,0.003741546766832471
1772812427064246800,4.084246826171875,0.004505127668380737,0.01000291109085083,0.008933897130191326
1772812427073947600,4.09394775390625,-0.00038179047987796366,0.0017562361899763346,0.00954476185142994
1772812427083648300,4.103648193359375,-0.009850194677710533,0.001450803829357028,0.004046979360282421
1772812427093348900,4.113348876953125,-0.010766491293907166,0.012140937149524689,-0.0023671009112149477
1772812427103049500,4.123049560546875,-0.0012980876490473747,0.012751801870763302,-0.00511599238961935
1772812427112750000,4.13275,0.010919207707047462,0.004505127668380737,-0.00755945174023509
1772812427122451000,4.142450927734375,0.01611155830323696,-0.0077121676877141,-0.007864884100854397
1772812427132151600,4.152151611328125,0.011224640533328056,-0.019624030217528343,-0.0035888305865228176
1772812427141852200,4.16185205078125,0.006337722297757864,-0.015347977168858051,-0.007254019379615784
1772812427151552800,4.171552734375,0.002061668550595641,0.000839939049910754,-0.010919207707047462
1772812427161253600,4.181253662109375,-0.005268708802759647,0.017027854919433594,-0.01183550525456667
1772812427170954200,4.190954345703125,-0.008323032408952713,0.027717988938093185,-0.0057268571108579636
1772812427180654800,4.20065478515625,-0.004963276442140341,0.026801692321896553,0.004963276442140341
1772812427190355500,4.21035546875,-0.006185005884617567,0.015195261687040329,0.01565340906381607
1772812427200056300,4.220056396484375,-0.011682788841426373,0.003283398225903511,0.024510949850082397
1772812427209757000,4.2297568359375,-0.018096869811415672,0.001450803829357028,0.028787001967430115
1772812427219457500,4.23945751953125,-0.02390008419752121,0.002061668550595641,0.02084576152265072
1772812427229158400,4.249158447265625,-0.021456625312566757,0.0023671009112149477,0.010461059398949146
1772812427238859000,4.25885888671875,-0.008323032408952713,-0.002825249684974551,-0.002672533504664898
1772812427248559600,4.2685595703125,0.0057268571108579636,-0.010461059398949146,-0.009697478264570236
1772812427258260200,4.27826025390625,0.014889828860759735,-0.017486004158854485,-0.013362666592001915
1772812427267961000,4.287961181640625,0.0191658828407526,-0.012904518283903599,-0.007254019379615784
1772812427277661700,4.29766162109375,0.013362666592001915,-0.0034361144062131643,0.004046979360282421
1772812427287362300,4.3073623046875,-0.0009926552884280682,-0.0009926552884280682,0.01565340906381607
1772812427297063000,4.31706298828125,-0.012904518283903599,0.004505127668380737,0.026343543082475662
1772812427306763800,4.326763671875,-0.015958841890096664,0.015500693581998348,0.03428478538990021
1772812427316464400,4.33646435546875,-0.016569707542657852,0.013973532244563103,0.038560837507247925
1772812427326165000,4.3461650390625,-0.01718057133257389,0.0011453714687377214,0.037949975579977036
1772812427335865600,4.355865478515625,-0.01565340906381607,-0.007406735327094793,0.027870705351233482
1772812427345566500,4.36556640625,-0.011682788841426373,-0.0006872228696011007,0.015347977168858051
1772812427355267000,4.37526708984375,-0.010461059398949146,0.01030834298580885,0.004352411720901728
1772812427364967700,4.3849677734375,-0.012293653562664986,0.01824958436191082,-0.003894262947142124
1772812427374668300,4.394668212890625,-0.011988221667706966,0.015806125476956367,-0.0035888305865228176
1772812427384369000,4.404368896484375,-0.008933897130191326,0.0017562361899763346,-0.000839939049910754
1772812427394069800,4.41406982421875,-0.00679587060585618,-0.008628465235233307,0.007406735327094793
1772812427403770400,4.423770263671875,-0.005574141163378954,-0.009850194677710533,0.01565340906381607
1772812427413471000,4.433470947265625,-0.004657844081521034,-0.008933897130191326,0.022678354755043983
1772812427423171800,4.443171875,-0.0034361144062131643,-0.008323032408952713,0.02176205813884735
1772812427432872400,4.45287255859375,-0.005268708802759647,-0.00007635809743078426,0.019624030217528343
1772812427442573000,4.462572998046875,-0.005268708802759647,0.01030834298580885,0.01626427471637726
1772812427452274000,4.47227392578125,-0.002825249684974551,0.009086613543331623,0.013820815831422806
1772812427461974500,4.481974609375,-0.004046979360282421,0.0057268571108579636,0.012293653562664986
1772812427471675100,4.491675048828125,-0.00679587060585618,0.005421424750238657,0.014126247726380825
1772812427481375700,4.501375732421875,-0.010766491293907166,0.00603228947147727,0.01565340906381607
1772812427491076600,4.51107666015625,-0.015958841890096664,0.006948587018996477,0.01259908638894558
1772812427500777200,4.520777099609375,-0.014737112447619438,0.01183550525456667,0.008323032408952713
1772812427510477800,4.530477783203125,-0.009850194677710533,0.011530072428286076,-0.0005345066892914474
1772812427520178400,4.540178466796875,-0.004046979360282421,0.009392046369612217,-0.00847574882209301
1772812427529879000,4.549879150390625,0.00022907429956831038,0.01000291109085083,-0.008781181648373604
1772812427539580000,4.559579833984375,-0.0016035200096666813,0.011224640533328056,-0.000839939049910754
1772812427549280500,4.569280517578125,-0.004352411720901728,0.006337722297757864,0.00679587060585618
1772812427558981000,4.578981201171875,-0.00038179047987796366,0.002061668550595641,0.013209951110184193
1772812427568681700,4.588681640625,0.009086613543331623,0.003894262947142124,0.015958841890096664
1772812427578382600,4.598382568359375,0.017944153398275375,0.0057268571108579636,0.015958841890096664
1772812427588083200,4.608083251953125,0.0191658828407526,-0.00038179047987796366,0.012904518283903599
1772812427597783800,4.61778369140625,0.022220205515623093,0.014278964139521122,0.016569707542657852
1772812427607484400,4.627484375,0.012751801870763302,0.008170315995812416,0.02237292192876339
1772812427617185000,4.63718505859375,-0.01259908638894558,-0.01259908638894558,0.01870773360133171
1772812427626886000,4.646885986328125,-0.02695440873503685,-0.013515383005142212,0.008323032408952713
1772812427636586500,4.65658642578125,-0.03000873140990734,-0.008323032408952713,-0.014278964139521122
1772812427646287400,4.666287353515625,-0.02084576152265072,0.000839939049910754,-0.041157014667987823
1772812427655988000,4.675988037109375,-0.008323032408952713,0.007254019379615784,-0.06101011857390404
1772812427665688600,4.6856884765625,-0.00007635809743078426,0.01824958436191082,-0.06589704006910324
1772812427675389200,4.69538916015625,-0.0019089524867013097,0.022220205515623093,-0.0524580143392086
1772812427685090000,4.705090087890625,-0.009850194677710533,0.015195261687040329,-0.02893971838057041
1772812427694790700,4.714790771484375,-0.011682788841426373,0.003283398225903511,-0.001450803829357028
1772812427704491300,4.7244912109375,-0.002825249684974551,-0.007101302966475487,0.019013166427612305
1772812427723892500,4.743892578125,0.027107125148177147,0.00603228947147727,0.018096869811415672
1772812427733593300,4.75359326171875,0.027107125148177147,-0.0025198173243552446,0.006185005884617567
1772812427743294000,4.7632939453125,0.032910339534282684,0.006948587018996477,0.009850194677710533
1772812427752994600,4.77299462890625,0.03565923124551773,0.006948587018996477,0.015958841890096664
1772812427762695200,4.782695068359375,0.03168861195445061,0.01000291109085083,0.024205517023801804
1772812427772396000,4.79239599609375,0.021609341725707054,-0.00038179047987796366,0.029703300446271896
1772812427782096600,4.8020966796875,0.012751801870763302,-0.015347977168858051,0.025121813639998436
1772812427791797200,4.81179736328125,0.006948587018996477,-0.03000873140990734,0.005268708802759647
1772812427801497900,4.821497802734375,0.005421424750238657,-0.03733910992741585,-0.021914774551987648
1772812427811198700,4.83119873046875,0.009086613543331623,-0.03061959706246853,-0.053374309092760086
1772812427820899300,4.8408994140625,0.010613775812089443,-0.010766491293907166,-0.07261654734611511
1772812427830600000,4.850599853515625,0.006948587018996477,0.015195261687040329,-0.07170025259256363
1772812427840300500,4.860300537109375,-0.0006872228696011007,0.02893971838057041,-0.049709122627973557
1772812427850001400,4.87000146484375,-0.010155626572668552,0.025579962879419327,-0.014278964139521122
1772812427859702000,4.879701904296875,-0.0193185992538929,0.006948587018996477,0.02176205813884735
1772812427869402600,4.889402587890625,-0.022678354755043983,-0.007406735327094793,0.04955640435218811
1772812427879103500,4.899103515625,-0.01565340906381607,-0.01107192412018776,0.06666062027215958
1772812427888804000,4.90880419921875,-0.00954476185142994,-0.012293653562664986,0.06940951198339462
1772812427898504700,4.918504638671875,-0.00954476185142994,-0.008933897130191326,0.05719221383333206
1772812427908205300,4.928205322265625,-0.00679587060585618,0.002061668550595641,0.039477135986089706
1772812427917906200,4.93790625,-0.003741546766832471,0.00511599238961935,0.01779143698513508
1772812427927606800,4.947606689453125,-0.0009926552884280682,0.003894262947142124,-0.001450803829357028
1772812427937307400,4.957307373046875,0.003283398225903511,0.003894262947142124,-0.012140937149524689
1772812427947008000,4.967008056640625,0.00603228947147727,0.0011453714687377214,-0.017944153398275375
1772812427956708600,4.97670849609375,0.000839939049910754,-0.0006872228696011007,-0.01824958436191082
1772812427966409500,4.986409423828125,-0.00679587060585618,0.00022907429956831038,-0.013973532244563103
1772812427976110000,4.996110107421875,-0.015042545273900032,-0.0009926552884280682,-0.00603228947147727
1772812427985810700,5.005810791015625,-0.02084576152265072,-0.002825249684974551,0.0019089524867013097
1772812427995511300,5.01551123046875,-0.020540328696370125,-0.005574141163378954,0.008323032408952713
1772812428005212200,5.025212158203125,-0.01565340906381607,-0.008017600513994694,0.011377356946468353
1772812428014912800,5.034912841796875,-0.00923932995647192,-0.002825249684974551,0.008933897130191326
1772812428024613400,5.04461328125,-0.0022143847309052944,0.007254019379615784,0.005574141163378954
1772812428034314000,5.05431396484375,0.003283398225903511,0.020387612283229828,0.007406735327094793
1772812428044014800,5.064014892578125,0.002061668550595641,0.027717988938093185,0.015347977168858051
1772812428053715500,5.073715576171875,-0.003741546766832471,0.020082179456949234,0.028787001967430115
1772812428063416000,5.083416015625,-0.00679587060585618,0.0035888305865228176,0.04039343446493149
1772812428073117000,5.093116943359375,-0.0031306820455938578,-0.012293653562664986,0.04528035223484039
1772812428082817500,5.102817626953125,0.0011453714687377214,-0.02084576152265072,0.0397825688123703
1772812428092518100,5.11251806640625,0.004199695307761431,-0.02176205813884735,0.023594651371240616
1772812428102218800,5.12221875,0.005421424750238657,-0.01107192412018776,0.002825249684974551
1772812428111919600,5.131919677734375,0.003894262947142124,0.004199695307761431,-0.01763872057199478
1772812428121620200,5.1416201171875,-0.003741546766832471,0.017333287745714188,-0.0295505840331316
1772812428131320800,5.15132080078125,-0.012904518283903599,0.02130390889942646,-0.03107774630188942
1772812428141021400,5.161021484375,-0.01779143698513508,0.014584396965801716,-0.02283107116818428
1772812428150722000,5.17072216796875,-0.01718057133257389,0.0023671009112149477,-0.006948587018996477
1772812428160423000,5.1804228515625,-0.013209951110184193,-0.004657844081521034,0.007406735327094793
1772812428170123500,5.19012353515625,-0.008933897130191326,-0.010461059398949146,0.015042545273900032
1772812428179824000,5.19982421875,-0.006490438245236874,-0.008017600513994694,0.01626427471637726
1772812428189524700,5.209524658203125,-0.008323032408952713,0.0005345066892914474,0.009850194677710533
1772812428199225600,5.2192255859375,-0.010155626572668552,0.006948587018996477,0.0016035200096666813
1772812428208926200,5.22892626953125,-0.011377356946468353,0.011224640533328056,-0.004810560029000044
1772812428218626800,5.238626708984375,-0.010766491293907166,0.008781181648373604,-0.007864884100854397
1772812428228327400,5.248327392578125,-0.0058795735239982605,0.01030834298580885,-0.00755945174023509
1772812428238028300,5.2580283203125,0.004505127668380737,0.01611155830323696,-0.0011453714687377214
1772812428247729000,5.26772900390625,0.014278964139521122,0.01672242395579815,0.010461059398949146
1772812428257429500,5.277429443359375,0.014584396965801716,0.005421424750238657,0.02695440873503685
1772812428267130400,5.28713037109375,0.00603228947147727,-0.009850194677710533,0.049250971525907516
1772812428276831000,5.2968310546875,-0.006185005884617567,-0.018402300775051117,0.06360629200935364
1772812428286531600,5.306531494140625,-0.014431680552661419,-0.01718057133257389,0.06360629200935364
1772812428296232200,5.316232177734375,-0.014126247726380825,-0.004963276442140341,0.04650207981467247
1772812428305933000,5.32593310546875,-0.008017600513994694,0.008781181648373604,0.019929463043808937
1772812428315633700,5.335633544921875,-0.004352411720901728,0.013973532244563103,-0.010613775812089443
1772812428325334300,5.345334228515625,-0.0031306820455938578,0.01824958436191082,-0.033826638013124466
1772812428335035000,5.355034912109375,0.000839939049910754,0.014584396965801716,-0.047265663743019104
1772812428344735500,5.364735595703125,0.00603228947147727,0.004810560029000044,-0.04543306678533554
1772812428354436400,5.374436279296875,0.01183550525456667,-0.011682788841426373,-0.028634287416934967
1772812428364137000,5.384136962890625,0.017027854919433594,-0.02237292192876339,-0.0029779658652842045
1772812428373837600,5.393837646484375,0.019471315667033195,-0.02390008419752121,0.027870705351233482
1772812428383538200,5.4035380859375,0.026190826669335365,-0.02237292192876339,0.05413788929581642
1772812428393239000,5.413239013671875,0.03474293276667595,-0.019624030217528343,0.07429642975330353
1772812428402939600,5.422939697265625,0.04146244749426842,-0.008323032408952713,0.08956804871559143
1772812428412640300,5.43264013671875,0.04024071618914604,0.0029779658652842045,0.10361793637275696
1772812428422340900,5.4423408203125,0.0243582334369421,0.006337722297757864,0.11583523452281952
1772812428432041700,5.452041748046875,-0.0016035200096666813,0.0023671009112149477,0.1164461001753807
1772812428451443000,5.47144287109375,-0.03886627033352852,-0.00007635809743078426,0.07857248187065125
1772812428461143800,5.481143798828125,-0.03275762498378754,0.009086613543331623,0.050778135657310486
1772812428470844400,5.490844482421875,-0.015958841890096664,0.0191658828407526,0.029397867619991302
1772812428480545000,5.500544921875,-0.0025198173243552446,0.022220205515623093,0.020540328696370125
1772812428490245600,5.51024560546875,0.00022907429956831038,0.01183550525456667,0.028787001967430115
1772812428499946200,5.5199462890625,-0.006185005884617567,-0.006185005884617567,0.04864010959863663
1772812428509647000,5.529647216796875,-0.020540328696370125,-0.018096869811415672,0.06849320977926254
1772812428519347700,5.53934765625,-0.03214675933122635,-0.01259908638894558,0.08162680268287659
1772812428529048300,5.54904833984375,-0.0345902182161808,0.001450803829357028,0.08254310488700867
1772812428538749000,5.5587490234375,-0.02756527252495289,0.01030834298580885,0.07124210149049759
1772812428548449800,5.56844970703125,-0.015347977168858051,0.008781181648373604,0.05413788929581642
1772812428558150400,5.578150390625,-0.006185005884617567,0.002061668550595641,0.03428478538990021
1772812428567851000,5.58785107421875,0.0035888305865228176,-0.0012980876490473747,0.019624030217528343
1772812428577551600,5.597551513671875,0.013362666592001915,-0.005268708802759647,0.008933897130191326
1772812428587252200,5.607252197265625,0.020082179456949234,-0.007101302966475487,0.004352411720901728
1772812428596953000,5.616953125,0.025579962879419327,-0.008323032408952713,0.005574141163378954
1772812428606653700,5.62665380859375,0.0322994738817215,-0.013820815831422806,0.005268708802759647
1772812428616354300,5.636354248046875,0.03993528336286545,-0.014737112447619438,0.005574141163378954
1772812428626055200,5.64605517578125,0.04848739132285118,-0.012904518283903599,0.004963276442140341
1772812428635755800,5.655755859375,0.05581776797771454,-0.0025198173243552446,0.004352411720901728
1772812428645456400,5.665456298828125,0.053985174745321274,0.008781181648373604,0.010461059398949146
1772812428655157200,5.6751572265625,0.04818195849657059,0.01672242395579815,0.022983787581324577
1772812428664857900,5.68485791015625,0.04085158184170723,0.020082179456949234,0.03917170315980911
1772812428674558500,5.694558349609375,0.029856016859412193,0.011530072428286076,0.04711294546723366
1772812428684259000,5.704259033203125,0.02649625949561596,0.0017562361899763346,0.038560837507247925
1772812428693959700,5.713959716796875,0.03321577236056328,-0.0025198173243552446,0.0193185992538929
1772812428703660500,5.72366064453125,0.03962985426187515,-0.004046979360282421,-0.00755945174023509
1772812428713361200,5.733361083984375,0.043600473552942276,0.0057268571108579636,-0.03840812295675278
1772812428723061800,5.743061767578125,0.04543306678533554,0.023136503994464874,-0.062537282705307
1772812428732762400,5.752762451171875,0.03840812295675278,0.0322994738817215,-0.072921983897686
1772812428742463200,5.762463134765625,0.023136503994464874,0.027717988938093185,-0.06895136088132858
1772812428752163800,5.772163818359375,0.00511599238961935,0.01977674663066864,-0.060704685747623444
1772812428761864400,5.781864501953125,0.00022907429956831038,0.009086613543331623,-0.0527634471654892
1772812428771565000,5.79156494140625,0.011530072428286076,-0.0058795735239982605,-0.0524580143392086
1772812428781265700,5.801265625,0.02649625949561596,-0.011377356946468353,-0.057955797761678696
1772812428790966500,5.810966552734375,0.0423787422478199,0.0017562361899763346,-0.060093823820352554
1772812428800667100,5.820667236328125,0.045738499611616135,0.017027854919433594,-0.05887209251523018
1772812428810367700,5.83036767578125,0.034437503665685654,0.027107125148177147,-0.05154171586036682
1772812428820068600,5.840068603515625,0.015806125476956367,0.029245151206851006,-0.04146244749426842
1772812428829769200,5.849769287109375,-0.0077121676877141,0.0057268571108579636,-0.028328854590654373
1772812428839469800,5.8594697265625,-0.025732679292559624,-0.015347977168858051,-0.01183550525456667
1772812428849170400,5.86917041015625,-0.023594651371240616,-0.007406735327094793,-0.00511599238961935
1772812428858871300,5.878871337890625,0.0005345066892914474,0.00847574882209301,-0.013057234697043896
1772812428868572000,5.888572021484375,0.030772313475608826,0.03352120518684387,-0.025274530053138733
1772812428878272500,5.8982724609375,0.04909825697541237,0.04298960790038109,-0.02741255611181259
1772812428887973000,5.90797314453125,0.05123628303408623,0.029245151206851006,-0.018860450014472008
1772812428897674000,5.917674072265625,0.04634936526417732,0.004810560029000044,-0.000839939049910754
1772812428907374600,5.92737451171875,0.04604393243789673,-0.015958841890096664,0.016569707542657852
1772812428917075200,5.9370751953125,0.04940368980169296,-0.025732679292559624,0.022678354755043983
1772812428926775800,5.94677587890625,0.0527634471654892,-0.034895651042461395,0.015958841890096664
1772812428936476400,5.956476318359375,0.042073313146829605,-0.023594651371240616,0.004963276442140341
1772812428946177300,5.96617724609375,0.028328854590654373,0.008170315995812416,-0.014278964139521122
1772812428955878000,5.9758779296875,0.017333287745714188,0.027107125148177147,-0.03413207083940506
1772812428965578500,5.98557861328125,0.009086613543331623,0.028328854590654373,-0.03535379841923714
1772812428975279000,5.995279052734375,0.001450803829357028,0.030161447823047638,-0.018555017188191414
1772812428984979700,6.004979736328125,-0.0019089524867013097,0.013973532244563103,-0.0011453714687377214
1772812428994680600,6.0146806640625,-0.004046979360282421,-0.013820815831422806,0.021151192486286163
1772812429004381200,6.024381103515625,-0.012293653562664986,-0.018096869811415672,0.044669486582279205
1772812429014082000,6.03408203125,-0.022678354755043983,-0.003741546766832471,0.05108356848359108
1772812429023782700,6.04378271484375,-0.02695440873503685,0.007254019379615784,0.037033677101135254
1772812429033483300,6.053483154296875,-0.02390008419752121,0.022220205515623093,0.01779143698513508
1772812429043183900,6.063183837890625,-0.02328922040760517,0.020693045109510422,0.005574141163378954
1772812429052884500,6.072884521484375,-0.026038112118840218,0.009392046369612217,0.004657844081521034
1772812429062585300,6.08258544921875,-0.02328922040760517,0.00755945174023509,0.0022143847309052944
1772812429072286000,6.092285888671875,-0.013820815831422806,0.0057268571108579636,0.011682788841426373
1772812429081986600,6.101986572265625,-0.011682788841426373,0.01611155830323696,0.025732679292559624
1772812429091687200,6.111687255859375,-0.015347977168858051,0.014889828860759735,0.03153589367866516
1772812429101388000,6.121387939453125,-0.014126247726380825,0.011530072428286076,0.03581194952130318
1772812429111088600,6.131088623046875,-0.01870773360133171,0.0035888305865228176,0.03153589367866516
1772812429120789200,6.140789306640625,-0.024205517023801804,-0.0034361144062131643,0.019929463043808937
1772812429130489900,6.15048974609375,-0.028787001967430115,-0.019624030217528343,0.00038179047987796366
1772812429140190500,6.1601904296875,-0.026038112118840218,-0.009850194677710533,-0.019471315667033195
1772812429149891300,6.169891357421875,-0.024816380813717842,0.01763872057199478,-0.02496909722685814
1772812429159592000,6.179592041015625,-0.03520108386874199,0.01763872057199478,-0.018860450014472008
1772812429169292500,6.18929248046875,-0.04192059487104416,-0.00679587060585618,-0.005421424750238657
1772812429178993200,6.1989931640625,-0.02909243479371071,-0.033979352563619614,0.013820815831422806
1772812429188694000,6.208694091796875,-0.008933897130191326,-0.054443322122097015,0.019624030217528343
1772812429198394600,6.21839453125,0.01183550525456667,-0.0602465383708477,0.013515383005142212
1772812429208095200,6.22809521484375,0.024052800610661507,-0.052916161715984344,-0.001450803829357028
1772812429217796000,6.237796142578125,0.014584396965801716,-0.022678354755043983,-0.021914774551987648
1772812429227496700,6.24749658203125,-0.013209951110184193,-0.008628465235233307,-0.04298960790038109
1772812429237197300,6.257197265625,-0.043142326176166534,0.01763872057199478,-0.030161447823047638
1772812429246898000,6.26689794921875,-0.06818778067827225,0.03535379841923714,-0.00603228947147727
1772812429256598800,6.276598876953125,-0.06666062027215958,0.017333287745714188,0.00923932995647192
1772812429266299400,6.28629931640625,-0.03917170315980911,0.008170315995812416,0.021151192486286163
1772812429276000000,6.296,-0.02023489587008953,-0.016875140368938446,0.017486004158854485
1772812429285700600,6.30570068359375,-0.015347977168858051,-0.03214675933122635,0.0022143847309052944
1772812429295401200,6.315401123046875,-0.015347977168858051,-0.030314164236187935,-0.025579962879419327
1772812429305102000,6.32510205078125,-0.01626427471637726,-0.011682788841426373,-0.058566659688949585
1772812429314802700,6.334802734375,-0.01626427471637726,0.013668099418282509,-0.08605557680130005
1772812429324503300,6.34450341796875,-0.01107192412018776,0.008170315995812416,-0.10315979272127151
1772812429334204000,6.354203857421875,0.0011453714687377214,-0.03367391973733902,-0.0985783040523529
1772812429343904500,6.363904541015625,0.009086613543331623,-0.0910952091217041,-0.07903063297271729
1772812429353605400,6.37360546875,0.008170315995812416,-0.12438733875751495,-0.062537282705307
1772812429363306000,6.383305908203125,-0.007406735327094793,-0.11308634281158447,-0.051847148686647415
1772812429373006600,6.393006591796875,-0.03886627033352852,-0.0550541877746582,-0.045738499611616135
1772812429382707500,6.40270751953125,-0.07704532146453857,0.020082179456949234,-0.04482220485806465
1772812429392408000,6.412407958984375,-0.10789398849010468,0.07017309218645096,-0.03932442143559456
1772812429402108700,6.422108642578125,-0.11583523452281952,0.08147408813238144,-0.027107125148177147
1772812429411809300,6.431809326171875,-0.09384410083293915,0.07475458085536957,-0.008781181648373604
1772812429421510100,6.44151025390625,-0.059635672718286514,0.050930850207805634,0.006185005884617567
1772812429431210800,6.451210693359375,-0.03000873140990734,0.02741255611181259,0.021151192486286163
1772812429440911400,6.460911376953125,-0.012904518283903599,0.01030834298580885,0.0345902182161808
1772812429450612000,6.470612060546875,-0.004352411720901728,-0.00007635809743078426,0.04558578506112099
1772812429460312600,6.4803125,0.000839939049910754,-0.0058795735239982605,0.04894553869962692
1772812429470013400,6.490013427734375,0.00755945174023509,-0.006490438245236874,0.04650207981467247
1772812429479714000,6.499714111328125,0.016416991129517555,-0.004963276442140341,0.03550651669502258
1772812429489414700,6.50941455078125,0.027717988938093185,-0.0019089524867013097,0.0193185992538929
1772812429499115300,6.519115234375,0.034437503665685654,-0.003741546766832471,0.0009926552884280682
1772812429508816100,6.528816162109375,0.03565923124551773,-0.002825249684974551,-0.013057234697043896
1772812429518516700,6.538516845703125,0.0322994738817215,-0.0077121676877141,-0.01763872057199478
1772812429528217300,6.54821728515625,0.018555017188191414,-0.004963276442140341,-0.015195261687040329
1772812429537918000,6.55791796875,0.0029779658652842045,-0.012293653562664986,-0.010919207707047462
1772812429547618800,6.567618896484375,-0.005574141163378954,-0.02909243479371071,-0.002061668550595641
1772812429557319400,6.5773193359375,-0.011682788841426373,-0.019624030217528343,0.006490438245236874
1772812429567020000,6.58702001953125,-0.010461059398949146,-0.0006872228696011007,0.00923932995647192
1772812429576721000,6.596720947265625,-0.008323032408952713,0.008781181648373604,0.00954476185142994
1772812429586421500,6.60642138671875,-0.012293653562664986,0.012446369975805283,0.011682788841426373
1772812429596122000,6.6161220703125,-0.016569707542657852,0.009697478264570236,0.01718057133257389
1772812429605822700,6.62582275390625,-0.017486004158854485,0.001450803829357028,0.017486004158854485
1772812429615523300,6.6355234375,-0.018402300775051117,0.001450803829357028,0.012904518283903599
1772812429625224200,6.64522412109375,-0.01565340906381607,0.003283398225903511,-0.0023671009112149477
1772812429634924800,6.6549248046875,-0.01259908638894558,0.0005345066892914474,-0.01763872057199478
1772812429644625400,6.66462548828125,-0.014737112447619438,0.006337722297757864,-0.032910339534282684
1772812429654326000,6.674325927734375,-0.013515383005142212,0.012446369975805283,-0.04818195849657059
1772812429664026600,6.684026611328125,-0.0009926552884280682,0.018555017188191414,-0.05734493210911751
1772812429673727500,6.6937275390625,0.017333287745714188,0.020693045109510422,-0.06131555140018463
1772812429683428000,6.703427978515625,0.03352120518684387,0.01030834298580885,-0.05948295816779137
1772812429693128700,6.713128662109375,0.03474293276667595,-0.004963276442140341,-0.035964664071798325
1772812429702829300,6.722829345703125,0.018860450014472008,-0.018096869811415672,-0.0017562361899763346
1772812429712530000,6.732530029296875,0.00511599238961935,-0.02237292192876339,0.02542724646627903
1772812429722230800,6.742230712890625,0.004505127668380737,-0.02084576152265072,0.04222602769732475
1772812429731931400,6.751931396484375,0.006948587018996477,-0.0012980876490473747,0.054443322122097015
1772812429741632300,6.76163232421875,0.007254019379615784,0.014889828860759735,0.0553596206009388
1772812429751332900,6.771332763671875,0.012140937149524689,0.016416991129517555,0.04955640435218811
1772812429761033500,6.781033447265625,0.015195261687040329,0.019471315667033195,0.0501672700047493
1772812429770734000,6.790734130859375,0.014278964139521122,0.018555017188191414,0.049250971525907516
1772812429780434700,6.8004345703125,0.021914774551987648,0.0243582334369421,0.04558578506112099
1772812429790135600,6.810135498046875,0.0319940410554409,0.020693045109510422,0.03367391973733902
1772812429799836200,6.819836181640625,0.03932442143559456,-0.0031306820455938578,0.018402300775051117
1772812429809536800,6.829536865234375,0.04298960790038109,0.003283398225903511,0.007101302966475487
1772812429819237400,6.8392373046875,0.03535379841923714,0.005421424750238657,-0.0005345066892914474
1772812429828938000,6.84893798828125,0.0191658828407526,0.009392046369612217,0.0012980876490473747
1772812429838638800,6.858638916015625,0.002672533504664898,0.00847574882209301,0.008628465235233307
1772812429848339500,6.86833935546875,-0.010155626572668552,-0.004963276442140341,0.014126247726380825
1772812429858040000,6.8780400390625,-0.014431680552661419,-0.016569707542657852,0.013820815831422806
1772812429867740700,6.88774072265625,-0.0058795735239982605,-0.026343543082475662,0.0009926552884280682
1772812429877441500,6.897441650390625,0.006337722297757864,-0.03061959706246853,-0.014889828860759735
1772812429887142100,6.90714208984375,0.013362666592001915,-0.026648975908756256,-0.029245151206851006
1772812429896842800,6.9168427734375,0.006948587018996477,-0.02328922040760517,-0.0371863916516304
1772812429906543400,6.92654345703125,0.0017562361899763346,0.003283398225903511,-0.03535379841923714
1772812429916244200,6.936244140625,-0.0025198173243552446,0.017333287745714188,-0.028634287416934967
1772812429925944800,6.94594482421875,-0.01259908638894558,0.020387612283229828,-0.012140937149524689
1772812429935645400,6.9556455078125,-0.023594651371240616,0.023441936820745468,0.008017600513994694
1772812429945346000,6.965345947265625,-0.030314164236187935,0.02588539570569992,0.027259841561317444
1772812429955047000,6.975046875,-0.03214675933122635,0.014584396965801716,0.04528035223484039
1772812429964747500,6.98474755859375,-0.029703300446271896,-0.004352411720901728,0.05841394513845444
1772812429974448000,6.9944482421875,-0.022983787581324577,-0.019624030217528343,0.061162836849689484
1772812429984148700,7.004148681640625,-0.01565340906381607,-0.026343543082475662,0.051389001309871674
1772812429993849600,7.013849609375,-0.005268708802759647,-0.0193185992538929,0.037949975579977036
1772812430003550200,7.02355029296875,0.002061668550595641,-0.0058795735239982605,0.02390008419752121
1772812430013250800,7.033250732421875,0.00511599238961935,0.002061668550595641,0.013209951110184193
1772812430022951400,7.042951416015625,0.002672533504664898,0.000839939049910754,0.0077121676877141
1772812430032652000,7.052652099609375,-0.0022143847309052944,-0.0031306820455938578,0.007406735327094793
1772812430042353000,7.062352783203125,-0.004046979360282421,0.004505127668380737,0.015347977168858051
1772812430052053500,7.072053466796875,-0.0034361144062131643,0.011224640533328056,0.028787001967430115
1772812430061754000,7.081754150390625,-0.007406735327094793,0.009086613543331623,0.040088001638650894
1772812430071454700,7.091454833984375,-0.0034361144062131643,0.010613775812089443,0.052916161715984344
1772812430081155600,7.101155517578125,-0.00007635809743078426,0.006948587018996477,0.0550541877746582
1772812430090856200,7.110856201171875,-0.002825249684974551,-0.004046979360282421,0.04741837829351425
1772812430100556800,7.120556884765625,-0.005268708802759647,-0.004963276442140341,0.02848157100379467
1772812430110257700,7.130257568359375,-0.008017600513994694,0.003894262947142124,-0.0005345066892914474
1772812430119958300,7.139958251953125,-0.017486004158854485,0.00603228947147727,-0.030161447823047638
1772812430129659000,7.149658935546875,-0.02390008419752121,0.012140937149524689,-0.05123628303408623
1772812430139359500,7.159359375,-0.020540328696370125,0.024663666263222694,-0.06742420047521591
1772812430149060000,7.16906005859375,-0.013515383005142212,0.030772313475608826,-0.0732274129986763
1772812430158761000,7.178760986328125,-0.011682788841426373,0.018555017188191414,-0.06528617441654205
1772812430168461600,7.188461669921875,-0.014431680552661419,0.000839939049910754,-0.0475710928440094
1772812430178162200,7.198162109375,-0.02237292192876339,-0.008933897130191326,-0.0191658828407526
1772812430187862800,7.20786279296875,-0.033979352563619614,-0.024510949850082397,0.006185005884617567
1772812430197563400,7.2175634765625,-0.03733910992741585,-0.028176138177514076,0.019929463043808937
1772812430207264300,7.22726416015625,-0.026343543082475662,-0.017486004158854485,0.014126247726380825
1772812430216964900,7.23696484375,-0.008933897130191326,0.00022907429956831038,0.0009926552884280682
1772812430226665500,7.24666552734375,0.002061668550595641,0.00603228947147727,-0.017944153398275375
1772812430236366000,7.256365966796875,0.009086613543331623,0.009697478264570236,-0.02496909722685814
1772812430246067000,7.26606689453125,0.008170315995812416,0.01030834298580885,-0.011224640533328056
1772812430255767600,7.275767578125,-0.00007635809743078426,-0.00954476185142994,0.014431680552661419
1772812430265468200,7.28546826171875,-0.006490438245236874,-0.0345902182161808,0.04130972921848297
1772812430275169000,7.2951689453125,-0.004657844081521034,-0.04833467677235603,0.05841394513845444
1772812430284869600,7.30486962890625,0.000839939049910754,-0.06879864633083344,0.06818778067827225
1772812430294570200,7.3145703125,0.00847574882209301,-0.09781472384929657,0.06238456442952156
1772812430304270800,7.324270751953125,0.023136503994464874,-0.09048434346914291,0.04253146052360535
1772812430313971500,7.333971435546875,0.03779725730419159,-0.06146826967597008,0.01779143698513508
1772812430323672300,7.34367236328125,0.04146244749426842,-0.028176138177514076,-0.012140937149524689
1772812430333373000,7.353373046875,0.03657552972435951,-0.004657844081521034,-0.03565923124551773
1772812430343073500,7.363073486328125,0.034437503665685654,0.009392046369612217,-0.04482220485806465
1772812430352774100,7.372774169921875,0.03168861195445061,0.013057234697043896,-0.048792824149131775
1772812430362474800,7.382474853515625,0.024663666263222694,0.015806125476956367,-0.050319984555244446
1772812430372175600,7.392175537109375,0.012446369975805283,0.008170315995812416,-0.051847148686647415
1772812430381876200,7.401876220703125,0.0017562361899763346,0.0011453714687377214,-0.054901473224163055
1772812430391576800,7.411576904296875,0.0017562361899763346,0.015500693581998348,-0.053374309092760086
1772812430401277400,7.42127734375,-0.00007635809743078426,0.02588539570569992,-0.048792824149131775
1772812430410978000,7.43097802734375,-0.01259908638894558,0.0295505840331316,-0.043600473552942276
