time,seconds_elapsed,z,y,x
1772812380898527700,0.09052783203125,0,0,0
1772812380917929200,0.10992919921875,-0.057486534118652344,-0.019442856311798096,-0.021529410034418106
1772812380927630000,0.119630126953125,-0.050192832946777344,-0.0006707310676574707,0.08974897861480713
1772812380937330700,0.12933056640625,0.09016990661621094,-0.058340638875961304,0.08424143493175507
1772812380947031600,0.139031494140625,0.07630538940429688,-0.17460671067237854,0.006405092775821686
1772812380956732400,0.148732421875,0.1055908203125,-0.1874980926513672,-0.03909856453537941
1772812380966433000,0.15843310546875,0.18367767333984375,-0.04208606481552124,-0.1291123628616333
1772812380976134000,0.1681337890625,0.22941017150878906,0.11873629689216614,-0.13659171760082245
1772812380985834500,0.17783447265625,0.21307754516601562,0.07811996340751648,-0.07826375216245651
1772812380995535400,0.187535400390625,0.17966365814208984,0.049230486154556274,-0.015611391514539719
1772812381005236200,0.197236328125,0.21628952026367188,0.05065411329269409,0.0745888501405716
1772812381014936800,0.206936767578125,0.21510601043701172,0.004621416330337524,0.0741974487900734
1772812381024637700,0.2166376953125,0.10637474060058594,-0.02913728356361389,0.08928541839122772
1772812381034338600,0.226338623046875,0.10481452941894531,-0.016238301992416382,0.04747633635997772
1772812381044039200,0.2360390625,0.06233406066894531,0.0544562041759491,0.03367749601602554
1772812381053740000,0.245739990234375,-0.012273788452148438,0.07829448580741882,0.030224634334445
1772812381063440600,0.255440673828125,-0.03302001953125,0.0807017982006073,0.04634859040379524
1772812381073141500,0.2651416015625,-0.07995891571044922,0.07814007997512817,0.1063646599650383
1772812381082842400,0.27484228515625,-0.07362842559814453,0.012248128652572632,0.15820664167404175
1772812381092543000,0.28454296875,-0.015402793884277344,0.002172797918319702,0.20996582508087158
1772812381102243800,0.294243896484375,0.03438091278076172,0.01753440499305725,0.23550285398960114
1772812381111944700,0.30394482421875,0.07744884490966797,0.043529897928237915,0.2116604596376419
1772812381121645300,0.313645263671875,0.12913227081298828,0.058869123458862305,0.1525692492723465
1772812381131346200,0.32334619140625,0.08245468139648438,0.0632040798664093,0.14520658552646637
1772812381141046800,0.333046875,0.07681083679199219,0.03374624252319336,0.15278837084770203
1772812381150747600,0.34274755859375,0.0162200927734375,0.02932855486869812,0.13193848729133606
1772812381160448500,0.352448486328125,-0.023682594299316406,0.06698864698410034,0.14223730564117432
1772812381170149000,0.362149169921875,-0.07259654998779297,0.05526787042617798,0.12500938773155212
1772812381179850000,0.37185009765625,-0.1083517074584961,0.05950106680393219,0.07976008206605911
1772812381189550800,0.38155078125,-0.10365962982177734,0.0812453180551529,0.032922424376010895
1772812381199251500,0.39125146484375,-0.12470340728759766,0.10058349370956421,0.0293281152844429
1772812381208952300,0.400952392578125,-0.09302043914794922,0.06957542896270752,0.037994422018527985
1772812381218653000,0.41065283203125,-0.031019210815429688,0.048131316900253296,0.049300506711006165
1772812381228353800,0.420353759765625,-0.0010614395141601562,0.05317080020904541,0.08198823034763336
1772812381238054700,0.4300546875,0.0792074203491211,0.014973163604736328,0.07736136764287949
1772812381247755300,0.43975537109375,0.046744346618652344,-0.020837008953094482,0.06307753175497055
1772812381257456000,0.4494560546875,0.05128288269042969,0.0141507089138031,0.015336543321609497
1772812381267157000,0.459156982421875,0.021966934204101562,0.0631147176027298,-0.008455492556095123
1772812381276857600,0.468857666015625,0.0050945281982421875,0.053754061460494995,0.003851667046546936
1772812381286558500,0.478558349609375,-0.032375335693359375,-0.030903488397598267,0.0365414172410965
1772812381296259000,0.488259033203125,-0.06664371490478516,-0.07975083589553833,0.06433487683534622
1772812381305960000,0.4979599609375,0.00618743896484375,-0.0309658944606781,0.004687607288360596
1772812381315660800,0.507660888671875,0.027070999145507812,-0.0004614889621734619,-0.00666387751698494
1772812381325361400,0.517361328125,0.034605979919433594,0.017829447984695435,0.01962168514728546
1772812381335062300,0.527062255859375,-0.02006244659423828,0.013878852128982544,0.06691373884677887
1772812381344763100,0.53676318359375,-0.03376007080078125,0.007671445608139038,0.09501876682043076
1772812381354463700,0.546463623046875,-0.029592514038085938,0.013953745365142822,0.12544022500514984
1772812381364164600,0.55616455078125,-0.05832481384277344,0.037082523107528687,0.12282885611057281
1772812381373865200,0.565865234375,-0.02550983428955078,0.08162561058998108,0.08919043093919754
1772812381383566000,0.575566162109375,-0.00034236907958984375,0.10076332092285156,0.035589829087257385
1772812381393267000,0.585266845703125,-0.010843276977539062,0.13344578444957733,0.014637686312198639
1772812381402967600,0.594967529296875,-0.0011701583862304688,0.10677576065063477,-0.00000867992639541626
1772812381412668400,0.60466845703125,0.018891334533691406,0.0479905903339386,0.008995696902275085
1772812381422369300,0.614369384765625,0.03973579406738281,0.02795511484146118,0.003902927041053772
1772812381432070000,0.62406982421875,0.07779598236083984,-0.027719110250473022,0.02354828268289566
1772812381441770800,0.633770751953125,0.08929729461669922,-0.08822742104530334,0.05567716807126999
1772812381451471400,0.643471435546875,0.06294727325439453,-0.11328935623168945,0.05739687383174896
1772812381461172200,0.653172119140625,-0.01824665069580078,-0.14018869400024414,0.044032834470272064
1772812381470873000,0.662873046875,-0.1263113021850586,-0.14840492606163025,-0.008881084620952606
1772812381480573700,0.67257373046875,-0.18076610565185547,-0.11824467778205872,-0.03982752561569214
1772812381490274600,0.682274658203125,-0.22131919860839844,-0.06280827522277832,-0.019111268222332
1772812381499975400,0.691975341796875,-0.19878292083740234,-0.055578649044036865,-0.0020005181431770325
1772812381509676000,0.701676025390625,-0.16715049743652344,-0.03265535831451416,0.0018326789140701294
1772812381519377000,0.711376953125,-0.15010738372802734,0.033681780099868774,-0.020747043192386627
1772812381529077500,0.721077392578125,-0.10625171661376953,0.11267644166946411,-0.010351363569498062
1772812381538778400,0.7307783203125,-0.05488014221191406,0.11993461847305298,0.045185647904872894
1772812381548479200,0.740479248046875,0.019145965576171875,0.08641663193702698,0.08126872777938843
1772812381558179800,0.750179931640625,0.07190895080566406,0.08086718618869781,0.07609228789806366
1772812381567880700,0.759880615234375,0.12611865997314453,0.12285193800926208,0.10702577233314514
1772812381577581600,0.76958154296875,0.16057395935058594,0.159956157207489,0.05565314739942551
1772812381587282200,0.7792822265625,0.16619873046875,0.13458341360092163,0.04971759766340256
1772812381596983000,0.788983154296875,0.13994789123535156,0.09259499609470367,0.027403123676776886
1772812381606683600,0.79868359375,0.11176395416259766,0.09085363149642944,0.014036715030670166
1772812381616384500,0.808384521484375,0.07343101501464844,0.0589938759803772,0.029812149703502655
1772812381626085400,0.81808544921875,0.04631996154785156,0.015643417835235596,0.014531031250953674
1772812381635786000,0.827785888671875,0.03612041473388672,-0.0015561580657958984,0.006221577525138855
1772812381645486800,0.83748681640625,0.027273178100585938,0.021476149559020996,0.012444853782653809
1772812381655187700,0.847187744140625,0.0409393310546875,0.011327028274536133,0.006934463977813721
1772812381664888300,0.856888427734375,0.004988670349121094,-0.012087434530258179,-0.011529035866260529
1772812381674589200,0.866589111328125,-0.007986068725585938,0.0010111629962921143,0.004795283079147339
1772812381684289800,0.876289794921875,-0.019553184509277344,0.0006022751331329346,0.04096837341785431
1772812381693990700,0.88599072265625,-0.0050449371337890625,0.018044352531433105,0.05483341962099075
1772812381703691500,0.89569140625,0.0539093017578125,-0.0008134543895721436,0.104491226375103
1772812381713392000,0.90539208984375,0.07889366149902344,-0.022156834602355957,0.11505361646413803
1772812381723093000,0.915093017578125,0.07990360260009766,-0.001902550458908081,0.08933553844690323
1772812381732793900,0.9247939453125,0.07499313354492188,0.035929471254348755,0.07762396335601807
1772812381742494500,0.934494384765625,0.04073047637939453,0.04432755708694458,0.06908363103866577
1772812381752195300,0.9441953125,-0.00237274169921875,0.05037224292755127,0.07401879876852036
1772812381761896000,0.95389599609375,-0.012958526611328125,0.0914812684059143,0.07881009578704834
1772812381771596800,0.9635966796875,-0.04215812683105469,0.08138719201087952,0.08400144428014755
1772812381781297700,0.973297607421875,-0.05789375305175781,0.058417871594429016,0.051167137920856476
1772812381790998300,0.982998291015625,-0.05450153350830078,0.030938774347305298,0.028554879128932953
1772812381800699100,0.99269921875,-0.06759834289550781,0.04235866665840149,-0.013750076293945312
1772812381810400000,1.00239990234375,-0.001651763916015625,0.024065673351287842,-0.007247619330883026
1772812381820100600,1.0121005859375,-0.019211769104003906,-0.01144447922706604,0.033726565539836884
1772812381829801500,1.021801513671875,0.0540771484375,-0.060245364904403687,0.057930827140808105
1772812381839502000,1.031502197265625,0.0802316665649414,-0.04357609152793884,0.034091368317604065
1772812381849203000,1.041202880859375,0.08829212188720703,-0.016990244388580322,-0.03289984166622162
1772812381858903800,1.05090380859375,0.04913616180419922,-0.008649230003356934,-0.0432870090007782
1772812381868604400,1.0606044921875,0.01768207550048828,-0.046260833740234375,-0.0208573117852211
1772812381878305300,1.07030517578125,0.0114593505859375,-0.06809404492378235,-0.03216981142759323
1772812381888006100,1.080006103515625,0.033568382263183594,-0.0500527024269104,-0.0026444196701049805
1772812381897706800,1.089706787109375,-0.007061958312988281,-0.051740050315856934,0.0028962790966033936
1772812381907407600,1.09940771484375,-0.029367446899414062,-0.05937883257865906,-0.014319345355033875
1772812381917108200,1.109108154296875,-0.07479190826416016,-0.04581210017204285,-0.04475538432598114
1772812381926809000,1.11880908203125,-0.10999011993408203,0.0019061863422393799,-0.12381400167942047
1772812381936510000,1.128510009765625,-0.12333869934082031,0.047626033425331116,-0.16853317618370056
1772812381946210600,1.13821044921875,-0.12462902069091797,0.026444286108016968,-0.16127647459506989
1772812381955911400,1.147911376953125,-0.10468769073486328,-0.005895286798477173,-0.08961330354213715
1772812381965612300,1.1576123046875,-0.018060684204101562,-0.07812702655792236,0.049024611711502075
1772812381975313000,1.16731298828125,0.11878108978271484,-0.13752055168151855,0.15564417839050293
1772812381985013800,1.177013671875,0.2414569854736328,-0.13742002844810486,0.15673281252384186
1772812381994714600,1.186714599609375,0.2996330261230469,-0.07278254628181458,0.09989151358604431
1772812382004415200,1.196415283203125,0.26267337799072266,0.015571743249893188,0.026096314191818237
1772812382014115800,1.20611572265625,0.15456104278564453,0.0726243257522583,-0.02093203365802765
1772812382023816700,1.215816650390625,0.03063201904296875,0.07675345242023468,-0.01477782428264618
1772812382033517600,1.225517578125,-0.059433937072753906,0.08004473149776459,0.03250989317893982
1772812382052919000,1.2449189453125,-0.15403461456298828,0.05486895143985748,0.09899650514125824
1772812382062620000,1.254619873046875,-0.17735862731933594,0.0380965918302536,0.0803566426038742
1772812382072320800,1.26432080078125,-0.1696624755859375,0.06057634949684143,0.08523048460483551
1772812382082021400,1.274021484375,-0.11385059356689453,0.009321928024291992,0.11791995167732239
1772812382091722000,1.283721923828125,-0.07544612884521484,-0.03400230407714844,0.10817378759384155
1772812382101422800,1.2934228515625,-0.015320777893066406,-0.029609620571136475,0.03686197102069855
1772812382111123700,1.303123779296875,0.015580177307128906,0.01606181263923645,0.022652357816696167
1772812382120824600,1.312824462890625,0.03771495819091797,0.014700651168823242,0.039650946855545044
1772812382130525200,1.322525146484375,0.04886913299560547,-0.015722006559371948,0.03390300273895264
1772812382140226000,1.33222607421875,0.03396129608154297,-0.02018451690673828,0.00240403413772583
1772812382149927000,1.341927001953125,0.005192756652832031,0.01094973087310791,0.0018796324729919434
1772812382159627500,1.35162744140625,-0.05369091033935547,0.018490493297576904,0.0120258629322052
1772812382169328000,1.361328125,-0.06806755065917969,-0.03832447528839111,0.03836354613304138
1772812382179029000,1.371029052734375,-0.02927112579345703,-0.04579553008079529,0.05439536273479462
1772812382188729900,1.380729736328125,0.030013084411621094,-0.029320240020751953,0.030106619000434875
1772812382198430500,1.390430419921875,0.055328369140625,-0.029607653617858887,0.032352596521377563
1772812382208131300,1.40013134765625,0.07433032989501953,-0.02852681279182434,-0.011330753564834595
1772812382217832200,1.409832275390625,0.06949329376220703,0.022399157285690308,-0.08910355716943741
1772812382227532800,1.41953271484375,0.01770496368408203,0.05518558621406555,-0.14769014716148376
1772812382237233700,1.429233642578125,-0.033203125,0.032971709966659546,-0.13436660170555115
1772812382246934300,1.438934326171875,-0.05266284942626953,-0.0022371411323547363,-0.11105959117412567
1772812382256635100,1.44863525390625,-0.06473064422607422,0.019265472888946533,-0.10959932208061218
1772812382266336000,1.4583359375,-0.04128837585449219,0.042301103472709656,-0.050078749656677246
1772812382276036600,1.46803662109375,-0.013512611389160156,0.062857985496521,-0.04284067451953888
1772812382285737500,1.477737548828125,0.03381061553955078,0.03350614011287689,-0.03082948923110962
1772812382295438300,1.487438232421875,0.03917217254638672,0.01975804567337036,0.022720113396644592
1772812382305139000,1.497138916015625,0.07148265838623047,0.009027987718582153,0.01881490647792816
1772812382314839800,1.50683984375,0.038543701171875,-0.012370139360427856,0.000736922025680542
1772812382324540400,1.51654052734375,0.08144283294677734,-0.020524650812149048,-0.003810092806816101
1772812382334241300,1.5262412109375,0.04359626770019531,-0.011398166418075562,-0.008392006158828735
1772812382343942100,1.535942138671875,0.07813262939453125,-0.022867411375045776,-0.012991264462471008
1772812382353642800,1.545642822265625,0.09442996978759766,-0.010116815567016602,0.005880966782569885
1772812382363343600,1.555343505859375,0.08689022064208984,-0.018434584140777588,0.036904335021972656
1772812382373044500,1.56504443359375,0.07120609283447266,-0.036941319704055786,0.06337197124958038
1772812382382745000,1.5747451171875,0.05928802490234375,-0.018434792757034302,0.04824082553386688
1772812382392446000,1.584446044921875,0.005196571350097656,-0.015205681324005127,0.036751002073287964
1772812382402146600,1.594146484375,-0.07268810272216797,-0.0181085467338562,0.03746238350868225
1772812382411847400,1.603847412109375,-0.13393783569335938,0.005739271640777588,0.03917384147644043
1772812382421548300,1.61354833984375,-0.1941061019897461,0.014586403965950012,0.04277314245700836
1772812382431249000,1.623248779296875,-0.26498889923095703,0.02316722273826599,0.040035322308540344
1772812382440949800,1.63294970703125,-0.2617073059082031,0.0012367963790893555,0.03521932661533356
1772812382450650600,1.642650634765625,-0.1948995590209961,0.025354892015457153,0.0027868151664733887
1772812382460351200,1.652351318359375,-0.10445308685302734,0.03967967629432678,-0.035852327942848206
1772812382470052000,1.662052001953125,-0.02019977569580078,0.03251469135284424,-0.05389772355556488
1772812382479752700,1.671752685546875,0.033247947692871094,0.013371825218200684,-0.037496164441108704
1772812382489453600,1.68145361328125,0.07637882232666016,-0.020414292812347412,-0.013548627495765686
1772812382499154400,1.691154541015625,0.10580062866210938,-0.07606369256973267,0.06280536949634552
1772812382508855000,1.70085498046875,0.1558399200439453,-0.09946343302726746,0.08279629051685333
1772812382518556000,1.710555908203125,0.19556045532226562,-0.06788206100463867,0.0953076034784317
1772812382528256800,1.7202568359375,0.18278789520263672,-0.026966840028762817,0.06590165197849274
1772812382537957400,1.729957275390625,0.1725320816040039,-0.0037946701049804688,0.06526470184326172
1772812382547658200,1.739658203125,0.12594318389892578,-0.009352385997772217,0.03168630599975586
1772812382557358800,1.74935888671875,0.060135841369628906,0.017780542373657227,-0.0103350430727005
1772812382567059700,1.759059814453125,-0.001007080078125,0.04287952184677124,-0.043113768100738525
1772812382576760300,1.76876025390625,-0.0775308609008789,0.06376321613788605,-0.09606095403432846
1772812382586461200,1.778461181640625,-0.10799980163574219,0.0819564163684845,-0.09238001704216003
1772812382596162000,1.788162109375,-0.12495994567871094,0.05525508522987366,-0.055479973554611206
1772812382605862700,1.797862548828125,-0.14279937744140625,-0.010701745748519897,-0.036569371819496155
1772812382615563500,1.8075634765625,-0.09680461883544922,-0.047877371311187744,0.005116298794746399
1772812382625264400,1.817264404296875,-0.012776374816894531,-0.07231605052947998,0.016807138919830322
1772812382634965200,1.82696533203125,0.06039905548095703,-0.08650901913642883,0.005301192402839661
1772812382644665900,1.836665771484375,0.11230659484863281,-0.0861448347568512,0.01796436309814453
1772812382654366500,1.846366455078125,0.1021261215209961,-0.08303660154342651,0.01710885763168335
1772812382664067300,1.8560673828125,0.053267478942871094,-0.060886263847351074,0.04083530604839325
1772812382673768200,1.865768310546875,-0.0030031204223632812,-0.005987614393234253,0.04526807367801666
1772812382683468800,1.87546875,-0.0888967514038086,0.049046337604522705,0.03441835939884186
1772812382693169700,1.885169677734375,-0.1368427276611328,0.04488968849182129,0.057888537645339966
1772812382702870500,1.89487060546875,-0.1404247283935547,0.01653216779232025,0.06970593333244324
1772812382712571100,1.904571044921875,-0.11924076080322266,0.007223308086395264,0.0744982659816742
1772812382722272000,1.91427197265625,-0.03960132598876953,-0.006733208894729614,0.09662602841854095
1772812382731972600,1.92397265625,0.01986408233642578,-0.02801305055618286,0.09536896646022797
1772812382741673500,1.933673583984375,0.0630197525024414,-0.02388855814933777,0.08137176930904388
1772812382751374300,1.943374267578125,0.09485149383544922,-0.011473774909973145,0.03277507424354553
1772812382761075000,1.953074951171875,0.05205059051513672,-0.00654873251914978,-0.030485153198242188
1772812382770775800,1.96277587890625,-0.002948760986328125,0.024926036596298218,-0.0733509510755539
1772812382780476700,1.9724765625,-0.06405448913574219,0.001010596752166748,-0.08319853246212006
1772812382790177300,1.98217724609375,-0.06177043914794922,-0.030852168798446655,-0.06399348378181458
1772812382799878100,1.991878173828125,-0.037156105041503906,-0.05589944124221802,-0.06056268513202667
1772812382809578800,2.001578857421875,0.04584503173828125,-0.06886997818946838,0.0033815503120422363
1772812382819279600,2.011279541015625,0.09799861907958984,-0.07922729849815369,0.04673284292221069
1772812382828980500,2.02098046875,0.1104135513305664,-0.03174874186515808,0.0576181560754776
1772812382838681000,2.03068115234375,0.07672882080078125,-0.015479415655136108,0.04607407748699188
1772812382848382000,2.0403818359375,0.007159233093261719,0.006265044212341309,0.03745909035205841
1772812382858082800,2.050082763671875,-0.040081024169921875,0.033868417143821716,0.020222768187522888
1772812382867783400,2.059783447265625,-0.04536247253417969,0.029530242085456848,0.029689520597457886
1772812382877484300,2.069484375,0.005917549133300781,0.011430174112319946,0.042895615100860596
1772812382887185000,2.079184814453125,0.029293060302734375,0.014515668153762817,0.027785539627075195
1772812382896885800,2.0888857421875,0.00286865234375,0.009769678115844727,0.051657408475875854
1772812382906586400,2.09858642578125,-0.007822990417480469,0.0162353515625,0.019978269934654236
1772812382916287200,2.108287353515625,-0.1089181900024414,-0.0150471031665802,-0.017525166273117065
1772812382925988000,2.117988037109375,-0.13889122009277344,-0.023850470781326294,-0.01592155545949936
1772812382935688700,2.127688720703125,-0.1636371612548828,-0.029181867837905884,-0.010573893785476685
1772812382955090400,2.14709033203125,-0.1358957290649414,-0.05392041802406311,0.004110544919967651
1772812382964791000,2.156791015625,-0.10883235931396484,-0.03809136152267456,-0.02943621575832367
1772812382974492000,2.166491943359375,-0.05513191223144531,0.006423920392990112,-0.07846967875957489
1772812382984192500,2.176192626953125,0.018883705139160156,0.06616105139255524,-0.12635210156440735
1772812382993893400,2.185893310546875,0.0669708251953125,0.07111653685569763,-0.12045685946941376
1772812383003594200,2.19559423828125,0.1001119613647461,0.035572394728660583,-0.06777171790599823
1772812383013294800,2.205294921875,0.17618751525878906,-0.008609205484390259,0.015919789671897888
1772812383022995700,2.21499560546875,0.2309093475341797,-0.03537037968635559,0.06924116611480713
1772812383032696600,2.224696533203125,0.2575960159301758,-0.06380203366279602,0.08197559416294098
1772812383042397200,2.234397216796875,0.22849178314208984,-0.03358268737792969,0.046304747462272644
1772812383052098000,2.24409814453125,0.14339923858642578,0.022657006978988647,0.011593878269195557
1772812383061798700,2.253798583984375,0.12091827392578125,0.05555295944213867,-0.036804720759391785
1772812383071499500,2.26349951171875,0.05174827575683594,0.02670016884803772,-0.05566827952861786
1772812383081200400,2.273200439453125,-0.006873130798339844,0.004102200269699097,-0.015565723180770874
1772812383090901000,2.28290087890625,0.0013704299926757812,-0.005037456750869751,-0.012520015239715576
1772812383100601900,2.292601806640625,-0.0246429443359375,0.0034810006618499756,-0.006050869822502136
1772812383110302700,2.302302734375,-0.05727195739746094,0.02238723635673523,0.003041312098503113
1772812383120003300,2.31200341796875,-0.07874298095703125,0.03879380226135254,-0.006025776267051697
1772812383129704200,2.3217041015625,-0.10570049285888672,0.07328729331493378,-0.008061990141868591
1772812383139404800,2.33140478515625,-0.15334224700927734,0.11786888539791107,0.009060800075531006
1772812383149105700,2.341105712890625,-0.16367721557617188,0.12200014293193817,0.04692241549491882
1772812383158806300,2.35080615234375,-0.1655750274658203,0.07110452651977539,0.11418566107749939
1772812383168507100,2.360507080078125,-0.10507869720458984,0.0247194766998291,0.15849092602729797
1772812383178208000,2.3702080078125,-0.06325721740722656,0.006887152791023254,0.16441282629966736
1772812383187908600,2.37990869140625,0.007271766662597656,-0.016316533088684082,0.11608107388019562
1772812383197609500,2.389609375,0.10015392303466797,-0.014878243207931519,0.05025821924209595
1772812383207310300,2.399310302734375,0.14678001403808594,0.007826477289199829,-0.053763777017593384
1772812383217011000,2.409010986328125,0.15732097625732422,0.002925366163253784,-0.12696844339370728
1772812383226711800,2.4187119140625,0.12295722961425781,-0.0382249653339386,-0.10747884213924408
1772812383236412400,2.428412353515625,0.10442733764648438,-0.08906349539756775,-0.08180418610572815
1772812383246113300,2.43811328125,0.09086418151855469,-0.10587701201438904,-0.05985160171985626
1772812383255814100,2.447814208984375,0.0657186508178711,-0.1292041838169098,-0.07320963591337204
1772812383265514800,2.4575146484375,0.0539093017578125,-0.08233973383903503,-0.08733419328927994
1772812383275215600,2.467215576171875,0.056412696838378906,0.005656972527503967,-0.13005489110946655
1772812383284916500,2.47691650390625,0.0000629425048828125,0.028675362467765808,-0.15153272449970245
1772812383294617000,2.4866171875,-0.04826164245605469,0.023567810654640198,-0.14536182582378387
1772812383304318000,2.49631787109375,-0.06164073944091797,0.0192592591047287,-0.1136304959654808
1772812383314018600,2.5060185546875,-0.09713935852050781,0.030857250094413757,-0.051695533096790314
1772812383323719400,2.515719482421875,-0.07555103302001953,0.026440471410751343,-0.02204184979200363
1772812383333420000,2.525419921875,-0.09076690673828125,0.003978148102760315,-0.02063274383544922
1772812383343121000,2.535120849609375,-0.1009988784790039,0.03210020065307617,-0.004428297281265259
1772812383352821800,2.54482177734375,-0.06632614135742188,0.031539857387542725,-0.0012521669268608093
1772812383362522400,2.5545224609375,-0.04987525939941406,0.014972850680351257,0.02611123025417328
1772812383372223200,2.56422314453125,0.018060684204101562,-0.008177518844604492,0.03605391085147858
1772812383381924000,2.573924072265625,0.05896759033203125,-0.0006681829690933228,0.04645027220249176
1772812383391624700,2.583624755859375,0.12269306182861328,0.020929917693138123,0.08036826550960541
1772812383401325600,2.59332568359375,0.14060592651367188,0.023849964141845703,0.09721498191356659
1772812383411026200,2.603026123046875,0.15584373474121094,0.016801193356513977,0.08542554080486298
1772812383420727000,2.61272705078125,0.1496124267578125,-0.013076335191726685,0.09597006440162659
1772812383430428000,2.622427978515625,0.06696891784667969,0.0162351131439209,0.07234790921211243
1772812383440128500,2.63212841796875,0.013929367065429688,-0.00925840437412262,0.07559961080551147
1772812383449829400,2.641829345703125,-0.06526851654052734,-0.0019370466470718384,0.05073361098766327
1772812383459530200,2.6515302734375,-0.15017414093017578,-0.015954777598381042,0.03067496418952942
1772812383469230800,2.66123095703125,-0.21126270294189453,-0.011309951543807983,0.031727135181427
1772812383478931500,2.670931396484375,-0.2501096725463867,0.0036168545484542847,0.03499336540699005
1772812383488632300,2.68063232421875,-0.23884201049804688,0.032494813203811646,0.030827581882476807
1772812383498333200,2.690333251953125,-0.1853628158569336,0.058306366205215454,0.011401265859603882
1772812383508033800,2.70003369140625,-0.1139373779296875,0.039946094155311584,0.0023933202028274536
1772812383517734700,2.709734619140625,-0.037827491760253906,0.011337324976921082,-0.017681404948234558
1772812383527435500,2.719435546875,0.03465080261230469,-0.010494202375411987,-0.021109826862812042
1772812383537136000,2.72913623046875,0.11529541015625,-0.04699385166168213,-0.022770121693611145
1772812383546837000,2.7388369140625,0.14043617248535156,-0.0698327124118805,-0.028787575662136078
1772812383556537600,2.74853759765625,0.1615915298461914,-0.0718381255865097,-0.008072592318058014
1772812383566238500,2.758238525390625,0.12470722198486328,-0.05049152672290802,0.00939592719078064
1772812383575939300,2.767939208984375,0.04726600646972656,-0.008059322834014893,-0.036768652498722076
1772812383585640000,2.777639892578125,-0.022978782653808594,0.048323854804039,-0.05865088105201721
1772812383595340800,2.7873408203125,-0.13906574249267578,0.122967928647995,0.0034168213605880737
1772812383605041700,2.797041748046875,-0.1037588119506836,0.09044739603996277,0.06124390661716461
1772812383614742300,2.8067421875,-0.06078529357910156,0.04380394518375397,0.09901802241802216
1772812383624443100,2.816443115234375,-0.015013694763183594,-0.07381108403205872,0.06478987634181976
1772812383634143700,2.826143798828125,0.02998065948486328,-0.08713841438293457,0.025356009602546692
1772812383643844600,2.8358447265625,0.11539077758789062,0.012785941362380981,-0.034466326236724854
1772812383653545200,2.845545166015625,0.1369943618774414,0.03315135836601257,-0.07835206389427185
1772812383663246000,2.85524609375,0.11234855651855469,-0.000460207462310791,-0.09283721446990967
1772812383672947000,2.864947021484375,0.08693218231201172,-0.003313004970550537,-0.09547300636768341
1772812383682647600,2.8746474609375,0.058396339416503906,0.010105177760124207,-0.05980744957923889
1772812383692348400,2.884348388671875,0.04915809631347656,0.018597707152366638,-0.05058382451534271
1772812383702049300,2.89404931640625,0.02948760986328125,0.029556572437286377,-0.0212031751871109
1772812383711750000,2.90375,0.011316299438476562,0.02641485631465912,-0.003281041979789734
1772812383721450800,2.91345068359375,-0.005385398864746094,0.02083052694797516,0.013761281967163086
1772812383731151400,2.9231513671875,0.017017364501953125,0.032953470945358276,0.009136229753494263
1772812383740852200,2.932852294921875,0.008450508117675781,0.04332447052001953,0.028052806854248047
1772812383750553000,2.942552978515625,-0.009398460388183594,0.037629514932632446,0.052672699093818665
1772812383760253700,2.952253662109375,-0.029294967651367188,0.03199206292629242,0.06700059771537781
1772812383769954600,2.96195458984375,-0.04062938690185547,0.03798098862171173,0.053907960653305054
1772812383779655400,2.971655517578125,-0.05647850036621094,-0.0052868276834487915,0.04137255251407623
1772812383789356000,2.98135595703125,-0.06735515594482422,-0.014436140656471252,0.04958784580230713
1772812383799057000,2.991056884765625,-0.07569026947021484,-0.012190788984298706,0.009829595685005188
1772812383808757500,3.000757568359375,-0.09562873840332031,0.002689376473426819,0.045913875102996826
1772812383818458400,3.010458251953125,-0.0705270767211914,0.001019701361656189,0.035455137491226196
1772812383828159000,3.020158935546875,-0.07173347473144531,-0.033996909856796265,0.08160035312175751
1772812383837859800,3.02985986328125,-0.016431808471679688,-0.03883680701255798,0.0765744000673294
1772812383847560700,3.039560791015625,-0.017337799072265625,-0.04320792853832245,0.05976942181587219
1772812383857261300,3.04926123046875,-0.03587627410888672,-0.03195315599441528,0.060231104493141174
1772812383866962200,3.058962158203125,-0.007035255432128906,-0.012130409479141235,-0.0206184983253479
1772812383876663000,3.0686630859375,0.010747909545898438,0.016007661819458008,-0.04268035292625427
1772812383886363600,3.07836376953125,0.016472816467285156,0.04150503873825073,-0.04320970177650452
1772812383896064500,3.088064453125,0.019741058349609375,0.014812618494033813,-0.0030496716499328613
1772812383905765000,3.09776513671875,0.032347679138183594,-0.027191847562789917,0.034754857420921326
1772812383915466000,3.107466064453125,0.04119586944580078,-0.05647408962249756,0.01678745448589325
1772812383925166600,3.11716650390625,0.040472984313964844,-0.01998366415500641,-0.011528819799423218
1772812383934867500,3.126867431640625,0.03505134582519531,0.028222769498825073,-0.03657002002000809
1772812383944568300,3.136568359375,0.032090187072753906,0.029632791876792908,-0.06369877606630325
1772812383954269000,3.14626904296875,0.005652427673339844,0.003814876079559326,-0.05195469409227371
1772812383963969800,3.1559697265625,-0.040343284606933594,-0.008374810218811035,-0.04138205200433731
1772812383973670700,3.165670654296875,-0.05733776092529297,-0.003116130828857422,-0.02857615053653717
1772812383983371300,3.175371337890625,-0.07875823974609375,-0.0359666645526886,0.022002190351486206
1772812383993072000,3.185072021484375,-0.06923484802246094,-0.06451407074928284,0.03345213085412979
1772812384002772700,3.194772705078125,-0.035152435302734375,-0.059563517570495605,0.007355391979217529
1772812384012473600,3.2044736328125,0.008967399597167969,0.014484554529190063,0.01062958687543869
1772812384022174500,3.214174560546875,0.018250465393066406,0.05670572817325592,0.0030975639820098877
1772812384031875000,3.223875,-0.019670486450195312,0.05382747948169708,0.00016727298498153687
1772812384041576000,3.233575927734375,-0.032248497009277344,0.047205403447151184,-0.00047794729471206665
1772812384051276800,3.24327685546875,-0.02698040008544922,0.04939118027687073,0.02278510481119156
1772812384060977400,3.252977294921875,-0.018273353576660156,0.040001243352890015,0.009840242564678192
1772812384070678000,3.262677978515625,0.024402618408203125,-0.008146658539772034,0.0277470201253891
1772812384080379000,3.27237890625,0.05106830596923828,0.006288662552833557,0.04013076424598694
1772812384090079700,3.282079833984375,0.049045562744140625,-0.02413308620452881,0.020711436867713928
1772812384099780400,3.2917802734375,0.0552825927734375,-0.040958255529403687,-0.0062774792313575745
1772812384109481200,3.301481201171875,0.037865638732910156,-0.0348520427942276,0.00483163446187973
1772812384119182000,3.31118212890625,-0.013384819030761719,-0.01959976553916931,-0.01806807518005371
1772812384128882700,3.320882568359375,-0.022596359252929688,0.008938953280448914,-0.009679578244686127
1772812384148284200,3.3402841796875,-0.044788360595703125,0.010430216789245605,-0.0023886635899543762
1772812384157985000,3.349985107421875,-0.038135528564453125,0.007328659296035767,0.01269938051700592
1772812384167685600,3.359685546875,-0.004527091979980469,0.02111572027206421,0.017085939645767212
1772812384177386500,3.369386474609375,0.01910400390625,0.03430446982383728,0.012880541384220123
1772812384187087400,3.37908740234375,0.04470062255859375,0.035138458013534546,-0.0017184019088745117
1772812384196788000,3.3887880859375,0.039282798767089844,0.0687321126461029,0.011825114488601685
1772812384206488800,3.39848876953125,0.013946533203125,0.06403487920761108,-0.006138063967227936
1772812384216189700,3.408189697265625,-0.0039215087890625,0.01568560302257538,0.011162303388118744
1772812384225890300,3.417890380859375,-0.010916709899902344,-0.016793295741081238,0.0006715133786201477
1772812384235591200,3.427591064453125,0.013965606689453125,-0.008009031414985657,0.003932639956474304
1772812384245291800,3.437291748046875,0.016078948974609375,0.016558662056922913,-0.020773597061634064
1772812384254992600,3.44699267578125,-0.006554603576660156,-0.0022007524967193604,-0.012633070349693298
1772812384264693200,3.456693359375,-0.006453514099121094,0.006213471293449402,-0.012309618294239044
1772812384274394000,3.46639404296875,-0.016928672790527344,0.023205772042274475,-0.029948711395263672
1772812384284095000,3.476094970703125,-0.02839183807373047,0.04194819927215576,-0.019855812191963196
1772812384293795600,3.485795654296875,-0.0020208358764648438,0.030278921127319336,-0.005312606692314148
1772812384303496400,3.495496337890625,0.021553993225097656,0.03068569302558899,0.0023889094591140747
1772812384313197300,3.505197265625,0.10590839385986328,0.029771536588668823,-0.004006743431091309
1772812384322898000,3.51489794921875,0.08413314819335938,0.07422196865081787,0.030196383595466614
1772812384332598800,3.524598876953125,0.1074228286743164,0.06327018141746521,0.03751344233751297
1772812384342299400,3.53429931640625,0.08208179473876953,0.07100556790828705,0.062344007194042206
1772812384352000300,3.544000244140625,0.050093650817871094,0.0676753968000412,0.07997240871191025
1772812384361701000,3.553701171875,0.004506111145019531,0.037073224782943726,0.07693144679069519
1772812384371401700,3.563401611328125,-0.041510581970214844,-0.001576051115989685,0.05684558302164078
1772812384381102600,3.5731025390625,-0.013819694519042969,-0.036595553159713745,0.04122476279735565
1772812384390803500,3.582803466796875,-0.018350601196289062,-0.023368075489997864,-0.00032427161931991577
1772812384400504000,3.592504150390625,-0.020433425903320312,-0.0042790621519088745,-0.027104489505290985
1772812384410205000,3.602204833984375,-0.07541275024414062,-0.005020320415496826,-0.04892139136791229
1772812384419905500,3.611905517578125,-0.08592605590820312,-0.034274667501449585,-0.05059054493904114
1772812384429606400,3.6216064453125,-0.12331104278564453,-0.026270940899848938,-0.07089651376008987
1772812384439307000,3.63130712890625,-0.09301185607910156,-0.05751475691795349,-0.04957745224237442
1772812384449007900,3.6410078125,-0.04085350036621094,-0.07125209271907806,-0.0392792746424675
1772812384458708700,3.650708740234375,0.018682479858398438,-0.0460207462310791,-0.06090136617422104
1772812384468409300,3.660409423828125,0.07016754150390625,-0.033824145793914795,-0.060021236538887024
1772812384478110200,3.670110107421875,0.06900978088378906,-0.04752650856971741,-0.06382900476455688
1772812384487811000,3.67981103515625,0.040782928466796875,-0.06408378481864929,-0.04754653945565224
1772812384497511700,3.68951171875,0.05065345764160156,-0.05414801836013794,-0.02633122354745865
1772812384507212300,3.69921240234375,0.005051612854003906,-0.052255094051361084,-0.026836887001991272
1772812384516913200,3.7089130859375,-0.04331398010253906,-0.032888323068618774,-0.010452665388584137
1772812384526614000,3.718614013671875,-0.0720357894897461,0.0004958808422088623,0.0024745389819145203
1772812384536314600,3.728314697265625,-0.10260486602783203,0.03324510157108307,0.03477457910776138
1772812384546015500,3.738015380859375,-0.1385211944580078,0.06237544119358063,0.03394404798746109
1772812384555716400,3.74771630859375,-0.1161661148071289,0.06453467160463333,0.04556036740541458
1772812384565417000,3.7574169921875,-0.08592510223388672,0.09984171390533447,0.009318903088569641
1772812384575117800,3.767117919921875,-0.004416465759277344,0.08784563094377518,0.007721669971942902
1772812384584818400,3.776818359375,0.047496795654296875,0.04047669470310211,-0.02941875159740448
1772812384594519300,3.786519287109375,0.06440925598144531,0.008455827832221985,0.006194613873958588
1772812384604220000,3.796219970703125,0.07159900665283203,-0.06893192231655121,0.04978185147047043
1772812384613920800,3.805920654296875,0.1068735122680664,-0.11847110092639923,0.039580605924129486
1772812384623621600,3.81562158203125,0.09801578521728516,-0.1233268529176712,-0.012884661555290222
1772812384633322200,3.825322265625,0.07634925842285156,-0.05918608605861664,-0.03357943892478943
1772812384643023000,3.835023193359375,0.03504753112792969,-0.009935528039932251,-0.025501258671283722
1772812384652724000,3.844723876953125,0.0038633346557617188,0.009566649794578552,-0.023974992334842682
1772812384662424600,3.854424560546875,-0.03501129150390625,0.023906707763671875,-0.018257364630699158
1772812384672125400,3.86412548828125,-0.05675220489501953,0.09073631465435028,0.03490544110536575
1772812384681826000,3.873825927734375,-0.028707504272460938,0.1101304441690445,0.05449627339839935
1772812384691527000,3.88352685546875,-0.0023145675659179688,0.11023059487342834,0.055296413600444794
1772812384701227500,3.8932275390625,0.02834033966064453,0.09581011533737183,0.045203909277915955
1772812384710928400,3.902928466796875,0.07729530334472656,0.10889621078968048,0.04652528464794159
1772812384720629200,3.912629150390625,0.10306835174560547,0.12687653303146362,0.02397572249174118
1772812384730329900,3.922329833984375,0.09663105010986328,0.11689849197864532,0.042135439813137054
1772812384740030700,3.93203076171875,0.09029483795166016,0.0841631144285202,0.024409733712673187
1772812384749731600,3.941731689453125,0.08641242980957031,0.10810140520334244,-0.0002239122986793518
1772812384759432200,3.95143212890625,0.06141090393066406,0.08194739371538162,-0.004130952060222626
1772812384769133000,3.961133056640625,0.03327751159667969,0.027567312121391296,0.03301951289176941
1772812384788534500,3.980534423828125,0.017042160034179688,-0.07782448828220367,0.004780568182468414
1772812384798235100,3.990235107421875,-0.0009374618530273438,-0.05716755986213684,-0.05008627474308014
1772812384807936000,3.99993603515625,-0.04096221923828125,-0.037822455167770386,-0.08330169320106506
1772812384817636900,4.009636962890625,-0.12384223937988281,-0.04729108512401581,-0.06447920203208923
1772812384827337500,4.01933740234375,-0.14649486541748047,-0.07831059396266937,-0.06413576751947403
1772812384837038300,4.029038330078125,-0.18638896942138672,-0.11019019782543182,-0.044241949915885925
1772812384846739200,4.0387392578125,-0.18206024169921875,-0.07335644960403442,-0.010883636772632599
1772812384856439800,4.048439697265625,-0.13663005828857422,-0.059000611305236816,-0.007750682532787323
1772812384866140400,4.058140380859375,-0.07664775848388672,-0.0752144604921341,-0.02755551040172577
1772812384875841300,4.06784130859375,-0.0000209808349609375,-0.05534140765666962,-0.007598549127578735
1772812384885542100,4.077542236328125,0.06234550476074219,-0.03193189203739166,0.025247037410736084
1772812384895242800,4.08724267578125,0.1142435073852539,-0.04442468285560608,0.0450911745429039
1772812384904943600,4.096943603515625,0.11585617065429688,-0.02835625410079956,0.009507216513156891
1772812384924345000,4.116344970703125,0.07814693450927734,0.08381009101867676,0.04651789367198944
1772812384934046000,4.1260458984375,0.040345191955566406,0.07259026914834976,0.045679740607738495
1772812384943746600,4.13574658203125,0.019652366638183594,0.05881635844707489,0.03600317984819412
1772812384953447400,4.145447509765625,0.000484466552734375,0.07685314118862152,0.022860214114189148
1772812384963148000,4.15514794921875,0.0063304901123046875,0.06302980333566666,0.01601318269968033
1772812384972849000,4.164848876953125,-0.0020380020141601562,0.0118790864944458,0.0022839754819869995
1772812384982549800,4.1745498046875,0.0038585662841796875,-0.03050050139427185,-0.0016854479908943176
1772812384992250400,4.18425048828125,0.0049495697021484375,-0.061209604144096375,-0.004295662045478821
1772812385001951200,4.193951171875,-0.019857406616210938,-0.08018793165683746,-0.029155947268009186
1772812385011652000,4.203652099609375,-0.03247833251953125,-0.04005149006843567,-0.042597949504852295
1772812385021352700,4.213352783203125,-0.07899665832519531,-0.028210878372192383,-0.04979998618364334
1772812385031053600,4.223053466796875,-0.1200265884399414,-0.02631630003452301,-0.05855582654476166
1772812385040754200,4.232754150390625,-0.12624549865722656,-0.03527455031871796,-0.017060957849025726
1772812385050455000,4.242455078125,-0.1264638900756836,-0.04309713840484619,0.02869446575641632
1772812385060155600,4.25215576171875,-0.11489582061767578,-0.028889253735542297,0.05122784525156021
1772812385069856500,4.2618564453125,-0.09526252746582031,-0.002287834882736206,0.044732414186000824
1772812385079557400,4.271557373046875,-0.0512237548828125,0.029309213161468506,0.01712167263031006
1772812385089258000,4.281258056640625,0.019151687622070312,0.04884664714336395,-0.03033110499382019
1772812385098958800,4.290958740234375,0.043641090393066406,0.04801204800605774,-0.052766382694244385
1772812385108659700,4.30065966796875,0.0888833999633789,-0.0036699771881103516,-0.03155076503753662
1772812385118360300,4.3103603515625,0.12746334075927734,-0.05220313370227814,-0.02328202873468399
1772812385128061200,4.320061279296875,0.183013916015625,-0.058072954416275024,-0.0002885758876800537
1772812385137761800,4.32976171875,0.1552438735961914,-0.06471404433250427,-0.01410142332315445
1772812385147462700,4.339462646484375,0.16790771484375,-0.07622180879116058,-0.009288892149925232
1772812385157163300,4.349163330078125,0.140350341796875,-0.032000333070755005,-0.01579044759273529
1772812385166864100,4.358864013671875,0.06736564636230469,0.018433526158332825,-0.05500241369009018
1772812385176565000,4.36856494140625,0.0050144195556640625,0.05588714778423309,-0.051377568393945694
1772812385186265600,4.378265625,-0.040986061096191406,0.03761070966720581,-0.024461910128593445
1772812385195966500,4.387966552734375,-0.06384754180908203,0.04548020660877228,-0.01501668244600296
1772812385205667300,4.397667236328125,-0.0804290771484375,0.06574447453022003,0.003588758409023285
1772812385215368000,4.407367919921875,-0.06495475769042969,0.028356894850730896,0.017546020448207855
1772812385225068500,4.417068603515625,-0.03915214538574219,0.011245682835578918,0.02721819281578064
1772812385234769400,4.426769287109375,0.006220817565917969,0.009229734539985657,0.029935568571090698
1772812385244470300,4.43647021484375,0.036713600158691406,0.03127008676528931,0.029597625136375427
1772812385254171000,4.4461708984375,0.025524139404296875,0.04347352683544159,0.034748807549476624
1772812385263871700,4.455871826171875,0.016874313354492188,0.030769959092140198,0.02923063188791275
1772812385273572600,4.465572509765625,-0.018697738647460938,0.02668537199497223,0.03303608298301697
1772812385283273200,4.475273193359375,-0.03485679626464844,-0.00519736111164093,0.04242066293954849
1772812385292974000,4.48497412109375,0.0021963119506835938,-0.014080435037612915,0.030674375593662262
1772812385302674700,4.4946748046875,0.038634300231933594,0.005365327000617981,0.017582744359970093
1772812385312375600,4.50437548828125,0.06387519836425781,0.012357056140899658,0.0029436051845550537
1772812385322076200,4.514076171875,0.04280567169189453,0.02096271514892578,-0.002462416887283325
1772812385331777000,4.523777099609375,0.015023231506347656,-0.010860785841941833,-0.0019279271364212036
1772812385341478000,4.533477783203125,-0.024059295654296875,-0.03389477729797363,-0.0015239939093589783
1772812385351178500,4.543178466796875,-0.048356056213378906,-0.026393458247184753,-0.02835233509540558
1772812385360879400,4.55287939453125,-0.04283428192138672,0.01653820276260376,-0.03900333493947983
1772812385370580000,4.562580078125,-0.03386974334716797,0.00032688677310943604,-0.0022211074829101562
1772812385380280800,4.57228076171875,-0.013297080993652344,-0.01214975118637085,0.024918876588344574
1772812385389981700,4.581981689453125,0.009276390075683594,0.021345555782318115,0.0346597358584404
1772812385399682300,4.591682373046875,0.03734397888183594,0.02105487883090973,0.049364350736141205
1772812385409383200,4.601383056640625,0.03435707092285156,0.018182024359703064,0.04103275388479233
1772812385419083800,4.611083740234375,0.012598037719726562,0.018710017204284668,0.022906683385372162
1772812385428784600,4.62078466796875,-0.02526378631591797,0.011303290724754333,0.024128690361976624
1772812385438485200,4.6304853515625,-0.02486133575439453,-0.013939663767814636,0.047044701874256134
1772812385448186000,4.64018603515625,0.004931449890136719,-0.04865902662277222,0.047645606100559235
1772812385457887000,4.649886962890625,0.0048084259033203125,-0.0774020254611969,0.03750188648700714
1772812385467587600,4.659587646484375,0.022340774536132812,-0.08942069113254547,0.007770508527755737
1772812385477288400,4.669288330078125,-0.0062923431396484375,-0.08310556411743164,-0.03310909867286682
1772812385486989000,4.678989013671875,-0.09090042114257812,-0.0598907470703125,-0.007168203592300415
1772812385496690000,4.68868994140625,-0.102294921875,-0.04929827153682709,-0.020408429205417633
1772812385506390500,4.698390625,-0.10758590698242188,-0.01967155933380127,-0.017899326980113983
1772812385516091400,4.70809130859375,-0.11630058288574219,-0.02624429762363434,0.017877086997032166
1772812385525792300,4.717792236328125,-0.05900096893310547,-0.056753575801849365,0.07702736556529999
1772812385545193700,4.73719384765625,0.023270606994628906,-0.04037608206272125,0.12295782566070557
1772812385554894600,4.74689453125,0.058175086975097656,-0.020260751247406006,0.08007766306400299
1772812385564595200,4.75659521484375,0.041907310485839844,0.01866792142391205,0.0397670641541481
1772812385574296000,4.766296142578125,0.0012025833129882812,0.027222394943237305,0.013732574880123138
1772812385583996700,4.77599658203125,-0.041164398193359375,0.03157512843608856,0.0062210336327552795
1772812385593697500,4.785697509765625,-0.06749248504638672,0.03399452567100525,-0.020167618989944458
1772812385603398100,4.795398193359375,-0.019231796264648438,0.07550011575222015,-0.07290759682655334
1772812385613099000,4.80509912109375,-0.02940082550048828,0.10675424337387085,-0.05835802108049393
1772812385622800000,4.8147998046875,0.05708789825439453,0.06296281516551971,-0.09110032767057419
1772812385632500500,4.82450048828125,0.03505516052246094,0.019366294145584106,-0.041037168353796005
1772812385642201300,4.834201416015625,0.09336280822753906,-0.041250959038734436,0.005748145282268524
1772812385651902000,4.84390185546875,0.13770294189453125,-0.09951306879520416,0.002335183322429657
1772812385661602800,4.853602783203125,0.12831687927246094,-0.09654931724071503,-0.013580322265625
1772812385671303700,4.8633037109375,0.11788654327392578,-0.07143616676330566,-0.01945752650499344
1772812385681004300,4.87300439453125,0.0664377212524414,-0.039127811789512634,-0.006432808935642242
1772812385690705200,4.882705078125,0.02173137664794922,-0.03897841274738312,-0.017004646360874176
1772812385700405800,4.89240576171875,-0.029262542724609375,-0.031698912382125854,-0.034028396010398865
1772812385710106600,4.902106689453125,-0.06997108459472656,-0.005725979804992676,-0.05119529366493225
1772812385719807200,4.91180712890625,-0.0970296859741211,0.012747004628181458,-0.04249194264411926
1772812385729508000,4.921508056640625,-0.1083078384399414,0.030816003680229187,-0.043125733733177185
1772812385739209000,4.931208984375,-0.1299581527709961,0.05187395215034485,-0.04884681850671768
1772812385748909600,4.94090966796875,-0.16416549682617188,0.022897109389305115,-0.0061583444476127625
1772812385758610400,4.9506103515625,-0.15072345733642578,0.004576504230499268,0.013543009757995605
1772812385768311000,4.96031103515625,-0.08573246002197266,0.03146021068096161,0.023236773908138275
1772812385778012000,4.970011962890625,-0.027718544006347656,0.022142350673675537,0.036452531814575195
1772812385787712500,4.97971240234375,0.04224872589111328,0.01814785599708557,0.04509258270263672
1772812385797413400,4.989413330078125,0.09453964233398438,0.018852055072784424,0.050982214510440826
1772812385807114200,4.9991142578125,0.14121055603027344,-0.016106456518173218,0.024998031556606293
1772812385816814800,5.00881494140625,0.2023630142211914,0.009336709976196289,-0.03858833387494087
1772812385826515700,5.018515625,0.1812896728515625,0.042530179023742676,-0.0742509737610817
1772812385836216600,5.028216552734375,0.17350292205810547,0.038024723529815674,-0.07657196372747421
1772812385845917200,5.037917236328125,0.1493701934814453,-0.005452781915664673,-0.11066324263811111
1772812385855618000,5.0476181640625,0.04915904998779297,-0.03164801001548767,-0.09323432296514511
1772812385865318700,5.057318603515625,0.017693519592285156,-0.07876339554786682,-0.07251232862472534
1772812385875019500,5.06701953125,-0.012049674987792969,-0.049978941679000854,-0.0702655017375946
1772812385884720000,5.07672021484375,-0.034211158752441406,-0.03482365608215332,-0.09205548465251923
1772812385894421000,5.0864208984375,-0.05597209930419922,-0.022564709186553955,-0.09313413500785828
1772812385904121900,5.096121826171875,-0.07735157012939453,-0.005428880453109741,-0.09871934354305267
1772812385913822500,5.105822509765625,-0.08072280883789062,0.0031894445419311523,-0.06997987627983093
1772812385923523300,5.1155234375,-0.0440521240234375,-0.00786861777305603,-0.029202334582805634
1772812385933224000,5.125223876953125,-0.029206275939941406,-0.03775668144226074,0.034686312079429626
1772812385942924800,5.1349248046875,0.0018358230590820312,-0.06702789664268494,0.07610264420509338
1772812385952625700,5.144625732421875,0.01822948455810547,-0.008175522089004517,0.07784736156463623
1772812385962326300,5.154326171875,0.026123046875,0.07121577858924866,0.051619142293930054
1772812385972027000,5.16402685546875,-0.007274627685546875,0.0890740305185318,0.05506153404712677
1772812385981727700,5.173727783203125,-0.033028602600097656,0.0809660255908966,0.053414829075336456
1772812385991428600,5.1834287109375,-0.02304363250732422,0.08678552508354187,0.06432677805423737
1772812386001129200,5.193129150390625,-0.03557300567626953,0.05401986837387085,0.06961295753717422
1772812386010830000,5.202830078125,-0.02436351776123047,-0.017059415578842163,0.08064090460538864
1772812386020531000,5.212531005859375,-0.0039463043212890625,-0.03498181700706482,0.05156910419464111
1772812386030231600,5.2222314453125,-0.006226539611816406,-0.027403324842453003,0.029658712446689606
1772812386039932400,5.231932373046875,-0.02963733673095703,-0.007091939449310303,-0.0036562755703926086
1772812386049633000,5.241633056640625,-0.06676006317138672,-0.015821248292922974,0.017122328281402588
1772812386059334000,5.251333984375,-0.09501075744628906,-0.03377273678779602,0.023653969168663025
1772812386069034500,5.261034423828125,-0.06277847290039062,-0.028250426054000854,0.036086276173591614
1772812386078735400,5.2707353515625,-0.0393218994140625,-0.040382057428359985,0.03140297532081604
1772812386088436200,5.280436279296875,-0.009224891662597656,-0.06865641474723816,0.03956354409456253
1772812386098136800,5.29013671875,0.01800823211669922,-0.0492478609085083,-0.00034517794847488403
1772812386107837700,5.299837646484375,0.02597808837890625,-0.005796492099761963,-0.03978537768125534
1772812386117538300,5.309538330078125,-0.0038042068481445312,0.028144195675849915,-0.05146225914359093
1772812386127239200,5.3192392578125,-0.03305244445800781,0.06067460775375366,-0.0683559700846672
1772812386136940000,5.32893994140625,-0.011196136474609375,0.08473044633865356,-0.04689381271600723
1772812386146640600,5.338640625,0.04795265197753906,0.07512153685092926,-0.00665745884180069
1772812386156341200,5.34834130859375,0.12726116180419922,0.03084564208984375,0.02953200787305832
1772812386166042000,5.3580419921875,0.19694232940673828,0.0004691183567047119,0.06978954374790192
1772812386175743000,5.367742919921875,0.2324371337890625,-0.04994860291481018,0.08699928969144821
1772812386185443600,5.377443603515625,0.22138118743896484,-0.07774755358695984,0.0572606697678566
1772812386195144400,5.38714453125,0.15634441375732422,-0.06718552112579346,-0.003649473190307617
1772812386204845300,5.39684521484375,0.054744720458984375,-0.05133846402168274,-0.05639743059873581
1772812386214546000,5.4065458984375,-0.05923271179199219,-0.026261061429977417,-0.10185988247394562
1772812386224246800,5.416246826171875,-0.1289043426513672,-0.02660784125328064,-0.09575590491294861
1772812386233947400,5.425947509765625,-0.19500446319580078,-0.02452966570854187,-0.079445980489254
1772812386243648300,5.435648193359375,-0.20816898345947266,-0.01171952486038208,-0.05529800057411194
1772812386253348900,5.445348876953125,-0.2128152847290039,-0.0006062090396881104,-0.04068180173635483
1772812386263049700,5.4550498046875,-0.20321941375732422,0.010593324899673462,-0.02322310209274292
1772812386272750600,5.46475048828125,-0.14198589324951172,0.021363526582717896,0.03811362385749817
1772812386282451200,5.474451171875,-0.08061599731445312,-0.0053214430809021,0.11873942613601685
1772812386292152000,5.484152099609375,0.023217201232910156,-0.03772813081741333,0.1536409705877304
1772812386301852700,5.493852783203125,0.09232234954833984,0.0028084218502044678,0.17453913390636444
1772812386311553500,5.503553466796875,0.13199424743652344,0.0541563481092453,0.15084022283554077
1772812386321254400,5.51325439453125,0.14038944244384766,0.08143448829650879,0.12400800734758377
1772812386330955000,5.522955078125,0.1850872039794922,0.07138499617576599,0.04267091304063797
1772812386340655900,5.53265576171875,0.07843017578125,0.08010229468345642,0.0790402963757515
1772812386350356500,5.5423564453125,0.1688528060913086,0.04617677628993988,-0.016641706228256226
1772812386360057300,5.552057373046875,0.07774639129638672,0.039307743310928345,-0.023273050785064697
1772812386369758000,5.561758056640625,0.10580825805664062,0.010840564966201782,-0.04406079649925232
1772812386379458800,5.571458740234375,0.06280994415283203,-0.011523604393005371,-0.07430592179298401
1772812386389159700,5.58115966796875,0.0040683746337890625,-0.018852204084396362,-0.08116832375526428
1772812386398860300,5.5908603515625,-0.00897216796875,-0.02626025676727295,-0.07398585975170135
1772812386408561200,5.60056103515625,-0.024147987365722656,-0.03311052918434143,-0.08349824696779251
1772812386418261800,5.61026171875,0.012692451477050781,-0.03636941313743591,-0.06339915096759796
1772812386427962600,5.619962646484375,0.023019790649414062,-0.04633340239524841,-0.060721248388290405
1772812386437663200,5.629663330078125,0.0025787353515625,-0.05459973216056824,-0.05846646800637245
1772812386447364000,5.639364013671875,-0.01870441436767578,-0.04334917664527893,-0.04185343533754349
1772812386457064700,5.649064697265625,-0.08080673217773438,-0.014634400606155396,-0.04690856486558914
1772812386466765600,5.658765625,-0.12184810638427734,-0.025660663843154907,-0.008778467774391174
1772812386476466400,5.668466552734375,-0.14687728881835938,-0.026995688676834106,0.006376862525939941
1772812386486167000,5.6781669921875,-0.17967891693115234,-0.01808801293373108,0.02915852516889572
1772812386495868000,5.687867919921875,-0.1672039031982422,-0.009229451417922974,0.04698338359594345
1772812386505568800,5.69756884765625,-0.1113901138305664,-0.013929575681686401,0.04717230796813965
1772812386515269400,5.707269287109375,-0.04472637176513672,-0.006562650203704834,0.039556942880153656
1772812386524970200,5.71697021484375,0.007877349853515625,0.035577625036239624,0.04004666209220886
1772812386534670800,5.7266708984375,0.05605316162109375,0.015157461166381836,0.059688009321689606
1772812386544371700,5.736371826171875,0.0892648696899414,0.0054208338260650635,0.049662962555885315
1772812386554072300,5.746072265625,0.12894916534423828,0.011007040739059448,0.060482896864414215
1772812386563773200,5.755773193359375,0.1338186264038086,0.02583611011505127,0.05923185497522354
1772812386573473800,5.765473876953125,0.1268157958984375,0.01958906650543213,0.057121582329273224
1772812386592875500,5.78487548828125,0.05489349365234375,0.039985477924346924,0.04320850968360901
1772812386602576100,5.794576171875,0.015071868896484375,0.026668310165405273,0.038954876363277435
1772812386612277000,5.804277099609375,-0.0381927490234375,0.005819797515869141,0.04228381812572479
1772812386621977600,5.8139775390625,-0.0682077407836914,-0.027485251426696777,0.02732931822538376
1772812386631678500,5.823678466796875,-0.08593177795410156,-0.038524478673934937,-0.0026996657252311707
1772812386641379000,5.833379150390625,-0.10684871673583984,-0.01659199595451355,-0.02971634268760681
1772812386651080000,5.843079833984375,-0.12385940551757812,0.023593097925186157,-0.06243077665567398
1772812386660780800,5.85278076171875,-0.14759445190429688,0.028117507696151733,-0.08593974262475967
1772812386670481400,5.8624814453125,-0.1038360595703125,0.014940530061721802,-0.09080781042575836
1772812386680182300,5.872182373046875,-0.07491588592529297,0.004910856485366821,-0.09693092852830887
1772812386689883100,5.881883056640625,-0.027657508850097656,0.0102921724319458,-0.081442691385746
1772812386699583700,5.891583740234375,0.06584930419921875,0.014531165361404419,-0.03264371305704117
1772812386709284600,5.90128466796875,0.12244796752929688,-0.05250963568687439,0.034356117248535156
1772812386718985200,5.910985107421875,0.16389179229736328,-0.0694010853767395,0.07551278173923492
1772812386728686000,5.92068603515625,0.1986675262451172,-0.0677347481250763,0.08398495614528656
1772812386738386700,5.93038671875,0.1881113052368164,-0.05012857913970947,0.068775475025177
1772812386748087600,5.940087646484375,0.10595417022705078,-0.014758497476577759,0.029588237404823303
1772812386757788200,5.9497880859375,0.0804910659790039,0.0019113421440124512,-0.05905292183160782
1772812386767489000,5.959489013671875,-0.10214900970458984,0.05422070622444153,-0.04076661169528961
1772812386777190000,5.96918994140625,-0.09108638763427734,0.04435059428215027,-0.034233078360557556
1772812386786890500,5.978890380859375,-0.16720867156982422,0.02621319890022278,-0.04890131950378418
1772812386796591400,5.98859130859375,-0.18436908721923828,0.006576210260391235,-0.009215854108333588
1772812386806292000,5.9982919921875,-0.12712478637695312,-0.009095042943954468,0.045318327844142914
1772812386815992800,6.007992919921875,-0.06849288940429688,-0.015695005655288696,0.032676100730895996
1772812386825693400,6.017693359375,-0.013207435607910156,-0.005219966173171997,0.012898184359073639
1772812386835394300,6.027394287109375,-0.010629653930664062,0.020876318216323853,-0.005102105438709259
1772812386845095000,6.037094970703125,0.007193565368652344,0.04152493178844452,-0.02413482964038849
1772812386854795800,6.046795654296875,0.0070743560791015625,0.024378538131713867,-0.011035151779651642
1772812386864496600,6.05649658203125,0.022249221801757812,0.0026961565017700195,-0.00028692930936813354
1772812386874197200,6.066197265625,0.033623695373535156,0.027782514691352844,-0.01932651549577713
1772812386883898000,6.075898193359375,0.031874656677246094,0.030039340257644653,-0.023609794676303864
1772812386893599000,6.085598876953125,0.019575119018554688,0.03968308866024017,-0.008807331323623657
1772812386903299600,6.095299560546875,-0.0007448196411132812,-0.0019768178462982178,0.004127442836761475
1772812386913000400,6.10500048828125,0.0028142929077148438,-0.018874794244766235,-0.008612014353275299
1772812386922701000,6.114701171875,0.013376235961914062,-0.014088302850723267,-0.028001196682453156
1772812386932402000,6.12440185546875,0.03081989288330078,-0.008174329996109009,-0.005742907524108887
1772812386942102500,6.1341025390625,0.06913280487060547,0.0005787014961242676,-0.00482352077960968
1772812386951803400,6.143803466796875,0.07736778259277344,0.0022266805171966553,-0.006468474864959717
1772812386961504000,6.15350390625,0.08426284790039062,0.006299734115600586,0.006672456860542297
1772812386971204900,6.163204833984375,0.08866405487060547,0.01513698697090149,0.013654686510562897
1772812386980905700,6.17290576171875,0.05061531066894531,0.0029172301292419434,0.012310095131397247
1772812386990606300,6.1826064453125,0.010836601257324219,-0.020228266716003418,-0.015040464699268341
1772812387000307200,6.19230712890625,-0.02355670928955078,0.0045549869537353516,-0.03974698483943939
1772812387010007800,6.2020078125,-0.07028675079345703,0.03250521421432495,-0.05696455389261246
1772812387019708700,6.211708740234375,-0.09738636016845703,0.020063504576683044,-0.045031286776065826
1772812387029409300,6.2214091796875,-0.12048721313476562,0.018148377537727356,0.009423352777957916
1772812387039110100,6.231110107421875,-0.10904979705810547,0.011428683996200562,-0.006125934422016144
1772812387048810800,6.240810791015625,-0.10248851776123047,0.006814703345298767,0.00784032791852951
1772812387058511600,6.25051171875,-0.10190486907958984,-0.015865221619606018,0.01858443021774292
1772812387068212500,6.26021240234375,-0.05308723449707031,-0.04118227958679199,0.010876618325710297
1772812387077913000,6.2699130859375,-0.010967254638671875,-0.013330638408660889,-0.00977405160665512
1772812387087614000,6.279614013671875,0.03280448913574219,-0.013395547866821289,-0.014847353100776672
1772812387097314800,6.289314697265625,0.04170989990234375,-0.0025981366634368896,-0.023894265294075012
1772812387107015400,6.299015380859375,0.06455707550048828,-0.01871362328529358,0.02539455145597458
1772812387116716300,6.30871630859375,0.062270164489746094,-0.07578766345977783,0.08957207202911377
1772812387126417000,6.3184169921875,0.11172866821289062,-0.11712276935577393,0.11751356720924377
1772812387136117800,6.32811767578125,0.10738086700439453,-0.10409912467002869,0.0815814882516861
1772812387145818400,6.337818359375,0.10428524017333984,-0.004629671573638916,0.007104046642780304
1772812387155519200,6.347519287109375,0.053035736083984375,0.08552198112010956,-0.0876668319106102
1772812387165219800,6.3572197265625,-0.04671955108642578,0.10879363119602203,-0.13554993271827698
1772812387174920700,6.366920654296875,-0.1318063735961914,0.07320243120193481,-0.12009483575820923
1772812387184621600,6.37662158203125,-0.17189311981201172,0.06885670125484467,-0.09699803590774536
1772812387194322200,6.386322265625,-0.1501026153564453,0.03771074116230011,-0.05752379447221756
1772812387204023000,6.39602294921875,-0.0769186019897461,-0.007463887333869934,-0.009702824056148529
1772812387213723600,6.4057236328125,-0.019097328186035156,-0.028601258993148804,0.014106638729572296
1772812387223424500,6.415424560546875,0.05536651611328125,-0.02993723750114441,0.017042092978954315
1772812387233125000,6.425125,0.08265495300292969,-0.01062476634979248,0.052407778799533844
1772812387242826000,6.434825927734375,0.08710479736328125,-0.0279541015625,0.061882004141807556
1772812387252526600,6.444526611328125,0.07145977020263672,-0.0279264897108078,0.09193100035190582
1772812387262227500,6.4542275390625,0.03136253356933594,-0.017320916056632996,0.08830001205205917
1772812387271928300,6.46392822265625,0.019006729125976562,0.01955398917198181,0.06351585686206818
1772812387281629000,6.47362890625,-0.023693084716796875,0.05583199858665466,-0.0004922971129417419
1772812387291329800,6.483329833984375,-0.0385894775390625,0.10441233217716217,-0.03941546380519867
1772812387301030700,6.49303076171875,-0.07319831848144531,0.08666194975376129,-0.035432785749435425
1772812387310731300,6.502731201171875,-0.0848550796508789,0.030287161469459534,-0.022735416889190674
1772812387320431900,6.512431884765625,-0.07866096496582031,-0.008195936679840088,-0.00979606807231903
1772812387330132700,6.5221328125,-0.027860641479492188,-0.01774914562702179,0.010984167456626892
1772812387339833600,6.53183349609375,0.010315895080566406,-0.025304555892944336,0.007905259728431702
1772812387349534200,6.5415341796875,0.03960609436035156,-0.03812006115913391,-0.023697923868894577
1772812387359235000,6.551235107421875,0.08251380920410156,0.012159764766693115,-0.0445704385638237
1772812387368935700,6.560935791015625,0.08703136444091797,0.031205639243125916,-0.06495777517557144
1772812387378636500,6.570636474609375,0.10555362701416016,0.01678548753261566,-0.05529292672872543
1772812387388337400,6.58033740234375,0.1060800552368164,-0.017777621746063232,-0.06113877892494202
1772812387398038000,6.5900380859375,0.09832572937011719,0.004320308566093445,-0.026112642139196396
1772812387407739000,6.59973876953125,0.05185699462890625,0.022644653916358948,-0.020507797598838806
1772812387417439500,6.609439453125,-0.013818740844726562,0.017497405409812927,-0.012220770120620728
1772812387427140400,6.619140380859375,-0.08187675476074219,0.030916064977645874,-0.003051944077014923
1772812387436841000,6.628841064453125,-0.13933658599853516,0.022103354334831238,-0.00426097959280014
1772812387446541800,6.638541748046875,-0.1604938507080078,0.012468084692955017,-0.024038854986429214
1772812387456242400,6.648242431640625,-0.1353626251220703,0.016807913780212402,-0.05909433960914612
1772812387465943300,6.657943359375,-0.055336952209472656,0.005007162690162659,-0.06389068812131882
1772812387475644200,6.66764404296875,0.005682945251464844,-0.03616271913051605,-0.005833625793457031
1772812387485344800,6.6773447265625,0.08444976806640625,-0.09337526559829712,0.03739628195762634
1772812387495045600,6.687045654296875,0.1477336883544922,-0.10028412938117981,0.04592578858137131
1772812387504746200,6.696746337890625,0.14519691467285156,-0.0670822262763977,0.0956181064248085
1772812387514447000,6.706447021484375,0.16739177703857422,-0.022547945380210876,0.10117611289024353
1772812387524147700,6.716147705078125,0.12450408935546875,0.044912293553352356,0.08085216581821442
1772812387533848600,6.7258486328125,0.02939891815185547,0.13103660941123962,0.14526423811912537
1772812387543549200,6.735549072265625,0.06059837341308594,0.1200949102640152,0.1506887972354889
1772812387553250000,6.74525,-0.02285003662109375,0.09192483127117157,0.17639367282390594
1772812387562951000,6.754950927734375,-0.0472412109375,0.05522337555885315,0.15143179893493652
1772812387572651500,6.764651611328125,-0.05709362030029297,0.06991738080978394,0.10459782183170319
1772812387582352400,6.774352294921875,-0.09852790832519531,0.06683483719825745,0.02791862189769745
1772812387592053000,6.784052978515625,-0.11688804626464844,0.03059670329093933,-0.014464110136032104
1772812387601753900,6.79375390625,-0.16550731658935547,-0.0014562159776687622,-0.03684496879577637
1772812387611454700,6.803454833984375,-0.11800289154052734,-0.02014976739883423,-0.02316729724407196
1772812387630856000,6.82285595703125,-0.06865882873535156,-0.06487177312374115,0.016795985400676727
1772812387640556800,6.832556884765625,-0.008656501770019531,-0.07037191092967987,0.045121729373931885
1772812387650257700,6.842257568359375,0.012691497802734375,-0.001201346516609192,0.03211173415184021
1772812387659958300,6.851958251953125,0.0054531097412109375,0.017280027270317078,0.015171438455581665
1772812387669659100,6.8616591796875,-0.0228118896484375,0.03868192434310913,-0.0023423433303833008
1772812387679360000,6.871360107421875,-0.0035114288330078125,0.11042040586471558,-0.050451360642910004
1772812387689060600,6.881060546875,0.015472412109375,0.08652445673942566,-0.03762084245681763
1772812387698761500,6.890761474609375,0.08117294311523438,0.02145257592201233,0.0094083771109581
1772812387708462000,6.900462158203125,0.18219470977783203,-0.03267298638820648,0.030414186418056488
1772812387718163000,6.910162841796875,0.21794891357421875,-0.06735916435718536,0.0032401904463768005
1772812387727863600,6.919863525390625,0.22484397888183594,-0.042390137910842896,-0.0203908309340477
1772812387737564400,6.929564453125,0.1339550018310547,-0.043561533093452454,-0.058133237063884735
1772812387747265000,6.93926513671875,0.053989410400390625,-0.04327376186847687,-0.04123762249946594
1772812387756966000,6.9489658203125,-0.052875518798828125,-0.04899218678474426,-0.030942223966121674
1772812387766666500,6.95866650390625,-0.1073598861694336,-0.07232943177223206,-0.027800850570201874
1772812387776367400,6.968367431640625,-0.10091209411621094,-0.06282922625541687,-0.036033883690834045
1772812387786068200,6.978068115234375,-0.07807254791259766,-0.023901596665382385,-0.04980885609984398
1772812387795768800,6.987768798828125,-0.05441856384277344,0.011827722191810608,-0.06065885350108147
1772812387805469700,6.9974697265625,-0.09586429595947266,-0.002734437584877014,-0.04234287142753601
1772812387815170600,7.007170654296875,-0.10954475402832031,-0.0008818209171295166,0.009952902793884277
1772812387824871200,7.01687109375,-0.12178897857666016,0.027093559503555298,0.002783462405204773
1772812387834571800,7.02657177734375,-0.0996856689453125,0.07022218406200409,0.01661168783903122
1772812387844272600,7.036272705078125,-0.08029651641845703,0.05849798023700714,0.028207823634147644
1772812387853973500,7.045973388671875,0.0023012161254882812,0.01906663179397583,0.05181571841239929
1772812387863674000,7.055674072265625,0.08937549591064453,0.010975658893585205,0.05203038454055786
1772812387873375000,7.065375,0.16083526611328125,0.02478814125061035,0.03380740433931351
1772812387883075600,7.07507568359375,0.17694568634033203,-0.015185728669166565,0.03441783785820007
1772812387892776400,7.0847763671875,0.19745922088623047,-0.05166207253932953,-0.0033421218395233154
1772812387902477300,7.094477294921875,0.13878440856933594,-0.013365432620048523,-0.06183400750160217
1772812387912178000,7.104177978515625,0.08695697784423828,-0.007891863584518433,-0.05188189446926117
1772812387921878800,7.113878662109375,0.0018873214721679688,-0.03513704240322113,-0.041283898055553436
1772812387931579400,7.123579345703125,-0.018213272094726562,-0.008161470293998718,-0.0685901790857315
1772812387941280000,7.133280029296875,-0.06620025634765625,-0.026777401566505432,-0.051595211029052734
1772812387950980900,7.14298095703125,-0.04867744445800781,-0.04341907799243927,-0.0649232491850853
1772812387960681700,7.152681640625,-0.06203269958496094,-0.021618887782096863,-0.06557051837444305
1772812387970382300,7.16238232421875,-0.0210418701171875,-0.02115577459335327,-0.05670179799199104
1772812387980083200,7.172083251953125,-0.033677101135253906,-0.027984201908111572,-0.029351256787776947
1772812387989784000,7.1817841796875,-0.02375030517578125,0.003699764609336853,-0.03739551082253456
1772812387999484700,7.191484619140625,-0.04928302764892578,-0.0007532089948654175,0.0071474164724349976
1772812388009185500,7.201185546875,-0.07792472839355469,-0.0017780214548110962,0.04978828877210617
1772812388018886100,7.21088623046875,-0.11432075500488281,-0.03329424560070038,0.0446760356426239
1772812388028587000,7.2205869140625,-0.11126518249511719,-0.03189949691295624,0.039825692772865295
1772812388038287600,7.23028759765625,-0.10940265655517578,0.009685561060905457,0.01807582378387451
1772812388047988500,7.239988525390625,-0.12519073486328125,0.019282236695289612,0.005578972399234772
1772812388057689000,7.249689208984375,-0.0865793228149414,0.004168704152107239,0.017812594771385193
1772812388067390000,7.259389892578125,-0.04742240905761719,-0.0017486512660980225,0.01603809744119644
1772812388077090600,7.269090576171875,0.014619827270507812,-0.015434890985488892,0.0013513267040252686
1772812388086791400,7.27879150390625,0.07326316833496094,-0.022313594818115234,0.013193465769290924
1772812388096492300,7.2884921875,0.0826711654663086,-0.05256617069244385,0.020042479038238525
1772812388106193000,7.29819287109375,0.14247894287109375,-0.07808157801628113,0.012108489871025085
1772812388115893800,7.307893798828125,0.14242267608642578,-0.04630322754383087,0.01349436491727829
1772812388125594600,7.3175947265625,0.12587356567382812,-0.0035271793603897095,0.0059799253940582275
1772812388135295200,7.327295166015625,0.06957817077636719,-0.011784180998802185,0.023495137691497803
1772812388154696700,7.34669677734375,-0.06229877471923828,-0.034457072615623474,-0.020693205296993256
1772812388164397300,7.356397216796875,-0.10480880737304688,0.05424089729785919,-0.03415343910455704
1772812388174098200,7.36609814453125,-0.14066791534423828,0.09684085845947266,-0.06818391382694244
1772812388183799000,7.375799072265625,-0.15000057220458984,0.08567611873149872,-0.07312856614589691
1772812388193499600,7.385499755859375,-0.11327075958251953,0.05866900086402893,-0.028840139508247375
1772812388203200500,7.395200439453125,-0.051265716552734375,0.02307240664958954,-0.05286264419555664
1772812388212901000,7.404901123046875,0.035576820373535156,0.0062472522258758545,-0.05658196285367012
1772812388222602000,7.41460205078125,0.09151744842529297,-0.04524405300617218,-0.02733875811100006
1772812388232302800,7.424302734375,0.15353775024414062,-0.08049485087394714,0.0008565112948417664
1772812388242003500,7.43400341796875,0.1979990005493164,-0.06930667161941528,0.012020274996757507
1772812388251704000,7.4437041015625,0.16873455047607422,-0.0565398633480072,0.05968252569437027
1772812388261405000,7.453405029296875,0.12817955017089844,-0.04702742397785187,0.07709427177906036
1772812388271105800,7.463105712890625,0.08240795135498047,-0.020402342081069946,0.06289149075746536
1772812388280806400,7.472806396484375,0.013873100280761719,0.026174739003181458,0.0425175279378891
1772812388290507300,7.48250732421875,-0.04290485382080078,0.053169190883636475,0.03685995936393738
1772812388300207900,7.492207763671875,-0.0904703140258789,0.03969934582710266,0.03537450730800629
1772812388309908700,7.50190869140625,-0.09720230102539062,0.038514912128448486,0.015380531549453735
1772812388319609600,7.511609619140625,-0.1249837875366211,0.02554219961166382,0.03662428259849548
1772812388329310200,7.521310302734375,-0.12053489685058594,0.010275915265083313,0.0686245933175087
1772812388339011000,7.531010986328125,-0.06792259216308594,-0.0031661391258239746,0.047794900834560394
1772812388348711700,7.540711669921875,-0.025589942932128906,0.030332058668136597,0.023564599454402924
1772812388358412500,7.55041259765625,0.01839923858642578,0.04387979209423065,-0.016736172139644623
1772812388368113200,7.560113037109375,0.008710861206054688,0.040052711963653564,-0.03850099444389343
1772812388377814000,7.56981396484375,-0.01494598388671875,0.03096391260623932,0.008313007652759552
1772812388387514600,7.5795146484375,-0.009973526000976562,0.016255676746368408,0.03224553167819977
1772812388397215500,7.589215576171875,-0.012151718139648438,0.018484681844711304,0.05242413282394409
1772812388406916400,7.598916259765625,0.01628398895263672,0.024456456303596497,0.07482323050498962
1772812388416617000,7.608616943359375,0.019537925720214844,0.03186553716659546,0.05547221750020981
1772812388426317800,7.61831787109375,0.06861495971679688,-0.015283569693565369,0.028140895068645477
1772812388436018400,7.628018310546875,0.08863162994384766,0.008176028728485107,-0.0010172799229621887
1772812388445719300,7.63771923828125,0.10008525848388672,0.01779770851135254,-0.05804305896162987
1772812388455420000,7.647419921875,0.052521705627441406,-0.0012797266244888306,-0.08990556746721268
1772812388465120800,7.657120849609375,-0.016597747802734375,-0.0338929146528244,-0.08337398618459702
1772812388474821400,7.6668212890625,-0.06100654602050781,-0.05638723075389862,-0.08892984688282013
1772812388484522200,7.676522216796875,-0.07642078399658203,-0.05254785716533661,-0.07255452871322632
1772812388494222800,7.686222900390625,-0.07746315002441406,-0.0705546885728836,-0.05241777002811432
1772812388503923700,7.695923828125,-0.02673625946044922,-0.12739616632461548,-0.04593774676322937
1772812388513624600,7.70562451171875,0.07489681243896484,-0.06792201101779938,-0.06901152431964874
1772812388523325200,7.7153251953125,0.11011028289794922,0.00556376576423645,-0.08245713263750076
1772812388533026000,7.725026123046875,0.09412193298339844,0.03408725559711456,-0.05606286972761154
1772812388542726700,7.7347265625,0.038390159606933594,-0.015014901757240295,-0.0317927747964859
1772812388552427500,7.744427490234375,0.0035991668701171875,-0.0007222145795822144,-0.022450774908065796
1772812388562128100,7.754128173828125,-0.040022850036621094,0.017512530088424683,0.031366847455501556
1772812388571829000,7.7638291015625,-0.08997058868408203,0.029204577207565308,0.040879808366298676
1772812388581529600,7.773529541015625,-0.06377887725830078,0.015382975339889526,0.042996518313884735
1772812388591230500,7.78323046875,-0.023885726928710938,0.06695413589477539,0.025380373001098633
1772812388600931300,7.792931396484375,-0.02229022979736328,0.06259874999523163,0.0280996635556221
1772812388610632000,7.8026318359375,-0.041884422302246094,0.012964025139808655,0.04699946194887161
1772812388620332800,7.812332763671875,-0.07761383056640625,-0.0092582106590271,0.07698258757591248
1772812388630033400,7.822033447265625,-0.042168617248535156,-0.00726926326751709,0.09847160428762436
1772812388639734300,7.831734375,-0.024976730346679688,-0.01279805600643158,0.10493147373199463
1772812388649435100,7.84143505859375,0.038985252380371094,0.02245539426803589,0.07527206838130951
1772812388659135700,7.8511357421875,0.05833911895751953,0.01766836643218994,0.07777562737464905
1772812388668836400,7.86083642578125,0.05029010772705078,0.0077353715896606445,0.10930515825748444
1772812388678537200,7.870537109375,0.07177162170410156,-0.0248517245054245,0.0820847749710083
1772812388688238000,7.880238037109375,0.06700515747070312,0.022815406322479248,0.013040199875831604
1772812388697938700,7.889938720703125,0.07998847961425781,0.09703825414180756,-0.06804989278316498
1772812388707639600,7.8996396484375,0.053958892822265625,0.10119396448135376,-0.1492639183998108
1772812388717340200,7.909340087890625,-0.02925872802734375,0.07071071863174438,-0.16997462511062622
1772812388727041000,7.919041015625,-0.06871318817138672,0.03709152340888977,-0.13507883250713348
1772812388736741600,7.92874169921875,-0.07104873657226562,-0.001506909728050232,-0.04513763636350632
1772812388746442500,7.9384423828125,-0.039254188537597656,-0.10348117351531982,0.00832308828830719
1772812388756143400,7.948143310546875,0.007266044616699219,-0.1450432538986206,0.024499498307704926
1772812388765844000,7.957843994140625,0.02826976776123047,-0.12733496725559235,0.019532494246959686
1772812388785245400,7.977245361328125,0.014910697937011719,-0.07349888980388641,-0.08035745471715927
1772812388794946300,7.9869462890625,-0.02067089080810547,-0.048492491245269775,-0.1174222081899643
1772812388804647000,7.99664697265625,-0.059149742126464844,0.016324087977409363,-0.10301072895526886
1772812388814347800,8.00634765625,-0.09812355041503906,0.03964659571647644,-0.08276352286338806
1772812388824048400,8.01604833984375,-0.0940694808959961,0.020443037152290344,-0.006900504231452942
1772812388833749200,8.025749267578124,-0.061835289001464844,0.013104736804962158,0.05206374078989029
1772812388843450000,8.0354501953125,-0.048969268798828125,0.018849849700927734,0.0758388414978981
1772812388853150700,8.045150634765625,0.0001392364501953125,0.0051298588514328,0.07477972656488419
1772812388862851600,8.0548515625,0.043709754943847656,0.009522974491119385,0.04352457821369171
1772812388872552200,8.06455224609375,0.09242534637451172,0.03411176800727844,0.0033347681164741516
1772812388882253000,8.074253173828126,0.0673685073852539,0.03621046245098114,-0.004327662289142609
1772812388891953700,8.08395361328125,0.04505729675292969,0.009359687566757202,-0.012099869549274445
1772812388901654500,8.093654541015624,0.046631813049316406,-0.032680124044418335,-0.005005531013011932
1772812388911355100,8.103355224609375,0.0022897720336914062,-0.04383210837841034,-0.03086620569229126
1772812388921056000,8.113055908203124,-0.01777172088623047,-0.016892701387405396,-0.05705393850803375
1772812388930756600,8.122756591796875,-0.06923675537109375,0.03622482717037201,-0.08027878403663635
1772812388940457500,8.13245751953125,-0.09863471984863281,0.03679861128330231,-0.09752989560365677
1772812388950158300,8.142158447265626,-0.1051645278930664,0.001079455018043518,-0.052599817514419556
1772812388959859000,8.15185888671875,-0.07275962829589844,-0.005184456706047058,-0.021311692893505096
1772812388969559800,8.161559814453126,-0.02443408966064453,-0.006893366575241089,0.007756829261779785
1772812388979260400,8.171260498046875,0.04073143005371094,0.016909733414649963,0.02036324143409729
1772812388988961300,8.180961181640624,0.09420299530029297,0.021391376852989197,0.035092830657958984
1772812388998662000,8.190661865234375,0.09617137908935547,0.07043227553367615,0.05925387889146805
1772812389008362800,8.20036279296875,0.08514976501464844,0.07777556777000427,0.06628107279539108
1772812389018063400,8.2100634765625,0.04487800598144531,0.06697738170623779,0.09201915562152863
1772812389027764200,8.21976416015625,0.037032127380371094,0.07285073399543762,0.15502773225307465
1772812389037465000,8.229465087890626,0.03401374816894531,0.05623410642147064,0.14725074172019958
1772812389047165700,8.239165771484375,0.00751495361328125,0.06573556363582611,0.13979989290237427
1772812389056866600,8.248866455078126,-0.01146697998046875,0.06851990520954132,0.09773577749729156
1772812389066567200,8.258567138671875,-0.04540061950683594,0.06625030934810638,0.06994158029556274
1772812389076268000,8.26826806640625,-0.10344696044921875,0.05224263668060303,0.016563892364501953
1772812389085968600,8.27796875,-0.10991954803466797,0.045376554131507874,-0.00005172938108444214
1772812389095669500,8.28766943359375,-0.10450935363769531,0.010962262749671936,-0.0007998943328857422
1772812389105370000,8.2973701171875,-0.05918407440185547,-0.022874802350997925,-0.029038958251476288
1772812389115071000,8.307071044921875,-0.025213241577148438,-0.04509010910987854,-0.02319575846195221
1772812389124771600,8.316771484375,0.008179664611816406,-0.04772719740867615,-0.02997620403766632
1772812389134472400,8.326472412109375,0.03630638122558594,-0.021358951926231384,-0.03370150178670883
1772812389144173300,8.33617333984375,0.045139312744140625,0.005693539977073669,0.006231479346752167
1772812389153874000,8.3458740234375,0.04322242736816406,-0.0007024109363555908,0.039687998592853546
1772812389163574800,8.35557470703125,0.03661537170410156,-0.003554791212081909,0.07541627436876297
1772812389173275400,8.365275390625,0.06422901153564453,-0.03362719714641571,0.07777836918830872
1772812389182976300,8.374976318359375,0.07491397857666016,-0.0012743622064590454,0.008255064487457275
1772812389192676900,8.3846767578125,0.05013465881347656,0.054047733545303345,-0.05634776130318642
1772812389202377700,8.394377685546875,0.051654815673828125,0.06604842841625214,-0.11237610131502151
1772812389212078300,8.404078369140626,0.047271728515625,0.03421361744403839,-0.1093640923500061
1772812389221779200,8.413779296875,0.06061267852783203,0.061739057302474976,-0.09272167086601257
1772812389231479800,8.423479736328124,0.02665996551513672,0.037907347083091736,-0.05348796397447586
1772812389241180700,8.4331806640625,0.019143104553222656,-0.017664670944213867,-0.026144802570343018
1772812389250881500,8.442881591796874,0.03407764434814453,-0.048259079456329346,0.0007239356637001038
1772812389260582100,8.45258203125,0.020494461059570312,-0.06874646246433258,-0.011458955705165863
1772812389270283000,8.462282958984375,0.03418922424316406,-0.06819389760494232,-0.015587635338306427
1772812389279983600,8.471983642578126,0.020600318908691406,-0.021012648940086365,-0.03516977280378342
1772812389289684500,8.4816845703125,-0.024518966674804688,0.020506158471107483,-0.034753065556287766
1772812389299385300,8.49138525390625,-0.08179855346679688,0.004560783505439758,0.042664818465709686
1772812389309086000,8.5010859375,-0.14163780212402344,-0.01030316948890686,0.09905532747507095
1772812389318786600,8.51078662109375,-0.16867637634277344,-0.005293354392051697,0.11505552381277084
1772812389328487400,8.5204873046875,-0.16463947296142578,0.013238966464996338,0.09600125253200531
1772812389338188000,8.53018798828125,-0.12416267395019531,0.034255385398864746,0.06696305423974991
1772812389347889000,8.539888916015625,-0.07022571563720703,0.0242091566324234,0.04615885019302368
1772812389357589800,8.54958984375,-0.047779083251953125,0.00015817582607269287,0.04249034821987152
1772812389367290400,8.559290283203126,0.04840278625488281,-0.00790455937385559,0.030963458120822906
1772812389376991200,8.5689912109375,0.08529949188232422,-0.010341659188270569,0.0486488863825798
1772812389386691800,8.57869189453125,0.07683658599853516,-0.06035837531089783,0.03181404620409012
1772812389396392700,8.588392822265625,0.0626077651977539,-0.058801621198654175,0.011578075587749481
1772812389406093600,8.598093505859374,0.038018226623535156,-0.032928064465522766,-0.04951184615492821
1772812389415794200,8.607794189453125,-0.0014524459838867188,-0.01097463071346283,-0.11070214211940765
1772812389425495000,8.6174951171875,-0.02259063720703125,-0.002501934766769409,-0.13850137591362
1772812389435195600,8.627195556640626,-0.037468910217285156,0.012882009148597717,-0.11962369829416275
1772812389444896300,8.636896240234375,-0.03678703308105469,-0.018054679036140442,-0.09552547335624695
1772812389454597000,8.64659716796875,0.0026903152465820312,-0.0570540577173233,-0.025187060236930847
1772812389464298000,8.656298095703125,0.06030750274658203,-0.07895396649837494,-0.0033529475331306458
1772812389473998600,8.66599853515625,0.10986804962158203,-0.05633734166622162,-0.009626097977161407
1772812389483699500,8.675699462890625,0.11034393310546875,-0.028198301792144775,-0.03276730328798294
1772812389493400000,8.685400146484374,0.06963443756103516,-0.008957520127296448,-0.028877094388008118
1772812389503101000,8.695100830078125,-0.0009603500366210938,0.008522272109985352,-0.02982988953590393
1772812389512801800,8.7048017578125,-0.08211517333984375,0.02825157344341278,-0.01635877788066864
1772812389522502400,8.71450244140625,-0.0960073471069336,0.020891249179840088,0.01452065259218216
1772812389532203300,8.724203369140625,-0.07320022583007812,-0.01077321171760559,0.0682205781340599
1772812389541904000,8.73390380859375,-0.03195953369140625,-0.0012530684471130371,0.07010235637426376
1772812389551604500,8.7436044921875,0.020349502563476562,0.026215076446533203,0.0850578248500824
1772812389561305300,8.753305419921874,0.027077674865722656,0.05027134716510773,0.09651816636323929
1772812389571006200,8.763006103515625,-0.0015993118286132812,0.06666503846645355,0.06480100750923157
1772812389580706800,8.772706787109374,-0.035658836364746094,0.09091617166996002,0.051616400480270386
1772812389590407700,8.78240771484375,-0.0738372802734375,0.06673608720302582,0.06950019299983978
1772812389600108300,8.7921083984375,-0.05608367919921875,0.03778398036956787,0.06393667310476303
1772812389609809200,8.80180908203125,-0.012750625610351562,0.006701573729515076,0.055038630962371826
1772812389619510000,8.811510009765625,0.033379554748535156,-0.0068465471267700195,0.025789417326450348
1772812389629210600,8.821210693359374,0.06107330322265625,-0.004692554473876953,0.008304409682750702
1772812389638911500,8.830911376953125,0.05299854278564453,-0.012749284505844116,-0.049422867596149445
1772812389648612000,8.840612060546874,0.02388286590576172,-0.01248525083065033,-0.051074400544166565
1772812389658312700,8.850312744140625,0.009386062622070312,0.001208871603012085,-0.06718640774488449
1772812389668013600,8.860013671875,-0.02839946746826172,-0.020671159029006958,-0.04416652023792267
1772812389677714400,8.86971435546875,-0.018484115600585938,-0.031204715371131897,-0.017115965485572815
1772812389687415000,8.8794150390625,-0.009918212890625,-0.0273953378200531,0.03143703192472458
1772812389697116000,8.889115966796876,-0.022695541381835938,-0.04038238525390625,0.05968732386827469
1772812389706816500,8.89881640625,0.07888221740722656,-0.04926365613937378,-0.003214120864868164
1772812389716517400,8.908517333984374,0.06108379364013672,0.04460898041725159,-0.06169350817799568
1772812389726218000,8.918218017578125,0.08713722229003906,0.0603732168674469,-0.11116095632314682
1772812389735918800,8.9279189453125,0.06452369689941406,0.04879745841026306,-0.1743219494819641
1772812389745619700,8.93761962890625,-0.021236419677734375,0.04958878457546234,-0.09597329795360565
1772812389755320300,8.9473203125,0.0050182342529296875,-0.03313460946083069,-0.04676946625113487
1772812389765021200,8.957021240234376,-0.018594741821289062,-0.07126665115356445,-0.013847775757312775
1772812389774721800,8.9667216796875,0.03345203399658203,-0.06841298937797546,0.039025358855724335
1772812389784422700,8.976422607421876,0.04813194274902344,-0.09500676393508911,-0.0055711716413497925
1772812389794123300,8.986123291015625,0.040205955505371094,-0.07035320997238159,-0.041448794305324554
1772812389803824000,8.99582421875,0.0171356201171875,-0.008286446332931519,-0.07583233714103699
1772812389813524700,9.005524658203125,-0.0772857666015625,0.02898465096950531,-0.06052155792713165
1772812389823225600,9.0152255859375,-0.12889862060546875,0.03496547043323517,-0.03960534930229187
1772812389832926200,9.02492626953125,-0.14429473876953125,0.05858194828033447,-0.004913434386253357
1772812389842627000,9.034626953125,-0.13820457458496094,0.07790395617485046,0.02205120027065277
1772812389852328000,9.044327880859376,-0.0863037109375,0.06144639849662781,0.03692930191755295
1772812389862028500,9.054028564453125,-0.04821968078613281,0.04147115349769592,0.07564003020524979
1772812389871729400,9.0637294921875,-0.026065826416015625,0.061337053775787354,0.11291788518428802
1772812389881430000,9.073429931640625,0.11924266815185547,0.07180066406726837,0.07443303614854813
1772812389891130600,9.083130615234374,0.0056247711181640625,0.1010529100894928,0.1406465321779251
1772812389900831500,9.09283154296875,0.11981773376464844,0.05048149824142456,0.10708484053611755
1772812389910532400,9.102532470703125,0.07914352416992188,0.006762504577636719,0.06562452018260956
1772812389920233000,9.11223291015625,0.0026655197143554688,0.011854678392410278,0.1081295907497406
1772812389929933800,9.121933837890625,-0.03497505187988281,-0.0456852912902832,0.06818170845508575
1772812389939634400,9.131634521484376,-0.020246505737304688,-0.028796225786209106,0.020782679319381714
1772812389949335300,9.141335205078125,0.10128116607666016,-0.027886897325515747,-0.06447146832942963
1772812389959036200,9.1510361328125,0.0842905044555664,-0.05388137698173523,-0.107557013630867
1772812389968736800,9.16073681640625,0.1240530014038086,-0.06868964433670044,-0.117718905210495
1772812389978437600,9.170437744140624,0.08787822723388672,-0.06128591299057007,-0.13811202347278595
1772812389988138200,9.18013818359375,-0.00414276123046875,-0.06211423873901367,-0.15686364471912384
1772812389997838800,9.1898388671875,-0.07573890686035156,-0.04950276017189026,-0.17545486986637115
1772812390007539700,9.199539794921876,-0.06725215911865234,0.015662789344787598,-0.13610345125198364
1772812390017240600,9.209240478515625,-0.1189117431640625,-0.003985494375228882,-0.09614468365907669
1772812390026941200,9.218941162109376,-0.1003103256225586,-0.05719470977783203,-0.0472755953669548
1772812390036642000,9.22864208984375,-0.022022247314453125,-0.05341657996177673,-0.014883667230606079
1772812390046342700,9.2383427734375,0.03141307830810547,-0.002168893814086914,-0.005456492304801941
1772812390056043500,9.24804345703125,0.06508159637451172,0.007905274629592896,0.013578057289123535
1772812390065744100,9.257744140625,0.0828399658203125,0.01636207103729248,0.05044369399547577
1772812390075445000,9.267445068359375,0.12614822387695312,0.005823284387588501,0.1077788919210434
1772812390085145900,9.277145751953125,0.13222408294677734,0.025867938995361328,0.12990638613700867
1772812390094846500,9.286846435546876,0.08994483947753906,0.010728716850280762,0.10901251435279846
1772812390104547300,9.29654736328125,0.05896949768066406,0.05485665798187256,0.070665642619133
1772812390114248000,9.306248046875,-0.0032291412353515625,0.09205180406570435,0.07303513586521149
1772812390123948500,9.315948486328125,-0.0196685791015625,0.09424494206905365,0.052552998065948486
1772812390133649400,9.3256494140625,-0.059370994567871094,0.04413536190986633,0.09287092089653015
1772812390143350300,9.335350341796875,-0.04549121856689453,0.018659532070159912,0.13780748844146729
1772812390153051000,9.34505078125,0.021068572998046875,0.011623293161392212,0.1411047726869583
1772812390162751700,9.354751708984375,0.031187057495117188,0.008992165327072144,0.09088481962680817
1772812390172452400,9.364452392578125,0.015248298645019531,0.006587505340576172,0.06837496161460876
1772812390182153200,9.3741533203125,-0.031002044677734375,0.03576049208641052,0.04760149121284485
1772812390191853800,9.383853759765625,-0.1046609878540039,0.04554617404937744,0.029472649097442627
1772812390201554700,9.3935546875,-0.15702152252197266,0.03499564528465271,-0.01592901349067688
1772812390211255600,9.403255615234375,-0.20137786865234375,0.07219332456588745,-0.02585574984550476
1772812390220956200,9.4129560546875,-0.14964008331298828,0.07597562670707703,-0.04436849057674408
1772812390230656800,9.42265673828125,-0.08696365356445312,0.05259579420089722,-0.061334215104579926
1772812390240357600,9.432357666015625,-0.0053253173828125,0.009434252977371216,-0.07505679130554199
1772812390250058200,9.442058349609376,0.050225257873535156,-0.01402100920677185,-0.05711528658866882
1772812390259759000,9.451759033203125,0.10008716583251953,-0.03874930739402771,-0.026122957468032837
1772812390269460000,9.4614599609375,0.11844825744628906,-0.12625429034233093,-0.0062525272369384766
1772812390279160600,9.47116064453125,0.11997127532958984,-0.1575283706188202,-0.018021315336227417
1772812390288861400,9.480861328125,0.12378501892089844,-0.12366670370101929,-0.04030957818031311
1772812390298562000,9.49056201171875,0.11693096160888672,-0.044124066829681396,-0.07456918060779572
1772812390308263000,9.500262939453124,0.10195446014404297,-0.04156574606895447,-0.06187036633491516
1772812390317963800,9.5099638671875,0.010785102844238281,-0.0220126211643219,-0.06283489614725113
1772812390327664400,9.519664306640625,-0.049407958984375,0.012501329183578491,-0.06789690256118774
1772812390337365200,9.529365234375,-0.10265445709228516,0.04448351263999939,-0.08650083839893341
1772812390347065900,9.53906591796875,-0.12084293365478516,0.07863287627696991,-0.08859668672084808
1772812390366467300,9.55846728515625,-0.08697319030761719,0.045614033937454224,0.03296846151351929
1772812390376168000,9.56816796875,-0.05837535858154297,0.012602448463439941,0.11063522100448608
1772812390385868800,9.577868896484375,0.026195526123046875,0.058396607637405396,0.15544500946998596
1772812390395569700,9.587569580078124,0.06343936920166016,0.05669713020324707,0.17411905527114868
1772812390405270300,9.597270263671875,0.09062957763671875,0.04146662354469299,0.13149456679821014
1772812390414971100,9.60697119140625,0.03499889373779297,0.06547078490257263,0.11884523928165436
1772812390424671700,9.616671630859376,0.053284645080566406,0.053675681352615356,0.05033941566944122
1772812390434372600,9.62637255859375,-0.008695602416992188,0.02417805790901184,0.008358389139175415
1772812390444073500,9.636073486328126,-0.04839611053466797,0.009538888931274414,0.016413375735282898
1772812390453774000,9.645774169921875,-0.005059242248535156,-0.049199044704437256,-0.03649142384529114
1772812390463474700,9.655474609375,-0.08725929260253906,-0.08004537224769592,0.05690525472164154
1772812390473175600,9.665175537109375,-0.015253067016601562,-0.12202289700508118,0.038734808564186096
1772812390482876200,9.674876220703124,0.08726692199707031,-0.09641602635383606,0.01578502357006073
1772812390492577000,9.684576904296875,0.11746406555175781,-0.05544477701187134,-0.020255818963050842
1772812390502277600,9.694277587890625,0.12598705291748047,-0.02741876244544983,-0.10271749645471573
1772812390511978500,9.703978515625,0.13908004760742188,0.018357008695602417,-0.1926395744085312
1772812390521679400,9.713679443359375,0.06373214721679688,0.01657351851463318,-0.22620323300361633
1772812390531380000,9.7233798828125,0.022600173950195312,-0.01323479413986206,-0.1740679293870926
1772812390541080800,9.733080810546875,-0.061377525329589844,-0.08797311782836914,-0.09213819354772568
1772812390550781400,9.742781494140624,-0.0792388916015625,-0.0954272449016571,-0.0765920877456665
1772812390560482300,9.752482421875,-0.0791177749633789,-0.04931843280792236,-0.05308227986097336
1772812390570183000,9.762182861328125,-0.03426551818847656,0.015757054090499878,-0.08617027848958969
1772812390579883800,9.7718837890625,-0.03839302062988281,-0.0011979937553405762,-0.03250303864479065
1772812390589584400,9.78158447265625,0.06814193725585938,0.024058431386947632,0.0037033408880233765
1772812390599285200,9.79128515625,0.0822763442993164,0.02167332172393799,0.02811017632484436
1772812390608985900,9.80098583984375,0.06906795501708984,0.0035834312438964844,0.054213494062423706
1772812390618686700,9.810686767578124,0.08782768249511719,-0.013693392276763916,0.07254043221473694
1772812390628387300,9.82038720703125,0.03094196319580078,0.0063706934452056885,0.09310473501682281
1772812390647789000,9.8397890625,0.021691322326660156,-0.03802189230918884,0.07201217114925385
1772812390657489700,9.84948974609375,-0.015310287475585938,-0.024431079626083374,0.06057514250278473
1772812390667190500,9.8591904296875,-0.008138656616210938,-0.025992751121520996,0.01550610363483429
1772812390676891100,9.86889111328125,-0.058714866638183594,0.004723310470581055,0.015846818685531616
1772812390686592000,9.878592041015626,-0.09666633605957031,-0.010247260332107544,0.041167110204696655
1772812390696292600,9.888292724609375,-0.11867618560791016,-0.07020702958106995,0.05588404834270477
1772812390705993500,9.897993408203124,-0.1685314178466797,-0.08095145225524902,0.04746587574481964
1772812390715694000,9.907694091796875,-0.1633892059326172,-0.021862328052520752,0.016467437148094177
1772812390725395000,9.91739501953125,-0.16414546966552734,0.013007283210754395,-0.021717458963394165
1772812390735095600,9.927095458984375,-0.10834312438964844,0.02860260009765625,-0.09690480679273605
1772812390744796400,9.93679638671875,-0.09342288970947266,0.06982304155826569,-0.10218332707881927
1772812390754497000,9.9464970703125,-0.05872535705566406,0.08410432934761047,-0.06969735771417618
1772812390764198000,9.956197998046875,-0.008128166198730469,0.05879700183868408,0.004384070634841919
1772812390773898800,9.965898681640626,0.025106430053710938,-0.00445556640625,0.07445584237575531
1772812390783599400,9.975599365234375,0.09300422668457031,-0.04265940189361572,0.13283184170722961
1772812390793300200,9.98530029296875,0.18439197540283203,-0.05094563961029053,0.1258004754781723
1772812390803000800,9.995000732421875,0.21064186096191406,-0.019419997930526733,0.10700593888759613
1772812390812701700,10.00470166015625,0.22344589233398438,-0.020055711269378662,0.06606453657150269
1772812390822402300,10.01440234375,0.16775798797607422,-0.02319660782814026,0.02372954785823822
1772812390832103200,10.024103271484375,0.08712100982666016,-0.004876583814620972,-0.009393513202667236
1772812390841803800,10.0338037109375,0.004340171813964844,0.008801162242889404,-0.06257409602403641
1772812390851504600,10.043504638671875,-0.06523323059082031,0.02812659740447998,-0.11199558526277542
1772812390861205200,10.053205322265624,-0.09829521179199219,0.0035254359245300293,-0.09266906976699829
1772812390870906000,10.062906005859375,-0.08959197998046875,-0.0406932532787323,-0.03969176113605499
1772812390880606700,10.072606689453124,-0.07040691375732422,-0.1053762435913086,-0.05600143224000931
1772812390890307600,10.0823076171875,-0.05505180358886719,-0.028368443250656128,-0.034271419048309326
1772812390900008400,10.092008544921875,-0.09170055389404297,-0.012004733085632324,-0.07344932854175568
1772812390909709000,10.101708984375,-0.04654121398925781,0.0009663999080657959,-0.09936931729316711
1772812390919410000,10.111409912109375,-0.042133331298828125,-0.01470249891281128,-0.08404949307441711
1772812390929110500,10.121110595703126,-0.026052474975585938,-0.05457219481468201,-0.043884895741939545
1772812390938811400,10.130811279296875,-0.03498363494873047,-0.06004038453102112,-0.026521913707256317
1772812390948512000,10.140511962890624,0.0009164810180664062,-0.014031529426574707,-0.007168345153331757
1772812390958212600,10.150212646484375,0.04677009582519531,0.02476799488067627,-0.001767970621585846
1772812390967913500,10.15991357421875,0.09294795989990234,-0.03295132517814636,0.048852771520614624
1772812390987315000,10.17931494140625,0.11689376831054688,0.002310723066329956,0.030234433710575104
1772812390997015800,10.189015869140626,0.14762210845947266,0.038894087076187134,0.03407369554042816
1772812391006716400,10.19871630859375,0.08965110778808594,0.07353773713111877,0.018520966172218323
1772812391016417300,10.208417236328126,-0.036698341369628906,0.13228444755077362,0.01429922878742218
1772812391026118000,10.218117919921875,-0.16083431243896484,0.12211385369300842,0.039916858077049255
1772812391035818800,10.22781884765625,-0.22042560577392578,0.12043508887290955,0.05424587428569794
1772812391045519600,10.23751953125,-0.29067325592041016,0.16240741312503815,0.06153613328933716
1772812391055220200,10.24722021484375,-0.31258392333984375,0.15471166372299194,0.07671892642974854
1772812391064920800,10.2569208984375,-0.24113082885742188,0.07270976901054382,0.13055241107940674
1772812391074621700,10.26662158203125,-0.13204288482666016,0.09154710173606873,0.17990674078464508
1772812391084322300,10.276322265625,0.11282634735107422,0.06611621379852295,0.1980404108762741
