time,seconds_elapsed,z,y,x
1772812412940048100,0.095048095703125,0,0,0
1772812412949748700,0.104748779296875,0.02225017547607422,-0.0017513632774353027,0.010836541652679443
1772812412959449600,0.11444970703125,0.07718563079833984,-0.03214648365974426,0.011334806680679321
1772812412969150200,0.124150146484375,0.1064310073852539,-0.059896498918533325,0.04729151725769043
1772812412978850800,0.133850830078125,0.16459083557128906,-0.06385135650634766,0.011449486017227173
1772812412988551700,0.1435517578125,0.17995929718017578,0.0001863241195678711,-0.028483569622039795
1772812412998252300,0.153252197265625,0.21871185302734375,0.02362319827079773,-0.01589551568031311
1772812413007953000,0.162952880859375,0.133544921875,-0.01789623498916626,-0.01207578182220459
1772812413017653800,0.17265380859375,0.0716400146484375,-0.013235330581665039,0.018300175666809082
1772812413027354400,0.182354248046875,0.022218704223632812,0.020024240016937256,0.0005837678909301758
1772812413037055200,0.19205517578125,-0.07570266723632812,0.025943905115127563,0.011877894401550293
1772812413046755800,0.201755859375,-0.1210479736328125,0.0415077805519104,-0.04907868802547455
1772812413056456400,0.21145654296875,-0.15815162658691406,0.10071536898612976,-0.06546932458877563
1772812413066157300,0.2211572265625,-0.1267995834350586,0.11593067646026611,-0.05989807844161987
1772812413075858000,0.23085791015625,-0.08251476287841797,0.016079217195510864,-0.050270408391952515
1772812413085558500,0.24055859375,-0.08507919311523438,-0.058290302753448486,-0.0390048623085022
1772812413095259400,0.25025927734375,-0.02929973602294922,-0.03226044774055481,-0.00035318732261657715
1772812413104960000,0.2599599609375,-0.05249595642089844,-0.04870474338531494,0.04754817485809326
1772812413114660600,0.26966064453125,0.04320049285888672,-0.12147626280784607,0.058011800050735474
1772812413124361500,0.279361572265625,0.009085655212402344,-0.11671328544616699,0.022552430629730225
1772812413134062000,0.28906201171875,0.05066871643066406,-0.041329383850097656,0.026863425970077515
1772812413143762700,0.2987626953125,0.06194114685058594,0.022489577531814575,-0.014123380184173584
1772812413153463600,0.308463623046875,-0.034699440002441406,0.015709638595581055,0.002224355936050415
1772812413163164200,0.3181640625,-0.028774261474609375,-0.006091564893722534,0.02713596820831299
1772812413172864800,0.32786474609375,-0.06331729888916016,-0.0008531510829925537,0.046290040016174316
1772812413182565600,0.337565673828125,-0.05401897430419922,0.012925297021865845,0.022834748029708862
1772812413192266200,0.347266357421875,-0.08428573608398438,0.033441632986068726,0.021524161100387573
1772812413201967000,0.356967041015625,-0.08813285827636719,0.0391886830329895,0.03203269839286804
1772812413211667700,0.366667724609375,-0.05841827392578125,0.025715351104736328,0.038250625133514404
1772812413221368300,0.376368408203125,-0.05518531799316406,0.003957390785217285,0.05706283450126648
1772812413231069200,0.386069091796875,-0.027780532836914062,0.016728490591049194,0.0159417986869812
1772812413240769800,0.395769775390625,0.04859447479248047,0.015310168266296387,-0.011564493179321289
1772812413250470400,0.405470458984375,0.0843658447265625,0.002124309539794922,0.013088315725326538
1772812413260171300,0.415171142578125,0.12252235412597656,-0.009623140096664429,0.032120704650878906
1772812413269871900,0.424871826171875,0.17006587982177734,-0.021559983491897583,0.026399046182632446
1772812413279572500,0.434572509765625,0.18378257751464844,-0.002521723508834839,-0.036671966314315796
1772812413289273300,0.4442734375,0.13548851013183594,-0.03149789571762085,-0.052023306488990784
1772812413298974000,0.453973876953125,0.07923221588134766,-0.031289875507354736,-0.07112495601177216
1772812413308674600,0.463674560546875,0.005806922912597656,-0.032600462436676025,-0.06642130017280579
1772812413318375400,0.47337548828125,-0.054085731506347656,-0.01107892394065857,-0.06288722157478333
1772812413328076000,0.483075927734375,-0.12179946899414062,-0.021271616220474243,-0.069367915391922
1772812413337777000,0.49277685546875,-0.1516590118408203,0.004645019769668579,-0.05170178413391113
1772812413347477500,0.5024775390625,-0.1749744415283203,0.04260393977165222,-0.05301249027252197
1772812413357178000,0.51217822265625,-0.17322158813476562,0.03023049235343933,-0.012904316186904907
1772812413366879000,0.52187890625,-0.14815711975097656,0.0016088485717773438,0.03120291233062744
1772812413376579600,0.53157958984375,-0.10029220581054688,-0.021380603313446045,0.033584147691726685
1772812413386280200,0.5412802734375,-0.0687570571899414,-0.039861828088760376,0.08666712045669556
1772812413395981000,0.55098095703125,0.037029266357421875,-0.04528462886810303,0.09198683500289917
1772812413405681700,0.560681640625,0.08550643920898438,-0.038750261068344116,0.07647889852523804
1772812413415382300,0.57038232421875,0.11304473876953125,-0.036585211753845215,0.08880680799484253
1772812413425083100,0.580083251953125,0.09430503845214844,0.025553405284881592,0.041995614767074585
1772812413434783700,0.58978369140625,0.04662895202636719,0.04815429449081421,0.02131304144859314
1772812413444484400,0.599484375,-0.005995750427246094,0.03372707962989807,0.003690570592880249
1772812413454185200,0.609185302734375,-0.0399627685546875,0.05524963140487671,0.006564229726791382
1772812413463885800,0.6188857421875,-0.029796600341796875,0.06821921467781067,-0.010892510414123535
1772812413473586700,0.628586669921875,-0.026825904846191406,0.0690714418888092,-0.018558621406555176
1772812413483287300,0.638287353515625,-0.04859447479248047,0.022179245948791504,0.021494954824447632
1772812413492988000,0.64798779296875,-0.05355358123779297,-0.009805291891098022,0.02828192710876465
1772812413502688800,0.657688720703125,-0.036116600036621094,-0.01929911971092224,0.00564613938331604
1772812413512389400,0.667389404296875,-0.028420448303222656,0.006989389657974243,-0.0064611732959747314
1772812413522090000,0.677090087890625,-0.04203224182128906,-0.014953136444091797,0.0016240477561950684
1772812413531790800,0.686790771484375,-0.04479408264160156,-0.02614656090736389,0.005681216716766357
1772812413541491500,0.696491455078125,-0.0604400634765625,-0.03141537308692932,-0.00860336422920227
1772812413551192000,0.706192138671875,-0.05701446533203125,-0.011864960193634033,0.0025616884231567383
1772812413560893000,0.715892822265625,-0.03482341766357422,-0.019165635108947754,-0.006708264350891113
1772812413570593500,0.725593505859375,-0.05181121826171875,-0.0005781948566436768,-0.04158659279346466
1772812413580294100,0.735294189453125,-0.024944305419921875,0.07988068461418152,-0.05678996443748474
1772812413589995000,0.7449951171875,-0.0008287429809570312,0.12882110476493835,-0.08092039823532104
1772812413599695600,0.754695556640625,-0.07955646514892578,0.08511984348297119,-0.01785409450531006
1772812413609396200,0.764396240234375,0.008847236633300781,0.031713396310806274,0.025793850421905518
1772812413619097000,0.77409716796875,0.06749153137207031,-0.010032474994659424,0.17460519075393677
1772812413628797700,0.783797607421875,0.1498260498046875,0.022581517696380615,0.18034031987190247
1772812413638498600,0.79349853515625,0.11309432983398438,0.015765845775604248,0.17106527090072632
1772812413648199200,0.80319921875,0.06514549255371094,-0.010088741779327393,0.14949679374694824
1772812413657899800,0.812899658203125,0.11558151245117188,-0.02109009027481079,0.09377604722976685
1772812413667600600,0.8226005859375,0.08276748657226562,-0.0857492983341217,0.01713019609451294
1772812413677301200,0.83230126953125,0.12458133697509766,-0.07315292954444885,-0.04048657417297363
1772812413687001900,0.842001953125,0.07984256744384766,-0.05574440956115723,-0.11251667141914368
1772812413696702700,0.85170263671875,0.04534149169921875,0.010139763355255127,-0.219444140791893
1772812413706403300,0.8614033203125,-0.13679122924804688,0.1078203022480011,-0.18356290459632874
1772812413716104000,0.87110400390625,-0.023973464965820312,0.06604576110839844,-0.13241362571716309
1772812413725804800,0.8808046875,-0.08359336853027344,0.03331431746482849,0.0073080360889434814
1772812413735505400,0.89050537109375,-0.07398128509521484,-0.03722119331359863,0.12427860498428345
1772812413745206000,0.9002060546875,-0.013926506042480469,-0.0959102213382721,0.08122657239437103
1772812413754907000,0.909906982421875,0.07104206085205078,-0.01834970712661743,-0.027163848280906677
1772812413764607500,0.919607421875,0.09813785552978516,0.03776818513870239,-0.13809318840503693
1772812413784009000,0.939009033203125,0.08319854736328125,-0.014372289180755615,-0.13689783215522766
1772812413793709600,0.94870947265625,0.09586334228515625,-0.1008535623550415,-0.08524471521377563
1772812413803410400,0.958410400390625,0.10471153259277344,-0.07801860570907593,-0.04961398243904114
1772812413813111000,0.968111083984375,0.09569454193115234,-0.04315418004989624,-0.040837839245796204
1772812413822811600,0.977811767578125,0.07856369018554688,-0.01941511034965515,-0.04722779989242554
1772812413832512500,0.987512451171875,0.026411056518554688,0.02913820743560791,-0.04594026505947113
1772812413842213000,0.997213134765625,-0.03780174255371094,0.02643817663192749,-0.03058198094367981
1772812413851913700,1.006913818359375,-0.09151554107666016,-0.007243067026138306,0.013492554426193237
1772812413861614600,1.016614501953125,-0.09018230438232422,0.027781277894973755,0.05175553262233734
1772812413871315200,1.026315185546875,-0.08764457702636719,0.04699581861495972,0.06724570691585541
1772812413881015800,1.036015869140625,-0.09686851501464844,0.055078089237213135,0.07643009722232819
1772812413890716700,1.045716552734375,-0.09059619903564453,0.0437142550945282,0.09056754410266876
1772812413900417300,1.055417236328125,-0.13144588470458984,0.021574079990386963,0.09131494164466858
1772812413910118000,1.065117919921875,-0.16570091247558594,0.03501740097999573,0.12671849131584167
1772812413919818800,1.07481884765625,-0.16758251190185547,0.04219728708267212,0.11125418543815613
1772812413929519400,1.084519287109375,-0.14350605010986328,0.029140442609786987,0.13027727603912354
1772812413939220200,1.09422021484375,-0.09983062744140625,0.02510771155357361,0.1759290248155594
1772812413948920800,1.1039208984375,-0.0651407241821289,-0.03394615650177002,0.16449514031410217
1772812413958621400,1.113621337890625,0.0042362213134765625,-0.04680296778678894,0.11324621737003326
1772812413968322300,1.123322265625,0.07713985443115234,-0.033362746238708496,0.04794308543205261
1772812413978023000,1.13302294921875,0.1087942123413086,-0.014049053192138672,0.015210837125778198
1772812413987723500,1.1427236328125,0.12107181549072266,0.018419891595840454,-0.011300742626190186
1772812414007125000,1.162125,0.07603645324707031,0.07121613621711731,-0.037085965275764465
1772812414016825600,1.17182568359375,0.04647541046142578,0.061446964740753174,-0.04056638479232788
1772812414026526500,1.1815263671875,0.004477500915527344,0.029160767793655396,-0.07092233002185822
1772812414036227000,1.19122705078125,0.004342079162597656,0.02620619535446167,-0.035446539521217346
1772812414045927700,1.200927734375,-0.0017137527465820312,-0.032686203718185425,0.011546045541763306
1772812414055628500,1.210628662109375,0.019353866577148438,-0.10179653763771057,0.018262743949890137
1772812414065329200,1.2203291015625,0.008292198181152344,-0.09118586778640747,-0.030368492007255554
1772812414075029800,1.23002978515625,-0.006064414978027344,-0.002551048994064331,-0.1334104686975479
1772812414084730600,1.239730712890625,-0.04365062713623047,0.048925310373306274,-0.17234869301319122
1772812414094431200,1.24943115234375,-0.06172466278076172,0.06308010220527649,-0.13936956226825714
1772812414104132000,1.259132080078125,-0.04065704345703125,0.06500399112701416,-0.058697089552879333
1772812414113832700,1.268832763671875,-0.021150588989257812,0.02840706706047058,0.03921674191951752
1772812414123533300,1.278533203125,0.04856109619140625,-0.017631232738494873,0.08873304724693298
1772812414133234200,1.288234130859375,0.08882713317871094,-0.026639163494110107,0.11098383367061615
1772812414142934800,1.297934814453125,0.11664962768554688,-0.02020263671875,0.040235355496406555
1772812414152635400,1.307635498046875,0.10281753540039062,0.01707172393798828,0.032146722078323364
1772812414162336300,1.317336181640625,0.04802989959716797,0.008771032094955444,0.007653295993804932
1772812414172036900,1.327036865234375,-0.008192062377929688,-0.021155208349227905,0.017518267035484314
1772812414181737500,1.336737548828125,-0.0705270767211914,-0.06121852993965149,0.029079794883728027
1772812414191438300,1.346438232421875,-0.08237457275390625,-0.06067532300949097,0.015037566423416138
1772812414201139000,1.356138916015625,-0.07866668701171875,-0.010980486869812012,-0.06001085042953491
1772812414210839600,1.365839599609375,-0.08789825439453125,-0.00990450382232666,-0.10992744565010071
1772812414220540400,1.37554052734375,-0.0981130599975586,-0.013479828834533691,-0.1278236210346222
1772812414230241000,1.385240966796875,-0.11402034759521484,-0.015613257884979248,-0.09064943343400955
1772812414239941600,1.394941650390625,-0.1284637451171875,-0.05605003237724304,-0.0517914742231369
1772812414249642500,1.404642578125,-0.0885162353515625,-0.05134814977645874,-0.053097084164619446
1772812414259343000,1.414343017578125,-0.062160491943359375,0.029565781354904175,-0.024745553731918335
1772812414269043700,1.424043701171875,-0.02093219757080078,0.05807557702064514,-0.00447411835193634
1772812414278744600,1.43374462890625,0.07254981994628906,0.055598288774490356,0.00034683942794799805
1772812414288445200,1.443445068359375,0.11970806121826172,0.05095720291137695,0.012976258993148804
1772812414298146000,1.45314599609375,0.18012142181396484,0.048364490270614624,0.03626459836959839
1772812414307846700,1.4628466796875,0.1982593536376953,0.037832409143447876,0.022600650787353516
1772812414317547300,1.47254736328125,0.15958213806152344,0.02607870101928711,0.021152734756469727
1772812414327248100,1.482248046875,0.09212493896484375,0.009064346551895142,0.011763378977775574
1772812414336948700,1.49194873046875,-0.009491920471191406,-0.019152790307998657,0.014369979500770569
1772812414346649300,1.5016494140625,-0.09173393249511719,-0.043641746044158936,0.004270449280738831
1772812414356350200,1.51135009765625,-0.13489627838134766,-0.037899523973464966,0.0029431283473968506
1772812414366050800,1.52105078125,-0.14670372009277344,-0.02718415856361389,-0.012645378708839417
1772812414375751400,1.53075146484375,-0.11592674255371094,-0.03334793448448181,-0.0016981959342956543
1772812414385452300,1.540452392578125,-0.03857994079589844,-0.007523387670516968,-0.017676085233688354
1772812414395153000,1.55015283203125,0.037471771240234375,0.01602080464363098,-0.022713184356689453
1772812414404853500,1.559853515625,0.08634376525878906,0.03815534710884094,-0.03436477482318878
1772812414414554400,1.569554443359375,0.07788753509521484,0.03539860248565674,-0.0023251473903656006
1772812414424255000,1.5792548828125,0.0895395278930664,0.015565156936645508,0.014054760336875916
1772812414433955600,1.58895556640625,0.07274246215820312,0.0051577091217041016,0.011554241180419922
1772812414443656400,1.598656494140625,0.07387065887451172,0.02441692352294922,0.009399190545082092
1772812414453357000,1.608357177734375,0.05376720428466797,-0.006285935640335083,0.02025832235813141
1772812414463057700,1.6180576171875,0.042209625244140625,-0.03071683645248413,0.043562158942222595
1772812414472758500,1.627758544921875,0.034356117248535156,-0.05827566981315613,0.023787394165992737
1772812414482459100,1.637459228515625,0.007801055908203125,-0.06674608588218689,0.004379570484161377
1772812414492159700,1.64715966796875,0.006394386291503906,-0.06249040365219116,-0.04365074634552002
1772812414501860600,1.656860595703125,-0.026764869689941406,-0.0401475727558136,-0.059933677315711975
1772812414511561200,1.666561279296875,-0.048760414123535156,-0.05366221070289612,-0.050401583313941956
1772812414521262000,1.676261962890625,-0.08918285369873047,-0.04178529977798462,-0.03673426806926727
1772812414530962700,1.685962646484375,-0.12772655487060547,-0.018546074628829956,0.007933467626571655
1772812414540663300,1.695663330078125,-0.13029193878173828,-0.011259138584136963,0.024737536907196045
1772812414550364200,1.7053642578125,-0.13042640686035156,-0.004506409168243408,0.03767205774784088
1772812414560064800,1.715064697265625,-0.11406898498535156,0.04407355189323425,0.07462544739246368
1772812414569765400,1.724765380859375,-0.08974456787109375,0.05564078688621521,0.13006561994552612
1772812414579466200,1.73446630859375,-0.04696083068847656,0.06164616346359253,0.13793987035751343
1772812414589166800,1.744166748046875,-0.029557228088378906,0.09388676285743713,0.10956615209579468
1772812414598867500,1.753867431640625,-0.040637969970703125,0.1263655424118042,0.08137623965740204
1772812414608568300,1.763568359375,-0.022073745727539062,0.14453202486038208,0.058137908577919006
1772812414618269000,1.77326904296875,-0.0038309097290039062,0.10546174645423889,0.06207066774368286
1772812414627969500,1.782969482421875,0.08934211730957031,0.028659433126449585,0.036623045802116394
1772812414637670400,1.79267041015625,0.13619136810302734,-0.0188789963722229,0.005803033709526062
1772812414647371000,1.80237109375,0.15395450592041016,-0.05469590425491333,-0.006704285740852356
1772812414657071600,1.812071533203125,0.14082050323486328,-0.07495942711830139,-0.08278205990791321
1772812414666772500,1.8217724609375,0.09850120544433594,-0.04046964645385742,-0.13979925215244293
1772812414676473000,1.83147314453125,0.018083572387695312,-0.005263149738311768,-0.15533509850502014
1772812414686173700,1.841173583984375,-0.04333686828613281,-0.032239317893981934,-0.09414209425449371
1772812414695874600,1.85087451171875,-0.08018302917480469,-0.0563167929649353,-0.025214731693267822
1772812414705575200,1.8605751953125,-0.04699516296386719,-0.04629954695701599,0.028490468859672546
1772812414715275800,1.87027587890625,0.0032634735107421875,-0.030863136053085327,0.039402931928634644
1772812414724976600,1.8799765625,0.0397186279296875,0.0038294196128845215,0.037323519587516785
1772812414734677200,1.88967724609375,0.03202247619628906,0.019845902919769287,0.009062007069587708
1772812414744378000,1.899378173828125,0.032685279846191406,0.04241061210632324,-0.0014253556728363037
1772812414754078700,1.90907861328125,0.01920604705810547,0.07026055455207825,0.0036816447973251343
1772812414763779300,1.918779296875,0.029458999633789062,0.05264568328857422,0.06436993181705475
1772812414773480200,1.928480224609375,0.032464027404785156,0.04310774803161621,0.08737644553184509
1772812414783180800,1.938180908203125,0.042473793029785156,0.026245445013046265,0.07167002558708191
1772812414792881400,1.94788134765625,0.019372940063476562,0.0412479043006897,0.0218583345413208
1772812414802582300,1.957582275390625,-0.010381698608398438,0.0448434054851532,-0.019697368144989014
1772812414812283000,1.967282958984375,-0.047867774963378906,0.03966900706291199,-0.031202882528305054
1772812414821983500,1.9769833984375,-0.06586170196533203,0.015588462352752686,-0.05645942687988281
1772812414831684400,1.986684326171875,-0.07646656036376953,-0.019450396299362183,-0.04996505379676819
1772812414841385000,1.996385009765625,-0.04337310791015625,-0.03063187003135681,-0.02736450731754303
1772812414851085600,2.00608544921875,-0.0073337554931640625,-0.039962828159332275,0.008986681699752808
1772812414860786400,2.015786376953125,0.019855499267578125,-0.051981449127197266,0.013671711087226868
1772812414870487000,2.025487060546875,0.03366661071777344,-0.041337817907333374,0.0037549883127212524
1772812414880187600,2.035187744140625,0.002544403076171875,0.004628926515579224,-0.0033708959817886353
1772812414889888500,2.044888427734375,-0.003345489501953125,0.014970928430557251,0.0008566379547119141
1772812414899589000,2.054589111328125,0.008494377136230469,0.010965466499328613,0.0350191593170166
1772812414909289700,2.064289794921875,0.03187370300292969,-0.0030507445335388184,0.07429341971874237
1772812414918990600,2.073990478515625,0.052491188049316406,-0.011810779571533203,0.04363611340522766
1772812414928691200,2.083691162109375,0.06215953826904297,0.03780236840248108,0.04003581404685974
1772812414938391800,2.093391845703125,0.061064720153808594,0.06174400448799133,0.03919526934623718
1772812414948092700,2.1030927734375,0.05292987823486328,0.07139119505882263,0.06001761555671692
1772812414957793300,2.112793212890625,0.04728221893310547,0.04235827922821045,0.05650797486305237
1772812414967494000,2.122493896484375,0.032291412353515625,0.04892086982727051,0.043264150619506836
1772812414977194800,2.13219482421875,0.058699607849121094,0.025496453046798706,0.030526697635650635
1772812414986895400,2.141895263671875,0.07875919342041016,0.018159568309783936,-0.00947079062461853
1772812414996596000,2.151595947265625,0.060820579528808594,0.01012691855430603,-0.03566649556159973
1772812415006296800,2.161296875,-0.0038652420043945312,0.0020945966243743896,-0.06452527642250061
1772812415025698000,2.180697998046875,-0.09358406066894531,-0.018119513988494873,-0.06462331116199493
1772812415035399000,2.19039892578125,-0.1331920623779297,-0.02614980936050415,-0.06183069944381714
1772812415045099500,2.200099609375,-0.15562725067138672,-0.02412402629852295,-0.0538516491651535
1772812415054800100,2.209800048828125,-0.14591026306152344,-0.04941388964653015,-0.01989808678627014
1772812415064501000,2.2195009765625,-0.08342456817626953,-0.06288111209869385,0.014565646648406982
1772812415074201600,2.22920166015625,-0.02320098876953125,-0.05977052450180054,0.03817978501319885
1772812415083902500,2.23890234375,-0.007555961608886719,-0.09709042310714722,0.07303719222545624
1772812415093603000,2.24860302734375,-0.021569252014160156,-0.06725096702575684,0.03600594401359558
1772812415103303700,2.2583037109375,-0.029410362243652344,0.026248693466186523,-0.02629181742668152
1772812415113004500,2.268004638671875,-0.05940532684326172,0.08565279841423035,-0.06965562701225281
1772812415122705200,2.277705078125,-0.028845787048339844,0.1033506989479065,-0.04769723117351532
1772812415132405800,2.28740576171875,-0.001148223876953125,0.07311832904815674,-0.04602310061454773
1772812415142106600,2.297106689453125,0.06841468811035156,0.038303643465042114,0.0031654387712478638
1772812415151807200,2.30680712890625,0.12497806549072266,0.009691983461380005,0.009532511234283447
1772812415161507800,2.3165078125,0.14285755157470703,-0.003942608833312988,0.02522599697113037
1772812415171208700,2.326208740234375,0.17332172393798828,-0.02852460741996765,-0.018050596117973328
1772812415180909300,2.335909423828125,0.1373462677001953,-0.022117316722869873,-0.06213751435279846
1772812415190610000,2.34560986328125,0.07370185852050781,-0.007931321859359741,-0.058628350496292114
1772812415200310800,2.355310791015625,0.018179893493652344,-0.00889897346496582,-0.04036000370979309
1772812415210011400,2.365011474609375,-0.04342937469482422,-0.028920292854309082,-0.01308123767375946
1772812415219712000,2.3747119140625,-0.08044052124023438,-0.02778497338294983,-0.034718096256256104
1772812415229412900,2.384412841796875,-0.12267780303955078,0.010688096284866333,-0.02771534025669098
1772812415239113500,2.394113525390625,-0.12652111053466797,0.024464339017868042,0.016218513250350952
1772812415248814000,2.40381396484375,-0.11143779754638672,0.003243178129196167,0.025715172290802002
1772812415258515000,2.413514892578125,-0.0918722152709961,-0.01945069432258606,0.058415740728378296
1772812415268215600,2.423215576171875,-0.08556938171386719,0.019740432500839233,0.0805007815361023
1772812415277916200,2.432916259765625,-0.040557861328125,0.02796351909637451,0.08092030882835388
1772812415287617000,2.442616943359375,0.004866600036621094,0.021059095859527588,0.08385169506072998
1772812415297317600,2.452317626953125,0.057745933532714844,0.022190719842910767,0.044855982065200806
1772812415307018200,2.462018310546875,0.11795520782470703,0.041444748640060425,-0.005685821175575256
1772812415316719000,2.471718994140625,0.13006114959716797,0.046450912952423096,-0.06027717888355255
1772812415326419700,2.481419677734375,0.09956741333007812,0.017336994409561157,-0.08127941936254501
1772812415336120300,2.491120361328125,0.09543418884277344,0.010161787271499634,-0.09763351082801819
1772812415345821200,2.5008212890625,0.06662273406982422,0.010497033596038818,-0.10053246468305588
1772812415355521800,2.510521728515625,0.022979736328125,-0.031949520111083984,-0.08463908731937408
1772812415365222400,2.520222412109375,-0.00814056396484375,-0.06407573819160461,-0.10176113247871399
1772812415374923300,2.52992333984375,-0.045762062072753906,-0.04458227753639221,-0.13832420110702515
1772812415384623900,2.539623779296875,-0.09799957275390625,-0.04339829087257385,-0.1408868283033371
1772812415394324500,2.549324462890625,-0.13164710998535156,-0.044185638427734375,-0.11650224775075912
1772812415404025300,2.559025390625,-0.14820480346679688,-0.04108598828315735,-0.07673066854476929
1772812415413726000,2.568725830078125,-0.11976432800292969,-0.025503039360046387,-0.011994421482086182
1772812415423426600,2.578426513671875,-0.06121635437011719,-0.020693659782409668,0.08049817383289337
1772812415433127400,2.58812744140625,-0.011906623840332031,-0.027080446481704712,0.10577894747257233
1772812415442828000,2.597828125,-0.0046234130859375,0.011628985404968262,0.10297749936580658
1772812415452528600,2.607528564453125,0.014307022094726562,0.05743929743766785,0.08937576413154602
1772812415462229500,2.6172294921875,-0.011775016784667969,0.08248692750930786,0.05787333846092224
1772812415471930000,2.62693017578125,-0.03390216827392578,0.0851353108882904,0.09420070052146912
1772812415481631000,2.636630859375,0.001953125,0.03461453318595886,0.13001693785190582
1772812415491331600,2.64633154296875,0.03014850616455078,0.004767894744873047,0.0849781483411789
1772812415501032200,2.6560322265625,0.041428565979003906,0.02622044086456299,0.04586341977119446
1772812415510733000,2.665733154296875,0.021971702575683594,0.07964986562728882,0.021994248032569885
1772812415520433700,2.67543359375,0.021688461303710938,0.06335192918777466,-0.004987403750419617
1772812415530134300,2.68513427734375,0.03432655334472656,0.04844886064529419,0.018976330757141113
1772812415549535700,2.70453564453125,0.05807971954345703,-0.07424676418304443,-0.001792415976524353
1772812415559236400,2.714236328125,0.03712177276611328,-0.050446659326553345,-0.04647272825241089
1772812415568937200,2.723937255859375,0.037662506103515625,0.005563825368881226,-0.05573207139968872
1772812415578637800,2.733637939453125,0.040508270263671875,-0.012989640235900879,-0.043248578906059265
1772812415588338400,2.74333837890625,0.05149555206298828,-0.05917629599571228,-0.0012895017862319946
1772812415598039300,2.753039306640625,0.05165290832519531,-0.07277512550354004,0.07114112377166748
1772812415607740000,2.762739990234375,0.052944183349609375,-0.06953462958335876,0.0878753513097763
1772812415617440800,2.772440673828125,0.050693511962890625,-0.03746598958969116,0.02975967526435852
1772812415627141400,2.782141357421875,0.007365226745605469,0.026457548141479492,-0.032528191804885864
1772812415636842000,2.791842041015625,-0.05751514434814453,0.07089918851852417,-0.08003026992082596
1772812415646542800,2.80154296875,-0.12004375457763672,0.08647745847702026,-0.10370316356420517
1772812415656243500,2.811243408203125,-0.12617111206054688,0.05581742525100708,-0.06297329068183899
1772812415665944000,2.820944091796875,-0.10630130767822266,-0.009892523288726807,-0.007378906011581421
1772812415675645000,2.83064501953125,-0.011469841003417969,-0.048975229263305664,0.019614264369010925
1772812415685345500,2.840345458984375,0.04880237579345703,-0.03843796253204346,0.006743237376213074
1772812415695046100,2.850046142578125,0.06097412109375,0.014907926321029663,-0.017322421073913574
1772812415704747000,2.8597470703125,0.038799285888671875,0.006353020668029785,-0.003109544515609741
1772812415714447600,2.869447509765625,-0.023016929626464844,-0.0009944438934326172,0.014879554510116577
1772812415724148200,2.879148193359375,-0.06028556823730469,-0.0005778968334197998,0.07197321951389313
1772812415733849000,2.88884912109375,-0.049892425537109375,-0.026743918657302856,0.1371563971042633
1772812415743549700,2.8985498046875,-0.0032033920288085938,-0.010924488306045532,0.11505062878131866
1772812415753250300,2.908250244140625,0.028623580932617188,0.04507559537887573,0.05970166623592377
1772812415762951200,2.917951171875,0.06817913055419922,0.10143432021141052,0.03490529954433441
1772812415772651800,2.92765185546875,0.06588268280029297,0.09999004006385803,0.017617076635360718
1772812415782352400,2.937352294921875,0.06123828887939453,0.049988508224487305,0.05557246506214142
1772812415792053200,2.94705322265625,0.05898475646972656,0.0027337968349456787,0.07385759055614471
1772812415801753900,2.95675390625,0.06496715545654297,-0.0021026134490966797,0.05321300029754639
1772812415811454500,2.966454345703125,0.07436466217041016,0.012282878160476685,0.02123059332370758
1772812415821155300,2.9761552734375,0.06480598449707031,0.03682217001914978,-0.03283149003982544
1772812415830856000,2.98585595703125,-0.0010461807250976562,0.05531030893325806,-0.06512735784053802
1772812415840556500,2.995556640625,-0.029321670532226562,0.04000663757324219,-0.047749415040016174
1772812415850257400,3.00525732421875,-0.05832958221435547,-0.005375891923904419,-0.017112165689468384
1772812415859958000,3.0149580078125,-0.04217243194580078,-0.019557833671569824,-0.006055966019630432
1772812415869658600,3.02465869140625,-0.0051250457763671875,-0.02485746145248413,-0.013485327363014221
1772812415879359500,3.034359375,-0.021612167358398438,0.00606536865234375,-0.06741680204868317
1772812415889060000,3.04406005859375,-0.06600475311279297,0.01693865656852722,-0.09741885960102081
1772812415898760700,3.0537607421875,-0.13900184631347656,-0.007433652877807617,-0.10036469250917435
1772812415908461600,3.063461669921875,-0.1695384979248047,-0.030661433935165405,-0.08728194236755371
1772812415918162200,3.073162109375,-0.17362689971923828,-0.06333693861961365,-0.050894007086753845
1772812415927862800,3.08286279296875,-0.1352519989013672,-0.0729013979434967,-0.028259873390197754
1772812415937563600,3.092563720703125,-0.05279827117919922,-0.055970072746276855,-0.027841269969940186
1772812415947264300,3.10226416015625,0.048233985900878906,-0.029725879430770874,0.021141797304153442
1772812415956964900,3.11196484375,0.12514114379882812,-0.06249833106994629,0.049164265394210815
1772812415966665700,3.121665771484375,0.17362403869628906,-0.07585147023200989,0.02164517343044281
1772812415976366300,3.131366455078125,0.16948699951171875,-0.02927348017692566,-0.016926810145378113
1772812415986067000,3.14106689453125,0.11951065063476562,0.027657032012939453,-0.03249505162239075
1772812415995767800,3.150767822265625,0.086822509765625,0.04118528962135315,-0.024939462542533875
1772812416005468400,3.160468505859375,0.03703498840332031,0.03581085801124573,-0.029036954045295715
1772812416015169000,3.1701689453125,0.0010471343994140625,0.045149803161621094,-0.036972999572753906
1772812416024870000,3.179869873046875,-0.027253150939941406,0.035123854875564575,-0.029120519757270813
1772812416034570500,3.189570556640625,-0.022134780883789062,0.044684916734695435,0.00892224907875061
1772812416044271000,3.19927099609375,0.008760452270507812,0.0278034508228302,0.03125491738319397
1772812416053972000,3.208971923828125,0.04384326934814453,-0.0010853707790374756,0.016927197575569153
1772812416063672600,3.218672607421875,0.03951454162597656,0.019537776708602905,0.010564014315605164
1772812416073373200,3.228373291015625,-0.007096290588378906,0.01978921890258789,0.01713593304157257
1772812416083074000,3.238073974609375,-0.04351615905761719,0.006012171506881714,-0.01044464111328125
1772812416092774700,3.247774658203125,-0.10282421112060547,-0.0032254159450531006,-0.022296026349067688
1772812416102475300,3.257475341796875,-0.11876296997070312,-0.0255679190158844,0.011284008622169495
1772812416112176000,3.267176025390625,-0.12618350982666016,-0.06207326054573059,0.0743831992149353
1772812416121876700,3.276876708984375,-0.11464214324951172,-0.08590880036354065,0.07866641879081726
1772812416131577300,3.286577392578125,-0.077392578125,-0.08331388235092163,0.054063692688941956
1772812416141278200,3.2962783203125,-0.0548553466796875,-0.023903697729110718,0.03172406554222107
1772812416150978800,3.305978759765625,-0.011490821838378906,0.020949244499206543,-0.01271010935306549
1772812416170380300,3.32538037109375,0.09185791015625,0.06652092933654785,-0.06587037444114685
1772812416180081000,3.335080810546875,0.062201499938964844,0.022935181856155396,-0.03010249137878418
1772812416189781500,3.344781494140625,0.08478450775146484,0.011588126420974731,0.013649553060531616
1772812416199482400,3.354482421875,0.0998849868774414,-0.019397377967834473,0.03460274636745453
1772812416209183000,3.364182861328125,0.09938812255859375,-0.06387209892272949,0.03895527124404907
1772812416218883600,3.373883544921875,0.0929574966430664,-0.07127389311790466,0.015115603804588318
1772812416228584400,3.38358447265625,0.09014225006103516,-0.0440521240234375,-0.009006887674331665
1772812416238285000,3.39328515625,0.08146858215332031,0.003445267677307129,-0.03607182204723358
1772812416247985700,3.402985595703125,0.04940319061279297,-0.0015183985233306885,-0.0161561518907547
1772812416257686500,3.4126865234375,0.02963733673095703,-0.00031489133834838867,-0.016110271215438843
1772812416267387100,3.42238720703125,0.0019731521606445312,-0.0059396326541900635,0.0017990469932556152
1772812416277087700,3.432087646484375,-0.008747100830078125,-0.0018643438816070557,0.019117802381515503
1772812416286788600,3.44178857421875,-0.027496337890625,0.02704635262489319,0.00002899765968322754
1772812416296489200,3.4514892578125,-0.05296802520751953,0.05088949203491211,-0.029273390769958496
1772812416306189800,3.46118994140625,-0.07678413391113281,0.06925585865974426,-0.041385337710380554
1772812416315890700,3.470890625,-0.11546802520751953,0.052991122007369995,-0.012774288654327393
1772812416325591300,3.48059130859375,-0.1053009033203125,0.03265613317489624,0.0811489075422287
1772812416335292000,3.4902919921875,-0.06592655181884766,-0.026557117700576782,0.12032753229141235
1772812416344992800,3.49999267578125,-0.010725975036621094,-0.06299769878387451,0.0818265974521637
1772812416354693400,3.509693359375,-0.006997108459472656,0.009232193231582642,0.0005770772695541382
1772812416364394000,3.51939404296875,-0.06915664672851562,0.06936100125312805,-0.04850850999355316
1772812416374094800,3.5290947265625,-0.12314414978027344,0.033941298723220825,-0.06120148301124573
1772812416383795500,3.53879541015625,-0.1455821990966797,0.022489994764328003,-0.05345609784126282
1772812416393496000,3.54849609375,-0.11233997344970703,-0.006140410900115967,0.0026421844959259033
1772812416403197000,3.558197021484375,0.015560150146484375,-0.06345632672309875,0.08820819854736328
1772812416412897500,3.5678974609375,0.18357086181640625,-0.1249530017375946,0.09910167753696442
1772812416422598100,3.57759814453125,0.2839488983154297,-0.09380322694778442,0.049276307225227356
1772812416432298800,3.587298828125,0.2990131378173828,-0.028809785842895508,0.01640675961971283
1772812416441999600,3.59699951171875,0.2443532943725586,0.015282511711120605,-0.04800140857696533
1772812416451700200,3.6067001953125,0.1482696533203125,0.02327430248260498,-0.09918250888586044
1772812416461400800,3.61640087890625,-0.0038003921508789062,0.038456469774246216,-0.09970922023057938
1772812416471101700,3.626101806640625,-0.10147666931152344,0.05971047282218933,-0.08391015231609344
1772812416480802300,3.63580224609375,-0.1786184310913086,0.028187334537506104,-0.05251495540142059
1772812416490503000,3.6455029296875,-0.1967458724975586,-0.019391238689422607,-0.02936209738254547
1772812416500203800,3.655203857421875,-0.16978836059570312,-0.016635149717330933,-0.03937295079231262
1772812416509904400,3.664904296875,-0.15261554718017578,0.030373722314834595,-0.04315204918384552
1772812416519605200,3.674605224609375,-0.13449478149414062,0.05856865644454956,-0.019763126969337463
1772812416529305900,3.684305908203125,-0.06265830993652344,0.016019582748413086,0.12652750313282013
1772812416539006500,3.69400634765625,0.064239501953125,-0.07799220085144043,0.28900080919265747
1772812416548707300,3.703707275390625,0.23708534240722656,-0.13213872909545898,0.26048827171325684
1772812416558408000,3.713407958984375,0.335174560546875,-0.04706311225891113,0.1071069985628128
1772812416568108500,3.723108642578125,0.2633657455444336,0.07556945085525513,0.0016312450170516968
1772812416577809400,3.732809326171875,0.12222671508789062,0.1389939785003662,-0.07878585159778595
1772812416587510000,3.742510009765625,-0.06233501434326172,0.07477736473083496,-0.10666539520025253
1772812416597210600,3.752210693359375,-0.17194461822509766,-0.005309730768203735,-0.08545873314142227
1772812416606911500,3.761911376953125,-0.2361440658569336,-0.03697472810745239,-0.03565135598182678
1772812416616612000,3.771612060546875,-0.1945056915283203,-0.05644521117210388,-0.027409791946411133
1772812416626312700,3.781312744140625,-0.12175464630126953,-0.07211145758628845,-0.06707052141427994
1772812416636013600,3.791013671875,-0.09253215789794922,-0.09225967526435852,-0.09509909152984619
1772812416645714200,3.800714111328125,-0.09788799285888672,-0.06759163737297058,-0.12124914675951004
1772812416655414800,3.810414794921875,-0.15602493286132812,-0.03595021367073059,-0.12850311398506165
1772812416665115600,3.82011572265625,-0.17666244506835938,-0.02204117178916931,-0.08794301003217697
1772812416674816300,3.829816162109375,-0.1134328842163086,-0.04199010133743286,0.022962823510169983
1772812416684516900,3.839516845703125,0.035739898681640625,-0.05290105938911438,0.0763031393289566
1772812416694217700,3.8492177734375,0.22117996215820312,-0.021136194467544556,0.0937207043170929
1772812416703918300,3.85891845703125,0.3257713317871094,0.022716641426086426,0.07994046807289124
1772812416713619000,3.868618896484375,0.3543434143066406,0.047890692949295044,0.062222570180892944
1772812416723319800,3.87831982421875,0.3034954071044922,-0.0072047412395477295,0.044549331068992615
1772812416733020400,3.8880205078125,0.20757007598876953,-0.019728749990463257,-0.018177032470703125
1772812416742721000,3.897720947265625,0.05913543701171875,0.011495232582092285,-0.05078840255737305
1772812416752422000,3.907421875,-0.10439777374267578,0.02067279815673828,-0.059699177742004395
1772812416762122500,3.91712255859375,-0.16863250732421875,-0.00160178542137146,-0.021624162793159485
1772812416771823000,3.926822998046875,-0.21523666381835938,-0.02321833372116089,-0.0055406540632247925
1772812416781524000,3.93652392578125,-0.22684764862060547,-0.02444484829902649,-0.02011151611804962
1772812416791224600,3.946224609375,-0.22405147552490234,-0.04490023851394653,-0.012734577059745789
1772812416800925200,3.95592529296875,-0.15655899047851562,-0.06427869200706482,0.00026467442512512207
1772812416810626000,3.9656259765625,-0.0655221939086914,-0.09462982416152954,0.031324803829193115
1772812416820326700,3.97532666015625,0.04979991912841797,-0.11004802584648132,0.06840866804122925
1772812416830027300,3.98502734375,0.13724327087402344,-0.05815884470939636,0.06561562418937683
1772812416839728000,3.99472802734375,0.15375328063964844,-0.010208338499069214,0.027618378400802612
1772812416849428700,4.0044287109375,0.1193704605102539,0.04912629723548889,0.019455403089523315
1772812416859129300,4.01412939453125,0.0408782958984375,0.06109440326690674,0.008297398686408997
1772812416878530800,4.03353076171875,-0.084991455078125,0.006668537855148315,0.04152004420757294
1772812416888231400,4.0432314453125,-0.05997180938720703,0.004297465085983276,0.03673580288887024
1772812416897932300,4.052932373046875,-0.01653575897216797,0.004458397626876831,0.020206183195114136
1772812416907633000,4.0626328125,0.0308685302734375,0.016908258199691772,0.00781320035457611
1772812416917333500,4.07233349609375,0.049228668212890625,-0.009374171495437622,-0.014831885695457458
1772812416927034400,4.082034423828125,0.026099205017089844,-0.04040437936782837,0.0033157914876937866
1772812416936735000,4.09173486328125,-0.020181655883789062,-0.0451166033744812,-0.004458487033843994
1772812416946435600,4.101435546875,-0.03864860534667969,-0.0508040189743042,0.014793038368225098
1772812416956136200,4.11113623046875,-0.02152538299560547,-0.04695558547973633,0.01566798985004425
1772812416965837000,4.120837158203125,-0.0035190582275390625,-0.02443787455558777,0.003774002194404602
1772812416975537700,4.13053759765625,0.00357818603515625,-0.021461904048919678,0.03582794964313507
1772812416985238300,4.14023828125,-0.004740715026855469,0.004702836275100708,0.045699670910835266
1772812416994939100,4.149939208984375,0.00004482269287109375,0.0340045690536499,0.016566872596740723
1772812417004639700,4.1596396484375,-0.050502777099609375,0.041171133518218994,0.007517769932746887
1772812417014340400,4.16934033203125,-0.07664012908935547,0.06563293933868408,0.036572083830833435
1772812417024041200,4.179041259765625,-0.08818435668945312,0.06857916712760925,0.0471658855676651
1772812417033741800,4.188741943359375,-0.07128429412841797,0.028673380613327026,0.07272626459598541
1772812417043442400,4.1984423828125,-0.04995441436767578,0.008521467447280884,0.08995090425014496
1772812417053143300,4.208143310546875,-0.023107528686523438,-0.008203864097595215,0.042928799986839294
1772812417062844000,4.217843994140625,0.0033130645751953125,0.0352056622505188,-0.0011734962463378906
1772812417072544500,4.22754443359375,0.004589080810546875,0.025710374116897583,-0.05977107584476471
1772812417082245400,4.237245361328125,-0.000034332275390625,0.026780307292938232,-0.06150244176387787
1772812417091946000,4.246946044921875,0.036597251892089844,-0.0002505481243133545,-0.04642400145530701
1772812417101646600,4.256646484375,0.05729961395263672,0.00735396146774292,-0.0300702303647995
1772812417111347500,4.266347412109375,0.07055854797363281,0.006427764892578125,-0.00648970901966095
1772812417121048000,4.276048095703125,0.11531829833984375,-0.021054506301879883,0.010237395763397217
1772812417130748700,4.285748779296875,0.1639575958251953,-0.035639286041259766,-0.01568618416786194
1772812417140449500,4.295449462890625,0.15521717071533203,-0.011097729206085205,-0.029053255915641785
1772812417150150100,4.305150146484375,0.14655780792236328,0.009905427694320679,-0.022712737321853638
1772812417159850800,4.314850830078125,0.0756521224975586,0.008215010166168213,-0.02562996745109558
1772812417169551400,4.32455126953125,0.00004863739013671875,0.025483310222625732,-0.008230075240135193
1772812417179252200,4.334252197265625,-0.06715774536132812,0.04530620574951172,0.02679315209388733
1772812417188952800,4.343952880859375,-0.1366586685180664,0.06281319260597229,0.01134943962097168
1772812417198653400,4.3536533203125,-0.1484241485595703,0.08619916439056396,-0.020450368523597717
1772812417208354300,4.363354248046875,-0.1375570297241211,0.08289670944213867,-0.04426664113998413
1772812417218055000,4.373054931640625,-0.0950765609741211,0.050639599561691284,-0.03162325918674469
1772812417227755500,4.382755615234375,-0.014499664306640625,-0.010082781314849854,-0.008394420146942139
1772812417237456400,4.392456298828125,0.03173542022705078,-0.04771077632904053,-0.0002719014883041382
1772812417247157000,4.402156982421875,0.063018798828125,-0.06618529558181763,-0.009182944893836975
1772812417256857600,4.411857666015625,0.07842445373535156,-0.06800073385238647,-0.019159376621246338
1772812417266558500,4.421558349609375,0.0805959701538086,-0.03645753860473633,-0.024366050958633423
1772812417276259000,4.431259033203125,0.06622123718261719,-0.03429582715034485,-0.017203211784362793
1772812417285959700,4.440959716796875,0.03442573547363281,-0.027632087469100952,-0.00869324803352356
1772812417295660500,4.45066064453125,0.012568473815917969,0.0010456442832946777,-0.014785736799240112
1772812417305361200,4.460361083984375,-0.033618927001953125,0.039946019649505615,0.003614470362663269
1772812417315062000,4.47006201171875,-0.07546043395996094,0.055456697940826416,0.025832071900367737
1772812417324762600,4.4797626953125,-0.1200571060180664,0.04875212907791138,0.06416909396648407
1772812417334463200,4.489463134765625,-0.1955738067626953,0.009340375661849976,0.07919883728027344
1772812417344164000,4.4991640625,-0.18504810333251953,0.002223074436187744,0.09674137830734253
1772812417353864700,4.50886474609375,-0.1240692138671875,0.003520369529724121,0.0810718983411789
1772812417363565300,4.5185654296875,-0.015854835510253906,0.007202237844467163,0.02044077217578888
1772812417373266200,4.52826611328125,0.07405471801757812,0.03316599130630493,-0.008796274662017822
1772812417382966800,4.537966796875,0.1353311538696289,0.039133042097091675,-0.03966569900512695
1772812417392667400,4.54766748046875,0.17196273803710938,0.022826015949249268,-0.05671153962612152
1772812417402368300,4.5573681640625,0.16083908081054688,0.02750241756439209,-0.05677357316017151
1772812417412068900,4.56706884765625,0.13336658477783203,-0.007771432399749756,-0.03512129187583923
1772812417421769500,4.57676953125,0.11103343963623047,-0.005239427089691162,-0.047645509243011475
1772812417431470300,4.58647021484375,0.10552501678466797,-0.011210411787033081,-0.06661850214004517
1772812417441171000,4.5961708984375,0.09656810760498047,-0.006539344787597656,-0.11655539274215698
1772812417450871600,4.60587158203125,0.06775379180908203,-0.02204170823097229,-0.12193858623504639
1772812417460572400,4.615572509765625,0.05237579345703125,-0.019422829151153564,-0.14155517518520355
1772812417470273000,4.62527294921875,0.012569427490234375,-0.030694037675857544,-0.1189558133482933
1772812417479973600,4.6349736328125,-0.018321990966796875,-0.03221285343170166,-0.1136249303817749
1772812417489674200,4.64467431640625,-0.06983184814453125,-0.025992780923843384,-0.06561127305030823
1772812417499375000,4.654375,-0.10749626159667969,-0.020314961671829224,-0.04375459998846054
1772812417509075700,4.66407568359375,-0.09273338317871094,-0.0022617578506469727,0.038932085037231445
1772812417518776300,4.6737763671875,-0.04880809783935547,0.009769171476364136,0.08086568117141724
1772812417528477200,4.683477294921875,-0.015061378479003906,-0.0035164058208465576,0.11364245414733887
1772812417538177800,4.693177734375,0.028646469116210938,-0.008090794086456299,0.15519961714744568
1772812417547878400,4.70287841796875,0.05746173858642578,-0.005388915538787842,0.15596671402454376
1772812417557579300,4.712579345703125,0.07635021209716797,0.059710800647735596,0.11343692243099213
1772812417567279900,4.72227978515625,0.019626617431640625,0.081139475107193,0.05823516845703125
1772812417576980500,4.73198046875,-0.02907562255859375,0.0626349151134491,0.07961408793926239
1772812417586681300,4.741681396484375,-0.06518268585205078,0.040346771478652954,0.09403540194034576
1772812417596382000,4.7513818359375,-0.06418228149414062,0.01114267110824585,0.055802121758461
1772812417606082600,4.76108251953125,-0.07613182067871094,-0.015835225582122803,0.029861271381378174
1772812417615783400,4.770783447265625,-0.07494068145751953,-0.015239715576171875,0.002075895667076111
1772812417625484000,4.780484130859375,-0.05845165252685547,-0.044198453426361084,-0.07154569774866104
1772812417635184600,4.7901845703125,-0.052768707275390625,-0.03820544481277466,-0.12973636388778687
1772812417644885500,4.799885498046875,-0.09536457061767578,-0.030375301837921143,-0.14197702705860138
1772812417654586000,4.809586181640625,-0.1183929443359375,-0.0334797203540802,-0.12049577385187149
1772812417664286700,4.81928662109375,-0.10338211059570312,-0.03591972589492798,-0.09001325815916061
1772812417673987300,4.8289873046875,-0.06275081634521484,-0.06279906630516052,-0.0024347007274627686
1772812417683688200,4.838688232421875,-0.012244224548339844,-0.07220083475112915,0.06421999633312225
1772812417693388800,4.848388916015625,0.06564998626708984,-0.05739101767539978,0.07426963746547699
1772812417703089400,4.85808935546875,0.1046152114868164,0.0028088390827178955,0.02022041380405426
1772812417712790300,4.867790283203125,0.10177230834960938,0.06703028082847595,-0.03887578845024109
1772812417722491000,4.877490966796875,0.07546424865722656,0.11206430196762085,-0.06665786355733871
1772812417732191500,4.88719140625,0.09193706512451172,0.12472110986709595,-0.06956350803375244
1772812417741892400,4.896892333984375,0.13982295989990234,0.06063187122344971,-0.019649997353553772
1772812417751593000,4.906593017578125,0.17620086669921875,-0.011813342571258545,0.0465206503868103
1772812417761293600,4.91629345703125,0.18950462341308594,-0.09052711725234985,0.06732858717441559
1772812417770994400,4.925994384765625,0.16133880615234375,-0.07021504640579224,0.05086839199066162
1772812417780695000,4.935695068359375,0.06303691864013672,-0.026412993669509888,0.010142087936401367
1772812417790395600,4.945395751953125,-0.04768943786621094,0.01172444224357605,-0.04071889817714691
1772812417800096500,4.955096435546875,-0.1658773422241211,0.041287750005722046,-0.044058993458747864
1772812417809797000,4.964797119140625,-0.2855262756347656,0.03575319051742554,-0.00551450252532959
1772812417819497700,4.974497802734375,-0.2748432159423828,0.0319361686706543,0.06280750036239624
1772812417829198300,4.9841982421875,-0.22423553466796875,0.029117166996002197,0.07891789078712463
1772812417838899200,4.993899169921875,-0.15912532806396484,0.02844521403312683,0.07890482246875763
1772812417848599800,5.003599853515625,-0.0903940200805664,0.04178905487060547,0.08581291139125824
1772812417858300400,5.013300537109375,-0.0063800811767578125,0.02791336178779602,0.09106671810150146
1772812417868001300,5.023001220703125,0.06677818298339844,0.0046811699867248535,0.10603523254394531
1772812417877701600,5.03270166015625,0.1257162094116211,-0.006746083498001099,0.11792510747909546
1772812417887402200,5.04240234375,0.16127681732177734,0.021014034748077393,0.0660344809293747
1772812417897102800,5.052102783203125,0.15857410430908203,0.05158892273902893,0.00023333728313446045
1772812417906803500,5.061803466796875,0.15707778930664062,0.06996098160743713,-0.05058988928794861
1772812417916504300,5.07150439453125,0.15793418884277344,0.04092538356781006,-0.090018130838871
1772812417926205000,5.081204833984375,0.13521385192871094,0.02027261257171631,-0.08434441685676575
1772812417935905500,5.090905517578125,0.14456939697265625,-0.03434020280838013,-0.079520583152771
1772812417945606400,5.1006064453125,0.12195301055908203,-0.05181512236595154,-0.08934998512268066
1772812417955307000,5.11030712890625,0.0855569839477539,-0.03721129894256592,-0.09717832505702972
1772812417965007600,5.120007568359375,0.018004417419433594,-0.044404298067092896,-0.1256505697965622
1772812417974708500,5.12970849609375,-0.06484794616699219,-0.026150882244110107,-0.16629251837730408
1772812417984409000,5.1394091796875,-0.1286172866821289,-0.02833390235900879,-0.16201084852218628
1772812417994109700,5.149109619140625,-0.1795034408569336,-0.03740069270133972,-0.09071952104568481
1772812418003810600,5.158810546875,-0.19771480560302734,-0.04486989974975586,-0.0372299998998642
1772812418013511200,5.16851123046875,-0.18968486785888672,-0.026295870542526245,0.011653542518615723
1772812418023211800,5.178211669921875,-0.16057205200195312,0.011780202388763428,0.03859376907348633
1772812418032912400,5.187912353515625,-0.09780693054199219,0.045189499855041504,0.07264010608196259
1772812418042613200,5.19761328125,-0.046675682067871094,0.05582374334335327,0.11941327154636383
1772812418052313900,5.20731396484375,0.010659217834472656,0.07341396808624268,0.14919568598270416
1772812418062014500,5.217014404296875,0.06818675994873047,0.10083329677581787,0.12484511733055115
1772812418071715300,5.22671533203125,0.09412956237792969,0.10239794850349426,0.12129892408847809
1772812418081416000,5.236416015625,0.11841583251953125,0.08152085542678833,0.1269233524799347
1772812418091116500,5.246116455078125,0.13048744201660156,0.05036541819572449,0.10632260143756866
1772812418100817400,5.2558173828125,0.088226318359375,0.019231438636779785,0.043482705950737
1772812418110518000,5.26551806640625,0.05961418151855469,0.014532089233398438,-0.022053450345993042
1772812418120218600,5.275218505859375,0.03266620635986328,0.044394731521606445,-0.0768042802810669
1772812418129919500,5.28491943359375,0.020300865173339844,0.057939350605010986,-0.09131024777889252
1772812418139620000,5.2946201171875,-0.013027191162109375,0.022164523601531982,-0.053456589579582214
1772812418149320700,5.30432080078125,-0.01171112060546875,-0.03434315323829651,-0.019658386707305908
1772812418159021600,5.314021484375,-0.0069255828857421875,-0.0706305205821991,-0.0024679899215698242
1772812418168722200,5.32372216796875,0.027156829833984375,-0.0486617386341095,0.006759852170944214
1772812418178422800,5.3334228515625,0.017106056213378906,-0.04385405778884888,-0.027846649289131165
1772812418188123400,5.343123291015625,-0.018652915954589844,-0.0011408329010009766,-0.05918333679437637
1772812418197824300,5.35282421875,-0.06790351867675781,0.014997005462646484,-0.0631963461637497
1772812418207524900,5.36252490234375,-0.12451457977294922,0.01318448781967163,-0.03814026713371277
1772812418217225500,5.3722255859375,-0.16008663177490234,0.019832640886306763,-0.03322640061378479
1772812418226926300,5.38192626953125,-0.15143489837646484,0.02959492802619934,-0.016599848866462708
1772812418236627000,5.391626953125,-0.12048721313476562,0.0362321138381958,-0.010565325617790222
1772812418246327600,5.40132763671875,-0.06882858276367188,0.01981779932975769,-0.018829017877578735
1772812418256028400,5.4110283203125,0.023128509521484375,-0.004915118217468262,-0.0312948077917099
1772812418265729000,5.42072900390625,0.10289955139160156,-0.05000579357147217,-0.009955525398254395
1772812418275429600,5.4304296875,0.14948749542236328,-0.09734973311424255,-0.0024698376655578613
1772812418285130200,5.440130126953125,0.1681356430053711,-0.12370017170906067,0.01734308898448944
1772812418294831000,5.4498310546875,0.12403392791748047,-0.12497162818908691,0.021000877022743225
1772812418304531700,5.45953173828125,0.06886863708496094,-0.11754420399665833,-0.009257599711418152
1772812418314232300,5.469232421875,-0.010081291198730469,-0.04938438534736633,-0.009063094854354858
1772812418323933200,5.47893310546875,-0.09121513366699219,-0.03491362929344177,0.008218631148338318
1772812418333633800,5.4886337890625,-0.09329414367675781,-0.01883760094642639,-0.004518836736679077
1772812418343334400,5.49833447265625,-0.09764862060546875,0.003958314657211304,-0.012253373861312866
1772812418353035300,5.50803515625,-0.05368232727050781,0.01452934741973877,-0.007673084735870361
1772812418362735900,5.51773583984375,-0.023395538330078125,0.002957969903945923,-0.004493296146392822
1772812418372436700,5.527436767578125,-0.01596546173095703,0.006139814853668213,-0.015860825777053833
1772812418382137300,5.537137451171875,-0.01569080352783203,0.009438544511795044,0.010734811425209045
1772812418391838000,5.546837890625,-0.04479026794433594,0.05246305465698242,0.03564058244228363
1772812418401538800,5.556538818359375,-0.06161689758300781,0.051330894231796265,0.050828635692596436
1772812418411239400,5.566239501953125,-0.026391029357910156,0.0703292191028595,0.1290644258260727
1772812418420940000,5.57593994140625,0.03174114227294922,0.05282312631607056,0.1589091569185257
1772812418430641000,5.585640869140625,0.0947113037109375,0.0223158597946167,0.1478782594203949
1772812418440341500,5.595341552734375,0.18009567260742188,0.024321258068084717,0.07606418430805206
1772812418450042000,5.6050419921875,0.1651763916015625,0.035871148109436035,0.02293229103088379
1772812418459743000,5.614742919921875,0.11989402770996094,0.02004268765449524,-0.003554120659828186
1772812418469443600,5.624443603515625,0.035355567932128906,-0.030149459838867188,-0.03575991094112396
1772812418479144200,5.634144287109375,-0.03481769561767578,-0.09655404090881348,-0.0410291850566864
1772812418488844800,5.6438447265625,-0.08615303039550781,-0.08661073446273804,-0.06280501186847687
1772812418498545700,5.653545654296875,-0.1271800994873047,-0.06828266382217407,-0.0728057473897934
1772812418508246300,5.663246337890625,-0.105133056640625,-0.0832815170288086,-0.09781531989574432
1772812418517947000,5.67294677734375,-0.08811187744140625,-0.07002255320549011,-0.08171668648719788
1772812418527647700,5.682647705078125,-0.07723140716552734,-0.07078555226325989,-0.09246785938739777
1772812418537348400,5.692348388671875,-0.05708885192871094,-0.06774881482124329,-0.09593275189399719
1772812418547049000,5.702049072265625,-0.03256416320800781,-0.041163355112075806,-0.08811479806900024
1772812418556749800,5.711749755859375,-0.021398544311523438,0.0070116519927978516,-0.06755898892879486
1772812418566450400,5.721450439453125,0.009591102600097656,0.0412730872631073,-0.04001590609550476
1772812418576151000,5.731151123046875,0.054100990295410156,0.02528175711631775,0.001337394118309021
1772812418585851600,5.7408515625,0.07074260711669922,-0.009692490100860596,0.10009855031967163
1772812418595552500,5.750552490234375,0.13651084899902344,0.0092964768409729,0.058517858386039734
1772812418605253000,5.760253173828125,0.05058097839355469,0.05240452289581299,0.07788605988025665
1772812418614953700,5.76995361328125,-0.005675315856933594,0.026024460792541504,0.06381702423095703
1772812418624654600,5.779654541015625,-0.04216766357421875,0.017262160778045654,0.032433077692985535
1772812418634355200,5.789355224609375,-0.02042102813720703,0.03241458535194397,0.016988247632980347
1772812418644055800,5.799055908203125,0.0021514892578125,0.017850041389465332,0.01768346130847931
1772812418653756700,5.808756591796875,0.007901191711425781,0.02803465723991394,-0.01745319366455078
1772812418663457300,5.818457275390625,-0.049920082092285156,0.023433595895767212,-0.02054092288017273
1772812418673158000,5.828157958984375,-0.11141109466552734,-0.003955811262130737,-0.02159552276134491
1772812418682858800,5.837858642578125,-0.18712806701660156,0.0004315674304962158,-0.02030433714389801
1772812418692559400,5.847559326171875,-0.1709432601928711,0.011168181896209717,-0.020817160606384277
1772812418702260000,5.857260009765625,-0.11381912231445312,0.0483548641204834,0.007856965065002441
1772812418711960600,5.866960693359375,-0.044722557067871094,0.040736258029937744,0.06520326435565948
1772812418721661400,5.876661376953125,0.034934043884277344,0.012612670660018921,0.13624697923660278
1772812418731362000,5.886362060546875,0.10734844207763672,0.022099435329437256,0.13985465466976166
1772812418741062700,5.896062744140625,0.1361865997314453,0.07989692687988281,0.08506760001182556
1772812418750763500,5.905763427734375,0.09513568878173828,0.1289902925491333,0.04949691891670227
1772812418760464100,5.915464111328125,0.0653848648071289,0.14109736680984497,-0.005313009023666382
1772812418770164700,5.925164794921875,0.05378246307373047,0.14258873462677002,-0.06772482395172119
1772812418779865600,5.934865478515625,0.05646514892578125,0.0856756865978241,-0.07537418603897095
1772812418789566200,5.944566162109375,0.09084796905517578,0.02195906639099121,-0.08763404190540314
1772812418799266800,5.954266845703125,0.11051559448242188,-0.03636983036994934,-0.08374080806970596
1772812418808967400,5.963967529296875,0.08628463745117188,-0.07112181186676025,-0.0945332795381546
1772812418818668300,5.973668212890625,0.05065345764160156,-0.11982300877571106,-0.0896381139755249
1772812418828369000,5.983368896484375,-0.01733684539794922,-0.11165207624435425,-0.09449094533920288
1772812418838069500,5.993069580078125,-0.09122562408447266,-0.07924222946166992,-0.11067235469818115
1772812418847770400,6.002770263671875,-0.12150382995605469,-0.05786803364753723,-0.09392863512039185
1772812418857471000,6.012470947265625,-0.1265401840209961,-0.02623957395553589,-0.04617990553379059
1772812418867171800,6.022171875,-0.08439445495605469,-0.01888403296470642,-0.044165655970573425
1772812418876872400,6.03187255859375,-0.04998302459716797,0.0004501640796661377,-0.0100431889295578
1772812418886573000,6.041572998046875,-0.013788223266601562,0.017191946506500244,-0.0011425614356994629
1772812418896274000,6.05127392578125,0.02882099151611328,0.004682779312133789,0.027084946632385254
1772812418905974500,6.060974609375,0.07540130615234375,0.015031129121780396,0.026234224438667297
1772812418915675100,6.070675048828125,0.07063102722167969,0.06369063258171082,-0.008932068943977356
1772812418925376000,6.0803759765625,0.06007575988769531,0.09050559997558594,0.0006569325923919678
1772812418935076600,6.09007666015625,0.01908111572265625,0.08989936113357544,0.030382007360458374
1772812418944777200,6.099777099609375,0.021097183227539062,0.03657931089401245,0.07773688435554504
1772812418954477800,6.109477783203125,0.041909217834472656,0.016033470630645752,0.06661756336688995
1772812418964178700,6.1191787109375,0.052941322326660156,-0.0012782812118530273,0.019074127078056335
1772812418973879300,6.12887939453125,0.01790142059326172,0.013188153505325317,-0.012480750679969788
1772812418983580000,6.138579833984375,0.006964683532714844,0.015268802642822266,-0.01558394730091095
1772812418993280800,6.14828076171875,0.02443695068359375,0.007453292608261108,0.0011448860168457031
1772812419002981400,6.1579814453125,0.02865314483642578,-0.032428205013275146,0.026216059923171997
1772812419012682000,6.167681884765625,0.03747844696044922,-0.024034768342971802,0.038266509771347046
1772812419022382800,6.1773828125,0.003810882568359375,-0.025282204151153564,-0.005808666348457336
1772812419032083500,6.18708349609375,-0.04571819305419922,0.027089059352874756,-0.03139525651931763
1772812419041784000,6.1967841796875,-0.09908199310302734,0.038670510053634644,-0.030907541513442993
1772812419051484700,6.206484619140625,-0.12563514709472656,0.03260651230812073,-0.009984895586967468
1772812419061185500,6.216185546875,-0.1316967010498047,0.01890397071838379,-0.008900567889213562
1772812419070886100,6.22588623046875,-0.1329202651977539,0.0017355680465698242,0.027644634246826172
1772812419080586800,6.235586669921875,-0.049407005310058594,-0.019352465867996216,0.047575950622558594
1772812419090287600,6.24528759765625,0.019739151000976562,-0.014805316925048828,0.06076169013977051
1772812419099988200,6.25498828125,0.08416175842285156,-0.02334439754486084,0.035968273878097534
1772812419109688800,6.264688720703125,0.10983562469482422,-0.02598470449447632,0.0000943988561630249
1772812419119389700,6.2743896484375,0.10447025299072266,-0.02710476517677307,0.011483609676361084
1772812419129090300,6.28409033203125,0.08855724334716797,-0.005690217018127441,0.011468961834907532
1772812419138791000,6.293791015625,0.0869894027709961,-0.019659817218780518,0.016468152403831482
1772812419148491500,6.303491455078125,0.0701608657836914,-0.0536879301071167,0.012313500046730042
1772812419158192400,6.3131923828125,0.03950786590576172,-0.00453987717628479,-0.017794087529182434
1772812419167893000,6.32289306640625,-0.021218299865722656,0.010199248790740967,-0.046745091676712036
1772812419177593600,6.332593505859375,-0.02677631378173828,0.01609089970588684,-0.05687277019023895
1772812419187294500,6.34229443359375,-0.02161884307861328,0.015485018491744995,-0.04732927680015564
1772812419196995000,6.3519951171875,-0.045943260192871094,0.01318901777267456,0.008250400424003601
1772812419206695700,6.36169580078125,-0.02281665802001953,-0.0054038166999816895,0.05438843369483948
1772812419216396500,6.371396484375,-0.038931846618652344,-0.04892846941947937,0.08044998347759247
1772812419226097200,6.38109716796875,-0.013622283935546875,-0.06091564893722534,0.08189427852630615
1772812419235797800,6.3907978515625,-0.0005016326904296875,-0.031024128198623657,0.055274397134780884
1772812419245498400,6.400498291015625,-0.007605552673339844,0.01084241271018982,0.05208435654640198
1772812419255199200,6.41019921875,-0.042815208435058594,-0.02081775665283203,0.03922182321548462
1772812419264899800,6.41989990234375,-0.06680488586425781,-0.037689656019210815,0.09137152135372162
1772812419274600400,6.429600341796875,-0.10447025299072266,0.005303293466567993,0.09081333875656128
1772812419284301300,6.43930126953125,-0.09793472290039062,0.03537294268608093,0.07254855334758759
1772812419294002000,6.449001953125,-0.06441402435302734,0.036602020263671875,0.024191543459892273
1772812419303702500,6.45870263671875,0.006215095520019531,0.06160899996757507,-0.019026964902877808
1772812419313403400,6.4684033203125,0.05800056457519531,0.06789380311965942,-0.05236057937145233
1772812419323104000,6.47810400390625,0.08890056610107422,0.017604559659957886,-0.045907407999038696
1772812419332804600,6.4878046875,0.08512592315673828,-0.03340333700180054,-0.050913020968437195
1772812419342505500,6.49750537109375,0.05198860168457031,-0.07370293140411377,-0.048183783888816833
1772812419352206000,6.5072060546875,0.01821422576904297,-0.0760190486907959,-0.050169363617897034
1772812419361906700,6.51690673828125,-0.017347335815429688,-0.0685928463935852,-0.06829436123371124
1772812419371607600,6.526607666015625,-0.009954452514648438,-0.0550878643989563,-0.06114150583744049
1772812419381308200,6.53630810546875,0.014936447143554688,-0.06653574109077454,-0.04357898235321045
1772812419391008800,6.5460087890625,0.024087905883789062,-0.047405630350112915,-0.0039745718240737915
1772812419400709600,6.555709716796875,0.062473297119140625,-0.04223194718360901,0.03261697292327881
1772812419410410200,6.56541015625,0.0637350082397461,-0.04853779077529907,0.00658021867275238
1772812419420110800,6.57511083984375,0.0567626953125,-0.03358811140060425,-0.02135714888572693
1772812419429811700,6.584811767578125,-0.014779090881347656,-0.005757927894592285,-0.05289289355278015
1772812419449213000,6.604212890625,-0.05715370178222656,0.02176937460899353,-0.03133074939250946
1772812419458913500,6.61391357421875,-0.05609607696533203,0.014672726392745972,0.0031088441610336304
1772812419468614400,6.623614501953125,-0.026818275451660156,0.0009700357913970947,0.03627088665962219
1772812419478315000,6.63331494140625,0.01606273651123047,0.02336081862449646,0.033851832151412964
1772812419488015600,6.643015625,0.04525566101074219,0.022057265043258667,0.011209681630134583
1772812419497716500,6.652716552734375,0.043326377868652344,0.02047988772392273,-0.006742715835571289
1772812419507417000,6.6624169921875,0.032004356384277344,0.049878209829330444,-0.01111692190170288
1772812419517117700,6.67211767578125,0.02322101593017578,0.07233798503875732,-0.0033551454544067383
1772812419526818300,6.681818359375,-0.005406379699707031,0.05805256962776184,0.039347946643829346
1772812419536519200,6.691519287109375,-0.040619850158691406,0.04684716463088989,0.07069966197013855
1772812419546219800,6.7012197265625,-0.05408287048339844,0.03313034772872925,0.09518848359584808
1772812419555920400,6.71092041015625,-0.02968120574951172,0.0013177096843719482,0.08170203864574432
1772812419565621200,6.720621337890625,-0.013910293579101562,-0.016772687435150146,0.04014083743095398
1772812419575321900,6.73032177734375,-0.00424957275390625,-0.013094842433929443,-0.027732327580451965
1772812419585022500,6.7400224609375,-0.024139404296875,0.0012688636779785156,-0.04109223186969757
1772812419594723300,6.749723388671875,-0.02956104278564453,-0.004510283470153809,-0.04200495779514313
1772812419614124500,6.76912451171875,-0.03303241729736328,-0.03513038158416748,-0.003717675805091858
1772812419623825200,6.7788251953125,-0.014779090881347656,-0.020255595445632935,0.035014063119888306
1772812419633526000,6.788526123046875,0.02901172637939453,-0.007220238447189331,0.07534913718700409
1772812419643226600,6.7982265625,0.022597312927246094,-0.019819647073745728,0.1379735916852951
1772812419652927200,6.80792724609375,0.008027076721191406,-0.05347713828086853,0.10300582647323608
1772812419662628000,6.817628173828125,-0.01922607421875,-0.048767149448394775,0.0635254979133606
1772812419672328700,6.82732861328125,-0.022454261779785156,0.00546535849571228,-0.06987664103507996
1772812419682029300,6.837029296875,-0.018510818481445312,0.05567273497581482,-0.1489906907081604
1772812419691730000,6.84672998046875,-0.02634143829345703,0.07527908682823181,-0.1561543494462967
1772812419701430800,6.8564306640625,-0.05636882781982422,0.027076900005340576,-0.11602283269166946
1772812419711131400,6.86613134765625,-0.041167259216308594,-0.0005100667476654053,-0.06977662444114685
1772812419720832300,6.875832275390625,-0.02154254913330078,-0.0344490110874176,-0.016507074236869812
1772812419730532900,6.885532958984375,0.038906097412109375,-0.05981764197349548,0.003916814923286438
1772812419740233500,6.8952333984375,0.11948013305664062,-0.06500193476676941,-0.02365116775035858
1772812419749934300,6.904934326171875,0.15159988403320312,-0.050787270069122314,-0.06373083591461182
1772812419759635000,6.914635009765625,0.17842578887939453,-0.0361153781414032,-0.09446816146373749
1772812419769335600,6.92433544921875,0.13652610778808594,-0.02753657102584839,-0.10944186896085739
1772812419779036400,6.934036376953125,0.08939743041992188,-0.0045805275440216064,-0.08938058465719223
1772812419788737000,6.943737060546875,0.01717090606689453,0.013299733400344849,-0.06713047623634338
1772812419798437600,6.953437744140625,-0.06558704376220703,0.0007981359958648682,-0.011542990803718567
1772812419808138200,6.96313818359375,-0.13163089752197266,-0.0035197436809539795,0.039319783449172974
1772812419817839000,6.972839111328125,-0.144775390625,-0.026797622442245483,0.09659649431705475
1772812419827539700,6.982539794921875,-0.14473915100097656,-0.01376032829284668,0.08845622837543488
1772812419837240300,6.992240234375,-0.10462665557861328,0.03126174211502075,0.03859153389930725
1772812419846941200,7.001941162109375,-0.08512687683105469,0.07679659128189087,-0.013157203793525696
1772812419856641800,7.011641845703125,-0.040035247802734375,0.10350844264030457,-0.026546433568000793
1772812419866342400,7.02134228515625,-0.014498710632324219,0.07735657691955566,-0.009096890687942505
1772812419876043000,7.03104296875,-0.005875587463378906,0.014880627393722534,0.029594749212265015
1772812419885743900,7.040743896484375,0.03197765350341797,-0.048625409603118896,0.07956987619400024
1772812419895444500,7.050444580078125,0.050324440002441406,-0.08892488479614258,0.09443564713001251
1772812419905145000,7.06014501953125,0.04714012145996094,-0.12490981817245483,0.07048231363296509
1772812419914846000,7.069845947265625,0.05690193176269531,-0.09640678763389587,0.02884925901889801
1772812419924546600,7.079546630859375,0.031197547912597656,-0.06273925304412842,0.007992342114448547
1772812419934247200,7.0892470703125,0.029478073120117188,-0.04110485315322876,-0.024048805236816406
1772812419943948000,7.098947998046875,0.013701438903808594,-0.008804947137832642,-0.05379961431026459
1772812419953648600,7.108648681640625,-0.005318641662597656,0.019920021295547485,-0.0361141711473465
1772812419963349200,7.118349365234375,-0.020483970642089844,0.00030100345611572266,-0.01966969668865204
1772812419973049900,7.1280498046875,-0.024806976318359375,-0.01762118935585022,0.02515074610710144
1772812419982750700,7.137750732421875,-0.010235786437988281,-0.009307265281677246,0.04003584384918213
1772812419992451300,7.147451416015625,0.015867233276367188,0.035426586866378784,0.02492712438106537
1772812420002152000,7.15715185546875,0.023897171020507812,0.06190350651741028,0.018094345927238464
1772812420011852800,7.166852783203125,0.00121307373046875,0.06827536225318909,0.02932599186897278
1772812420021553400,7.176553466796875,0.009478569030761719,0.07312887907028198,0.05254141986370087
1772812420031254000,7.18625390625,0.01876544952392578,0.05992919206619263,0.06018921732902527
1772812420040954600,7.19595458984375,0.044341087341308594,0.03564262390136719,0.05707181990146637
1772812420050655500,7.205655517578125,0.02594280242919922,0.023069769144058228,0.026857897639274597
1772812420060356000,7.215356201171875,0.02781391143798828,-0.008942335844039917,0.019691869616508484
1772812420070056700,7.225056640625,0.017884254455566406,-0.015975356101989746,0.00644075870513916
1772812420079757600,7.234757568359375,0.021062850952148438,-0.0089968740940094,-0.021210268139839172
1772812420089458200,7.244458251953125,0.027713775634765625,-0.00800621509552002,-0.021092712879180908
1772812420099158800,7.25415869140625,-0.0045719146728515625,-0.007827460765838623,-0.003659069538116455
1772812420108859600,7.263859619140625,-0.026885986328125,-0.017583519220352173,0.002068653702735901
1772812420118560300,7.273560302734375,-0.06644248962402344,-0.029801130294799805,-0.007540002465248108
1772812420128260900,7.2832607421875,-0.09705352783203125,-0.02085047960281372,-0.01270546019077301
1772812420137961700,7.292961669921875,-0.1353473663330078,-0.005396783351898193,-0.03842601180076599
1772812420147662300,7.302662353515625,-0.10709476470947266,0.0030260682106018066,-0.021953687071800232
1772812420157363000,7.312363037109375,-0.07812690734863281,-0.040599942207336426,-0.012377813458442688
1772812420167063800,7.322063720703125,-0.013201713562011719,-0.06426364183425903,-0.012401118874549866
1772812420176764400,7.331764404296875,0.029443740844726562,-0.02904510498046875,-0.008546128869056702
1772812420186465000,7.341465087890625,0.058414459228515625,0.0028348565101623535,0.002638593316078186
1772812420196166000,7.351165771484375,0.06570816040039062,0.0022981464862823486,0.014187723398208618
1772812420205866500,7.360866455078125,0.05758476257324219,0.02081659436225891,0.0038062185049057007
1772812420215567000,7.370567138671875,0.06960201263427734,0.049777209758758545,0.03013770282268524
1772812420225267700,7.380267822265625,0.08845806121826172,0.04482555389404297,0.017079070210456848
1772812420234968600,7.389968505859375,0.1081399917602539,0.04154670238494873,0.005674481391906738
1772812420244669200,7.399669189453125,0.10037803649902344,0.03007844090461731,0.011253207921981812
1772812420254369800,7.409369873046875,0.07507133483886719,0.0203607976436615,-0.011835157871246338
1772812420264070700,7.419070556640625,0.03841114044189453,0.007968157529830933,-0.029028475284576416
1772812420273771300,7.428771240234375,-0.015263557434082031,0.005537867546081543,-0.032262980937957764
1772812420283472000,7.438471923828125,-0.058585166931152344,0.027528703212738037,-0.024159789085388184
1772812420293172500,7.44817236328125,-0.09053421020507812,0.02816098928451538,-0.031797558069229126
1772812420302873300,7.457873291015625,-0.08194828033447266,0.0024688243865966797,0.002154052257537842
1772812420312574000,7.467573974609375,-0.0699911117553711,0.0069644153118133545,0.02873791754245758
1772812420322274600,7.477274658203125,-0.025322914123535156,-0.012797504663467407,0.04569120705127716
1772812420331975400,7.486975341796875,0.012689590454101562,-0.006292611360549927,0.08144943416118622
1772812420341676000,7.496676025390625,0.013586044311523438,0.006315320730209351,0.0907469391822815
1772812420351376600,7.506376708984375,-0.023154258728027344,0.011720389127731323,0.07647813856601715
1772812420361077200,7.5160771484375,-0.046280860900878906,0.03833624720573425,0.04560387134552002
1772812420370778000,7.525778076171875,-0.07600784301757812,0.06647524237632751,-0.005482882261276245
1772812420380478700,7.535478759765625,-0.06635856628417969,0.061968207359313965,-0.032344669103622437
1772812420390179300,7.545179443359375,-0.042725563049316406,0.061096251010894775,-0.04459172487258911
1772812420399880200,7.554880126953125,-0.004193305969238281,0.061751991510391235,0.03138120472431183
1772812420409580800,7.564580810546875,0.08776664733886719,0.0437336266040802,0.13816800713539124
1772812420419281400,7.574281494140625,0.2134084701538086,-0.005828350782394409,0.20201261341571808
1772812420428982000,7.58398193359375,0.27564144134521484,-0.1259429156780243,0.10507455468177795
1772812420438683000,7.593682861328125,0.27435874938964844,-0.1286945641040802,-0.01471671462059021
1772812420448383500,7.603383544921875,0.2412261962890625,-0.06824392080307007,-0.1315031349658966
1772812420458084000,7.613083984375,0.206268310546875,-0.014987200498580933,-0.15114836394786835
1772812420467785000,7.622784912109375,0.15776824951171875,0.020760059356689453,-0.11699402332305908
1772812420477485600,7.632485595703125,0.045393943786621094,-0.012355566024780273,-0.06541293859481812
1772812420487186200,7.642186279296875,0.087860107421875,-0.05006101727485657,-0.09110477566719055
1772812420496887000,7.651886962890625,0.051921844482421875,-0.09757813811302185,-0.1225023865699768
1772812420506587600,7.661587646484375,-0.03872489929199219,-0.09409826993942261,-0.08111908286809921
1772812420516288300,7.671288330078125,0.020377159118652344,-0.01721489429473877,-0.0876334086060524
1772812420535689700,7.690689697265625,-0.04586315155029297,0.03900796175003052,-0.014865890145301819
1772812420545390300,7.700390380859375,-0.07117462158203125,0.010165125131607056,0.022037401795387268
1772812420555091200,7.71009130859375,-0.05248069763183594,-0.023823410272598267,-0.0264519602060318
1772812420564791800,7.719791748046875,-0.10931587219238281,-0.04780763387680054,-0.055964455008506775
1772812420574492400,7.729492431640625,-0.1310863494873047,-0.030014783143997192,-0.020224004983901978
1772812420584193000,7.739193115234375,-0.0701742172241211,-0.006504327058792114,0.00862187147140503
1772812420593894000,7.748893798828125,-0.010347366333007812,-0.00512656569480896,0.014590620994567871
1772812420603594500,7.758594482421875,0.06251239776611328,0.009350985288619995,0.04344303905963898
1772812420613295000,7.768295166015625,0.07761669158935547,-0.04823818802833557,0.018620990216732025
1772812420622996000,7.777995849609375,0.035984039306640625,-0.0020445585250854492,0.015461459755897522
1772812420632696600,7.787696533203125,-0.07079505920410156,0.052987247705459595,0.0197165384888649
1772812420642397200,7.797397216796875,-0.13924789428710938,0.02197280526161194,-0.009330213069915771
1772812420652097800,7.807097900390625,-0.26291751861572266,0.014101624488830566,0.0038434192538261414
1772812420661798700,7.816798583984375,-0.32677459716796875,0.005918532609939575,-0.04493413865566254
1772812420671499300,7.826499267578125,-0.38353919982910156,0.03800031542778015,-0.07223303616046906
1772812420681199900,7.836199951171875,-0.3427724838256836,0.040133148431777954,-0.10677964240312576
1772812420690900700,7.845900634765625,-0.272003173828125,0.004214644432067871,-0.11442509293556213
1772812420700601300,7.855601318359375,-0.20703697204589844,-0.02042001485824585,-0.10895752906799316
1772812420710302000,7.865302001953125,-0.1678333282470703,-0.007912755012512207,-0.037615761160850525
1772812420720002600,7.87500244140625,-0.10226821899414062,-0.02337425947189331,0.06552596390247345
1772812420729703400,7.884703369140625,-0.0237579345703125,-0.039296090602874756,0.1475326120853424
1772812420739404000,7.894404052734375,0.15215110778808594,-0.014773696660995483,0.19668881595134735
1772812420749104600,7.904104736328125,0.20148563385009766,0.021254539489746094,0.19179470837116241
1772812420758805500,7.913805419921875,0.24993515014648438,0.08499079942703247,0.19177870452404022
1772812420768506000,7.923506103515625,0.20815753936767578,0.1317444145679474,0.1829797327518463
1772812420778206700,7.933206787109375,0.18706417083740234,0.09561771154403687,0.1520695984363556
1772812420787907300,7.9429072265625,0.08394908905029297,0.058520227670669556,0.12190592288970947
1772812420807308800,7.962308837890625,0.010172843933105469,0.06648808717727661,-0.05243271589279175
1772812420817009400,7.972009521484375,-0.029855728149414062,0.05185762047767639,-0.08655137568712234
1772812420826710300,7.981710205078125,-0.08921146392822266,-0.03710561990737915,-0.0789514034986496
1772812420836411000,7.991410888671875,-0.06876277923583984,-0.08480077981948853,-0.0666351169347763
1772812420846111500,8.001111572265625,0.010119438171386719,-0.08748114109039307,-0.038488417863845825
1772812420855812400,8.010812255859374,0.04877662658691406,-0.09510824084281921,0.016792774200439453
1772812420865513000,8.020512939453125,0.07848453521728516,-0.11839771270751953,0.04213564097881317
1772812420875213600,8.030213623046874,0.08767509460449219,-0.06749191880226135,0.02171531319618225
1772812420884914400,8.03991455078125,0.006146430969238281,0.01830950379371643,-0.0032447874546051025
1772812420894615000,8.049614990234375,-0.032779693603515625,0.04837039113044739,-0.03642141819000244
1772812420904315600,8.059315673828126,-0.10040855407714844,0.06890261173248291,-0.05870884656906128
1772812420914016500,8.0690166015625,-0.10330867767333984,0.0626194179058075,-0.05759558081626892
1772812420923717000,8.078717041015626,-0.03670024871826172,0.08045011758804321,-0.047500818967819214
1772812420933417700,8.088417724609375,0.026424407958984375,0.048058658838272095,0.00037935376167297363
1772812420943118300,8.098118408203124,0.09431648254394531,-0.04834607243537903,0.03122156858444214
1772812420952819200,8.107819091796875,0.16214752197265625,-0.10409894585609436,0.05922211706638336
1772812420962519800,8.117519775390624,0.17347335815429688,-0.0982699990272522,0.06166607141494751
1772812420972220400,8.127220458984375,0.1280841827392578,-0.08855712413787842,0.004394397139549255
1772812420991622000,8.146621826171875,-0.04052257537841797,0.0141468346118927,-0.03735096752643585
1772812421001322500,8.156322509765625,-0.0939779281616211,0.05113270878791809,-0.03571192920207977
1772812421011023000,8.166023193359376,-0.13826847076416016,0.0349431037902832,0.008124113082885742
1772812421020724000,8.175723876953125,-0.07473564147949219,0.0030739009380340576,0.05435669422149658
1772812421030424600,8.185424560546876,-0.04639244079589844,-0.006464868783950806,0.05241844058036804
1772812421040125200,8.195125244140625,-0.07145404815673828,0.01347699761390686,0.041615769267082214
1772812421049825800,8.20482568359375,-0.05133819580078125,0.057524800300598145,0.00885862112045288
1772812421059526700,8.214526611328125,-0.08328437805175781,0.07718688249588013,-0.003283202648162842
1772812421069227300,8.224227294921874,-0.08171844482421875,0.08373641967773438,0.00540471076965332
1772812421078928000,8.233927978515625,-0.051914215087890625,0.07824662327766418,0.02402380108833313
1772812421088628700,8.243628662109375,-0.0038080215454101562,0.05025935173034668,0.053752198815345764
1772812421098329300,8.253329345703126,0.026993751525878906,0.009082198143005371,0.03980860114097595
1772812421108030000,8.263030029296875,0.07018756866455078,-0.008172273635864258,-0.002004295587539673
1772812421117730600,8.27273046875,0.12322616577148438,-0.023192286491394043,-0.009830594062805176
1772812421127431400,8.282431396484375,0.11180496215820312,-0.03125688433647156,-0.047591432929039
1772812421137132000,8.292132080078124,0.06405353546142578,-0.0623818039894104,-0.05326831340789795
1772812421146832600,8.30183251953125,0.02651214599609375,-0.04162970185279846,-0.026892364025115967
1772812421156533500,8.311533447265624,0.027251243591308594,-0.05020737648010254,-0.025202974677085876
1772812421166234000,8.321234130859375,0.0020904541015625,-0.06783273816108704,-0.06987529993057251
1772812421175934700,8.330934814453125,-0.01675701141357422,-0.04353022575378418,-0.061718910932540894
1772812421185635600,8.340635498046876,-0.0023565292358398438,-0.030299127101898193,-0.05578292906284332
1772812421195336200,8.350336181640625,0.0023736953735351562,-0.04967483878135681,-0.06448520720005035
1772812421205036800,8.360036865234376,0.010562896728515625,-0.015001147985458374,-0.08598582446575165
1772812421214737700,8.369737548828125,-0.007256507873535156,0.035634845495224,-0.07102667540311813
1772812421224438300,8.379438232421874,-0.04360389709472656,0.024736404418945312,-0.041169896721839905
1772812421234139000,8.389138916015625,-0.03344535827636719,0.0054534971714019775,0.019703298807144165
1772812421243839700,8.39883984375,-0.009337425231933594,0.004278033971786499,0.030371040105819702
1772812421253540400,8.408540283203125,0.016722679138183594,0.006333589553833008,0.022491738200187683
1772812421263241000,8.418240966796875,0.03058910369873047,0.014844954013824463,0.0002963244915008545
1772812421272941600,8.427941650390625,0.006591796875,0.022880256175994873,-0.03357803821563721
1772812421282642400,8.437642333984375,-0.035828590393066406,0.01655706763267517,-0.023599594831466675
1772812421292343000,8.447343017578126,-0.07516098022460938,0.009988188743591309,-0.008846655488014221
1772812421302043600,8.457043701171875,-0.026781082153320312,-0.011163920164108276,0.004738077521324158
1772812421311744500,8.46674462890625,-0.013360977172851562,-0.024906963109970093,0.06587214767932892
1772812421321445000,8.476445068359375,0.1056680679321289,-0.04544937610626221,0.0732448548078537
1772812421331145700,8.486145751953124,0.16266822814941406,-0.02120310068130493,0.06909975409507751
1772812421340846300,8.495846435546875,0.19161510467529297,0.016450941562652588,0.023093387484550476
1772812421350547200,8.505547119140624,0.12004947662353516,0.056506961584091187,0.010153427720069885
1772812421360247800,8.515247802734375,0.035567283630371094,0.06704190373420715,-0.015908658504486084
1772812421369948400,8.524948486328125,-0.03339385986328125,0.06598567962646484,-0.002877533435821533
1772812421379649000,8.53464892578125,-0.08001232147216797,0.02413073182106018,0.055828869342803955
1772812421389350000,8.544349853515625,-0.09758281707763672,0.014193326234817505,0.07521393895149231
1772812421399050500,8.554050537109376,-0.11833763122558594,0.008638143539428711,0.0718347430229187
1772812421408751000,8.563751220703125,-0.14571666717529297,0.030858755111694336,0.01231241226196289
1772812421418452000,8.573451904296874,-0.13610172271728516,0.07094225287437439,-0.030882343649864197
1772812421428152600,8.583152587890625,-0.08072757720947266,0.052818894386291504,-0.026631325483322144
1772812421437853200,8.592853271484374,0.004307746887207031,0.01509276032447815,-0.0349455326795578
1772812421447553800,8.6025537109375,0.0749216079711914,-0.019966721534729004,-0.03928843140602112
1772812421457254700,8.612254638671875,0.15371131896972656,-0.03510081768035889,-0.02322082221508026
1772812421466955300,8.621955322265626,0.1593341827392578,-0.07583212852478027,-0.021928414702415466
1772812421476655900,8.63165576171875,0.11541557312011719,-0.0627550482749939,-0.028997093439102173
1772812421486356700,8.641356689453126,0.04632568359375,-0.031202077865600586,-0.030335858464241028
1772812421496057300,8.651057373046875,-0.0016117095947265625,-0.01610100269317627,-0.010476276278495789
1772812421505758000,8.660758056640624,-0.011105537414550781,-0.023159384727478027,0.029048293828964233
1772812421515458800,8.670458740234375,0.0030670166015625,-0.01137632131576538,0.07946167886257172
1772812421525159400,8.680159423828124,0.03581523895263672,0.009066104888916016,0.06610393524169922
1772812421534860000,8.689860107421875,0.049210548400878906,0.005261063575744629,0.030128180980682373
1772812421544561000,8.699560791015625,-0.02346324920654297,0.048002392053604126,0.002291247248649597
1772812421554261500,8.709261474609375,-0.0913238525390625,0.05998051166534424,-0.018335193395614624
1772812421563962000,8.718962158203125,-0.1403360366821289,0.032522499561309814,-0.032424360513687134
1772812421573662700,8.728662841796876,-0.16964244842529297,0.0414620041847229,-0.03421075642108917
1772812421583363600,8.738363525390625,-0.10547828674316406,0.023838937282562256,-0.0013375580310821533
1772812421593064200,8.748064208984376,-0.06475353240966797,-0.018862515687942505,0.018736764788627625
1772812421602764800,8.757764892578125,0.01055145263671875,-0.029200494289398193,0.036302417516708374
1772812421612465700,8.767465576171874,0.028090476989746094,-0.02871650457382202,0.04864661395549774
1772812421622166300,8.777166259765625,0.06645679473876953,-0.03391185402870178,0.03941865265369415
1772812421631867000,8.786866943359374,0.07584285736083984,-0.04679971933364868,0.03910663723945618
1772812421641567500,8.7965673828125,0.1532602310180664,-0.045961350202560425,-0.0002292543649673462
1772812421651268400,8.806268310546875,0.17287158966064453,-0.004644602537155151,-0.06296446919441223
1772812421660969000,8.815968994140626,0.13213634490966797,0.006386488676071167,-0.047528937458992004
1772812421670669600,8.825669677734375,0.08382511138916016,-0.03188791871070862,-0.02701793611049652
1772812421680370200,8.8353701171875,-0.02838897705078125,-0.033993303775787354,-0.02933177351951599
1772812421690071000,8.845071044921875,-0.01395416259765625,-0.038011521100997925,-0.0579548105597496
1772812421699771600,8.854771728515624,-0.007918357849121094,0.051695019006729126,-0.1110200583934784
1772812421709472300,8.86447216796875,-0.0913076400756836,0.0785631537437439,-0.057712048292160034
1772812421719173000,8.874173095703124,-0.16851806640625,0.007186174392700195,-0.013545811176300049
1772812421728873700,8.883873779296875,-0.18317317962646484,0.04843825101852417,0.012483298778533936
1772812421748275000,8.90327490234375,-0.1067667007446289,0.037973225116729736,0.017369836568832397
1772812421757975800,8.912975830078125,-0.050574302673339844,0.010434478521347046,0.035568878054618835
1772812421767676400,8.922676513671876,0.08229255676269531,0.030177682638168335,0.02278757095336914
