time,seconds_elapsed,z,y,x
1772812412940048100,0.095048095703125,0.00022907429956831038,-0.01626427471637726,-0.026190826669335365
1772812412949748700,0.104748779296875,0.002672533504664898,-0.024510949850082397,-0.03962985426187515
1772812412959449600,0.11444970703125,-0.003741546766832471,-0.010766491293907166,-0.04085158184170723
1772812412969150200,0.124150146484375,-0.007406735327094793,0.003283398225903511,-0.02741255611181259
1772812412978850800,0.133850830078125,-0.009850194677710533,0.00603228947147727,-0.004810560029000044
1772812412988551700,0.1435517578125,-0.00954476185142994,-0.0012980876490473747,0.018096869811415672
1772812412998252300,0.153252197265625,-0.003741546766832471,-0.008628465235233307,0.039477135986089706
1772812413007953000,0.162952880859375,-0.0009926552884280682,-0.0031306820455938578,0.061162836849689484
1772812413017653800,0.17265380859375,-0.004352411720901728,-0.008628465235233307,0.06910407543182373
1772812413027354400,0.182354248046875,-0.011988221667706966,-0.008933897130191326,0.06696604937314987
1772812413037055200,0.19205517578125,-0.02023489587008953,-0.006185005884617567,0.04833467677235603
1772812413046755800,0.201755859375,-0.01626427471637726,0.004810560029000044,0.022678354755043983
1772812413056456400,0.21145654296875,0.0005345066892914474,0.021914774551987648,-0.006337722297757864
1772812413066157300,0.2211572265625,0.012140937149524689,0.022220205515623093,-0.027107125148177147
1772812413075858000,0.23085791015625,0.009697478264570236,0.012751801870763302,-0.03138317912817001
1772812413085558500,0.24055859375,0.007864884100854397,0.002672533504664898,-0.03260490670800209
1772812413095259400,0.25025927734375,0.013362666592001915,0.0029779658652842045,-0.02588539570569992
1772812413104960000,0.2599599609375,0.010919207707047462,0.004199695307761431,-0.010613775812089443
1772812413114660600,0.26966064453125,-0.0006872228696011007,-0.007101302966475487,0.0058795735239982605
1772812413124361500,0.279361572265625,-0.0009926552884280682,0.004505127668380737,0.027259841561317444
1772812413134062000,0.28906201171875,0.004810560029000044,-0.003741546766832471,0.0345902182161808
1772812413143762700,0.2987626953125,0.006948587018996477,-0.010766491293907166,0.03520108386874199
1772812413153463600,0.308463623046875,0.004505127668380737,-0.0034361144062131643,0.026343543082475662
1772812413163164200,0.3181640625,0.004199695307761431,0.01000291109085083,0.018402300775051117
1772812413172864800,0.32786474609375,0.002672533504664898,0.020387612283229828,0.008323032408952713
1772812413182565600,0.337565673828125,0.001450803829357028,0.014584396965801716,0.0006872228696011007
1772812413192266200,0.347266357421875,0.0057268571108579636,0.007254019379615784,-0.002672533504664898
1772812413201967000,0.356967041015625,0.00511599238961935,-0.0031306820455938578,-0.012751801870763302
1772812413211667700,0.366667724609375,-0.0019089524867013097,-0.008323032408952713,-0.0191658828407526
1772812413221368300,0.376368408203125,-0.00679587060585618,-0.0077121676877141,-0.024663666263222694
1772812413231069200,0.386069091796875,-0.008323032408952713,-0.011377356946468353,-0.02741255611181259
1772812413240769800,0.395769775390625,-0.012293653562664986,-0.015958841890096664,-0.028634287416934967
1772812413250470400,0.405470458984375,-0.01259908638894558,-0.00007635809743078426,-0.026190826669335365
1772812413260171300,0.415171142578125,-0.008323032408952713,0.022220205515623093,-0.012140937149524689
1772812413269871900,0.424871826171875,-0.008323032408952713,0.024052800610661507,0.006185005884617567
1772812413279572500,0.434572509765625,-0.008933897130191326,0.01824958436191082,0.02695440873503685
1772812413289273300,0.4442734375,-0.006185005884617567,0.012446369975805283,0.049861837178468704
1772812413298974000,0.453973876953125,-0.007101302966475487,0.0057268571108579636,0.05719221383333206
1772812413308674600,0.463674560546875,-0.0022143847309052944,0.00603228947147727,0.06085740402340889
1772812413318375400,0.47337548828125,0.0017562361899763346,0.00755945174023509,0.053832460194826126
1772812413328076000,0.483075927734375,0.004505127668380737,0.001450803829357028,0.03764454275369644
1772812413337777000,0.49277685546875,0.007864884100854397,-0.004046979360282421,0.015958841890096664
1772812413347477500,0.5024775390625,0.012446369975805283,-0.0025198173243552446,-0.006948587018996477
1772812413357178000,0.51217822265625,0.01611155830323696,0.002672533504664898,-0.02802342176437378
1772812413366879000,0.52187890625,0.014278964139521122,0.00511599238961935,-0.039018988609313965
1772812413376579600,0.53157958984375,0.010613775812089443,0.007254019379615784,-0.042684175074100494
1772812413386280200,0.5412802734375,0.00847574882209301,0.011530072428286076,-0.03565923124551773
1772812413395981000,0.55098095703125,0.0035888305865228176,0.000839939049910754,-0.020998476073145866
1772812413405681700,0.560681640625,-0.006490438245236874,-0.0077121676877141,0.0025198173243552446
1772812413415382300,0.57038232421875,-0.011988221667706966,-0.014431680552661419,0.022678354755043983
1772812413425083100,0.580083251953125,-0.01259908638894558,-0.017486004158854485,0.03306305781006813
1772812413434783700,0.58978369140625,-0.011377356946468353,-0.011377356946468353,0.02909243479371071
1772812413444484400,0.599484375,-0.007406735327094793,0.004505127668380737,0.019013166427612305
1772812413454185200,0.609185302734375,-0.005574141163378954,0.0066431546583771706,0.0016035200096666813
1772812413463885800,0.6188857421875,-0.005574141163378954,0.003283398225903511,-0.011530072428286076
1772812413473586700,0.628586669921875,-0.006185005884617567,0.004199695307761431,-0.022525638341903687
1772812413483287300,0.638287353515625,-0.010766491293907166,0.010613775812089443,-0.02741255611181259
1772812413492988000,0.64798779296875,-0.01718057133257389,0.014584396965801716,-0.02741255611181259
1772812413502688800,0.657688720703125,-0.016569707542657852,0.015500693581998348,-0.023136503994464874
1772812413512389400,0.667389404296875,-0.013209951110184193,0.010613775812089443,-0.013973532244563103
1772812413522090000,0.677090087890625,-0.012293653562664986,-0.0022143847309052944,-0.00603228947147727
1772812413531790800,0.686790771484375,-0.014737112447619438,-0.01870773360133171,-0.003894262947142124
1772812413541491500,0.696491455078125,-0.01565340906381607,-0.02542724646627903,-0.0023671009112149477
1772812413551192000,0.706192138671875,-0.016569707542657852,-0.019929463043808937,-0.002672533504664898
1772812413560893000,0.715892822265625,-0.018096869811415672,-0.009850194677710533,-0.00847574882209301
1772812413570593500,0.725593505859375,-0.013209951110184193,0.003894262947142124,-0.01977674663066864
1772812413580294100,0.735294189453125,0.002672533504664898,0.00603228947147727,-0.030161447823047638
1772812413589995000,0.7449951171875,0.018860450014472008,-0.004963276442140341,-0.03413207083940506
1772812413599695600,0.754695556640625,0.03260490670800209,0.004199695307761431,-0.020387612283229828
1772812413609396200,0.764396240234375,0.020998476073145866,0.009697478264570236,-0.009697478264570236
1772812413619097000,0.77409716796875,-0.0019089524867013097,0.010919207707047462,0.00038179047987796366
1772812413628797700,0.783797607421875,-0.023594651371240616,0.01824958436191082,0.004657844081521034
1772812413638498600,0.79349853515625,-0.036422811448574066,0.03565923124551773,0.004963276442140341
1772812413648199200,0.80319921875,-0.043142326176166534,0.053985174745321274,0.008323032408952713
1772812413657899800,0.812899658203125,-0.05199986323714256,0.0628427118062973,0.017486004158854485
1772812413667600600,0.8226005859375,-0.061162836849689484,0.06864593178033829,0.02695440873503685
1772812413677301200,0.83230126953125,-0.060551971197128296,0.057039499282836914,0.04283689334988594
1772812413687001900,0.842001953125,-0.053832460194826126,0.030466880649328232,0.05230529606342316
1772812413696702700,0.85170263671875,-0.03428478538990021,0.008170315995812416,0.04711294546723366
1772812413706403300,0.8614033203125,-0.0009926552884280682,0.01763872057199478,0.03581194952130318
1772812413716104000,0.87110400390625,0.0066431546583771706,-0.0019089524867013097,0.01259908638894558
1772812413725804800,0.8808046875,-0.00007635809743078426,0.011224640533328056,-0.001450803829357028
1772812413735505400,0.89050537109375,-0.01565340906381607,0.020082179456949234,-0.006948587018996477
1772812413745206000,0.9002060546875,-0.028787001967430115,0.01611155830323696,-0.008170315995812416
1772812413754907000,0.909906982421875,-0.026343543082475662,0.001450803829357028,-0.007864884100854397
1772812413764607500,0.919607421875,-0.005574141163378954,-0.008323032408952713,-0.0057268571108579636
1772812413784009000,0.939009033203125,0.0319940410554409,0.0023671009112149477,-0.000839939049910754
1772812413793709600,0.94870947265625,0.033826638013124466,0.010613775812089443,0.009850194677710533
1772812413803410400,0.958410400390625,0.03168861195445061,0.012140937149524689,0.026343543082475662
1772812413813111000,0.968111083984375,0.0295505840331316,0.008170315995812416,0.044669486582279205
1772812413822811600,0.977811767578125,0.03107774630188942,-0.0016035200096666813,0.05688678100705147
1772812413832512500,0.987512451171875,0.03535379841923714,-0.008933897130191326,0.06421715766191483
1772812413842213000,0.997213134765625,0.03657552972435951,-0.00923932995647192,0.06268999725580215
1772812413851913700,1.006913818359375,0.036880962550640106,-0.0012980876490473747,0.05474875494837761
1772812413861614600,1.016614501953125,0.03993528336286545,0.007254019379615784,0.043142326176166534
1772812413871315200,1.026315185546875,0.03810269013047218,0.009697478264570236,0.029703300446271896
1772812413881015800,1.036015869140625,0.03260490670800209,0.008170315995812416,0.0193185992538929
1772812413890716700,1.045716552734375,0.023136503994464874,0.00022907429956831038,0.011682788841426373
1772812413900417300,1.055417236328125,0.012446369975805283,-0.0016035200096666813,0.002825249684974551
1772812413910118000,1.065117919921875,0.00847574882209301,0.004505127668380737,-0.009086613543331623
1772812413919818800,1.07481884765625,0.008170315995812416,0.007864884100854397,-0.020082179456949234
1772812413929519400,1.084519287109375,0.000839939049910754,0.009392046369612217,-0.03168861195445061
1772812413939220200,1.09422021484375,-0.00923932995647192,0.02130390889942646,-0.03810269013047218
1772812413948920800,1.1039208984375,-0.018096869811415672,0.035964664071798325,-0.040546149015426636
1772812413958621400,1.113621337890625,-0.026038112118840218,0.03627009689807892,-0.03352120518684387
1772812413968322300,1.123322265625,-0.03214675933122635,0.02802342176437378,-0.023136503994464874
1772812413978023000,1.13302294921875,-0.031841326504945755,0.02496909722685814,-0.012751801870763302
1772812413987723500,1.1427236328125,-0.027259841561317444,0.022525638341903687,-0.0057268571108579636
1772812413997424400,1.15242431640625,-0.023594651371240616,0.026190826669335365,-0.0005345066892914474
1772812414007125000,1.162125,-0.018402300775051117,0.024663666263222694,0.0012980876490473747
1772812414016825600,1.17182568359375,-0.012904518283903599,0.01977674663066864,0.0034361144062131643
1772812414026526500,1.1815263671875,-0.00679587060585618,0.008170315995812416,0.007101302966475487
1772812414036227000,1.19122705078125,-0.004352411720901728,0.002061668550595641,0.013820815831422806
1772812414045927700,1.200927734375,-0.010461059398949146,0.00603228947147727,0.021151192486286163
1772812414055628500,1.210628662109375,-0.018096869811415672,0.01183550525456667,0.02756527252495289
1772812414065329200,1.2203291015625,-0.01779143698513508,0.012446369975805283,0.030314164236187935
1772812414075029800,1.23002978515625,-0.010461059398949146,0.00022907429956831038,0.024510949850082397
1772812414084730600,1.239730712890625,0.0011453714687377214,-0.01259908638894558,0.01626427471637726
1772812414094431200,1.24943115234375,0.011530072428286076,-0.018402300775051117,0.003741546766832471
1772812414104132000,1.259132080078125,0.017027854919433594,-0.0058795735239982605,-0.006337722297757864
1772812414113832700,1.268832763671875,0.014584396965801716,0.017027854919433594,-0.01000291109085083
1772812414123533300,1.278533203125,0.0066431546583771706,0.03321577236056328,-0.003283398225903511
1772812414133234200,1.288234130859375,-0.005268708802759647,0.027717988938093185,0.011377356946468353
1772812414142934800,1.297934814453125,-0.012293653562664986,0.00603228947147727,0.02390008419752121
1772812414152635400,1.307635498046875,-0.010766491293907166,-0.0034361144062131643,0.03275762498378754
1772812414162336300,1.317336181640625,-0.00679587060585618,-0.004352411720901728,0.03550651669502258
1772812414172036900,1.327036865234375,-0.009850194677710533,0.0066431546583771706,0.02909243479371071
1772812414181737500,1.336737548828125,-0.01259908638894558,0.026801692321896553,0.016875140368938446
1772812414191438300,1.346438232421875,-0.008017600513994694,0.03168861195445061,0.004963276442140341
1772812414201139000,1.356138916015625,0.0011453714687377214,0.017944153398275375,-0.004810560029000044
1772812414210839600,1.365839599609375,0.011224640533328056,-0.004046979360282421,-0.009392046369612217
1772812414220540400,1.37554052734375,0.019471315667033195,-0.02328922040760517,-0.01000291109085083
1772812414230241000,1.385240966796875,0.023441936820745468,-0.02909243479371071,-0.012140937149524689
1772812414239941600,1.394941650390625,0.02496909722685814,-0.029703300446271896,-0.017333287745714188
1772812414249642500,1.404642578125,0.025274530053138733,-0.024510949850082397,-0.02741255611181259
1772812414259343000,1.414343017578125,0.02802342176437378,-0.00954476185142994,-0.03810269013047218
1772812414269043700,1.424043701171875,0.02893971838057041,-0.002825249684974551,-0.045738499611616135
1772812414278744600,1.43374462890625,0.024663666263222694,-0.0006872228696011007,-0.046654798090457916
1772812414288445200,1.443445068359375,0.01977674663066864,0.00847574882209301,-0.03565923124551773
1772812414298146000,1.45314599609375,0.0191658828407526,0.011530072428286076,-0.018860450014472008
1772812414307846700,1.4628466796875,0.017027854919433594,0.010613775812089443,0.003741546766832471
1772812414317547300,1.47254736328125,0.012751801870763302,0.0005345066892914474,0.01870773360133171
1772812414327248100,1.482248046875,0.00603228947147727,-0.008933897130191326,0.026648975908756256
1772812414336948700,1.49194873046875,0.0035888305865228176,-0.008017600513994694,0.023594651371240616
1772812414346649300,1.5016494140625,0.0023671009112149477,-0.004963276442140341,0.013820815831422806
1772812414356350200,1.51135009765625,0.0023671009112149477,-0.0009926552884280682,-0.003283398225903511
1772812414366050800,1.52105078125,0.006948587018996477,0.009697478264570236,-0.01977674663066864
1772812414375751400,1.53075146484375,0.013057234697043896,0.013668099418282509,-0.029856016859412193
1772812414385452300,1.540452392578125,0.017333287745714188,0.004199695307761431,-0.03107774630188942
1772812414395153000,1.55015283203125,0.020693045109510422,-0.0077121676877141,-0.023747367784380913
1772812414404853500,1.559853515625,0.021914774551987648,-0.016569707542657852,-0.012751801870763302
1772812414414554400,1.569554443359375,0.020998476073145866,-0.016875140368938446,-0.002061668550595641
1772812414424255000,1.5792548828125,0.020693045109510422,-0.015042545273900032,0.004963276442140341
1772812414433955600,1.58895556640625,0.01824958436191082,-0.01259908638894558,0.008323032408952713
1772812414443656400,1.598656494140625,0.016416991129517555,-0.00923932995647192,0.007406735327094793
1772812414453357000,1.608357177734375,0.015195261687040329,0.003894262947142124,0.009850194677710533
1772812414463057700,1.6180576171875,0.010919207707047462,0.013362666592001915,0.01107192412018776
1772812414472758500,1.627758544921875,0.008170315995812416,0.022525638341903687,0.01107192412018776
1772812414482459100,1.637459228515625,0.01030834298580885,0.02283107116818428,0.013209951110184193
1772812414492159700,1.64715966796875,0.01672242395579815,0.014889828860759735,0.01718057133257389
1772812414501860600,1.656860595703125,0.024663666263222694,0.0057268571108579636,0.024510949850082397
1772812414511561200,1.666561279296875,0.028634287416934967,-0.010766491293907166,0.026648975908756256
1772812414521262000,1.676261962890625,0.0319940410554409,-0.015347977168858051,0.02176205813884735
1772812414530962700,1.685962646484375,0.035964664071798325,-0.008628465235233307,0.011377356946468353
1772812414540663300,1.695663330078125,0.03504836559295654,-0.00923932995647192,0.0016035200096666813
1772812414550364200,1.7053642578125,0.03413207083940506,-0.009850194677710533,-0.0066431546583771706
1772812414560064800,1.715064697265625,0.03321577236056328,-0.0022143847309052944,-0.014889828860759735
1772812414569765400,1.724765380859375,0.025274530053138733,0.0011453714687377214,-0.017944153398275375
1772812414579466200,1.73446630859375,0.012751801870763302,-0.006490438245236874,-0.023747367784380913
1772812414589166800,1.744166748046875,-0.0012980876490473747,-0.014737112447619438,-0.02893971838057041
1772812414598867500,1.753867431640625,-0.00954476185142994,-0.017486004158854485,-0.037491824477910995
1772812414608568300,1.763568359375,-0.011988221667706966,-0.007101302966475487,-0.053985174745321274
1772812414618269000,1.77326904296875,-0.00923932995647192,0.015195261687040329,-0.061620984226465225
1772812414627969500,1.782969482421875,-0.00923932995647192,0.02893971838057041,-0.05367974191904068
1772812414637670400,1.79267041015625,-0.01565340906381607,0.030161447823047638,-0.03840812295675278
1772812414647371000,1.80237109375,-0.016875140368938446,0.0191658828407526,-0.01672242395579815
1772812414657071600,1.812071533203125,-0.00954476185142994,-0.00923932995647192,-0.00022907429956831038
1772812414666772500,1.8217724609375,0.004199695307761431,-0.03367391973733902,0.00954476185142994
1772812414676473000,1.83147314453125,0.018860450014472008,-0.04130972921848297,0.008628465235233307
1772812414686173700,1.841173583984375,0.028634287416934967,-0.02909243479371071,0.0006872228696011007
1772812414695874600,1.85087451171875,0.02741255611181259,-0.010766491293907166,-0.013057234697043896
1772812414705575200,1.8605751953125,0.02130390889942646,0.002672533504664898,-0.02130390889942646
1772812414715275800,1.87027587890625,0.015195261687040329,0.007864884100854397,-0.01824958436191082
1772812414724976600,1.8799765625,0.012751801870763302,0.009392046369612217,-0.013057234697043896
1772812414734677200,1.88967724609375,0.013973532244563103,0.0057268571108579636,-0.008170315995812416
1772812414744378000,1.899378173828125,0.019471315667033195,0.0017562361899763346,-0.005421424750238657
1772812414754078700,1.90907861328125,0.022220205515623093,0.0029779658652842045,-0.0029779658652842045
1772812414763779300,1.918779296875,0.01672242395579815,0.007254019379615784,0.00007635809743078426
1772812414773480200,1.928480224609375,0.0035888305865228176,0.0057268571108579636,0.004657844081521034
1772812414783180800,1.938180908203125,-0.009850194677710533,-0.0009926552884280682,0.008933897130191326
1772812414792881400,1.94788134765625,-0.015042545273900032,-0.0034361144062131643,0.010766491293907166
1772812414802582300,1.957582275390625,-0.008933897130191326,0.00022907429956831038,0.004352411720901728
1772812414812283000,1.967282958984375,0.001450803829357028,0.01183550525456667,-0.0029779658652842045
1772812414821983500,1.9769833984375,0.009086613543331623,0.013362666592001915,-0.013668099418282509
1772812414831684400,1.986684326171875,0.013362666592001915,0.00847574882209301,-0.017944153398275375
1772812414841385000,1.996385009765625,0.013057234697043896,0.0057268571108579636,-0.015195261687040329
1772812414851085600,2.00608544921875,0.008781181648373604,0.00603228947147727,-0.007864884100854397
1772812414860786400,2.015786376953125,0.004505127668380737,0.0011453714687377214,-0.002672533504664898
1772812414870487000,2.025487060546875,0.0023671009112149477,-0.0031306820455938578,-0.003894262947142124
1772812414880187600,2.035187744140625,0.006337722297757864,-0.00038179047987796366,-0.00603228947147727
1772812414889888500,2.044888427734375,0.011530072428286076,0.006337722297757864,-0.010613775812089443
1772812414899589000,2.054589111328125,0.011224640533328056,0.012751801870763302,-0.01000291109085083
1772812414909289700,2.064289794921875,0.004199695307761431,0.010919207707047462,-0.0029779658652842045
1772812414918990600,2.073990478515625,-0.0006872228696011007,-0.00007635809743078426,0.006185005884617567
1772812414928691200,2.083691162109375,-0.0012980876490473747,-0.005574141163378954,0.01259908638894558
1772812414938391800,2.093391845703125,0.00022907429956831038,-0.0019089524867013097,0.014126247726380825
1772812414948092700,2.1030927734375,-0.0019089524867013097,0.003283398225903511,0.011682788841426373
1772812414957793300,2.112793212890625,-0.005574141163378954,0.011224640533328056,0.008323032408952713
1772812414967494000,2.122493896484375,-0.011682788841426373,0.020082179456949234,0.010155626572668552
1772812414977194800,2.13219482421875,-0.01779143698513508,0.023441936820745468,0.015042545273900032
1772812414986895400,2.141895263671875,-0.02176205813884735,0.0191658828407526,0.02328922040760517
1772812414996596000,2.151595947265625,-0.019624030217528343,0.00847574882209301,0.03214675933122635
1772812415006296800,2.161296875,-0.015347977168858051,0.00022907429956831038,0.03367391973733902
1772812415015997400,2.17099755859375,-0.008933897130191326,-0.0031306820455938578,0.03214675933122635
1772812415025698000,2.180697998046875,-0.004963276442140341,-0.0077121676877141,0.020540328696370125
1772812415035399000,2.19039892578125,-0.0022143847309052944,-0.00679587060585618,0.0009926552884280682
1772812415045099500,2.200099609375,0.00511599238961935,0.011224640533328056,-0.017027854919433594
1772812415054800100,2.209800048828125,0.014889828860759735,0.02588539570569992,-0.027107125148177147
1772812415064501000,2.2195009765625,0.017944153398275375,0.024663666263222694,-0.023136503994464874
1772812415074201600,2.22920166015625,0.008170315995812416,0.015806125476956367,-0.009392046369612217
1772812415083902500,2.23890234375,-0.005268708802759647,0.0023671009112149477,0.007101302966475487
1772812415093603000,2.24860302734375,-0.011377356946468353,-0.01779143698513508,0.01259908638894558
1772812415103303700,2.2583037109375,-0.008628465235233307,-0.03061959706246853,0.0058795735239982605
1772812415113004500,2.268004638671875,0.0029779658652842045,-0.02848157100379467,-0.010919207707047462
1772812415122705200,2.277705078125,0.014584396965801716,-0.017486004158854485,-0.028328854590654373
1772812415132405800,2.28740576171875,0.017333287745714188,-0.004046979360282421,-0.03474293276667595
1772812415142106600,2.297106689453125,0.011224640533328056,0.001450803829357028,-0.030772313475608826
1772812415151807200,2.30680712890625,0.000839939049910754,0.0057268571108579636,-0.015500693581998348
1772812415161507800,2.3165078125,-0.007406735327094793,0.006337722297757864,0.005574141163378954
1772812415171208700,2.326208740234375,-0.010461059398949146,-0.004963276442140341,0.024510949850082397
1772812415180909300,2.335909423828125,-0.007406735327094793,-0.008933897130191326,0.03733910992741585
1772812415190610000,2.34560986328125,0.002672533504664898,0.0011453714687377214,0.04130972921848297
1772812415200310800,2.355310791015625,0.007254019379615784,0.00847574882209301,0.03733910992741585
1772812415210011400,2.365011474609375,0.004505127668380737,0.00755945174023509,0.027259841561317444
1772812415219712000,2.3747119140625,0.004810560029000044,0.00511599238961935,0.018402300775051117
1772812415229412900,2.384412841796875,0.00847574882209301,0.005421424750238657,0.008933897130191326
1772812415239113500,2.394113525390625,0.00755945174023509,-0.0009926552884280682,0.0019089524867013097
1772812415248814000,2.40381396484375,0.0011453714687377214,-0.008933897130191326,-0.003894262947142124
1772812415258515000,2.413514892578125,-0.004963276442140341,-0.010461059398949146,-0.009697478264570236
1772812415268215600,2.423215576171875,-0.009850194677710533,-0.004657844081521034,-0.013362666592001915
1772812415277916200,2.432916259765625,-0.014737112447619438,0.006948587018996477,-0.016416991129517555
1772812415287617000,2.442616943359375,-0.01870773360133171,0.021609341725707054,-0.01977674663066864
1772812415297317600,2.452317626953125,-0.02023489587008953,0.026801692321896553,-0.016416991129517555
1772812415307018200,2.462018310546875,-0.02176205813884735,0.022220205515623093,-0.009086613543331623
1772812415316719000,2.471718994140625,-0.019013166427612305,0.020082179456949234,0.0016035200096666813
1772812415326419700,2.481419677734375,-0.014126247726380825,0.017027854919433594,0.013515383005142212
1772812415336120300,2.491120361328125,-0.010155626572668552,0.012446369975805283,0.02328922040760517
1772812415345821200,2.5008212890625,-0.00679587060585618,0.014889828860759735,0.03245219215750694
1772812415355521800,2.510521728515625,-0.005574141163378954,0.013973532244563103,0.037033677101135254
1772812415365222400,2.520222412109375,-0.004046979360282421,0.003283398225903511,0.034895651042461395
1772812415374923300,2.52992333984375,0.003894262947142124,-0.00679587060585618,0.029703300446271896
1772812415384623900,2.539623779296875,0.013362666592001915,-0.015042545273900032,0.02084576152265072
1772812415394324500,2.549324462890625,0.024052800610661507,-0.01718057133257389,0.004046979360282421
1772812415413726000,2.568725830078125,0.03840812295675278,-0.0025198173243552446,-0.020387612283229828
1772812415423426600,2.578426513671875,0.03260490670800209,0.004199695307761431,-0.02130390889942646
1772812415433127400,2.58812744140625,0.022220205515623093,0.006948587018996477,-0.015806125476956367
1772812415442828000,2.597828125,0.013668099418282509,0.000839939049910754,-0.006337722297757864
1772812415452528600,2.607528564453125,0.009086613543331623,-0.014431680552661419,-0.0011453714687377214
1772812415462229500,2.6172294921875,0.009392046369612217,-0.019624030217528343,-0.0011453714687377214
1772812415471930000,2.62693017578125,0.010919207707047462,-0.004352411720901728,-0.00511599238961935
1772812415481631000,2.636630859375,0.003283398225903511,0.009697478264570236,-0.003283398225903511
1772812415491331600,2.64633154296875,-0.01107192412018776,0.00755945174023509,-0.0017562361899763346
1772812415501032200,2.6560322265625,-0.018096869811415672,0.00022907429956831038,-0.004199695307761431
1772812415510733000,2.665733154296875,-0.01626427471637726,-0.007406735327094793,-0.01030834298580885
1772812415520433700,2.67543359375,-0.011682788841426373,-0.007406735327094793,-0.016416991129517555
1772812415530134300,2.68513427734375,-0.009850194677710533,0.004199695307761431,-0.015806125476956367
1772812415539835100,2.694835205078125,-0.015958841890096664,0.010919207707047462,-0.01183550525456667
1772812415549535700,2.70453564453125,-0.025121813639998436,0.003894262947142124,-0.0057268571108579636
1772812415559236400,2.714236328125,-0.02023489587008953,0.000839939049910754,-0.002672533504664898
1772812415568937200,2.723937255859375,-0.0019089524867013097,0.00603228947147727,0.0012980876490473747
1772812415578637800,2.733637939453125,0.00847574882209301,0.01000291109085083,0.008933897130191326
1772812415588338400,2.74333837890625,0.0057268571108579636,0.013057234697043896,0.018402300775051117
1772812415598039300,2.753039306640625,-0.004046979360282421,0.01977674663066864,0.030314164236187935
1772812415607740000,2.762739990234375,-0.011682788841426373,0.01611155830323696,0.04130972921848297
1772812415617440800,2.772440673828125,-0.022067490965127945,-0.0009926552884280682,0.046807512640953064
1772812415627141400,2.782141357421875,-0.021151192486286163,-0.018402300775051117,0.040088001638650894
1772812415636842000,2.791842041015625,-0.0077121676877141,-0.022983787581324577,0.02328922040760517
1772812415646542800,2.80154296875,0.007254019379615784,-0.01626427471637726,-0.0029779658652842045
1772812415656243500,2.811243408203125,0.017027854919433594,0.0011453714687377214,-0.027107125148177147
1772812415665944000,2.820944091796875,0.0191658828407526,0.016416991129517555,-0.036880962550640106
1772812415675645000,2.83064501953125,0.013973532244563103,0.01000291109085083,-0.03321577236056328
1772812415685345500,2.840345458984375,0.011224640533328056,-0.008933897130191326,-0.015806125476956367
1772812415695046100,2.850046142578125,0.014584396965801716,-0.03061959706246853,0.002825249684974551
1772812415704747000,2.8597470703125,0.018860450014472008,-0.041004300117492676,0.013820815831422806
1772812415714447600,2.869447509765625,0.019471315667033195,-0.03581194952130318,0.015042545273900032
1772812415724148200,2.879148193359375,0.012751801870763302,-0.016569707542657852,0.008628465235233307
1772812415733849000,2.88884912109375,-0.0012980876490473747,0.005421424750238657,0.0031306820455938578
1772812415743549700,2.8985498046875,-0.013515383005142212,0.015195261687040329,-0.0011453714687377214
1772812415753250300,2.908250244140625,-0.018096869811415672,0.008170315995812416,-0.00603228947147727
1772812415762951200,2.917951171875,-0.016875140368938446,-0.0022143847309052944,-0.007254019379615784
1772812415772651800,2.92765185546875,-0.015042545273900032,-0.0019089524867013097,-0.0029779658652842045
1772812415782352400,2.937352294921875,-0.018096869811415672,0.007254019379615784,0.0006872228696011007
1772812415792053200,2.94705322265625,-0.02542724646627903,0.017944153398275375,0.005268708802759647
1772812415801753900,2.95675390625,-0.03245219215750694,0.020387612283229828,0.012904518283903599
1772812415811454500,2.966454345703125,-0.03672824427485466,0.008781181648373604,0.022067490965127945
1772812415821155300,2.9761552734375,-0.0345902182161808,-0.00679587060585618,0.024205517023801804
1772812415830856000,2.98585595703125,-0.02756527252495289,-0.010461059398949146,0.02176205813884735
1772812415840556500,2.995556640625,-0.02237292192876339,-0.0009926552884280682,0.015042545273900032
1772812415850257400,3.00525732421875,-0.022983787581324577,0.01824958436191082,0.012293653562664986
1772812415859958000,3.0149580078125,-0.024510949850082397,0.028328854590654373,0.013820815831422806
1772812415869658600,3.02465869140625,-0.025121813639998436,0.02130390889942646,0.022067490965127945
1772812415879359500,3.034359375,-0.02328922040760517,0.0005345066892914474,0.025732679292559624
1772812415889060000,3.04406005859375,-0.016875140368938446,-0.01779143698513508,0.02084576152265072
1772812415898760700,3.0537607421875,-0.0077121676877141,-0.023594651371240616,0.0058795735239982605
1772812415908461600,3.063461669921875,0.000839939049910754,-0.016569707542657852,-0.014584396965801716
1772812415918162200,3.073162109375,0.0029779658652842045,-0.004046979360282421,-0.03535379841923714
1772812415927862800,3.08286279296875,0.004810560029000044,0.006337722297757864,-0.050319984555244446
1772812415937563600,3.092563720703125,0.00603228947147727,0.01183550525456667,-0.05520690605044365
1772812415947264300,3.10226416015625,0.00511599238961935,0.015500693581998348,-0.04451677203178406
1772812415956964900,3.11196484375,-0.0025198173243552446,0.014278964139521122,-0.021914774551987648
1772812415966665700,3.121665771484375,-0.008017600513994694,0.004199695307761431,0.002825249684974551
1772812415976366300,3.131366455078125,-0.005268708802759647,-0.0058795735239982605,0.01870773360133171
1772812415986067000,3.14106689453125,0.0035888305865228176,-0.006185005884617567,0.025732679292559624
1772812415995767800,3.150767822265625,0.010919207707047462,-0.0009926552884280682,0.02695440873503685
1772812416005468400,3.160468505859375,0.013668099418282509,0.001450803829357028,0.02542724646627903
1772812416015169000,3.1701689453125,0.011530072428286076,-0.0025198173243552446,0.019929463043808937
1772812416024870000,3.179869873046875,0.01000291109085083,0.001450803829357028,0.011377356946468353
1772812416034570500,3.189570556640625,0.010613775812089443,0.011224640533328056,0.004963276442140341
1772812416044271000,3.19927099609375,0.00847574882209301,0.013668099418282509,0.00923932995647192
1772812416053972000,3.208971923828125,0.000839939049910754,0.003283398225903511,0.014737112447619438
1772812416063672600,3.218672607421875,-0.006185005884617567,-0.0019089524867013097,0.01870773360133171
1772812416073373200,3.228373291015625,-0.0058795735239982605,-0.0031306820455938578,0.019013166427612305
1772812416083074000,3.238073974609375,-0.0012980876490473747,-0.0025198173243552446,0.018096869811415672
1772812416092774700,3.247774658203125,0.006948587018996477,-0.0031306820455938578,0.009850194677710533
1772812416102475300,3.257475341796875,0.011530072428286076,0.0023671009112149477,0.0006872228696011007
1772812416112176000,3.267176025390625,0.008170315995812416,0.009697478264570236,-0.00755945174023509
1772812416121876700,3.276876708984375,-0.00007635809743078426,0.008781181648373604,-0.010919207707047462
1772812416131577300,3.286577392578125,-0.010461059398949146,0.0029779658652842045,-0.012751801870763302
1772812416141278200,3.2962783203125,-0.015042545273900032,-0.0022143847309052944,-0.017027854919433594
1772812416150978800,3.305978759765625,-0.008017600513994694,-0.003741546766832471,-0.02283107116818428
1772812416170380300,3.32538037109375,0.011224640533328056,-0.008017600513994694,-0.025274530053138733
1772812416180081000,3.335080810546875,0.014889828860759735,-0.007406735327094793,-0.023747367784380913
1772812416189781500,3.344781494140625,0.01611155830323696,-0.003741546766832471,-0.020998476073145866
1772812416199482400,3.354482421875,0.009086613543331623,-0.00038179047987796366,-0.01030834298580885
1772812416209183000,3.364182861328125,0.00022907429956831038,0.0023671009112149477,0.0009926552884280682
1772812416218883600,3.373883544921875,-0.006185005884617567,0.003894262947142124,0.015042545273900032
1772812416228584400,3.38358447265625,-0.006185005884617567,-0.0034361144062131643,0.023594651371240616
1772812416238285000,3.39328515625,-0.0025198173243552446,-0.0016035200096666813,0.02848157100379467
1772812416247985700,3.402985595703125,0.003283398225903511,0.00511599238961935,0.02756527252495289
1772812416257686500,3.4126865234375,0.005421424750238657,0.01000291109085083,0.02542724646627903
1772812416267387100,3.42238720703125,0.0029779658652842045,0.012446369975805283,0.022678354755043983
1772812416277087700,3.432087646484375,0.000839939049910754,0.009392046369612217,0.020540328696370125
1772812416286788600,3.44178857421875,0.00022907429956831038,0.0005345066892914474,0.018402300775051117
1772812416296489200,3.4514892578125,0.003894262947142124,-0.011682788841426373,0.01718057133257389
1772812416306189800,3.46118994140625,0.008781181648373604,-0.022067490965127945,0.008628465235233307
1772812416315890700,3.470890625,0.011530072428286076,-0.016569707542657852,-0.0017562361899763346
1772812416325591300,3.48059130859375,0.009392046369612217,0.007864884100854397,-0.0057268571108579636
1772812416335292000,3.4902919921875,-0.004352411720901728,0.018555017188191414,-0.0017562361899763346
1772812416344992800,3.49999267578125,-0.019929463043808937,0.0005345066892914474,0.004046979360282421
1772812416354693400,3.509693359375,-0.02084576152265072,-0.02328922040760517,0.0058795735239982605
1772812416364394000,3.51939404296875,-0.011377356946468353,-0.033979352563619614,-0.003283398225903511
1772812416374094800,3.5290947265625,0.0023671009112149477,-0.03153589367866516,-0.023747367784380913
1772812416383795500,3.53879541015625,0.013362666592001915,-0.016875140368938446,-0.047265663743019104
1772812416393496000,3.54849609375,0.018860450014472008,0.010919207707047462,-0.0628427118062973
1772812416403197000,3.558197021484375,0.00847574882209301,0.03474293276667595,-0.05306887626647949
1772812416412897500,3.5678974609375,-0.01107192412018776,0.0322994738817215,-0.023441936820745468
1772812416422598100,3.57759814453125,-0.02176205813884735,0.014278964139521122,0.015958841890096664
1772812416432298800,3.587298828125,-0.019929463043808937,-0.0022143847309052944,0.051389001309871674
1772812416441999600,3.59699951171875,-0.011988221667706966,-0.01870773360133171,0.07490729540586472
1772812416451700200,3.6067001953125,-0.0031306820455938578,-0.02756527252495289,0.0758235901594162
1772812416461400800,3.61640087890625,0.009697478264570236,-0.02390008419752121,0.060551971197128296
1772812416471101700,3.626101806640625,0.01763872057199478,-0.013209951110184193,0.03061959706246853
1772812416480802300,3.63580224609375,0.020693045109510422,0.005421424750238657,-0.00022907429956831038
1772812416490503000,3.6455029296875,0.022220205515623093,0.010919207707047462,-0.0243582334369421
1772812416500203800,3.655203857421875,0.024052800610661507,-0.00007635809743078426,-0.03840812295675278
1772812416509904400,3.664904296875,0.026801692321896553,-0.023594651371240616,-0.046654798090457916
1772812416519605200,3.674605224609375,0.027107125148177147,-0.03581194952130318,-0.05520690605044365
1772812416529305900,3.684305908203125,0.020998476073145866,-0.00007635809743078426,-0.04604393243789673
1772812416539006500,3.69400634765625,-0.00038179047987796366,0.04940368980169296,-0.01672242395579815
1772812416548707300,3.703707275390625,-0.03245219215750694,0.050319984555244446,0.026343543082475662
1772812416558408000,3.713407958984375,-0.051389001309871674,0.018860450014472008,0.06940951198339462
1772812416568108500,3.723108642578125,-0.043753188103437424,-0.01259908638894558,0.09323323518037796
1772812416577809400,3.732809326171875,-0.026343543082475662,-0.02848157100379467,0.08834631741046906
1772812416587510000,3.742510009765625,-0.01565340906381607,-0.02237292192876339,0.05810851231217384
1772812416597210600,3.752210693359375,-0.011682788841426373,0.006948587018996477,0.01259908638894558
1772812416606911500,3.761911376953125,-0.005574141163378954,0.0524580143392086,-0.025579962879419327
1772812416616612000,3.771612060546875,0.0029779658652842045,0.06956222653388977,-0.049709122627973557
1772812416626312700,3.781312744140625,0.007864884100854397,0.04909825697541237,-0.04909825697541237
1772812416636013600,3.791013671875,0.011224640533328056,0.0023671009112149477,-0.035964664071798325
1772812416645714200,3.800714111328125,0.01977674663066864,-0.046196650713682175,-0.020693045109510422
1772812416655414800,3.810414794921875,0.02741255611181259,-0.0758235901594162,-0.024052800610661507
1772812416665115600,3.82011572265625,0.0295505840331316,-0.06910407543182373,-0.04146244749426842
1772812416674816300,3.829816162109375,0.028634287416934967,-0.026343543082475662,-0.05948295816779137
1772812416684516900,3.839516845703125,0.023441936820745468,0.020082179456949234,-0.06467530876398087
1772812416694217700,3.8492177734375,0.014584396965801716,0.035964664071798325,-0.05367974191904068
1772812416703918300,3.85891845703125,0.005421424750238657,0.032910339534282684,-0.02496909722685814
1772812416713619000,3.868618896484375,0.001450803829357028,0.026190826669335365,0.01626427471637726
1772812416723319800,3.87831982421875,-0.0012980876490473747,0.010919207707047462,0.05261072888970375
1772812416733020400,3.8880205078125,-0.0022143847309052944,-0.008628465235233307,0.07276926934719086
1772812416742721000,3.897720947265625,0.004505127668380737,-0.01259908638894558,0.07276926934719086
1772812416752422000,3.907421875,0.014278964139521122,-0.004352411720901728,0.051389001309871674
1772812416762122500,3.91712255859375,0.0191658828407526,0.0057268571108579636,0.021151192486286163
1772812416771823000,3.926822998046875,0.020082179456949234,0.016416991129517555,-0.007254019379615784
1772812416781524000,3.93652392578125,0.020998476073145866,0.018555017188191414,-0.032910339534282684
1772812416791224600,3.946224609375,0.021914774551987648,0.011530072428286076,-0.05367974191904068
1772812416800925200,3.95592529296875,0.02283107116818428,0.01000291109085083,-0.061620984226465225
1772812416810626000,3.9656259765625,0.0243582334369421,0.01672242395579815,-0.053985174745321274
1772812416820326700,3.97532666015625,0.022220205515623093,0.011224640533328056,-0.0319940410554409
1772812416830027300,3.98502734375,0.015806125476956367,-0.0058795735239982605,-0.0066431546583771706
1772812416839728000,3.99472802734375,0.015806125476956367,-0.018096869811415672,0.013820815831422806
1772812416849428700,4.0044287109375,0.01977674663066864,-0.020540328696370125,0.022067490965127945
1772812416859129300,4.01412939453125,0.020387612283229828,-0.01626427471637726,0.014737112447619438
1772812416878530800,4.03353076171875,0.012751801870763302,0.01000291109085083,-0.015806125476956367
1772812416888231400,4.0432314453125,0.009086613543331623,0.018860450014472008,-0.026190826669335365
1772812416897932300,4.052932373046875,0.008170315995812416,0.01824958436191082,-0.027717988938093185
1772812416907633000,4.0626328125,0.009392046369612217,0.009086613543331623,-0.020693045109510422
1772812416917333500,4.07233349609375,0.009697478264570236,-0.0022143847309052944,-0.011224640533328056
1772812416927034400,4.082034423828125,0.010613775812089443,-0.010461059398949146,-0.00603228947147727
1772812416936735000,4.09173486328125,0.012446369975805283,-0.0077121676877141,-0.00511599238961935
1772812416946435600,4.101435546875,0.01763872057199478,0.0029779658652842045,-0.006337722297757864
1772812416956136200,4.11113623046875,0.01824958436191082,0.011224640533328056,-0.0066431546583771706
1772812416965837000,4.120837158203125,0.015500693581998348,0.013362666592001915,-0.0057268571108579636
1772812416975537700,4.13053759765625,0.013973532244563103,0.015806125476956367,-0.002061668550595641
1772812416985238300,4.14023828125,0.009697478264570236,0.010919207707047462,0.0009926552884280682
1772812416994939100,4.149939208984375,0.0023671009112149477,-0.0016035200096666813,0.00038179047987796366
1772812417004639700,4.1596396484375,0.0011453714687377214,-0.0058795735239982605,-0.007254019379615784
1772812417014340400,4.16934033203125,0.006337722297757864,-0.002825249684974551,-0.017333287745714188
1772812417024041200,4.179041259765625,0.0057268571108579636,0.006337722297757864,-0.030772313475608826
1772812417033741800,4.188741943359375,0.0005345066892914474,0.01763872057199478,-0.03871355578303337
1772812417043442400,4.1984423828125,-0.00923932995647192,0.021609341725707054,-0.04176788032054901
1772812417053143300,4.208143310546875,-0.016875140368938446,0.017333287745714188,-0.0371863916516304
1772812417062844000,4.217843994140625,-0.018096869811415672,0.0023671009112149477,-0.03565923124551773
1772812417072544500,4.22754443359375,-0.013515383005142212,-0.009850194677710533,-0.03107774630188942
1772812417082245400,4.237245361328125,-0.004046979360282421,-0.016569707542657852,-0.02893971838057041
1772812417091946000,4.246946044921875,0.002061668550595641,-0.013515383005142212,-0.030466880649328232
1772812417101646600,4.256646484375,0.007864884100854397,0.002672533504664898,-0.03107774630188942
1772812417111347500,4.266347412109375,0.00847574882209301,0.020082179456949234,-0.029245151206851006
1772812417121048000,4.276048095703125,0.0029779658652842045,0.026801692321896553,-0.021914774551987648
1772812417130748700,4.285748779296875,-0.0012980876490473747,0.026801692321896553,-0.003894262947142124
1772812417140449500,4.295449462890625,-0.00038179047987796366,0.017944153398275375,0.02084576152265072
1772812417150150100,4.305150146484375,0.001450803829357028,-0.00038179047987796366,0.04192059487104416
1772812417159850800,4.314850830078125,-0.0006872228696011007,-0.010155626572668552,0.054443322122097015
1772812417169551400,4.32455126953125,-0.004046979360282421,-0.007101302966475487,0.05322159454226494
1772812417179252200,4.334252197265625,-0.008017600513994694,-0.004046979360282421,0.03520108386874199
1772812417188952800,4.343952880859375,-0.008933897130191326,0.0035888305865228176,0.0058795735239982605
1772812417198653400,4.3536533203125,-0.0058795735239982605,0.014584396965801716,-0.022525638341903687
1772812417208354300,4.363354248046875,0.00022907429956831038,0.018555017188191414,-0.04329504072666168
1772812417218055000,4.373054931640625,0.004199695307761431,0.013973532244563103,-0.0475710928440094
1772812417227755500,4.382755615234375,0.0029779658652842045,0.0035888305865228176,-0.03932442143559456
1772812417237456400,4.392456298828125,0.001450803829357028,-0.002825249684974551,-0.023747367784380913
1772812417247157000,4.402156982421875,0.000839939049910754,-0.007406735327094793,-0.007864884100854397
1772812417256857600,4.411857666015625,0.00511599238961935,-0.008017600513994694,0.006185005884617567
1772812417266558500,4.421558349609375,0.00755945174023509,-0.00923932995647192,0.014737112447619438
1772812417276259000,4.431259033203125,0.009392046369612217,-0.003741546766832471,0.021456625312566757
1772812417285959700,4.440959716796875,0.010919207707047462,-0.0006872228696011007,0.02328922040760517
1772812417295660500,4.45066064453125,0.01030834298580885,-0.004352411720901728,0.025732679292559624
1772812417305361200,4.460361083984375,0.009697478264570236,-0.0077121676877141,0.024510949850082397
1772812417315062000,4.47006201171875,0.006337722297757864,-0.013820815831422806,0.015958841890096664
1772812417324762600,4.4797626953125,-0.0022143847309052944,-0.013209951110184193,-0.0011453714687377214
1772812417334463200,4.489463134765625,-0.01259908638894558,-0.0034361144062131643,-0.02802342176437378
1772812417344164000,4.4991640625,-0.01870773360133171,0.013973532244563103,-0.05215258151292801
1772812417353864700,4.50886474609375,-0.022678354755043983,0.027107125148177147,-0.06559160351753235
1772812417363565300,4.5185654296875,-0.02390008419752121,0.021609341725707054,-0.06620246917009354
1772812417373266200,4.52826611328125,-0.02237292192876339,0.0066431546583771706,-0.053374309092760086
1772812417382966800,4.537966796875,-0.018096869811415672,-0.003741546766832471,-0.03260490670800209
1772812417392667400,4.54766748046875,-0.015347977168858051,-0.01259908638894558,-0.009086613543331623
1772812417402368300,4.5573681640625,-0.014737112447619438,-0.010155626572668552,0.008628465235233307
1772812417412068900,4.56706884765625,-0.015042545273900032,-0.004352411720901728,0.019929463043808937
1772812417421769500,4.57676953125,-0.01718057133257389,-0.0009926552884280682,0.024510949850082397
1772812417431470300,4.58647021484375,-0.01626427471637726,0.003283398225903511,0.02695440873503685
1772812417441171000,4.5961708984375,-0.00954476185142994,0.008170315995812416,0.02756527252495289
1772812417450871600,4.60587158203125,0.001450803829357028,0.009697478264570236,0.028787001967430115
1772812417460572400,4.615572509765625,0.012446369975805283,0.006948587018996477,0.026648975908756256
1772812417470273000,4.62527294921875,0.02283107116818428,0.001450803829357028,0.02390008419752121
1772812417479973600,4.6349736328125,0.030161447823047638,-0.0034361144062131643,0.02237292192876339
1772812417489674200,4.64467431640625,0.0319940410554409,-0.011682788841426373,0.015347977168858051
1772812417499375000,4.654375,0.0322994738817215,-0.01870773360133171,0.007406735327094793
1772812417509075700,4.66407568359375,0.029856016859412193,-0.018402300775051117,-0.00022907429956831038
1772812417518776300,4.6737763671875,0.023747367784380913,-0.011377356946468353,-0.002061668550595641
1772812417528477200,4.683477294921875,0.015195261687040329,-0.0006872228696011007,0.0022143847309052944
1772812417538177800,4.693177734375,0.0057268571108579636,0.011530072428286076,0.011988221667706966
1772812417547878400,4.70287841796875,-0.0034361144062131643,0.010919207707047462,0.022983787581324577
1772812417557579300,4.712579345703125,-0.008933897130191326,0.0011453714687377214,0.0345902182161808
1772812417567279900,4.72227978515625,-0.012293653562664986,-0.0034361144062131643,0.037033677101135254
1772812417576980500,4.73198046875,-0.012904518283903599,0.0005345066892914474,0.03245219215750694
1772812417586681300,4.741681396484375,-0.01870773360133171,0.0057268571108579636,0.025732679292559624
1772812417596382000,4.7513818359375,-0.028176138177514076,0.01183550525456667,0.015347977168858051
1772812417606082600,4.76108251953125,-0.03061959706246853,0.023441936820745468,0.00923932995647192
1772812417615783400,4.770783447265625,-0.026038112118840218,0.024052800610661507,0.008628465235233307
1772812417625484000,4.780484130859375,-0.02084576152265072,0.0066431546583771706,0.010155626572668552
1772812417635184600,4.7901845703125,-0.014126247726380825,-0.018096869811415672,0.006490438245236874
1772812417644885500,4.799885498046875,0.00022907429956831038,-0.02848157100379467,-0.001450803829357028
1772812417654586000,4.809586181640625,0.015806125476956367,-0.022983787581324577,-0.011530072428286076
1772812417664286700,4.81928662109375,0.026801692321896553,-0.011377356946468353,-0.017944153398275375
1772812417673987300,4.8289873046875,0.026801692321896553,0.000839939049910754,-0.020387612283229828
1772812417683688200,4.838688232421875,0.013057234697043896,0.007254019379615784,-0.013973532244563103
1772812417693388800,4.848388916015625,-0.004046979360282421,-0.00679587060585618,-0.007254019379615784
1772812417703089400,4.85808935546875,-0.015347977168858051,-0.02328922040760517,-0.004810560029000044
1772812417712790300,4.867790283203125,-0.010766491293907166,-0.024205517023801804,-0.008170315995812416
1772812417722491000,4.877490966796875,0.004810560029000044,-0.015042545273900032,-0.015500693581998348
1772812417732191500,4.88719140625,0.0191658828407526,-0.006185005884617567,-0.01672242395579815
1772812417741892400,4.896892333984375,0.022525638341903687,0.004505127668380737,-0.003283398225903511
1772812417751593000,4.906593017578125,0.014889828860759735,0.011530072428286076,0.022067490965127945
1772812417761293600,4.91629345703125,0.003283398225903511,0.004199695307761431,0.05169443041086197
1772812417770994400,4.925994384765625,-0.0058795735239982605,-0.012904518283903599,0.07612902671098709
1772812417780695000,4.935695068359375,-0.0034361144062131643,-0.02390008419752121,0.08559742569923401
1772812417790395600,4.945395751953125,0.003894262947142124,-0.026648975908756256,0.0755181610584259
1772812417800096500,4.955096435546875,0.01000291109085083,-0.018402300775051117,0.04711294546723366
1772812417809797000,4.964797119140625,0.013362666592001915,0.0011453714687377214,0.014431680552661419
1772812417819497700,4.974497802734375,0.01030834298580885,0.012140937149524689,-0.015806125476956367
1772812417829198300,4.9841982421875,0.002672533504664898,0.007254019379615784,-0.03871355578303337
1772812417838899200,4.993899169921875,-0.002825249684974551,0.001450803829357028,-0.048792824149131775
1772812417848599800,5.003599853515625,-0.0019089524867013097,-0.00007635809743078426,-0.0475710928440094
1772812417858300400,5.013300537109375,-0.007406735327094793,-0.003741546766832471,-0.03565923124551773
1772812417868001300,5.023001220703125,-0.0193185992538929,-0.011682788841426373,-0.02130390889942646
1772812417877701600,5.03270166015625,-0.03153589367866516,-0.01626427471637726,-0.00511599238961935
1772812417887402200,5.04240234375,-0.03733910992741585,-0.016569707542657852,0.005574141163378954
1772812417897102800,5.052102783203125,-0.03520108386874199,-0.01107192412018776,0.008323032408952713
1772812417906803500,5.061803466796875,-0.027259841561317444,-0.0012980876490473747,0.0077121676877141
1772812417916504300,5.07150439453125,-0.019929463043808937,0.010613775812089443,0.008323032408952713
1772812417926205000,5.081204833984375,-0.018096869811415672,0.020387612283229828,0.011988221667706966
1772812417935905500,5.090905517578125,-0.0193185992538929,0.02496909722685814,0.026648975908756256
1772812417945606400,5.1006064453125,-0.019929463043808937,0.020082179456949234,0.04192059487104416
1772812417955307000,5.11030712890625,-0.014431680552661419,0.014278964139521122,0.054443322122097015
1772812417965007600,5.120007568359375,-0.0025198173243552446,0.005421424750238657,0.05871937796473503
1772812417974708500,5.12970849609375,0.01183550525456667,-0.004657844081521034,0.05230529606342316
1772812417984409000,5.1394091796875,0.02496909722685814,-0.010155626572668552,0.04130972921848297
1772812417994109700,5.149109619140625,0.030772313475608826,-0.010155626572668552,0.027259841561317444
1772812418003810600,5.158810546875,0.030466880649328232,-0.011682788841426373,0.011682788841426373
1772812418013511200,5.16851123046875,0.02649625949561596,-0.013515383005142212,-0.001450803829357028
1772812418023211800,5.178211669921875,0.024052800610661507,-0.012904518283903599,-0.012140937149524689
1772812418032912400,5.187912353515625,0.020387612283229828,-0.007406735327094793,-0.019471315667033195
1772812418042613200,5.19761328125,0.016416991129517555,-0.0034361144062131643,-0.020998476073145866
1772812418052313900,5.20731396484375,0.01030834298580885,-0.00038179047987796366,-0.021914774551987648
1772812418062014500,5.217014404296875,0.0029779658652842045,0.00511599238961935,-0.017027854919433594
1772812418071715300,5.22671533203125,-0.003741546766832471,0.009697478264570236,-0.009697478264570236
1772812418081416000,5.236416015625,-0.015347977168858051,0.006948587018996477,0.0034361144062131643
1772812418091116500,5.246116455078125,-0.02848157100379467,0.004810560029000044,0.01626427471637726
1772812418100817400,5.2558173828125,-0.03672824427485466,0.002672533504664898,0.021456625312566757
1772812418110518000,5.26551806640625,-0.03367391973733902,0.00022907429956831038,0.021151192486286163
1772812418120218600,5.275218505859375,-0.019624030217528343,0.002672533504664898,0.017486004158854485
1772812418129919500,5.28491943359375,-0.005268708802759647,0.00755945174023509,0.010766491293907166
1772812418139620000,5.2946201171875,-0.0019089524867013097,0.011224640533328056,0.007406735327094793
1772812418149320700,5.30432080078125,-0.008017600513994694,0.025274530053138733,0.008933897130191326
1772812418159021600,5.314021484375,-0.015347977168858051,0.030161447823047638,0.016569707542657852
1772812418168722200,5.32372216796875,-0.021151192486286163,0.023747367784380913,0.02909243479371071
1772812418178422800,5.3334228515625,-0.019929463043808937,0.009392046369612217,0.04528035223484039
1772812418188123400,5.343123291015625,-0.012293653562664986,-0.01259908638894558,0.054443322122097015
1772812418197824300,5.35282421875,-0.0012980876490473747,-0.02848157100379467,0.054443322122097015
1772812418207524900,5.36252490234375,0.0029779658652842045,-0.03306305781006813,0.04222602769732475
1772812418217225500,5.3722255859375,0.0005345066892914474,-0.03000873140990734,0.014737112447619438
1772812418226926300,5.38192626953125,-0.0031306820455938578,-0.016875140368938446,-0.020082179456949234
1772812418236627000,5.391626953125,-0.0019089524867013097,-0.0012980876490473747,-0.05154171586036682
1772812418246327600,5.40132763671875,0.0035888305865228176,0.01030834298580885,-0.07047852128744125
1772812418256028400,5.4110283203125,0.010613775812089443,0.013973532244563103,-0.06650790572166443
1772812418265729000,5.42072900390625,0.015195261687040329,0.008170315995812416,-0.04543306678533554
1772812418275429600,5.4304296875,0.013668099418282509,-0.010461059398949146,-0.013057234697043896
1772812418285130200,5.440130126953125,0.007864884100854397,-0.028176138177514076,0.022678354755043983
1772812418294831000,5.4498310546875,0.002672533504664898,-0.03367391973733902,0.04864010959863663
1772812418304531700,5.45953173828125,0.004810560029000044,-0.030925029888749123,0.05658135190606117
1772812418314232300,5.469232421875,0.008170315995812416,-0.01259908638894558,0.04741837829351425
1772812418323933200,5.47893310546875,0.010919207707047462,0.0066431546583771706,0.03061959706246853
1772812418333633800,5.4886337890625,0.012751801870763302,0.015806125476956367,0.010766491293907166
1772812418343334400,5.49833447265625,0.012751801870763302,0.01672242395579815,-0.0011453714687377214
1772812418353035300,5.50803515625,0.015500693581998348,0.00847574882209301,-0.00022907429956831038
1772812418362735900,5.51773583984375,0.01763872057199478,-0.0058795735239982605,0.008323032408952713
1772812418372436700,5.527436767578125,0.0191658828407526,-0.022678354755043983,0.01626427471637726
1772812418382137300,5.537137451171875,0.018860450014472008,-0.033979352563619614,0.014431680552661419
1772812418391838000,5.546837890625,0.015195261687040329,-0.0345902182161808,0.004046979360282421
1772812418401538800,5.556538818359375,0.01030834298580885,-0.020540328696370125,-0.009697478264570236
1772812418411239400,5.566239501953125,0.0023671009112149477,0.002672533504664898,-0.023747367784380913
1772812418420940000,5.57593994140625,-0.01259908638894558,0.028328854590654373,-0.027107125148177147
1772812418430641000,5.585640869140625,-0.026648975908756256,0.037491824477910995,-0.010919207707047462
1772812418440341500,5.595341552734375,-0.03550651669502258,0.02741255611181259,0.011682788841426373
1772812418450042000,5.6050419921875,-0.03764454275369644,0.013057234697043896,0.03520108386874199
1772812418459743000,5.614742919921875,-0.03672824427485466,-0.0009926552884280682,0.049250971525907516
1772812418469443600,5.624443603515625,-0.03581194952130318,-0.004046979360282421,0.05474875494837761
1772812418479144200,5.634144287109375,-0.03428478538990021,0.001450803829357028,0.04833467677235603
1772812418488844800,5.6438447265625,-0.02542724646627903,0.012446369975805283,0.036422811448574066
1772812418498545700,5.653545654296875,-0.016875140368938446,0.020998476073145866,0.020540328696370125
1772812418508246300,5.663246337890625,-0.007101302966475487,0.021914774551987648,0.008933897130191326
1772812418517947000,5.67294677734375,0.00022907429956831038,0.016416991129517555,-0.0011453714687377214
1772812418527647700,5.682647705078125,0.0029779658652842045,0.008781181648373604,-0.004505127668380737
1772812418537348400,5.692348388671875,0.004505127668380737,-0.0034361144062131643,-0.007254019379615784
1772812418547049000,5.702049072265625,0.012140937149524689,-0.00954476185142994,-0.007864884100854397
1772812418556749800,5.711749755859375,0.023441936820745468,-0.010766491293907166,-0.004199695307761431
1772812418566450400,5.721450439453125,0.023747367784380913,-0.020540328696370125,-0.0023671009112149477
1772812418576151000,5.731151123046875,0.02283107116818428,-0.006185005884617567,0.013209951110184193
1772812418585851600,5.7408515625,0.013973532244563103,-0.0009926552884280682,0.030314164236187935
1772812418595552500,5.750552490234375,-0.0022143847309052944,-0.011682788841426373,0.037949975579977036
1772812418605253000,5.760253173828125,-0.010155626572668552,-0.008628465235233307,0.04069886729121208
1772812418614953700,5.76995361328125,-0.015347977168858051,0.0023671009112149477,0.03367391973733902
1772812418624654600,5.779654541015625,-0.015958841890096664,0.01611155830323696,0.026038112118840218
1772812418634355200,5.789355224609375,-0.00923932995647192,0.029856016859412193,0.023594651371240616
1772812418644055800,5.799055908203125,-0.007101302966475487,0.023441936820745468,0.024205517023801804
1772812418653756700,5.808756591796875,-0.0077121676877141,0.00511599238961935,0.026343543082475662
1772812418663457300,5.818457275390625,-0.008933897130191326,-0.010766491293907166,0.019013166427612305
1772812418673158000,5.828157958984375,-0.009850194677710533,-0.014737112447619438,-0.000839939049910754
1772812418682858800,5.837858642578125,-0.004352411720901728,-0.0025198173243552446,-0.02130390889942646
1772812418692559400,5.847559326171875,0.005421424750238657,0.003283398225903511,-0.03962985426187515
1772812418702260000,5.857260009765625,0.01183550525456667,0.0005345066892914474,-0.0475710928440094
1772812418711960600,5.866960693359375,0.009697478264570236,-0.0022143847309052944,-0.040546149015426636
1772812418721661400,5.876661376953125,-0.004046979360282421,-0.008628465235233307,-0.02130390889942646
1772812418731362000,5.886362060546875,-0.025732679292559624,-0.024510949850082397,-0.0035888305865228176
1772812418741062700,5.896062744140625,-0.044669486582279205,-0.031230462715029716,0.006185005884617567
1772812418750763500,5.905763427734375,-0.05169443041086197,-0.02390008419752121,0.0006872228696011007
1772812418760464100,5.915464111328125,-0.04802924394607544,-0.00954476185142994,-0.015195261687040329
1772812418770164700,5.925164794921875,-0.03825540840625763,0.012446369975805283,-0.0295505840331316
1772812418779865600,5.934865478515625,-0.02909243479371071,0.03321577236056328,-0.03413207083940506
1772812418789566200,5.944566162109375,-0.02176205813884735,0.03260490670800209,-0.02649625949561596
1772812418799266800,5.954266845703125,-0.021151192486286163,0.014278964139521122,-0.009697478264570236
1772812418808967400,5.963967529296875,-0.02328922040760517,-0.003741546766832471,0.012904518283903599
1772812418818668300,5.973668212890625,-0.022983787581324577,-0.014126247726380825,0.03000873140990734
1772812418828369000,5.983368896484375,-0.014431680552661419,-0.01718057133257389,0.0345902182161808
1772812418838069500,5.993069580078125,-0.0016035200096666813,-0.013820815831422806,0.025732679292559624
1772812418847770400,6.002770263671875,0.01030834298580885,-0.004657844081521034,0.012293653562664986
1772812418857471000,6.012470947265625,0.014889828860759735,0.002672533504664898,-0.0005345066892914474
1772812418867171800,6.022171875,0.013057234697043896,0.00022907429956831038,-0.010919207707047462
1772812418876872400,6.03187255859375,0.011224640533328056,-0.008323032408952713,-0.014584396965801716
1772812418886573000,6.041572998046875,0.01000291109085083,-0.0077121676877141,-0.015500693581998348
1772812418896274000,6.05127392578125,0.01000291109085083,-0.0006872228696011007,-0.00755945174023509
1772812418905974500,6.060974609375,0.008781181648373604,-0.004657844081521034,0.0019089524867013097
1772812418915675100,6.070675048828125,0.008781181648373604,-0.019624030217528343,0.005574141163378954
1772812418925376000,6.0803759765625,0.009392046369612217,-0.02542724646627903,0.004046979360282421
1772812418935076600,6.09007666015625,0.009086613543331623,-0.00954476185142994,0.0031306820455938578
1772812418944777200,6.099777099609375,0.003894262947142124,0.00847574882209301,0.0006872228696011007
1772812418954477800,6.109477783203125,-0.007406735327094793,0.00847574882209301,-0.000839939049910754
1772812418964178700,6.1191787109375,-0.015042545273900032,0.007254019379615784,0.0058795735239982605
1772812418973879300,6.12887939453125,-0.010461059398949146,0.00603228947147727,0.008933897130191326
1772812418983580000,6.138579833984375,-0.0012980876490473747,0.0023671009112149477,0.013209951110184193
1772812418993280800,6.14828076171875,0.000839939049910754,-0.00007635809743078426,0.018096869811415672
1772812419002981400,6.1579814453125,-0.0025198173243552446,0.004199695307761431,0.022678354755043983
1772812419012682000,6.167681884765625,-0.0031306820455938578,0.007864884100854397,0.029397867619991302
1772812419022382800,6.1773828125,-0.005268708802759647,0.0011453714687377214,0.030314164236187935
1772812419032083500,6.18708349609375,-0.002825249684974551,-0.010461059398949146,0.02328922040760517
1772812419041784000,6.1967841796875,0.0035888305865228176,-0.013209951110184193,0.009850194677710533
1772812419051484700,6.206484619140625,0.009086613543331623,-0.008628465235233307,-0.004810560029000044
1772812419061185500,6.216185546875,0.009086613543331623,-0.0031306820455938578,-0.02283107116818428
1772812419070886100,6.22588623046875,0.004810560029000044,-0.0009926552884280682,-0.033826638013124466
1772812419080586800,6.235586669921875,-0.00007635809743078426,0.004199695307761431,-0.03932442143559456
1772812419090287600,6.24528759765625,-0.0019089524867013097,0.011224640533328056,-0.032910339534282684
1772812419099988200,6.25498828125,-0.0016035200096666813,0.01000291109085083,-0.019471315667033195
1772812419109688800,6.264688720703125,-0.0012980876490473747,0.00022907429956831038,-0.005421424750238657
1772812419119389700,6.2743896484375,-0.00038179047987796366,-0.004046979360282421,0.004046979360282421
1772812419129090300,6.28409033203125,0.003283398225903511,0.0017562361899763346,0.015042545273900032
1772812419138791000,6.293791015625,0.002061668550595641,0.00511599238961935,0.024816380813717842
1772812419148491500,6.303491455078125,-0.0019089524867013097,-0.003741546766832471,0.027870705351233482
1772812419158192400,6.3131923828125,-0.0012980876490473747,-0.005268708802759647,0.025121813639998436
1772812419167893000,6.32289306640625,0.008170315995812416,0.001450803829357028,0.019624030217528343
1772812419177593600,6.332593505859375,0.01672242395579815,-0.004046979360282421,0.01107192412018776
1772812419187294500,6.34229443359375,0.020693045109510422,-0.00954476185142994,0.004046979360282421
1772812419196995000,6.3519951171875,0.020998476073145866,-0.006185005884617567,-0.0029779658652842045
1772812419206695700,6.36169580078125,0.01763872057199478,0.0035888305865228176,-0.004505127668380737
1772812419216396500,6.371396484375,0.003894262947142124,0.011530072428286076,0.0009926552884280682
1772812419226097200,6.38109716796875,-0.005268708802759647,0.004810560029000044,0.01107192412018776
1772812419235797800,6.3907978515625,-0.0019089524867013097,-0.0058795735239982605,0.018402300775051117
1772812419245498400,6.400498291015625,0.005421424750238657,-0.011988221667706966,0.023594651371240616
1772812419255199200,6.41019921875,0.004810560029000044,-0.015347977168858051,0.02237292192876339
1772812419264899800,6.41989990234375,-0.0019089524867013097,-0.014126247726380825,0.008017600513994694
1772812419274600400,6.429600341796875,-0.011682788841426373,-0.0019089524867013097,-0.013057234697043896
1772812419284301300,6.43930126953125,-0.019624030217528343,0.01030834298580885,-0.033826638013124466
1772812419294002000,6.449001953125,-0.021456625312566757,0.012446369975805283,-0.04543306678533554
1772812419303702500,6.45870263671875,-0.014126247726380825,0.008170315995812416,-0.04818195849657059
1772812419313403400,6.4684033203125,-0.0031306820455938578,0.00511599238961935,-0.04085158184170723
1772812419323104000,6.47810400390625,0.004199695307761431,-0.0034361144062131643,-0.02802342176437378
1772812419332804600,6.4878046875,0.004810560029000044,-0.011682788841426373,-0.011224640533328056
1772812419342505500,6.49750537109375,0.008170315995812416,-0.018096869811415672,-0.003283398225903511
1772812419352206000,6.5072060546875,0.010613775812089443,-0.01779143698513508,0.00038179047987796366
1772812419361906700,6.51690673828125,0.014889828860759735,-0.014737112447619438,-0.002672533504664898
1772812419371607600,6.526607666015625,0.0191658828407526,-0.011988221667706966,-0.00603228947147727
1772812419381308200,6.53630810546875,0.022525638341903687,-0.00007635809743078426,-0.0057268571108579636
1772812419391008800,6.5460087890625,0.02130390889942646,0.012446369975805283,-0.0035888305865228176
1772812419400709600,6.555709716796875,0.013057234697043896,0.012751801870763302,0.003741546766832471
1772812419410410200,6.56541015625,0.007254019379615784,0.003894262947142124,0.012293653562664986
1772812419420110800,6.57511083984375,0.00847574882209301,-0.008628465235233307,0.01259908638894558
1772812419429811700,6.584811767578125,0.017944153398275375,-0.014737112447619438,0.010766491293907166
1772812419449213000,6.604212890625,0.02802342176437378,-0.012293653562664986,-0.015806125476956367
1772812419458913500,6.61391357421875,0.025274530053138733,-0.0031306820455938578,-0.028328854590654373
1772812419468614400,6.623614501953125,0.022525638341903687,0.002061668550595641,-0.0319940410554409
1772812419478315000,6.63331494140625,0.017333287745714188,0.00511599238961935,-0.025579962879419327
1772812419488015600,6.643015625,0.014889828860759735,0.0023671009112149477,-0.015195261687040329
1772812419497716500,6.652716552734375,0.015806125476956367,-0.0019089524867013097,0.0006872228696011007
1772812419507417000,6.6624169921875,0.0191658828407526,-0.01107192412018776,0.00954476185142994
1772812419517117700,6.67211767578125,0.019471315667033195,-0.020540328696370125,0.01565340906381607
1772812419526818300,6.681818359375,0.012446369975805283,-0.022678354755043983,0.014431680552661419
1772812419536519200,6.691519287109375,0.0017562361899763346,-0.010155626572668552,0.008933897130191326
1772812419546219800,6.7012197265625,-0.0077121676877141,0.010613775812089443,-0.00022907429956831038
1772812419555920400,6.71092041015625,-0.013209951110184193,0.0243582334369421,-0.0057268571108579636
1772812419565621200,6.720621337890625,-0.015347977168858051,0.023747367784380913,-0.00847574882209301
1772812419575321900,6.73032177734375,-0.011988221667706966,0.011530072428286076,-0.011530072428286076
1772812419585022500,6.7400224609375,-0.0034361144062131643,0.003283398225903511,-0.013057234697043896
1772812419594723300,6.749723388671875,0.0023671009112149477,-0.004657844081521034,-0.013973532244563103
1772812419604424000,6.759423828125,0.002672533504664898,-0.01107192412018776,-0.014584396965801716
1772812419614124500,6.76912451171875,0.0023671009112149477,-0.008628465235233307,-0.014889828860759735
1772812419623825200,6.7788251953125,-0.0022143847309052944,-0.0016035200096666813,-0.014584396965801716
1772812419633526000,6.788526123046875,-0.011377356946468353,0.01030834298580885,-0.01030834298580885
1772812419643226600,6.7982265625,-0.027259841561317444,0.030161447823047638,-0.0029779658652842045
1772812419652927200,6.80792724609375,-0.0449749194085598,0.042684175074100494,-0.0023671009112149477
1772812419662628000,6.817628173828125,-0.050778135657310486,0.03871355578303337,-0.004199695307761431
1772812419672328700,6.82732861328125,-0.04130972921848297,0.020693045109510422,-0.00603228947147727
1772812419682029300,6.837029296875,-0.021151192486286163,-0.0022143847309052944,-0.01000291109085083
1772812419691730000,6.84672998046875,-0.005268708802759647,-0.015042545273900032,-0.018555017188191414
1772812419701430800,6.8564306640625,0.0035888305865228176,-0.014126247726380825,-0.02649625949561596
1772812419711131400,6.86613134765625,0.002061668550595641,-0.004352411720901728,-0.0371863916516304
1772812419720832300,6.875832275390625,-0.0019089524867013097,0.016416991129517555,-0.03993528336286545
1772812419730532900,6.885532958984375,-0.004046979360282421,0.027107125148177147,-0.037491824477910995
1772812419740233500,6.8952333984375,-0.0034361144062131643,0.020693045109510422,-0.022220205515623093
1772812419749934300,6.904934326171875,-0.00038179047987796366,0.00755945174023509,-0.002061668550595641
1772812419759635000,6.914635009765625,0.006948587018996477,-0.0006872228696011007,0.015958841890096664
1772812419769335600,6.92433544921875,0.01824958436191082,-0.0016035200096666813,0.02848157100379467
1772812419779036400,6.934036376953125,0.030161447823047638,0.00511599238961935,0.037033677101135254
1772812419788737000,6.943737060546875,0.03810269013047218,0.0066431546583771706,0.037033677101135254
1772812419798437600,6.953437744140625,0.03504836559295654,0.0023671009112149477,0.03153589367866516
1772812419808138200,6.96313818359375,0.023747367784380913,-0.00007635809743078426,0.021456625312566757
1772812419817839000,6.972839111328125,0.009392046369612217,0.002672533504664898,0.010766491293907166
1772812419827539700,6.982539794921875,-0.0016035200096666813,0.0057268571108579636,0.003741546766832471
1772812419837240300,6.992240234375,-0.0025198173243552446,-0.0016035200096666813,-0.013668099418282509
1772812419846941200,7.001941162109375,0.006948587018996477,-0.0058795735239982605,-0.027107125148177147
1772812419856641800,7.011641845703125,0.020082179456949234,-0.008017600513994694,-0.03504836559295654
1772812419866342400,7.02134228515625,0.02741255611181259,-0.008017600513994694,-0.040546149015426636
1772812419876043000,7.03104296875,0.024052800610661507,-0.004046979360282421,-0.037491824477910995
1772812419885743900,7.040743896484375,0.014584396965801716,-0.0019089524867013097,-0.02802342176437378
1772812419895444500,7.050444580078125,0.0023671009112149477,-0.0031306820455938578,-0.013362666592001915
1772812419905145000,7.06014501953125,-0.0058795735239982605,-0.00007635809743078426,-0.002061668550595641
1772812419914846000,7.069845947265625,-0.003741546766832471,0.007864884100854397,0.00679587060585618
1772812419924546600,7.079546630859375,0.0029779658652842045,0.00847574882209301,0.00954476185142994
1772812419934247200,7.0892470703125,0.008170315995812416,-0.0019089524867013097,0.006490438245236874
1772812419943948000,7.098947998046875,0.015195261687040329,-0.008628465235233307,0.0019089524867013097
1772812419953648600,7.108648681640625,0.02130390889942646,-0.010155626572668552,-0.003283398225903511
1772812419963349200,7.118349365234375,0.022220205515623093,-0.0077121676877141,-0.007254019379615784
1772812419973049900,7.1280498046875,0.019471315667033195,-0.0031306820455938578,-0.009392046369612217
1772812419982750700,7.137750732421875,0.018555017188191414,-0.0006872228696011007,-0.01000291109085083
1772812419992451300,7.147451416015625,0.020082179456949234,-0.004352411720901728,-0.010919207707047462
1772812420002152000,7.15715185546875,0.01672242395579815,-0.006490438245236874,-0.012446369975805283
1772812420011852800,7.166852783203125,0.014584396965801716,-0.0031306820455938578,-0.01611155830323696
1772812420021553400,7.176553466796875,0.009697478264570236,0.001450803829357028,-0.013668099418282509
1772812420031254000,7.18625390625,0.0023671009112149477,0.0029779658652842045,-0.01030834298580885
1772812420040954600,7.19595458984375,-0.0031306820455938578,0.002672533504664898,-0.002672533504664898
1772812420050655500,7.205655517578125,-0.004352411720901728,0.0017562361899763346,0.0022143847309052944
1772812420060356000,7.215356201171875,-0.006185005884617567,0.003894262947142124,0.01107192412018776
1772812420070056700,7.225056640625,-0.008933897130191326,0.0005345066892914474,0.013820815831422806
1772812420079757600,7.234757568359375,-0.007101302966475487,-0.004963276442140341,0.01626427471637726
1772812420089458200,7.244458251953125,-0.0012980876490473747,-0.0025198173243552446,0.01626427471637726
1772812420099158800,7.25415869140625,0.005421424750238657,0.006337722297757864,0.012293653562664986
1772812420108859600,7.263859619140625,0.007864884100854397,0.01000291109085083,0.005268708802759647
1772812420118560300,7.273560302734375,0.006948587018996477,0.010613775812089443,-0.004505127668380737
1772812420128260900,7.2832607421875,0.00755945174023509,0.00603228947147727,-0.014889828860759735
1772812420137961700,7.292961669921875,0.01030834298580885,-0.0009926552884280682,-0.023136503994464874
1772812420147662300,7.302662353515625,0.01183550525456667,-0.007406735327094793,-0.026190826669335365
1772812420157363000,7.312363037109375,0.010919207707047462,-0.015347977168858051,-0.024663666263222694
1772812420167063800,7.322063720703125,0.010919207707047462,-0.01565340906381607,-0.016416991129517555
1772812420176764400,7.331764404296875,0.013057234697043896,-0.011988221667706966,-0.012751801870763302
1772812420186465000,7.341465087890625,0.01183550525456667,-0.008323032408952713,-0.00847574882209301
1772812420196166000,7.351165771484375,0.007864884100854397,-0.0022143847309052944,-0.007254019379615784
1772812420205866500,7.360866455078125,0.0057268571108579636,0.004505127668380737,-0.009697478264570236
1772812420215567000,7.370567138671875,0.0017562361899763346,0.005421424750238657,-0.011530072428286076
1772812420225267700,7.380267822265625,-0.0019089524867013097,0.004199695307761431,-0.006337722297757864
1772812420234968600,7.389968505859375,-0.0006872228696011007,0.006948587018996477,0.0019089524867013097
1772812420244669200,7.399669189453125,0.002061668550595641,0.01030834298580885,0.014737112447619438
1772812420254369800,7.409369873046875,0.0023671009112149477,0.0066431546583771706,0.02328922040760517
1772812420264070700,7.419070556640625,0.001450803829357028,0.002672533504664898,0.02848157100379467
1772812420273771300,7.428771240234375,0.0035888305865228176,-0.0022143847309052944,0.024816380813717842
1772812420283472000,7.438471923828125,0.003894262947142124,-0.007406735327094793,0.01565340906381607
1772812420293172500,7.44817236328125,0.003894262947142124,-0.010766491293907166,0.0009926552884280682
1772812420302873300,7.457873291015625,0.008170315995812416,0.004810560029000044,-0.006948587018996477
1772812420312574000,7.467573974609375,0.012446369975805283,0.020082179456949234,-0.010613775812089443
1772812420322274600,7.477274658203125,0.01183550525456667,0.022525638341903687,-0.0035888305865228176
1772812420331975400,7.486975341796875,0.0029779658652842045,0.013057234697043896,0.008323032408952713
1772812420341676000,7.496676025390625,-0.01107192412018776,0.0011453714687377214,0.01718057133257389
1772812420351376600,7.506376708984375,-0.021151192486286163,-0.009850194677710533,0.01626427471637726
1772812420361077200,7.5160771484375,-0.02237292192876339,-0.013820815831422806,0.0022143847309052944
1772812420370778000,7.525778076171875,-0.015958841890096664,-0.00923932995647192,-0.018860450014472008
1772812420380478700,7.535478759765625,-0.008323032408952713,0.001450803829357028,-0.03962985426187515
1772812420390179300,7.545179443359375,0.0011453714687377214,0.014278964139521122,-0.0524580143392086
1772812420399880200,7.554880126953125,-0.00038179047987796366,0.024663666263222694,-0.05612320080399513
1772812420409580800,7.564580810546875,-0.013820815831422806,0.028634287416934967,-0.04543306678533554
1772812420419281400,7.574281494140625,-0.04283689334988594,0.017333287745714188,-0.01977674663066864
1772812420428982000,7.58398193359375,-0.07215840369462967,0.021609341725707054,0.013515383005142212
1772812420438683000,7.593682861328125,-0.06635518372058868,0.03657552972435951,0.03825540840625763
1772812420448383500,7.603383544921875,-0.04528035223484039,0.05917752534151077,0.0553596206009388
1772812420458084000,7.613083984375,-0.024816380813717842,0.06986765563488007,0.059024810791015625
1772812420467785000,7.622784912109375,-0.013209951110184193,0.07506000995635986,0.06085740402340889
1772812420477485600,7.632485595703125,-0.015042545273900032,0.06620246917009354,0.061162836849689484
1772812420487186200,7.642186279296875,-0.02176205813884735,0.04176788032054901,0.0657443255186081
1772812420496887000,7.651886962890625,-0.025732679292559624,0.051847148686647415,0.07673988491296768
1772812420506587600,7.661587646484375,-0.01565340906381607,0.05673406645655632,0.081015944480896
1772812420516288300,7.671288330078125,0.0029779658652842045,0.04176788032054901,0.08834631741046906
1772812420535689700,7.690689697265625,0.013057234697043896,0.009697478264570236,0.08223766833543777
1772812420545390300,7.700390380859375,-0.006490438245236874,-0.010461059398949146,0.06268999725580215
1772812420555091200,7.71009130859375,-0.019929463043808937,-0.010766491293907166,0.04711294546723366
1772812420564791800,7.719791748046875,-0.025732679292559624,-0.004963276442140341,0.021456625312566757
1772812420574492400,7.729492431640625,-0.015042545273900032,0.03321577236056328,0.00679587060585618
1772812420584193000,7.739193115234375,-0.00038179047987796366,0.06620246917009354,0.005574141163378954
1772812420593894000,7.748893798828125,0.01672242395579815,0.07780890166759491,0.024510949850082397
1772812420603594500,7.758594482421875,0.01977674663066864,0.05917752534151077,0.060551971197128296
1772812420613295000,7.768295166015625,0.009086613543331623,0.018860450014472008,0.09903645515441895
1772812420622996000,7.777995849609375,0.0023671009112149477,-0.018096869811415672,0.11919499188661575
1772812420632696600,7.787696533203125,0.000839939049910754,-0.040088001638650894,0.1170569658279419
1772812420642397200,7.797397216796875,-0.0012980876490473747,-0.043142326176166534,0.0962875634431839
1772812420652097800,7.807097900390625,-0.004657844081521034,-0.037033677101135254,0.0553596206009388
1772812420661798700,7.816798583984375,-0.0016035200096666813,-0.01779143698513508,0.00954476185142994
1772812420671499300,7.826499267578125,0.00847574882209301,-0.023594651371240616,-0.0423787422478199
1772812420681199900,7.836199951171875,0.020998476073145866,-0.030925029888749123,-0.08025235682725906
1772812420690900700,7.845900634765625,0.025579962879419327,-0.05169443041086197,-0.10163262486457825
1772812420700601300,7.855601318359375,0.028328854590654373,-0.07673988491296768,-0.11537708342075348
1772812420710302000,7.865302001953125,0.03504836559295654,-0.07612902671098709,-0.11812597513198853
1772812420720002600,7.87500244140625,0.04085158184170723,-0.05047270283102989,-0.11049016565084457
1772812420729703400,7.884703369140625,0.04146244749426842,-0.03153589367866516,-0.09002619981765747
1772812420739404000,7.894404052734375,0.03138317912817001,-0.028176138177514076,-0.053985174745321274
1772812420749104600,7.904104736328125,0.020693045109510422,-0.030925029888749123,-0.01763872057199478
1772812420758805500,7.913805419921875,0.009392046369612217,-0.04222602769732475,0.00679587060585618
1772812420768506000,7.923506103515625,-0.010155626572668552,-0.04741837829351425,0.013209951110184193
1772812420778206700,7.933206787109375,-0.027870705351233482,-0.03306305781006813,0.010155626572668552
1772812420787907300,7.9429072265625,-0.0345902182161808,-0.004963276442140341,0.0016035200096666813
1772812420807308800,7.962308837890625,-0.024816380813717842,0.004810560029000044,-0.030466880649328232
1772812420817009400,7.972009521484375,-0.019013166427612305,0.003894262947142124,-0.04482220485806465
1772812420826710300,7.981710205078125,-0.013820815831422806,0.01611155830323696,-0.0524580143392086
1772812420836411000,7.991410888671875,-0.006490438245236874,0.017333287745714188,-0.05001455545425415
1772812420846111500,8.001111572265625,-0.0009926552884280682,0.012446369975805283,-0.0319940410554409
1772812420855812400,8.010812255859374,-0.0034361144062131643,0.0057268571108579636,-0.0035888305865228176
1772812420865513000,8.020512939453125,-0.01259908638894558,-0.015042545273900032,0.02695440873503685
1772812420875213600,8.030213623046874,-0.02023489587008953,-0.03428478538990021,0.04283689334988594
1772812420884914400,8.03991455078125,-0.021456625312566757,-0.03611737862229347,0.037949975579977036
1772812420894615000,8.049614990234375,-0.017486004158854485,-0.027870705351233482,0.014737112447619438
1772812420904315600,8.059315673828126,-0.008017600513994694,-0.005574141163378954,-0.014584396965801716
1772812420914016500,8.0690166015625,0.0035888305865228176,0.013973532244563103,-0.04604393243789673
1772812420923717000,8.078717041015626,0.01183550525456667,0.021914774551987648,-0.06375901401042938
1772812420933417700,8.088417724609375,0.01030834298580885,0.025274530053138733,-0.05826122686266899
1772812420943118300,8.098118408203124,-0.0009926552884280682,0.015500693581998348,-0.03474293276667595
1772812420952819200,8.107819091796875,-0.014126247726380825,0.0035888305865228176,0.0006872228696011007
1772812420962519800,8.117519775390624,-0.022678354755043983,-0.012904518283903599,0.03153589367866516
1772812420972220400,8.127220458984375,-0.022983787581324577,-0.022067490965127945,0.05199986323714256
1772812420991622000,8.146621826171875,-0.0019089524867013097,-0.015958841890096664,0.031230462715029716
1772812421001322500,8.156322509765625,0.004199695307761431,-0.0019089524867013097,0.004657844081521034
1772812421011023000,8.166023193359376,0.003894262947142124,0.009392046369612217,-0.012140937149524689
1772812421020724000,8.175723876953125,-0.0058795735239982605,0.005421424750238657,-0.017944153398275375
1772812421030424600,8.185424560546876,-0.014431680552661419,0.002061668550595641,-0.012140937149524689
1772812421040125200,8.195125244140625,-0.01718057133257389,-0.004963276442140341,-0.011224640533328056
1772812421049825800,8.20482568359375,-0.01565340906381607,-0.015347977168858051,-0.020998476073145866
1772812421059526700,8.214526611328125,-0.011988221667706966,-0.014737112447619438,-0.0322994738817215
1772812421069227300,8.224227294921874,-0.010766491293907166,-0.008017600513994694,-0.046654798090457916
1772812421078928000,8.233927978515625,-0.015042545273900032,-0.0006872228696011007,-0.0576503649353981
1772812421088628700,8.243628662109375,-0.019929463043808937,0.00847574882209301,-0.05520690605044365
1772812421098329300,8.253329345703126,-0.02390008419752121,0.012446369975805283,-0.0475710928440094
1772812421108030000,8.263030029296875,-0.02237292192876339,0.0011453714687377214,-0.03168861195445061
1772812421117730600,8.27273046875,-0.020540328696370125,-0.020540328696370125,-0.014584396965801716
1772812421127431400,8.282431396484375,-0.02084576152265072,-0.02756527252495289,0.0019089524867013097
1772812421137132000,8.292132080078124,-0.01626427471637726,-0.018402300775051117,0.01107192412018776
1772812421146832600,8.30183251953125,-0.013515383005142212,-0.003741546766832471,0.002825249684974551
1772812421156533500,8.311533447265624,-0.011988221667706966,0.0011453714687377214,-0.0017562361899763346
1772812421166234000,8.321234130859375,-0.015042545273900032,0.009086613543331623,-0.004199695307761431
1772812421175934700,8.330934814453125,-0.012904518283903599,0.012446369975805283,-0.009086613543331623
1772812421185635600,8.340635498046876,-0.00923932995647192,0.015195261687040329,-0.008170315995812416
1772812421195336200,8.350336181640625,-0.008323032408952713,0.010613775812089443,-0.001450803829357028
1772812421205036800,8.360036865234376,-0.005268708802759647,-0.0022143847309052944,0.002825249684974551
1772812421214737700,8.369737548828125,0.002061668550595641,-0.006490438245236874,0.0022143847309052944
1772812421224438300,8.379438232421874,0.004505127668380737,0.004505127668380737,-0.0029779658652842045
1772812421234139000,8.389138916015625,0.002061668550595641,0.014584396965801716,-0.012140937149524689
1772812421243839700,8.39883984375,0.0005345066892914474,0.017027854919433594,-0.013668099418282509
1772812421253540400,8.408540283203125,-0.0031306820455938578,0.009392046369612217,-0.01030834298580885
1772812421263241000,8.418240966796875,-0.004352411720901728,-0.00679587060585618,-0.004199695307761431
1772812421272941600,8.427941650390625,-0.0009926552884280682,-0.022678354755043983,-0.0005345066892914474
1772812421282642400,8.437642333984375,0.002672533504664898,-0.02542724646627903,0.0006872228696011007
1772812421292343000,8.447343017578126,0.004810560029000044,-0.022983787581324577,-0.008170315995812416
1772812421302043600,8.457043701171875,0.00847574882209301,-0.0077121676877141,-0.014584396965801716
1772812421311744500,8.46674462890625,0.007254019379615784,0.012751801870763302,-0.014584396965801716
1772812421321445000,8.476445068359375,-0.00007635809743078426,0.015195261687040329,-0.0023671009112149477
1772812421331145700,8.486145751953124,-0.01107192412018776,0.006948587018996477,0.012904518283903599
1772812421340846300,8.495846435546875,-0.01565340906381607,-0.0009926552884280682,0.028787001967430115
1772812421350547200,8.505547119140624,-0.00923932995647192,0.004505127668380737,0.03428478538990021
1772812421360247800,8.515247802734375,0.002061668550595641,0.012446369975805283,0.02848157100379467
1772812421369948400,8.524948486328125,0.007254019379615784,0.023136503994464874,0.024816380813717842
1772812421379649000,8.53464892578125,0.0023671009112149477,0.023441936820745468,0.02084576152265072
1772812421389350000,8.544349853515625,-0.00954476185142994,0.016416991129517555,0.013820815831422806
1772812421399050500,8.554050537109376,-0.022067490965127945,0.003283398225903511,0.006185005884617567
1772812421408751000,8.563751220703125,-0.029397867619991302,-0.006185005884617567,-0.013362666592001915
1772812421418452000,8.573451904296874,-0.025732679292559624,-0.0058795735239982605,-0.0322994738817215
1772812421428152600,8.583152587890625,-0.019624030217528343,0.0029779658652842045,-0.04604393243789673
1772812421437853200,8.592853271484374,-0.013515383005142212,0.00755945174023509,-0.04696023091673851
1772812421447553800,8.6025537109375,-0.008017600513994694,0.010613775812089443,-0.030772313475608826
1772812421457254700,8.612254638671875,-0.004963276442140341,0.001450803829357028,-0.010919207707047462
1772812421466955300,8.621955322265626,-0.0031306820455938578,-0.002825249684974551,0.014126247726380825
1772812421476655900,8.63165576171875,-0.0006872228696011007,-0.004046979360282421,0.024816380813717842
1772812421486356700,8.641356689453126,0.0066431546583771706,0.005421424750238657,0.026343543082475662
1772812421496057300,8.651057373046875,0.01030834298580885,0.017944153398275375,0.020540328696370125
1772812421505758000,8.660758056640624,0.005421424750238657,0.030772313475608826,0.01565340906381607
1772812421515458800,8.670458740234375,-0.0034361144062131643,0.04146244749426842,0.016569707542657852
1772812421525159400,8.680159423828124,-0.014126247726380825,0.03565923124551773,0.02237292192876339
1772812421534860000,8.689860107421875,-0.019624030217528343,0.017944153398275375,0.026343543082475662
1772812421544561000,8.699560791015625,-0.01626427471637726,0.01030834298580885,0.019929463043808937
1772812421554261500,8.709261474609375,-0.008628465235233307,0.0066431546583771706,0.0016035200096666813
1772812421563962000,8.718962158203125,-0.0009926552884280682,0.009697478264570236,-0.0191658828407526
1772812421573662700,8.728662841796876,0.004505127668380737,0.012751801870763302,-0.03871355578303337
1772812421583363600,8.738363525390625,0.0011453714687377214,0.0057268571108579636,-0.045738499611616135
1772812421593064200,8.748064208984376,-0.0077121676877141,0.000839939049910754,-0.03871355578303337
1772812421602764800,8.757764892578125,-0.016875140368938446,-0.00954476185142994,-0.02496909722685814
1772812421612465700,8.767465576171874,-0.02328922040760517,-0.011682788841426373,-0.013057234697043896
1772812421622166300,8.777166259765625,-0.024510949850082397,-0.0009926552884280682,-0.002672533504664898
1772812421631867000,8.786866943359374,-0.023594651371240616,0.017333287745714188,0.01779143698513508
1772812421641567500,8.7965673828125,-0.022067490965127945,0.0023671009112149477,0.037033677101135254
1772812421651268400,8.806268310546875,-0.015042545273900032,-0.01626427471637726,0.05719221383333206
1772812421660969000,8.815968994140626,-0.014431680552661419,-0.0345902182161808,0.07185296714305878
1772812421670669600,8.825669677734375,-0.017486004158854485,-0.04039343446493149,0.08132137358188629
1772812421680370200,8.8353701171875,-0.010461059398949146,-0.029397867619991302,0.07887791097164154
1772812421690071000,8.845071044921875,0.0023671009112149477,-0.034895651042461395,0.06207913160324097
1772812421699771600,8.854771728515624,0.014584396965801716,-0.03764454275369644,0.04192059487104416
1772812421709472300,8.86447216796875,0.023747367784380913,-0.016875140368938446,0.0058795735239982605
1772812421719173000,8.874173095703124,0.02649625949561596,0.008170315995812416,-0.030466880649328232
1772812421728873700,8.883873779296875,0.027717988938093185,0.023441936820745468,-0.06498073786497116
1772812421738574300,8.89357421875,0.03474293276667595,0.0243582334369421,-0.08819360285997391
1772812421748275000,8.90327490234375,0.041157014667987823,0.03107774630188942,-0.09918916970491409
1772812421757975800,8.912975830078125,0.04176788032054901,0.020082179456949234,-0.08972076326608658
1772812421767676400,8.922676513671876,0.03535379841923714,-0.01870773360133171,-0.06192641705274582
