time,seconds_elapsed,z,y,x
1772812369519514400,0.098514404296875,0.08452841639518738,0.28153231739997864,0.2176205813884735
1772812369529215000,0.108215087890625,0.03168861195445061,0.2592357397079468,0.22182027995586395
1772812369538915300,0.117915283203125,-0.01779143698513508,0.20334161818027496,0.24381139874458313
1772812369548616700,0.12761669921875,-0.060551971197128296,0.14775292575359344,0.2761872410774231
1772812369558317300,0.1373173828125,-0.0859028622508049,0.1037706509232521,0.3009272515773773
1772812369568018200,0.14701806640625,-0.09537126123905182,0.05887209251523018,0.28779366612434387
1772812369577719000,0.156718994140625,-0.09384410083293915,0.049709122627973557,0.24258968234062195
1772812369587419600,0.166419677734375,-0.0907897800207138,0.06620246917009354,0.17203480005264282
1772812369597120500,0.17612060546875,-0.0910952091217041,0.07719803601503372,0.08009964227676392
1772812369606821400,0.1858212890625,-0.08895718306303024,0.08391755074262619,-0.017944153398275375
1772812369616522000,0.19552197265625,-0.08284853398799896,0.08788817375898361,-0.10682497918605804
1772812369626222800,0.205222900390625,-0.07857248187065125,0.08208495378494263,-0.17982332408428192
1772812369635923700,0.214923828125,-0.07643445581197739,0.07383827865123749,-0.23083053529262543
1772812369645624600,0.22462451171875,-0.07887791097164154,0.05887209251523018,-0.2644280791282654
1772812369655325200,0.2343251953125,-0.08315397053956985,0.04390590637922287,-0.2726747691631317
1772812369665026000,0.244026123046875,-0.08437569439411163,0.03565923124551773,-0.2592357397079468
1772812369674727000,0.253726806640625,-0.0859028622508049,0.026190826669335365,-0.22472187876701355
1772812369684427500,0.263427490234375,-0.08345939964056015,0.023441936820745468,-0.18868085741996765
1772812369694128400,0.27312841796875,-0.07826705276966095,0.048792824149131775,-0.15844304859638214
1772812369703829200,0.282829345703125,-0.07796161621809006,0.07780890166759491,-0.13797907531261444
1772812369713529900,0.29252978515625,-0.070631243288517,0.1092684343457222,-0.11232276260852814
1772812369723230700,0.302230712890625,-0.05230529606342316,0.13675735890865326,-0.07444914430379868
1772812369732931600,0.311931640625,-0.04039343446493149,0.15661045908927917,-0.046654798090457916
1772812369742632200,0.321632080078125,-0.02328922040760517,0.16852232813835144,-0.027107125148177147
1772812369752333000,0.3313330078125,-0.004352411720901728,0.17188207805156708,-0.014889828860759735
1772812369762034000,0.341033935546875,0.014584396965801716,0.16241367161273956,-0.01183550525456667
1772812369771734800,0.35073486328125,0.024663666263222694,0.1303432732820511,-0.015500693581998348
1772812369781435400,0.360435302734375,0.019471315667033195,0.09735657274723053,-0.022220205515623093
1772812369791136300,0.37013623046875,0.0029779658652842045,0.0680350661277771,-0.020998476073145866
1772812369800837000,0.379837158203125,-0.017486004158854485,0.03504836559295654,-0.009086613543331623
1772812369810537700,0.389537841796875,-0.029703300446271896,-0.008933897130191326,0.010461059398949146
1772812369820238600,0.399238525390625,-0.03153589367866516,-0.04283689334988594,0.02848157100379467
1772812369829939500,0.408939453125,-0.021151192486286163,-0.05322159454226494,0.03733910992741585
1772812369839640000,0.41864013671875,-0.0034361144062131643,-0.04528035223484039,0.041004300117492676
1772812369849341000,0.4283408203125,0.009086613543331623,-0.03245219215750694,0.037949975579977036
1772812369859041800,0.438041748046875,0.01183550525456667,-0.005574141163378954,0.02909243479371071
1772812369868742400,0.447742431640625,0.007254019379615784,0.030466880649328232,0.015347977168858051
1772812369878443300,0.457443359375,-0.0077121676877141,0.06039925664663315,0.004657844081521034
1772812369888144100,0.46714404296875,-0.02328922040760517,0.0781143307685852,0.005268708802759647
1772812369897845000,0.476844970703125,-0.02756527252495289,0.07872519642114639,0.014431680552661419
1772812369907545600,0.486545654296875,-0.02023489587008953,0.057039499282836914,0.029397867619991302
1772812369917246500,0.49624658203125,-0.012293653562664986,0.02741255611181259,0.047723811119794846
1772812369926947300,0.505947265625,-0.010461059398949146,0.002061668550595641,0.061162836849689484
1772812369936648000,0.51564794921875,-0.014431680552661419,-0.018402300775051117,0.06452259421348572
1772812369946348800,0.525348876953125,-0.024205517023801804,-0.014737112447619438,0.05719221383333206
1772812369956049700,0.535049560546875,-0.03428478538990021,0.011530072428286076,0.044669486582279205
1772812369965750300,0.544750244140625,-0.03825540840625763,0.03932442143559456,0.028787001967430115
1772812369975451100,0.554451171875,-0.03886627033352852,0.05673406645655632,0.015347977168858051
1772812369985152000,0.564152099609375,-0.03672824427485466,0.05306887626647949,0.0077121676877141
1772812369994852600,0.5738525390625,-0.028176138177514076,0.03168861195445061,0.003741546766832471
1772812370004553500,0.583553466796875,-0.01565340906381607,0.004810560029000044,-0.0005345066892914474
1772812370014254300,0.59325439453125,0.0005345066892914474,-0.014126247726380825,-0.0017562361899763346
1772812370023955200,0.602955078125,0.010613775812089443,-0.02176205813884735,-0.00511599238961935
1772812370033655800,0.61265576171875,0.01030834298580885,-0.016875140368938446,-0.0035888305865228176
1772812370043356700,0.622356689453125,0.008781181648373604,-0.01779143698513508,-0.004199695307761431
1772812370053057500,0.6320576171875,0.012446369975805283,-0.026038112118840218,-0.006948587018996477
1772812370062758100,0.641758056640625,0.01672242395579815,-0.043142326176166534,-0.014278964139521122
1772812370072459000,0.651458984375,0.022220205515623093,-0.06910407543182373,-0.024052800610661507
1772812370082159900,0.661159912109375,0.026801692321896553,-0.08223766833543777,-0.024052800610661507
1772812370091860500,0.670860595703125,0.030772313475608826,-0.07612902671098709,-0.020082179456949234
1772812370101561300,0.680561279296875,0.032910339534282684,-0.057497646659612656,-0.011224640533328056
1772812370111262200,0.69026220703125,0.02802342176437378,-0.03245219215750694,0.0019089524867013097
1772812370120962800,0.699962890625,0.0191658828407526,-0.015347977168858051,0.0077121676877141
1772812370130663700,0.70966357421875,0.015195261687040329,-0.00038179047987796366,0.016569707542657852
1772812370140364500,0.719364501953125,0.020082179456949234,0.00603228947147727,0.022983787581324577
1772812370150065400,0.7290654296875,0.026190826669335365,0.00022907429956831038,0.024816380813717842
1772812370159766000,0.73876611328125,0.03321577236056328,0.0035888305865228176,0.026648975908756256
1772812370169467000,0.748466796875,0.03657552972435951,0.004199695307761431,0.028176138177514076
1772812370179167700,0.758167724609375,0.03627009689807892,-0.011682788841426373,0.026648975908756256
1772812370188868400,0.767868408203125,0.03474293276667595,-0.026648975908756256,0.029397867619991302
1772812370198569200,0.7775693359375,0.036880962550640106,-0.03520108386874199,0.03520108386874199
1772812370208270000,0.78727001953125,0.042073313146829605,-0.029703300446271896,0.04039343446493149
1772812370217970700,0.796970703125,0.04298960790038109,-0.021456625312566757,0.03764454275369644
1772812370227671600,0.806671630859375,0.037491824477910995,-0.004963276442140341,0.027870705351233482
1772812370237372400,0.816372314453125,0.0295505840331316,0.015806125476956367,0.015958841890096664
1772812370247073000,0.826072998046875,0.021609341725707054,0.01611155830323696,-0.0005345066892914474
1772812370256774000,0.83577392578125,0.013057234697043896,0.0017562361899763346,-0.00755945174023509
1772812370266474800,0.845474853515625,0.012446369975805283,-0.01107192412018776,-0.013973532244563103
1772812370276175600,0.855175537109375,0.013668099418282509,-0.0034361144062131643,-0.013362666592001915
1772812370285876200,0.864876220703125,0.011224640533328056,0.02802342176437378,-0.0005345066892914474
1772812370295577000,0.8745771484375,0.002061668550595641,0.050319984555244446,0.017486004158854485
1772812370305278000,0.88427783203125,-0.01259908638894558,0.06131555140018463,0.034895651042461395
1772812370314978600,0.893978515625,-0.019929463043808937,0.0732274129986763,0.04711294546723366
1772812370324679400,0.903679443359375,-0.019929463043808937,0.06864593178033829,0.051389001309871674
1772812370334380300,0.91338037109375,-0.015347977168858051,0.037491824477910995,0.05047270283102989
1772812370344081000,0.923080810546875,-0.004046979360282421,0.0057268571108579636,0.04283689334988594
1772812370353781800,0.93278173828125,0.011224640533328056,-0.00954476185142994,0.03153589367866516
1772812370363482600,0.942482666015625,0.022525638341903687,-0.016875140368938446,0.012293653562664986
1772812370373183200,0.952183349609375,0.02496909722685814,-0.021456625312566757,-0.010919207707047462
1772812370382884000,0.961884033203125,0.022525638341903687,-0.018096869811415672,-0.03627009689807892
1772812370392585000,0.9715849609375,0.024663666263222694,-0.015042545273900032,-0.05826122686266899
1772812370402285800,0.981285888671875,0.028328854590654373,-0.014431680552661419,-0.06986765563488007
1772812370411986400,0.990986328125,0.026190826669335365,-0.005574141163378954,-0.06375901401042938
1772812370421687300,1.000687255859375,0.021914774551987648,-0.002825249684974551,-0.049709122627973557
1772812370431388200,1.01038818359375,0.020082179456949234,-0.00954476185142994,-0.03352120518684387
1772812370441088800,1.0200888671875,0.02130390889942646,-0.013209951110184193,-0.017027854919433594
1772812370450789600,1.02978955078125,0.02496909722685814,-0.007406735327094793,0.0006872228696011007
1772812370460490500,1.039490478515625,0.023747367784380913,0.011224640533328056,0.0193185992538929
1772812370470191000,1.049191162109375,0.014889828860759735,0.025274530053138733,0.03764454275369644
1772812370479892000,1.05889208984375,-0.0009926552884280682,0.019471315667033195,0.05108356848359108
1772812370489592800,1.0685927734375,-0.013820815831422806,0.009392046369612217,0.05322159454226494
1772812370499293400,1.07829345703125,-0.019929463043808937,-0.00007635809743078426,0.03825540840625763
1772812370508994300,1.087994384765625,-0.01870773360133171,-0.008933897130191326,0.009850194677710533
1772812370518695200,1.097695068359375,-0.01107192412018776,-0.010766491293907166,-0.02283107116818428
1772812370528396000,1.10739599609375,-0.0019089524867013097,-0.00679587060585618,-0.05123628303408623
1772812370538096600,1.1170966796875,-0.0009926552884280682,-0.00038179047987796366,-0.06650790572166443
1772812370547797500,1.126797607421875,-0.007101302966475487,-0.0022143847309052944,-0.07078395783901215
1772812370557498400,1.136498291015625,-0.00923932995647192,-0.013209951110184193,-0.06589704006910324
1772812370567199000,1.146198974609375,-0.0006872228696011007,-0.029703300446271896,-0.0524580143392086
1772812370576899800,1.15589990234375,0.012446369975805283,-0.04955640435218811,-0.043600473552942276
1772812370586600700,1.1656005859375,0.021609341725707054,-0.060551971197128296,-0.03627009689807892
1772812370596301300,1.17530126953125,0.025579962879419327,-0.052916161715984344,-0.02893971838057041
1772812370606002200,1.185002197265625,0.025579962879419327,-0.04405862092971802,-0.028328854590654373
1772812370615703000,1.194703125,0.026801692321896553,-0.03886627033352852,-0.029856016859412193
1772812370625403600,1.204403564453125,0.026190826669335365,-0.031841326504945755,-0.03627009689807892
1772812370635104500,1.2141044921875,0.021914774551987648,-0.011682788841426373,-0.04329504072666168
1772812370644805400,1.223805419921875,0.011530072428286076,0.007864884100854397,-0.05001455545425415
1772812370654506200,1.23350634765625,-0.002825249684974551,0.01672242395579815,-0.0527634471654892
1772812370664206800,1.243206787109375,-0.01779143698513508,0.022220205515623093,-0.05429060757160187
1772812370673907700,1.25290771484375,-0.02909243479371071,0.023136503994464874,-0.05887209251523018
1772812370683608600,1.262608642578125,-0.036422811448574066,0.02588539570569992,-0.0631481483578682
1772812370693309200,1.27230908203125,-0.03886627033352852,0.017944153398275375,-0.07017309218645096
1772812370703010000,1.282010009765625,-0.03764454275369644,0.0035888305865228176,-0.07536543905735016
1772812370712711000,1.2917109375,-0.03061959706246853,-0.008323032408952713,-0.08147408813238144
1772812370722411500,1.30141162109375,-0.019929463043808937,-0.0193185992538929,-0.0888044685125351
1772812370732112400,1.3111123046875,-0.009850194677710533,-0.030925029888749123,-0.10071633011102676
1772812370741813200,1.320813232421875,-0.002825249684974551,-0.03764454275369644,-0.1141553521156311
1772812370751513900,1.330513916015625,0.002672533504664898,-0.04039343446493149,-0.13156500458717346
1772812370761214700,1.340214599609375,0.007254019379615784,-0.02909243479371071,-0.14683662354946136
1772812370770915600,1.34991552734375,0.009392046369612217,-0.006185005884617567,-0.14897464215755463
1772812370780616400,1.359616455078125,0.0023671009112149477,0.009392046369612217,-0.14347685873508453
1772812370790317000,1.369317138671875,-0.011682788841426373,0.017027854919433594,-0.12728895246982574
1772812370800018000,1.379017822265625,-0.02390008419752121,0.008170315995812416,-0.10315979272127151
1772812370809718800,1.38871875,-0.03000873140990734,-0.010766491293907166,-0.08055779337882996
1772812370819419400,1.39841943359375,-0.02695440873503685,-0.021151192486286163,-0.05887209251523018
1772812370829120300,1.408120361328125,-0.01718057133257389,-0.022067490965127945,-0.04512763395905495
1772812370838821000,1.417821044921875,-0.007101302966475487,-0.015042545273900032,-0.03657552972435951
1772812370848522000,1.42752197265625,0.00022907429956831038,-0.011988221667706966,-0.03535379841923714
1772812370858222600,1.43722265625,0.001450803829357028,-0.01626427471637726,-0.03871355578303337
1772812370867923500,1.44692333984375,-0.0025198173243552446,-0.018096869811415672,-0.040546149015426636
1772812370877624000,1.4566240234375,-0.010461059398949146,-0.01565340906381607,-0.04451677203178406
1772812370887325000,1.466324951171875,-0.019624030217528343,-0.005268708802759647,-0.04176788032054901
1772812370897025800,1.47602587890625,-0.02328922040760517,0.006948587018996477,-0.03871355578303337
1772812370906726700,1.4857265625,-0.02237292192876339,0.02283107116818428,-0.0322994738817215
1772812370916427300,1.49542724609375,-0.022678354755043983,0.029245151206851006,-0.02588539570569992
1772812370926128000,1.505128173828125,-0.020540328696370125,0.0243582334369421,-0.020387612283229828
1772812370935829000,1.5148291015625,-0.011682788841426373,0.012446369975805283,-0.0191658828407526
1772812370945529600,1.524529541015625,0.002061668550595641,0.0057268571108579636,-0.018555017188191414
1772812370955230500,1.53423046875,0.014278964139521122,0.00022907429956831038,-0.017944153398275375
1772812370964931300,1.543931396484375,0.014278964139521122,-0.005574141163378954,-0.017944153398275375
1772812370974632000,1.5536318359375,0.00603228947147727,-0.004352411720901728,-0.023136503994464874
1772812370984332800,1.563332763671875,-0.002825249684974551,0.013057234697043896,-0.02588539570569992
1772812370994033700,1.57303369140625,-0.008017600513994694,0.032910339534282684,-0.026801692321896553
1772812371003734300,1.582734375,-0.011682788841426373,0.040546149015426636,-0.02802342176437378
1772812371013435100,1.59243505859375,-0.013820815831422806,0.041157014667987823,-0.027717988938093185
1772812371023136000,1.602135986328125,-0.013209951110184193,0.0322994738817215,-0.03168861195445061
1772812371032836900,1.6118369140625,-0.012293653562664986,0.017027854919433594,-0.040546149015426636
1772812371042537500,1.621537353515625,-0.010461059398949146,0.0066431546583771706,-0.047265663743019104
1772812371052238300,1.63123828125,-0.004657844081521034,0.00755945174023509,-0.05154171586036682
1772812371061939200,1.640939208984375,0.0005345066892914474,0.01030834298580885,-0.04818195849657059
1772812371071639800,1.650639892578125,-0.0025198173243552446,0.013362666592001915,-0.0371863916516304
1772812371081340700,1.660340576171875,-0.00954476185142994,0.013668099418282509,-0.023136503994464874
1772812371091041500,1.67004150390625,-0.019013166427612305,0.01611155830323696,-0.00755945174023509
1772812371100742100,1.6797421875,-0.031841326504945755,0.021914774551987648,0.00954476185142994
1772812371110443000,1.689443115234375,-0.046196650713682175,0.027717988938093185,0.0193185992538929
1772812371120144000,1.699143798828125,-0.05047270283102989,0.03779725730419159,0.02909243479371071
1772812371129844500,1.708844482421875,-0.049861837178468704,0.044211339205503464,0.03428478538990021
1772812371139545300,1.71854541015625,-0.04864010959863663,0.04604393243789673,0.03520108386874199
1772812371149246200,1.72824609375,-0.04711294546723366,0.049709122627973557,0.033368486911058426
1772812371158947000,1.737947021484375,-0.043142326176166534,0.0527634471654892,0.026648975908756256
1772812371168647700,1.747647705078125,-0.036422811448574066,0.04940368980169296,0.018096869811415672
1772812371178348500,1.7573486328125,-0.027870705351233482,0.04390590637922287,0.00679587060585618
1772812371188049400,1.76704931640625,-0.017486004158854485,0.027717988938093185,-0.007864884100854397
1772812371197750000,1.77675,-0.005268708802759647,0.0005345066892914474,-0.020998476073145866
1772812371207451000,1.786450927734375,0.008781181648373604,-0.021456625312566757,-0.0295505840331316
1772812371217151700,1.79615185546875,0.024052800610661507,-0.03306305781006813,-0.03779725730419159
1772812371226852400,1.805852294921875,0.034437503665685654,-0.02756527252495289,-0.046654798090457916
1772812371236553200,1.81555322265625,0.035964664071798325,-0.014431680552661419,-0.05215258151292801
1772812371246254000,1.825254150390625,0.027107125148177147,-0.003741546766832471,-0.05459604039788246
1772812371255954700,1.83495458984375,0.013668099418282509,0.004505127668380737,-0.050930850207805634
1772812371265655600,1.844655517578125,0.006337722297757864,0.009086613543331623,-0.036880962550640106
1772812371275356400,1.8543564453125,0.0023671009112149477,0.002061668550595641,-0.016416991129517555
1772812371285057300,1.864057373046875,0.004505127668380737,-0.010155626572668552,0.006185005884617567
1772812371294758000,1.8737578125,0.007864884100854397,-0.011682788841426373,0.029397867619991302
1772812371304458800,1.883458740234375,0.008170315995812416,-0.003741546766832471,0.04528035223484039
1772812371314159600,1.89315966796875,-0.0019089524867013097,0.008170315995812416,0.05994110554456711
1772812371323860200,1.902860107421875,-0.016875140368938446,0.011224640533328056,0.06727148592472076
1772812371333561000,1.91256103515625,-0.025121813639998436,0.0066431546583771706,0.06788235157728195
1772812371343262000,1.922261962890625,-0.03000873140990734,0.000839939049910754,0.059635672718286514
1772812371352962600,1.931962646484375,-0.03520108386874199,0.0035888305865228176,0.04405862092971802
1772812371362663400,1.941663330078125,-0.03886627033352852,0.020082179456949234,0.029703300446271896
1772812371372364300,1.9513642578125,-0.04283689334988594,0.028328854590654373,0.01779143698513508
1772812371382065000,1.96106494140625,-0.04253146052360535,0.02649625949561596,0.007406735327094793
1772812371391765800,1.970765869140625,-0.03764454275369644,0.01183550525456667,0.0025198173243552446
1772812371401466600,1.980466552734375,-0.03245219215750694,-0.010766491293907166,-0.0029779658652842045
1772812371411167500,1.99016748046875,-0.03153589367866516,-0.030925029888749123,-0.011224640533328056
1772812371420868000,1.9998681640625,-0.030314164236187935,-0.036422811448574066,-0.02130390889942646
1772812371430569000,2.00956884765625,-0.029703300446271896,-0.022678354755043983,-0.030466880649328232
1772812371440269800,2.019269775390625,-0.031230462715029716,0.0011453714687377214,-0.03260490670800209
1772812371449970400,2.028970458984375,-0.031230462715029716,0.008781181648373604,-0.032910339534282684
1772812371459671300,2.03867138671875,-0.030925029888749123,0.00603228947147727,-0.02496909722685814
1772812371469372200,2.0483720703125,-0.03000873140990734,0.003283398225903511,-0.013668099418282509
1772812371479072800,2.05807275390625,-0.03061959706246853,0.005421424750238657,0.00038179047987796366
1772812371488773600,2.067773681640625,-0.0345902182161808,0.00755945174023509,0.014431680552661419
1772812371498474500,2.077474609375,-0.033368486911058426,0.01000291109085083,0.024816380813717842
1772812371508175000,2.087175048828125,-0.027259841561317444,0.007254019379615784,0.029397867619991302
1772812371517876000,2.0968759765625,-0.019929463043808937,-0.0022143847309052944,0.025121813639998436
1772812371527576800,2.106576904296875,-0.011377356946468353,-0.00923932995647192,0.01565340906381607
1772812371537277400,2.11627734375,-0.003741546766832471,-0.00923932995647192,0.0006872228696011007
1772812371546978300,2.125978271484375,-0.004352411720901728,-0.0077121676877141,-0.01672242395579815
1772812371556679200,2.13567919921875,-0.010766491293907166,-0.0031306820455938578,-0.02741255611181259
1772812371566380000,2.145380126953125,-0.015042545273900032,0.000839939049910754,-0.0295505840331316
1772812371576080600,2.15508056640625,-0.021151192486286163,0.011224640533328056,-0.021914774551987648
1772812371585781500,2.164781494140625,-0.025732679292559624,0.01977674663066864,-0.00603228947147727
1772812371595482400,2.174482421875,-0.024816380813717842,0.017027854919433594,0.008323032408952713
1772812371605183000,2.184182861328125,-0.016875140368938446,0.014889828860759735,0.022067490965127945
1772812371614883800,2.1938837890625,-0.004046979360282421,0.01183550525456667,0.031230462715029716
1772812371624584700,2.203584716796875,-0.00038179047987796366,0.011530072428286076,0.03672824427485466
1772812371634285300,2.213285400390625,-0.004352411720901728,0.01672242395579815,0.03611737862229347
1772812371643986200,2.222986083984375,-0.01259908638894558,0.024663666263222694,0.03214675933122635
1772812371653687000,2.23268701171875,-0.02237292192876339,0.028328854590654373,0.02023489587008953
1772812371663387600,2.2423876953125,-0.03061959706246853,0.014584396965801716,0.006490438245236874
1772812371673088500,2.252088623046875,-0.028787001967430115,-0.006490438245236874,-0.009086613543331623
1772812371682789400,2.261789306640625,-0.016875140368938446,-0.015958841890096664,-0.01977674663066864
1772812371692490200,2.271490234375,-0.008628465235233307,-0.008628465235233307,-0.026801692321896553
1772812371702190800,2.28119091796875,-0.00954476185142994,0.00511599238961935,-0.03138317912817001
1772812371711891700,2.2908916015625,-0.012293653562664986,0.015500693581998348,-0.03138317912817001
1772812371721592600,2.300592529296875,-0.010766491293907166,0.018860450014472008,-0.027717988938093185
1772812371731293200,2.310293212890625,-0.008933897130191326,0.017944153398275375,-0.020693045109510422
1772812371740994000,2.319994140625,-0.0022143847309052944,0.01763872057199478,-0.013057234697043896
1772812371750695000,2.32969482421875,0.00511599238961935,0.020082179456949234,-0.004810560029000044
1772812371760395500,2.3393955078125,0.013668099418282509,0.0295505840331316,0.0012980876490473747
1772812371770096400,2.349096435546875,0.019471315667033195,0.042073313146829605,0.0009926552884280682
1772812371779797200,2.35879736328125,0.02741255611181259,0.04146244749426842,-0.001450803829357028
1772812371789497900,2.368497802734375,0.03565923124551773,0.024663666263222694,-0.0023671009112149477
1772812371799198700,2.37819873046875,0.04482220485806465,0.006948587018996477,0.0016035200096666813
1772812371808899600,2.387899658203125,0.05062541738152504,-0.008323032408952713,0.01259908638894558
1772812371818600400,2.397600341796875,0.04390590637922287,-0.013515383005142212,0.026343543082475662
1772812371828301000,2.407301025390625,0.0319940410554409,0.0017562361899763346,0.03520108386874199
1772812371838002000,2.417001953125,0.020693045109510422,0.024663666263222694,0.04253146052360535
1772812371847702800,2.426702880859375,0.006337722297757864,0.03107774630188942,0.04283689334988594
1772812371857403400,2.4364033203125,-0.0058795735239982605,0.028328854590654373,0.04222602769732475
1772812371867104300,2.446104248046875,-0.00954476185142994,0.03352120518684387,0.03886627033352852
1772812371876805000,2.45580517578125,-0.010461059398949146,0.03474293276667595,0.037033677101135254
1772812371886505700,2.465505615234375,-0.01259908638894558,0.02649625949561596,0.03520108386874199
1772812371896206600,2.47520654296875,-0.01259908638894558,0.016416991129517555,0.03000873140990734
1772812371905907500,2.484907470703125,-0.008933897130191326,0.015806125476956367,0.02176205813884735
1772812371915608000,2.494608154296875,-0.0077121676877141,0.020693045109510422,0.010155626572668552
1772812371925309000,2.504308837890625,-0.00923932995647192,0.022220205515623093,-0.000839939049910754
1772812371935009800,2.514009765625,-0.011377356946468353,0.020387612283229828,-0.01183550525456667
1772812371944710700,2.523710693359375,-0.010461059398949146,0.01824958436191082,-0.019471315667033195
1772812371954411300,2.533411376953125,-0.008628465235233307,0.014278964139521122,-0.023441936820745468
1772812371964112100,2.543112060546875,-0.004352411720901728,0.014278964139521122,-0.02130390889942646
1772812371973812700,2.552812744140625,-0.0022143847309052944,0.013973532244563103,-0.020082179456949234
1772812371983513600,2.562513671875,0.0011453714687377214,0.012446369975805283,-0.018860450014472008
1772812371993214500,2.57221435546875,0.00755945174023509,0.010919207707047462,-0.013057234697043896
1772812372002915300,2.581915283203125,0.012751801870763302,0.006337722297757864,-0.006948587018996477
1772812372012616000,2.591615966796875,0.013057234697043896,-0.0006872228696011007,0.0031306820455938578
1772812372032017700,2.611017578125,0.0029779658652842045,0.0023671009112149477,0.020540328696370125
1772812372041718300,2.62071826171875,0.002061668550595641,0.003894262947142124,0.028787001967430115
1772812372051419100,2.630419189453125,-0.0012980876490473747,-0.00038179047987796366,0.030925029888749123
1772812372061120000,2.6401201171875,-0.0034361144062131643,0.012446369975805283,0.03306305781006813
1772812372070820900,2.64982080078125,-0.007406735327094793,0.03352120518684387,0.03672824427485466
1772812372080521500,2.659521484375,-0.013515383005142212,0.03871355578303337,0.0397825688123703
1772812372090222300,2.669222412109375,-0.015347977168858051,0.028634287416934967,0.04405862092971802
1772812372099923000,2.6789228515625,-0.008933897130191326,0.015500693581998348,0.04436405375599861
1772812372109623800,2.688623779296875,-0.004352411720901728,-0.00007635809743078426,0.04039343446493149
1772812372119324700,2.69832470703125,-0.004963276442140341,-0.017486004158854485,0.031230462715029716
1772812372129025500,2.708025634765625,-0.0016035200096666813,-0.034895651042461395,0.00679587060585618
1772812372138726100,2.71772607421875,0.00603228947147727,-0.04650207981467247,-0.020998476073145866
1772812372148427000,2.727427001953125,0.012751801870763302,-0.04222602769732475,-0.0527634471654892
1772812372158127600,2.737127685546875,0.015500693581998348,-0.012293653562664986,-0.07139482349157333
1772812372167828500,2.746828369140625,0.00755945174023509,0.023136503994464874,-0.06528617441654205
1772812372177529300,2.756529296875,-0.0077121676877141,0.033826638013124466,-0.04390590637922287
1772812372187230200,2.766230224609375,-0.018402300775051117,0.018555017188191414,-0.013668099418282509
1772812372196930800,2.775930908203125,-0.017486004158854485,-0.0025198173243552446,0.01626427471637726
1772812372206631700,2.785631591796875,-0.007406735327094793,-0.02328922040760517,0.03214675933122635
1772812372216332500,2.79533251953125,-0.00038179047987796366,-0.039477135986089706,0.03306305781006813
1772812372226033200,2.805033203125,-0.00007635809743078426,-0.03825540840625763,0.02084576152265072
1772812372235734000,2.814734130859375,-0.003741546766832471,-0.01779143698513508,0.004352411720901728
1772812372245435000,2.824434814453125,-0.00923932995647192,0.00847574882209301,-0.01000291109085083
1772812372255135700,2.8341357421875,-0.013820815831422806,0.021609341725707054,-0.017944153398275375
1772812372264836400,2.84383642578125,-0.012904518283903599,0.017944153398275375,-0.018555017188191414
1772812372274537200,2.853537109375,-0.005268708802759647,-0.0012980876490473747,-0.017944153398275375
1772812372284237800,2.86323779296875,0.004505127668380737,-0.022983787581324577,-0.01763872057199478
1772812372293938700,2.872938720703125,0.013668099418282509,-0.03000873140990734,-0.022220205515623093
1772812372303639600,2.8826396484375,0.020082179456949234,-0.022067490965127945,-0.027717988938093185
1772812372313340400,2.89234033203125,0.020693045109510422,-0.004046979360282421,-0.0243582334369421
1772812372323041000,2.902041015625,0.013668099418282509,0.001450803829357028,-0.013362666592001915
1772812372332742000,2.911741943359375,-0.0006872228696011007,-0.004046979360282421,0.00007635809743078426
1772812372352143400,2.931143310546875,-0.022983787581324577,-0.029397867619991302,0.01718057133257389
1772812372361844200,2.94084423828125,-0.023594651371240616,-0.024205517023801804,0.011377356946468353
1772812372371545000,2.950545166015625,-0.02084576152265072,-0.00923932995647192,-0.0029779658652842045
1772812372381245700,2.96024560546875,-0.016569707542657852,0.01030834298580885,-0.017333287745714188
1772812372390946600,2.969946533203125,-0.012293653562664986,0.030161447823047638,-0.027107125148177147
1772812372400647400,2.9796474609375,-0.01259908638894558,0.03962985426187515,-0.027107125148177147
1772812372410348000,2.98934814453125,-0.01565340906381607,0.02588539570569992,-0.02130390889942646
1772812372420049000,2.999048828125,-0.016569707542657852,0.0029779658652842045,-0.008781181648373604
1772812372429749800,3.008749755859375,-0.008017600513994694,-0.016569707542657852,0.00038179047987796366
1772812372439450600,3.01845068359375,0.0029779658652842045,-0.0345902182161808,0.006490438245236874
1772812372449151200,3.028151123046875,0.01030834298580885,-0.04283689334988594,0.0019089524867013097
1772812372458852000,3.03785205078125,0.015195261687040329,-0.03245219215750694,-0.01000291109085083
1772812372468552700,3.047552734375,0.017333287745714188,-0.015958841890096664,-0.02588539570569992
1772812372478253600,3.057253662109375,0.01030834298580885,-0.004046979360282421,-0.0371863916516304
1772812372487954400,3.066954345703125,0.0023671009112149477,0.002672533504664898,-0.04390590637922287
1772812372497655300,3.0766552734375,-0.0077121676877141,0.00603228947147727,-0.041157014667987823
1772812372507356000,3.08635595703125,-0.015958841890096664,-0.0019089524867013097,-0.03413207083940506
1772812372517056800,3.096056884765625,-0.022678354755043983,-0.01565340906381607,-0.025274530053138733
1772812372526757600,3.105757568359375,-0.019624030217528343,-0.02390008419752121,-0.020693045109510422
1772812372536458200,3.115458251953125,-0.010766491293907166,-0.02023489587008953,-0.020082179456949234
1772812372546159000,3.1251591796875,-0.0077121676877141,-0.008628465235233307,-0.02588539570569992
1772812372555860000,3.13485986328125,-0.010766491293907166,0.01030834298580885,-0.03260490670800209
1772812372565560600,3.144560546875,-0.00923932995647192,0.03657552972435951,-0.03535379841923714
1772812372575261400,3.154261474609375,-0.0016035200096666813,0.05001455545425415,-0.02588539570569992
1772812372584962300,3.16396240234375,0.005421424750238657,0.04146244749426842,-0.00847574882209301
1772812372594663000,3.173662841796875,0.009392046369612217,0.019471315667033195,0.015042545273900032
1772812372604363800,3.18336376953125,0.01000291109085083,-0.005268708802759647,0.03367391973733902
1772812372614064600,3.193064697265625,0.008781181648373604,-0.026343543082475662,0.037033677101135254
1772812372623765200,3.20276513671875,0.00603228947147727,-0.03367391973733902,0.02542724646627903
1772812372633466000,3.212466064453125,0.002061668550595641,-0.026038112118840218,-0.0029779658652842045
1772812372643167000,3.2221669921875,0.002061668550595641,0.0035888305865228176,-0.02893971838057041
1772812372652867800,3.231867919921875,0.003283398225903511,0.027717988938093185,-0.04512763395905495
1772812372662568400,3.241568359375,0.00603228947147727,0.030466880649328232,-0.04848739132285118
1772812372672269300,3.251269287109375,0.007864884100854397,0.02283107116818428,-0.040546149015426636
1772812372681970200,3.26097021484375,0.008781181648373604,0.003894262947142124,-0.029856016859412193
1772812372691670800,3.2706708984375,0.0035888305865228176,-0.014126247726380825,-0.026190826669335365
1772812372701371600,3.28037158203125,-0.0012980876490473747,-0.007101302966475487,-0.029856016859412193
1772812372711072500,3.290072509765625,-0.004352411720901728,0.009392046369612217,-0.03993528336286545
1772812372720773000,3.299773193359375,-0.007406735327094793,0.01672242395579815,-0.05123628303408623
1772812372730474000,3.309473876953125,-0.0077121676877141,0.022220205515623093,-0.05734493210911751
1772812372740174800,3.3191748046875,-0.0031306820455938578,0.027107125148177147,-0.05062541738152504
1772812372749875500,3.32887548828125,0.001450803829357028,0.017027854919433594,-0.03810269013047218
1772812372759576300,3.338576416015625,0.002061668550595641,-0.00007635809743078426,-0.024663666263222694
1772812372769277200,3.348277099609375,-0.0031306820455938578,-0.014126247726380825,-0.017944153398275375
1772812372778978000,3.35797802734375,-0.014126247726380825,-0.010766491293907166,-0.015500693581998348
1772812372788678700,3.3676787109375,-0.025732679292559624,0.005421424750238657,-0.0243582334369421
1772812372798379500,3.377379638671875,-0.03245219215750694,0.020082179456949234,-0.042684175074100494
1772812372808080100,3.387080078125,-0.02695440873503685,0.03321577236056328,-0.055512335151433945
1772812372817781000,3.396781005859375,-0.013209951110184193,0.03321577236056328,-0.06223184987902641
1772812372827481900,3.40648193359375,-0.0034361144062131643,0.02649625949561596,-0.05734493210911751
1772812372837182700,3.4161826171875,-0.0016035200096666813,0.020387612283229828,-0.04024071618914604
1772812372846883300,3.42588330078125,-0.0025198173243552446,0.013057234697043896,-0.02283107116818428
1772812372866284800,3.445284912109375,0.001450803829357028,-0.00007635809743078426,-0.0029779658652842045
1772812372875985700,3.454985595703125,0.008170315995812416,-0.0022143847309052944,-0.00603228947147727
1772812372885686500,3.4646865234375,0.018860450014472008,0.00022907429956831038,-0.011530072428286076
1772812372895387400,3.474387451171875,0.028634287416934967,-0.0077121676877141,-0.0243582334369421
1772812372905088000,3.484087890625,0.03413207083940506,-0.010461059398949146,-0.03993528336286545
1772812372914788900,3.493788818359375,0.03352120518684387,-0.006185005884617567,-0.050930850207805634
1772812372924489700,3.50348974609375,0.0243582334369421,0.0011453714687377214,-0.053985174745321274
1772812372934190300,3.5131904296875,0.01000291109085083,0.0057268571108579636,-0.050319984555244446
1772812372943891200,3.52289111328125,-0.0022143847309052944,0.013973532244563103,-0.03932442143559456
1772812372953592000,3.532592041015625,-0.010155626572668552,0.017333287745714188,-0.02649625949561596
1772812372963293000,3.54229296875,-0.01259908638894558,0.01030834298580885,-0.01611155830323696
1772812372972993500,3.55199365234375,-0.013209951110184193,0.009086613543331623,-0.009697478264570236
1772812372982694400,3.5616943359375,-0.014737112447619438,0.013362666592001915,-0.0066431546583771706
1772812372992395000,3.57139501953125,-0.01718057133257389,0.020998476073145866,-0.0057268571108579636
1772812373002095900,3.581095947265625,-0.017486004158854485,0.021914774551987648,-0.0066431546583771706
1772812373011796700,3.590796630859375,-0.00923932995647192,0.012140937149524689,-0.00603228947147727
1772812373021497600,3.60049755859375,-0.0022143847309052944,-0.0016035200096666813,-0.0029779658652842045
1772812373031198200,3.6101982421875,-0.0006872228696011007,-0.007406735327094793,-0.002061668550595641
1772812373040899000,3.619899169921875,-0.004963276442140341,0.00755945174023509,0.0019089524867013097
1772812373050600000,3.629599853515625,-0.008933897130191326,0.026190826669335365,0.005268708802759647
1772812373060300500,3.639300537109375,-0.014737112447619438,0.03260490670800209,0.006490438245236874
1772812373070001400,3.64900146484375,-0.0193185992538929,0.02893971838057041,0.0031306820455938578
1772812373079702300,3.658702392578125,-0.020540328696370125,0.025579962879419327,-0.0017562361899763346
1772812373089403000,3.66840283203125,-0.019013166427612305,0.015806125476956367,-0.00847574882209301
1772812373099103700,3.678103759765625,-0.017486004158854485,0.004505127668380737,-0.01824958436191082
1772812373108804600,3.6878046875,-0.014431680552661419,0.006948587018996477,-0.026801692321896553
1772812373118505200,3.697505126953125,-0.008017600513994694,0.011530072428286076,-0.029856016859412193
1772812373128206000,3.7072060546875,0.002061668550595641,-0.0009926552884280682,-0.03413207083940506
1772812373137907000,3.716906982421875,0.013973532244563103,-0.018402300775051117,-0.039018988609313965
1772812373147607600,3.726607666015625,0.026190826669335365,-0.029397867619991302,-0.04085158184170723
1772812373157308400,3.736308349609375,0.03321577236056328,-0.021456625312566757,-0.03932442143559456
1772812373167009300,3.74600927734375,0.03352120518684387,0.004810560029000044,-0.030772313475608826
1772812373176710100,3.755710205078125,0.029245151206851006,0.011224640533328056,-0.015500693581998348
1772812373186410800,3.76541064453125,0.02802342176437378,-0.007406735327094793,0.0009926552884280682
1772812373196111600,3.775111572265625,0.03352120518684387,-0.03672824427485466,0.01870773360133171
1772812373205812200,3.784812255859375,0.0371863916516304,-0.06482802331447601,0.03061959706246853
1772812373215513000,3.79451318359375,0.033826638013124466,-0.07521272450685501,0.03520108386874199
1772812373225214000,3.8042138671875,0.01763872057199478,-0.06238456442952156,0.030314164236187935
1772812373234914800,3.813914794921875,-0.002825249684974551,-0.026038112118840218,0.0193185992538929
1772812373244615400,3.823615478515625,-0.027870705351233482,0.018555017188191414,0.012904518283903599
1772812373254316300,3.83331640625,-0.05047270283102989,0.04146244749426842,0.012904518283903599
1772812373264017200,3.84301708984375,-0.06268999725580215,0.03565923124551773,0.018096869811415672
1772812373273717800,3.8527177734375,-0.0651334598660469,0.014584396965801716,0.019929463043808937
1772812373283418600,3.862418701171875,-0.06299543380737305,0.0017562361899763346,0.022678354755043983
1772812373293119500,3.872119384765625,-0.05780307948589325,-0.0031306820455938578,0.018096869811415672
1772812373302820400,3.8818203125,-0.050778135657310486,-0.008628465235233307,0.010461059398949146
1772812373312521000,3.89152099609375,-0.04069886729121208,-0.0077121676877141,-0.006948587018996477
1772812373322221800,3.901221923828125,-0.026038112118840218,-0.011377356946468353,-0.024663666263222694
1772812373331922400,3.91092236328125,-0.011988221667706966,-0.02756527252495289,-0.03413207083940506
1772812373341623300,3.920623291015625,-0.002825249684974551,-0.039477135986089706,-0.03871355578303337
1772812373351324200,3.93032421875,0.005421424750238657,-0.043142326176166534,-0.03993528336286545
1772812373361025000,3.94002490234375,0.005421424750238657,-0.040088001638650894,-0.03932442143559456
1772812373370725600,3.9497255859375,-0.0012980876490473747,-0.03061959706246853,-0.04024071618914604
1772812373380426500,3.959426513671875,-0.007406735327094793,-0.024205517023801804,-0.0423787422478199
1772812373390127000,3.969127197265625,-0.004963276442140341,-0.025732679292559624,-0.041157014667987823
1772812373399828000,3.978827880859375,0.003894262947142124,-0.027259841561317444,-0.03840812295675278
1772812373409528800,3.98852880859375,0.010919207707047462,-0.02023489587008953,-0.02741255611181259
1772812373419229700,3.998229736328125,0.010919207707047462,-0.014431680552661419,-0.010919207707047462
1772812373428930300,4.007930419921875,0.004199695307761431,-0.016875140368938446,0.007406735327094793
1772812373438631200,4.017631103515625,-0.006490438245236874,-0.019929463043808937,0.026343543082475662
1772812373448331800,4.027331787109375,-0.021151192486286163,-0.012904518283903599,0.04253146052360535
1772812373458032600,4.03703271484375,-0.03672824427485466,0.00603228947147727,0.04955640435218811
1772812373467733500,4.0467333984375,-0.04894553869962692,0.027107125148177147,0.0501672700047493
1772812373477434400,4.056434326171875,-0.057497646659612656,0.03627009689807892,0.043753188103437424
1772812373487135000,4.066135009765625,-0.0553596206009388,0.0322994738817215,0.038560837507247925
1772812373496835800,4.0758359375,-0.04558578506112099,0.018860450014472008,0.033368486911058426
1772812373506536700,4.08553662109375,-0.034895651042461395,0.006337722297757864,0.02695440873503685
1772812373516237300,4.0952373046875,-0.03000873140990734,0.002672533504664898,0.022067490965127945
1772812373525938200,4.104938232421875,-0.02848157100379467,-0.0034361144062131643,0.01718057133257389
1772812373535639000,4.11463916015625,-0.022678354755043983,-0.008017600513994694,0.008628465235233307
1772812373545339600,4.124339599609375,-0.008017600513994694,-0.0031306820455938578,-0.002061668550595641
1772812373555040500,4.13404052734375,0.004199695307761431,0.004810560029000044,-0.010919207707047462
1772812373564741400,4.143741455078125,0.003894262947142124,0.00511599238961935,-0.013973532244563103
1772812373574442000,4.15344189453125,-0.004657844081521034,-0.005268708802759647,-0.017333287745714188
1772812373584142800,4.163142822265625,-0.013515383005142212,-0.01718057133257389,-0.015500693581998348
1772812373593843700,4.17284375,-0.021456625312566757,-0.02756527252495289,-0.017944153398275375
1772812373603544300,4.18254443359375,-0.024816380813717842,-0.03245219215750694,-0.02741255611181259
1772812373613245200,4.1922451171875,-0.022067490965127945,-0.022067490965127945,-0.03932442143559456
1772812373622946000,4.201946044921875,-0.018402300775051117,0.00022907429956831038,-0.049709122627973557
1772812373632647000,4.21164697265625,-0.022983787581324577,0.017333287745714188,-0.04696023091673851
1772812373642347500,4.221347412109375,-0.03550651669502258,0.020387612283229828,-0.030161447823047638
1772812373652048400,4.23104833984375,-0.046807512640953064,0.018860450014472008,-0.003894262947142124
1772812373661749000,4.2407490234375,-0.04650207981467247,0.012140937149524689,0.026038112118840218
1772812373671449900,4.250449951171875,-0.0397825688123703,-0.0034361144062131643,0.046807512640953064
1772812373681150700,4.260150634765625,-0.030314164236187935,-0.0193185992538929,0.052916161715984344
1772812373690851600,4.2698515625,-0.01565340906381607,-0.022067490965127945,0.046196650713682175
1772812373700552200,4.27955224609375,0.000839939049910754,-0.01565340906381607,0.028176138177514076
1772812373710253000,4.289253173828125,0.012140937149524689,-0.006185005884617567,0.008323032408952713
1772812373719953700,4.29895361328125,0.01672242395579815,0.006337722297757864,-0.00755945174023509
1772812373729654500,4.308654541015625,0.018860450014472008,0.022525638341903687,-0.013362666592001915
1772812373739355400,4.31835546875,0.018555017188191414,0.024052800610661507,-0.007254019379615784
1772812373749056300,4.32805615234375,0.0191658828407526,0.002672533504664898,0.007406735327094793
1772812373758756900,4.3377568359375,0.02130390889942646,-0.019929463043808937,0.02328922040760517
1772812373768457700,4.347457763671875,0.020082179456949234,-0.034895651042461395,0.03581194952130318
1772812373778158600,4.35715869140625,0.014278964139521122,-0.04253146052360535,0.040088001638650894
1772812373787859200,4.366859130859375,0.003283398225903511,-0.030925029888749123,0.038560837507247925
1772812373797560000,4.37656005859375,-0.011377356946468353,-0.011682788841426373,0.026343543082475662
1772812373807261000,4.386260986328125,-0.029397867619991302,0.017944153398275375,0.011377356946468353
1772812373816961800,4.3959619140625,-0.0449749194085598,0.041157014667987823,-0.00022907429956831038
1772812373826662400,4.405662353515625,-0.052916161715984344,0.040546149015426636,-0.007864884100854397
1772812373836363300,4.41536328125,-0.05169443041086197,0.02649625949561596,-0.01030834298580885
1772812373846063900,4.42506396484375,-0.039477135986089706,0.008781181648373604,-0.015806125476956367
1772812373855764700,4.4347646484375,-0.02237292192876339,-0.0012980876490473747,-0.021914774551987648
1772812373865465600,4.444465576171875,-0.00923932995647192,0.001450803829357028,-0.0322994738817215
1772812373875166200,4.454166259765625,-0.0019089524867013097,0.012140937149524689,-0.03779725730419159
1772812373884867000,4.4638671875,0.002672533504664898,0.01824958436191082,-0.036880962550640106
1772812373894568000,4.47356787109375,0.008170315995812416,0.01977674663066864,-0.02893971838057041
1772812373904268500,4.4832685546875,0.016416991129517555,0.015500693581998348,-0.023136503994464874
1772812373913969400,4.492969482421875,0.02893971838057041,0.01000291109085083,-0.01611155830323696
1772812373923670300,4.502670166015625,0.0423787422478199,0.0005345066892914474,-0.013362666592001915
1772812373933371100,4.51237109375,0.0527634471654892,-0.010155626572668552,-0.01672242395579815
1772812373943071700,4.52207177734375,0.0576503649353981,-0.01626427471637726,-0.025274530053138733
1772812373952772600,4.531772705078125,0.05520690605044365,-0.010766491293907166,-0.030772313475608826
1772812373962473500,4.541473388671875,0.04298960790038109,0.00022907429956831038,-0.030466880649328232
1772812373972174000,4.551174072265625,0.028634287416934967,0.0023671009112149477,-0.024663666263222694
1772812373981875000,4.560875,0.01824958436191082,0.0005345066892914474,-0.013668099418282509
1772812373991575800,4.570575927734375,0.009392046369612217,-0.007101302966475487,-0.004199695307761431
1772812374001276400,4.5802763671875,0.003283398225903511,-0.011377356946468353,0.0009926552884280682
1772812374010977300,4.589977294921875,0.00511599238961935,-0.010155626572668552,0.0025198173243552446
1772812374020678100,4.59967822265625,0.009392046369612217,-0.0058795735239982605,0.00038179047987796366
1772812374030378800,4.609378662109375,0.00847574882209301,0.000839939049910754,0.0031306820455938578
1772812374040079600,4.61907958984375,0.0011453714687377214,0.00022907429956831038,0.0058795735239982605
1772812374049780500,4.628780517578125,-0.008017600513994694,0.0029779658652842045,0.011682788841426373
1772812374059481000,4.638481201171875,-0.019013166427612305,0.0066431546583771706,0.012293653562664986
1772812374069182000,4.648181884765625,-0.026648975908756256,0.018555017188191414,0.006490438245236874
1772812374078882800,4.6578828125,-0.02542724646627903,0.026801692321896553,-0.001450803829357028
1772812374088583700,4.667583740234375,-0.016875140368938446,0.029856016859412193,-0.009392046369612217
1772812374098284300,4.6772841796875,-0.004352411720901728,0.03871355578303337,-0.008170315995812416
1772812374107985200,4.686985107421875,0.0017562361899763346,0.03871355578303337,0.002825249684974551
1772812374117685800,4.696685791015625,0.002061668550595641,0.02496909722685814,0.01870773360133171
1772812374127386600,4.70638671875,0.004199695307761431,0.006948587018996477,0.03550651669502258
1772812374137087500,4.71608740234375,0.008781181648373604,-0.009850194677710533,0.04528035223484039
1772812374146788400,4.725788330078125,0.014889828860759735,-0.017486004158854485,0.047723811119794846
1772812374156489000,4.735489013671875,0.02130390889942646,-0.015958841890096664,0.04558578506112099
1772812374166189800,4.74518994140625,0.02283107116818428,-0.0077121676877141,0.04283689334988594
1772812374175890400,4.754890380859375,0.018555017188191414,0.0011453714687377214,0.04039343446493149
1772812374185591300,4.76459130859375,0.011224640533328056,0.007864884100854397,0.038560837507247925
1772812374195292200,4.774292236328125,0.003894262947142124,0.007864884100854397,0.040088001638650894
1772812374214693600,4.793693603515625,-0.00923932995647192,-0.013209951110184193,0.041004300117492676
1772812374224394500,4.80339453125,-0.012904518283903599,-0.004046979360282421,0.03886627033352852
1772812374234095000,4.81309521484375,-0.015958841890096664,0.013057234697043896,0.039477135986089706
1772812374243796000,4.8227958984375,-0.021151192486286163,0.023441936820745468,0.03764454275369644
1772812374253496800,4.832496826171875,-0.02176205813884735,0.02588539570569992,0.03306305781006813
1772812374263197700,4.84219775390625,-0.017486004158854485,0.017333287745714188,0.022983787581324577
1772812374272898300,4.851898193359375,-0.00954476185142994,0.009086613543331623,0.013820815831422806
1772812374282599200,4.86159912109375,0.000839939049910754,0.0066431546583771706,0.00679587060585618
1772812374292300000,4.871300048828125,0.009697478264570236,0.004810560029000044,0.0022143847309052944
1772812374302000600,4.881000732421875,0.017027854919433594,0.0023671009112149477,0.0034361144062131643
1772812374311701500,4.890701416015625,0.01824958436191082,-0.0012980876490473747,0.008933897130191326
1772812374321402400,4.90040234375,0.018555017188191414,-0.00923932995647192,0.011988221667706966
1772812374331103000,4.91010302734375,0.018555017188191414,-0.016569707542657852,0.007406735327094793
1772812374340803800,4.919803955078125,0.02130390889942646,-0.015347977168858051,-0.002061668550595641
1772812374350504700,4.929504638671875,0.0243582334369421,-0.011682788841426373,-0.01824958436191082
1772812374360205300,4.939205322265625,0.023441936820745468,-0.003741546766832471,-0.030772313475608826
1772812374369906200,4.94890625,0.023136503994464874,0.001450803829357028,-0.03993528336286545
1772812374379607000,4.95860693359375,0.020387612283229828,0.00511599238961935,-0.04176788032054901
1772812374389307600,4.9683076171875,0.009392046369612217,0.004810560029000044,-0.03535379841923714
1772812374399008500,4.978008544921875,-0.007406735327094793,0.002672533504664898,-0.015500693581998348
1772812374408709400,4.98770947265625,-0.02695440873503685,-0.0025198173243552446,0.012904518283903599
1772812374418410200,4.99741015625,-0.04436405375599861,-0.007406735327094793,0.04405862092971802
1772812374428110800,5.00711083984375,-0.05169443041086197,-0.007101302966475487,0.06391172856092453
1772812374437811700,5.016811767578125,-0.050778135657310486,0.0023671009112149477,0.07276926934719086
1772812374447512300,5.02651220703125,-0.04955640435218811,0.007864884100854397,0.07154753804206848
1772812374457213200,5.036213134765625,-0.04741837829351425,0.0066431546583771706,0.05688678100705147
1772812374466914000,5.0459140625,-0.03550651669502258,0.012446369975805283,0.03886627033352852
1772812374476615000,5.055614990234375,-0.025732679292559624,0.01672242395579815,0.021151192486286163
1772812374486315500,5.0653154296875,-0.024510949850082397,0.018555017188191414,0.00679587060585618
1772812374496016400,5.075016357421875,-0.02176205813884735,0.020693045109510422,-0.0011453714687377214
1772812374505717000,5.084717041015625,-0.014126247726380825,0.015195261687040329,-0.0023671009112149477
1772812374515417900,5.09441796875,-0.010155626572668552,-0.00007635809743078426,0.003741546766832471
1772812374525118700,5.10411865234375,-0.008933897130191326,-0.010461059398949146,0.007101302966475487
1772812374534819300,5.1138193359375,-0.006185005884617567,-0.013820815831422806,0.0009926552884280682
1772812374544520200,5.123520263671875,-0.0022143847309052944,-0.010155626572668552,-0.01183550525456667
1772812374554221000,5.133220947265625,-0.0025198173243552446,-0.00923932995647192,-0.0295505840331316
1772812374563921700,5.142921630859375,-0.00038179047987796366,-0.014126247726380825,-0.050930850207805634
1772812374573622500,5.15262255859375,0.005421424750238657,-0.00954476185142994,-0.06406444311141968
1772812374583323400,5.162323486328125,0.013668099418282509,-0.0012980876490473747,-0.06589704006910324
1772812374593024000,5.17202392578125,0.015806125476956367,-0.00038179047987796366,-0.05673406645655632
1772812374602724900,5.181724853515625,0.013668099418282509,0.004199695307761431,-0.03504836559295654
1772812374612425700,5.19142578125,0.007254019379615784,0.0057268571108579636,-0.007254019379615784
1772812374622126600,5.201126708984375,0.0017562361899763346,-0.005268708802759647,0.017486004158854485
1772812374631827200,5.2108271484375,0.004810560029000044,-0.014431680552661419,0.03214675933122635
1772812374641528000,5.220528076171875,0.01611155830323696,-0.019929463043808937,0.03061959706246853
1772812374651228700,5.230228759765625,0.03107774630188942,-0.015347977168858051,0.018096869811415672
1772812374660929500,5.239929443359375,0.039018988609313965,-0.00038179047987796366,0.002825249684974551
1772812374670630400,5.24963037109375,0.03932442143559456,0.020693045109510422,-0.009697478264570236
1772812374680331300,5.259331298828125,0.032910339534282684,0.03871355578303337,-0.01030834298580885
1772812374690031900,5.269031982421875,0.02588539570569992,0.02893971838057041,-0.0035888305865228176
1772812374699732700,5.278732666015625,0.02283107116818428,-0.00679587060585618,0.0019089524867013097
1772812374709433300,5.288433349609375,0.029856016859412193,-0.03520108386874199,0.004046979360282421
1772812374719134200,5.29813427734375,0.043600473552942276,-0.04528035223484039,0.00038179047987796366
1772812374728835000,5.3078349609375,0.05215258151292801,-0.04405862092971802,-0.016416991129517555
1772812374738536000,5.317535888671875,0.05001455545425415,-0.024510949850082397,-0.03107774630188942
1772812374748236500,5.327236572265625,0.03657552972435951,0.00511599238961935,-0.0371863916516304
1772812374757937400,5.3369375,0.014584396965801716,0.023747367784380913,-0.030772313475608826
1772812374767638000,5.346637939453125,-0.005574141163378954,0.017944153398275375,-0.012140937149524689
1772812374777339000,5.3563388671875,-0.014431680552661419,0.004810560029000044,0.009850194677710533
1772812374787039700,5.366039794921875,-0.011988221667706966,-0.0031306820455938578,0.02756527252495289
1772812374796740600,5.37574072265625,-0.0077121676877141,-0.007101302966475487,0.033368486911058426
1772812374806441200,5.385441162109375,-0.006185005884617567,-0.00007635809743078426,0.02756527252495289
1772812374816142000,5.39514208984375,-0.010461059398949146,0.004505127668380737,0.014737112447619438
1772812374825843000,5.404843017578125,-0.011988221667706966,0.007864884100854397,-0.006337722297757864
1772812374835543600,5.41454345703125,-0.007101302966475487,0.004505127668380737,-0.030466880649328232
1772812374845244400,5.424244384765625,0.002672533504664898,0.002672533504664898,-0.050319984555244446
1772812374854945300,5.4339453125,0.01030834298580885,0.004505127668380737,-0.06559160351753235
1772812374864646000,5.44364599609375,0.013057234697043896,0.009697478264570236,-0.06711876392364502
1772812374874346800,5.4533466796875,0.012140937149524689,0.012446369975805283,-0.058566659688949585
1772812374884047600,5.463047607421875,0.011224640533328056,0.00603228947147727,-0.04512763395905495
1772812374893748200,5.472748291015625,0.013362666592001915,-0.0031306820455938578,-0.030772313475608826
1772812374903449000,5.482448974609375,0.01824958436191082,-0.01107192412018776,-0.02130390889942646
1772812374913150000,5.49214990234375,0.022220205515623093,-0.015958841890096664,-0.015195261687040329
1772812374922850600,5.5018505859375,0.0191658828407526,-0.014737112447619438,-0.011530072428286076
1772812374932551400,5.511551513671875,0.011530072428286076,-0.008628465235233307,-0.00755945174023509
1772812374942252300,5.521252197265625,0.0035888305865228176,-0.0012980876490473747,-0.007254019379615784
1772812374951953200,5.530953125,0.0035888305865228176,0.008170315995812416,-0.009086613543331623
1772812374961653800,5.54065380859375,0.01030834298580885,0.01000291109085083,-0.006948587018996477
1772812374971354600,5.550354736328125,0.016416991129517555,0.01030834298580885,-0.0029779658652842045
1772812374981055200,5.56005517578125,0.015500693581998348,0.004810560029000044,0.004046979360282421
1772812374990756000,5.569756103515625,0.005421424750238657,0.001450803829357028,0.012904518283903599
1772812375000457000,5.57945703125,-0.006490438245236874,0.006948587018996477,0.01779143698513508
1772812375010157600,5.589157470703125,-0.012904518283903599,0.006948587018996477,0.02390008419752121
1772812375019858400,5.5988583984375,-0.01779143698513508,-0.004963276442140341,0.024816380813717842
1772812375029559300,5.608559326171875,-0.02176205813884735,-0.00679587060585618,0.022983787581324577
1772812375039260000,5.618260009765625,-0.026038112118840218,-0.00007635809743078426,0.021151192486286163
1772812375048960800,5.627960693359375,-0.03214675933122635,0.000839939049910754,0.011988221667706966
1772812375058661600,5.63766162109375,-0.041004300117492676,-0.004963276442140341,-0.00022907429956831038
1772812375068362200,5.6473623046875,-0.04528035223484039,-0.005574141163378954,-0.01183550525456667
1772812375078063000,5.65706298828125,-0.04589121788740158,-0.011988221667706966,-0.030466880649328232
1772812375087764000,5.666763916015625,-0.04589121788740158,-0.014126247726380825,-0.0475710928440094
1772812375097464800,5.67646484375,-0.041004300117492676,-0.0058795735239982605,-0.058566659688949585
1772812375107165400,5.68616552734375,-0.03306305781006813,0.012446369975805283,-0.05917752534151077
1772812375116866300,5.6958662109375,-0.026343543082475662,0.022525638341903687,-0.04604393243789673
1772812375126567000,5.70556689453125,-0.018402300775051117,0.012140937149524689,-0.020693045109510422
1772812375136267800,5.715267822265625,-0.010155626572668552,-0.008933897130191326,0.008933897130191326
1772812375145968600,5.72496875,0.0017562361899763346,-0.023594651371240616,0.029703300446271896
1772812375155669500,5.73466943359375,0.013973532244563103,-0.03306305781006813,0.037033677101135254
1772812375165370000,5.7443701171875,0.025274530053138733,-0.030314164236187935,0.030925029888749123
1772812375175071000,5.754071044921875,0.03535379841923714,-0.0193185992538929,0.015042545273900032
1772812375184771600,5.763771484375,0.040546149015426636,-0.0193185992538929,-0.0029779658652842045
1772812375194472400,5.773472412109375,0.040546149015426636,-0.028176138177514076,-0.016416991129517555
1772812375204173300,5.78317333984375,0.03779725730419159,-0.03550651669502258,-0.02649625949561596
1772812375213874200,5.792874267578125,0.03474293276667595,-0.029397867619991302,-0.028634287416934967
1772812375223574800,5.80257470703125,0.032910339534282684,-0.01870773360133171,-0.0295505840331316
1772812375233275600,5.812275634765625,0.03168861195445061,-0.0012980876490473747,-0.0243582334369421
1772812375242976300,5.821976318359375,0.026801692321896553,0.013057234697043896,-0.012140937149524689
1772812375252677000,5.831677001953125,0.016416991129517555,0.014584396965801716,-0.00022907429956831038
1772812375262378000,5.8413779296875,0.00603228947147727,0.009086613543331623,0.013209951110184193
1772812375272078800,5.851078857421875,-0.0006872228696011007,0.001450803829357028,0.022983787581324577
1772812375281779500,5.860779541015625,-0.0009926552884280682,-0.006185005884617567,0.024205517023801804
1772812375291480300,5.870480224609375,0.00022907429956831038,-0.01259908638894558,0.01779143698513508
1772812375301181200,5.88018115234375,0.0023671009112149477,-0.01565340906381607,0.004963276442140341
1772812375310881800,5.8898818359375,0.0005345066892914474,-0.010461059398949146,-0.01183550525456667
1772812375320582700,5.899582763671875,0.00022907429956831038,0.0005345066892914474,-0.0319940410554409
1772812375330283300,5.909283203125,0.004505127668380737,0.011224640533328056,-0.04634936526417732
1772812375339984100,5.918984130859375,0.009697478264570236,0.01611155830323696,-0.0527634471654892
1772812375349685000,5.92868505859375,0.017944153398275375,0.017944153398275375,-0.04512763395905495
1772812375359385900,5.9383857421875,0.026190826669335365,0.014584396965801716,-0.02741255611181259
1772812375369086500,5.94808642578125,0.03168861195445061,0.004199695307761431,-0.003283398225903511
1772812375378787300,5.957787353515625,0.035964664071798325,-0.011988221667706966,0.018096869811415672
1772812375388488000,5.967488037109375,0.0423787422478199,-0.015042545273900032,0.0345902182161808
1772812375398188800,5.977188720703125,0.04604393243789673,-0.012293653562664986,0.03886627033352852
1772812375407889700,5.9868896484375,0.04390590637922287,-0.008323032408952713,0.03733910992741585
1772812375417590500,5.996590576171875,0.034437503665685654,-0.008628465235233307,0.02756527252495289
1772812375427291100,6.006291015625,0.020387612283229828,-0.004657844081521034,0.01626427471637726
1772812375436992000,6.015991943359375,0.01030834298580885,0.007864884100854397,-0.001450803829357028
1772812375446692600,6.025692626953125,0.007254019379615784,0.016416991129517555,-0.02283107116818428
1772812375456393500,6.0353935546875,0.00847574882209301,0.020998476073145866,-0.03810269013047218
1772812375466094300,6.04509423828125,0.01030834298580885,0.02649625949561596,-0.043600473552942276
1772812375475795200,6.054795166015625,0.00755945174023509,0.02802342176437378,-0.03657552972435951
1772812375485495800,6.064495849609375,0.0035888305865228176,0.020387612283229828,-0.015806125476956367
1772812375495196700,6.07419677734375,-0.004046979360282421,0.011224640533328056,0.007101302966475487
1772812375504897500,6.0838974609375,-0.013820815831422806,-0.008323032408952713,0.024816380813717842
1772812375514598100,6.09359814453125,-0.019624030217528343,-0.0058795735239982605,0.031841326504945755
1772812375524299000,6.103299072265625,-0.013820815831422806,0.010919207707047462,0.026648975908756256
1772812375533999600,6.11299951171875,-0.004657844081521034,0.021609341725707054,0.01626427471637726
1772812375543700500,6.122700439453125,0.0005345066892914474,0.029245151206851006,0.003741546766832471
1772812375553401300,6.1324013671875,0.00022907429956831038,0.03474293276667595,0.00038179047987796366
1772812375563102200,6.142102294921875,-0.007101302966475487,0.023136503994464874,-0.0035888305865228176
1772812375572802800,6.151802734375,-0.016569707542657852,0.01030834298580885,-0.0035888305865228176
1772812375582503700,6.161503662109375,-0.022067490965127945,0.0035888305865228176,-0.004810560029000044
1772812375592204300,6.171204345703125,-0.020540328696370125,-0.0016035200096666813,-0.010613775812089443
1772812375601905200,6.1809052734375,-0.014431680552661419,-0.010766491293907166,-0.017027854919433594
1772812375611606000,6.19060595703125,-0.007101302966475487,-0.004352411720901728,-0.02496909722685814
1772812375621307000,6.200306884765625,0.0011453714687377214,0.006948587018996477,-0.033826638013124466
1772812375631007500,6.210007568359375,-0.0019089524867013097,0.006337722297757864,-0.03352120518684387
1772812375640708400,6.219708251953125,-0.017486004158854485,0.012140937149524689,-0.025579962879419327
1772812375650409000,6.229408935546875,-0.031841326504945755,0.023747367784380913,-0.012446369975805283
1772812375660109800,6.23910986328125,-0.041004300117492676,0.024663666263222694,-0.0005345066892914474
1772812375679511600,6.258511474609375,-0.033368486911058426,0.002672533504664898,0.004046979360282421
1772812375689212200,6.268212158203125,-0.016875140368938446,-0.006490438245236874,-0.00755945174023509
1772812375698913000,6.2779130859375,-0.00038179047987796366,-0.010766491293907166,-0.02283107116818428
1772812375708614000,6.28761376953125,0.01030834298580885,-0.005268708802759647,-0.03871355578303337
1772812375718314500,6.297314453125,0.012751801870763302,0.003283398225903511,-0.04543306678533554
1772812375728015400,6.307015380859375,0.01000291109085083,0.004810560029000044,-0.04696023091673851
1772812375737716000,6.316716064453125,0.010613775812089443,-0.0006872228696011007,-0.03932442143559456
1772812375747416800,6.326416748046875,0.01611155830323696,-0.00923932995647192,-0.029245151206851006
1772812375757117700,6.33611767578125,0.022525638341903687,-0.0077121676877141,-0.014584396965801716
1772812375766818600,6.345818603515625,0.02588539570569992,0.0011453714687377214,-0.002672533504664898
1772812375776519200,6.355519287109375,0.021914774551987648,0.01183550525456667,0.0058795735239982605
1772812375786220000,6.365219970703125,0.012446369975805283,0.022220205515623093,0.00954476185142994
1772812375795920600,6.374920654296875,0.006337722297757864,0.023441936820745468,0.013209951110184193
1772812375805621500,6.38462158203125,0.004810560029000044,0.014584396965801716,0.01259908638894558
1772812375815322400,6.394322265625,0.01000291109085083,0.008781181648373604,0.009850194677710533
1772812375825023200,6.404023193359375,0.01763872057199478,0.013057234697043896,0.00679587060585618
1772812375834723800,6.413723876953125,0.020387612283229828,0.017333287745714188,0.00679587060585618
1772812375844424700,6.4234248046875,0.020693045109510422,0.005421424750238657,0.009850194677710533
1772812375854125300,6.433125244140625,0.02283107116818428,-0.007406735327094793,0.011377356946468353
1772812375863826200,6.442826171875,0.023441936820745468,-0.013209951110184193,0.013820815831422806
1772812375873527000,6.452527099609375,0.014889828860759735,-0.01718057133257389,0.011682788841426373
1772812375883228000,6.462227783203125,0.002672533504664898,-0.005574141163378954,0.004352411720901728
1772812375892928500,6.471928466796875,-0.004352411720901728,0.0191658828407526,-0.001450803829357028
1772812375902629400,6.48162939453125,-0.008017600513994694,0.030466880649328232,-0.007254019379615784
1772812375912330200,6.491330322265625,-0.00954476185142994,0.030772313475608826,-0.0011453714687377214
1772812375922030800,6.50103076171875,-0.00679587060585618,0.018555017188191414,0.007406735327094793
1772812375931731700,6.510731689453125,-0.0077121676877141,-0.004657844081521034,0.00954476185142994
1772812375941432300,6.520432373046875,-0.008628465235233307,-0.020540328696370125,0.0034361144062131643
1772812375951133200,6.53013330078125,-0.008933897130191326,-0.02084576152265072,-0.013668099418282509
1772812375960834000,6.539833984375,-0.00954476185142994,-0.0012980876490473747,-0.030161447823047638
1772812375970535000,6.549534912109375,-0.011682788841426373,0.020082179456949234,-0.03932442143559456
1772812375980235500,6.559235595703125,-0.016875140368938446,0.029856016859412193,-0.03565923124551773
1772812375989936400,6.568936279296875,-0.01870773360133171,0.021609341725707054,-0.021914774551987648
1772812375999637000,6.578636962890625,-0.015042545273900032,0.001450803829357028,-0.0035888305865228176
1772812376009337900,6.588337890625,-0.007406735327094793,-0.011988221667706966,0.010766491293907166
1772812376019038700,6.598038818359375,-0.0006872228696011007,-0.022678354755043983,0.010155626572668552
1772812376028739600,6.607739501953125,0.004505127668380737,-0.01779143698513508,-0.0005345066892914474
1772812376038440200,6.617440185546875,0.011224640533328056,-0.0009926552884280682,-0.015806125476956367
1772812376048141000,6.62714111328125,0.018860450014472008,0.006948587018996477,-0.028634287416934967
1772812376057841700,6.636841552734375,0.024052800610661507,0.008170315995812416,-0.02802342176437378
1772812376067542500,6.64654248046875,0.024052800610661507,-0.004657844081521034,-0.0191658828407526
1772812376077243400,6.656243408203125,0.017944153398275375,-0.028176138177514076,-0.0057268571108579636
1772812376086944000,6.665944091796875,0.010613775812089443,-0.049861837178468704,0.0022143847309052944
1772812376096644900,6.675644775390625,0.007864884100854397,-0.04833467677235603,-0.000839939049910754
1772812376106345700,6.685345703125,0.00603228947147727,-0.03367391973733902,-0.015806125476956367
1772812376116046600,6.695046630859375,0.001450803829357028,-0.02176205813884735,-0.03779725730419159
1772812376125747200,6.704747314453125,-0.006490438245236874,-0.013820815831422806,-0.053374309092760086
1772812376135448000,6.714447998046875,-0.012904518283903599,-0.0058795735239982605,-0.06131555140018463
1772812376145148700,6.724148681640625,-0.015347977168858051,0.0057268571108579636,-0.05734493210911751
1772812376154849500,6.733849609375,-0.01626427471637726,0.004810560029000044,-0.05123628303408623
1772812376164550400,6.74355029296875,-0.01718057133257389,-0.0077121676877141,-0.03962985426187515
1772812376174251300,6.753251220703125,-0.0193185992538929,-0.022678354755043983,-0.02893971838057041
1772812376183952000,6.762951904296875,-0.020540328696370125,-0.033979352563619614,-0.025579962879419327
1772812376193652700,6.77265283203125,-0.021151192486286163,-0.029703300446271896,-0.030161447823047638
1772812376203353300,6.782353271484375,-0.01565340906381607,-0.008933897130191326,-0.03627009689807892
1772812376213054200,6.79205419921875,-0.0058795735239982605,0.01763872057199478,-0.037491824477910995
1772812376222755000,6.801755126953125,0.0005345066892914474,0.027717988938093185,-0.03260490670800209
1772812376232455700,6.81145556640625,-0.0006872228696011007,0.02130390889942646,-0.021609341725707054
1772812376242156500,6.821156494140625,-0.0025198173243552446,0.005421424750238657,-0.006337722297757864
1772812376251857400,6.830857421875,-0.0031306820455938578,-0.006185005884617567,0.008933897130191326
1772812376261558000,6.84055810546875,-0.002825249684974551,-0.0016035200096666813,0.019624030217528343
1772812376271259000,6.8502587890625,-0.0016035200096666813,0.0066431546583771706,0.025121813639998436
1772812376280959700,6.859959716796875,-0.0031306820455938578,0.009086613543331623,0.024510949850082397
1772812376290660400,6.869660400390625,-0.004046979360282421,0.009697478264570236,0.023594651371240616
1772812376300361200,6.879361328125,-0.0034361144062131643,0.010919207707047462,0.024816380813717842
1772812376310062000,6.88906201171875,-0.0012980876490473747,0.00511599238961935,0.023594651371240616
1772812376319763000,6.898762939453125,0.004199695307761431,0.003894262947142124,0.018096869811415672
1772812376329463600,6.908463623046875,0.011224640533328056,0.004505127668380737,0.008933897130191326
1772812376339164400,6.918164306640625,0.018555017188191414,0.008170315995812416,-0.0011453714687377214
1772812376348865000,6.927864990234375,0.020387612283229828,0.013668099418282509,-0.00603228947147727
1772812376358566000,6.93756591796875,0.017944153398275375,0.007864884100854397,-0.009086613543331623
1772812376368266800,6.947266845703125,0.01672242395579815,-0.0019089524867013097,-0.009086613543331623
1772812376377967400,6.95696728515625,0.017027854919433594,-0.012293653562664986,-0.010613775812089443
1772812376387668200,6.966668212890625,0.020082179456949234,-0.022983787581324577,-0.016416991129517555
1772812376397369000,6.976369140625,0.02588539570569992,-0.021456625312566757,-0.025274530053138733
1772812376407069700,6.986069580078125,0.026801692321896553,-0.011682788841426373,-0.03504836559295654
1772812376416770600,6.9957705078125,0.021609341725707054,-0.004657844081521034,-0.03962985426187515
1772812376426471400,7.005471435546875,0.013057234697043896,0.0066431546583771706,-0.035964664071798325
1772812376436172000,7.015172119140625,0.0035888305865228176,0.01763872057199478,-0.026190826669335365
1772812376445873000,7.024872802734375,-0.0058795735239982605,0.014889828860759735,-0.014889828860759735
1772812376455573800,7.03457373046875,-0.011988221667706966,0.007864884100854397,-0.0035888305865228176
1772812376465274400,7.0442744140625,-0.011988221667706966,-0.002825249684974551,0.004657844081521034
1772812376474975200,7.053975341796875,-0.012904518283903599,-0.0077121676877141,0.007101302966475487
1772812376484675800,7.06367578125,-0.019013166427612305,-0.00007635809743078426,0.005268708802759647
1772812376494376700,7.073376708984375,-0.024510949850082397,0.0066431546583771706,0.004046979360282421
1772812376504077600,7.08307763671875,-0.02756527252495289,0.00755945174023509,-0.00022907429956831038
1772812376513778400,7.0927783203125,-0.019929463043808937,0.013973532244563103,-0.0017562361899763346
1772812376523479000,7.10247900390625,-0.011377356946468353,0.012751801870763302,-0.002061668550595641
1772812376533180000,7.112179931640625,-0.0058795735239982605,0.011224640533328056,-0.0011453714687377214
1772812376542880800,7.121880859375,-0.00007635809743078426,0.007864884100854397,-0.0005345066892914474
1772812376552581400,7.131581298828125,0.01000291109085083,0.00603228947147727,0.004352411720901728
1772812376562282200,7.1412822265625,0.017333287745714188,-0.00038179047987796366,0.012293653562664986
1772812376571983000,7.150983154296875,0.018860450014472008,-0.015958841890096664,0.016569707542657852
1772812376581683700,7.16068359375,0.011224640533328056,-0.02756527252495289,0.015347977168858051
1772812376591384600,7.170384521484375,-0.004046979360282421,-0.030925029888749123,0.0031306820455938578
1772812376601085400,7.18008544921875,-0.022067490965127945,-0.024816380813717842,-0.0191658828407526
1772812376610786000,7.1897861328125,-0.03275762498378754,-0.019013166427612305,-0.05001455545425415
1772812376620487000,7.19948681640625,-0.028176138177514076,-0.015347977168858051,-0.07536543905735016
1772812376630187500,7.2091875,-0.01718057133257389,-0.011377356946468353,-0.08483384549617767
1772812376639888400,7.218888427734375,-0.008933897130191326,-0.01107192412018776,-0.08177952468395233
1772812376649589200,7.22858935546875,-0.011682788841426373,-0.02542724646627903,-0.06925679743289948
1772812376659290000,7.2382900390625,-0.01870773360133171,-0.034895651042461395,-0.05062541738152504
1772812376668990700,7.24799072265625,-0.025732679292559624,-0.0553596206009388,-0.039018988609313965
1772812376678691600,7.257691650390625,-0.029397867619991302,-0.05719221383333206,-0.03107774630188942
1772812376688392200,7.26739208984375,-0.030925029888749123,-0.04833467677235603,-0.026190826669335365
1772812376698093000,7.277093017578125,-0.02390008419752121,-0.017486004158854485,-0.023441936820745468
1772812376707794000,7.2867939453125,-0.01107192412018776,0.010613775812089443,-0.017333287745714188
1772812376717494500,7.29649462890625,-0.0025198173243552446,0.02130390889942646,-0.006337722297757864
1772812376727195400,7.3061953125,-0.002825249684974551,0.017333287745714188,0.0019089524867013097
1772812376736896300,7.315896240234375,-0.006185005884617567,0.002061668550595641,0.011988221667706966
1772812376746597000,7.32559716796875,-0.008323032408952713,-0.015347977168858051,0.018096869811415672
1772812376756297700,7.335297607421875,-0.0031306820455938578,-0.027259841561317444,0.016569707542657852
1772812376765998600,7.34499853515625,0.00511599238961935,-0.03581194952130318,0.008628465235233307
1772812376775699200,7.35469921875,0.014584396965801716,-0.029397867619991302,-0.004199695307761431
1772812376785400000,7.364400146484375,0.021914774551987648,-0.019013166427612305,-0.01763872057199478
1772812376795101000,7.374100830078125,0.022525638341903687,-0.008933897130191326,-0.029245151206851006
1772812376804801800,7.3838017578125,0.019471315667033195,0.006337722297757864,-0.03352120518684387
1772812376814502400,7.39350244140625,0.013057234697043896,0.014889828860759735,-0.03413207083940506
1772812376824203300,7.403203369140625,0.010613775812089443,0.01977674663066864,-0.02496909722685814
1772812376833903900,7.41290380859375,0.0057268571108579636,0.015806125476956367,-0.01183550525456667
1772812376843604700,7.422604736328125,-0.00038179047987796366,0.008170315995812416,-0.0029779658652842045
1772812376853305600,7.4323056640625,-0.0025198173243552446,0.003283398225903511,0.008323032408952713
1772812376863006200,7.442006103515625,-0.008017600513994694,-0.003741546766832471,0.018096869811415672
1772812376872707000,7.45170703125,-0.012904518283903599,-0.00954476185142994,0.018402300775051117
1772812376882408000,7.461407958984375,-0.010155626572668552,-0.003741546766832471,0.01259908638894558
1772812376892108500,7.471108642578125,-0.004046979360282421,0.008781181648373604,0.0012980876490473747
1772812376901809400,7.480809326171875,-0.0012980876490473747,0.017333287745714188,-0.009086613543331623
1772812376911510300,7.49051025390625,-0.0025198173243552446,0.022525638341903687,-0.01672242395579815
1772812376921211000,7.5002109375,-0.00007635809743078426,0.020082179456949234,-0.015500693581998348
1772812376930911700,7.509911865234375,0.003283398225903511,0.013057234697043896,-0.00847574882209301
1772812376940612600,7.519612548828125,0.007254019379615784,-0.00038179047987796366,-0.00511599238961935
1772812376950313200,7.529313232421875,0.014278964139521122,-0.004046979360282421,-0.0023671009112149477
1772812376960014000,7.53901416015625,0.015806125476956367,-0.0019089524867013097,-0.0017562361899763346
1772812376969714700,7.548714599609375,0.012446369975805283,0.003283398225903511,-0.001450803829357028
1772812376979415600,7.55841552734375,0.00847574882209301,0.004505127668380737,-0.001450803829357028
1772812376989116400,7.568116455078125,0.009086613543331623,0.0029779658652842045,-0.0035888305865228176
1772812376998817300,7.5778173828125,0.014889828860759735,0.007254019379615784,-0.00755945174023509
1772812377008518000,7.587517822265625,0.020998476073145866,0.013973532244563103,-0.007254019379615784
1772812377018218800,7.59721875,0.018555017188191414,0.008781181648373604,-0.004199695307761431
1772812377027919600,7.606919677734375,0.01183550525456667,0.009086613543331623,0.009850194677710533
1772812377037620200,7.6166201171875,0.002672533504664898,0.011530072428286076,0.022983787581324577
1772812377047321000,7.626321044921875,-0.004963276442140341,0.013668099418282509,0.033979352563619614
1772812377057021700,7.636021728515625,-0.0031306820455938578,0.011224640533328056,0.03733910992741585
1772812377066722600,7.64572265625,0.0066431546583771706,-0.0019089524867013097,0.030314164236187935
1772812377076423400,7.65542333984375,0.018860450014472008,-0.011988221667706966,0.015958841890096664
1772812377086124300,7.665124267578125,0.020387612283229828,-0.01259908638894558,-0.002061668550595641
1772812377095825000,7.674824951171875,0.006337722297757864,-0.009850194677710533,-0.019471315667033195
1772812377105525800,7.68452587890625,-0.012293653562664986,-0.008933897130191326,-0.033826638013124466
1772812377115226400,7.694226318359375,-0.024510949850082397,-0.009850194677710533,-0.0423787422478199
1772812377124927200,7.70392724609375,-0.029703300446271896,-0.01259908638894558,-0.04818195849657059
1772812377134628000,7.713628173828125,-0.02328922040760517,-0.0058795735239982605,-0.04696023091673851
1772812377144328700,7.72332861328125,-0.016569707542657852,0.0035888305865228176,-0.03993528336286545
1772812377154029600,7.733029541015625,-0.017486004158854485,0.009086613543331623,-0.026801692321896553
1772812377163730400,7.74273046875,-0.025732679292559624,0.01611155830323696,-0.01183550525456667
1772812377173431000,7.75243115234375,-0.03153589367866516,0.02496909722685814,0.0019089524867013097
1772812377183132000,7.7621318359375,-0.03214675933122635,0.02741255611181259,0.01259908638894558
1772812377192832800,7.771832763671875,-0.029397867619991302,0.023441936820745468,0.02176205813884735
1772812377202533400,7.781533447265625,-0.030314164236187935,0.010919207707047462,0.02909243479371071
1772812377212234200,7.791234130859375,-0.030314164236187935,0.01000291109085083,0.0345902182161808
1772812377221935000,7.80093505859375,-0.027259841561317444,0.012751801870763302,0.03733910992741585
1772812377231635700,7.8106357421875,-0.02176205813884735,0.00847574882209301,0.037033677101135254
1772812377241336600,7.820336669921875,-0.016875140368938446,0.0023671009112149477,0.030314164236187935
1772812377251037200,7.830037109375,-0.018096869811415672,0.002672533504664898,0.019929463043808937
1772812377260738000,7.839738037109375,-0.021456625312566757,0.013668099418282509,0.008933897130191326
1772812377280139800,7.859139892578125,-0.01718057133257389,0.024663666263222694,-0.01672242395579815
1772812377289840400,7.86884033203125,-0.008933897130191326,0.011530072428286076,-0.018555017188191414
1772812377299541200,7.878541259765625,-0.005574141163378954,-0.01259908638894558,-0.01672242395579815
1772812377309242000,7.8882421875,-0.007101302966475487,-0.02695440873503685,-0.015195261687040329
1772812377318942700,7.897942626953125,-0.012904518283903599,-0.024510949850082397,-0.007864884100854397
1772812377328643600,7.9076435546875,-0.0193185992538929,-0.019929463043808937,0.00038179047987796366
1772812377338344200,7.91734423828125,-0.02084576152265072,-0.026648975908756256,0.0016035200096666813
1772812377348045000,7.927045166015625,-0.013515383005142212,-0.0345902182161808,0.002825249684974551
1772812377367446800,7.94644677734375,-0.0025198173243552446,-0.04253146052360535,0.002825249684974551
1772812377377147400,7.9561474609375,-0.005574141163378954,-0.04222602769732475,-0.003894262947142124
1772812377386848300,7.96584814453125,-0.004046979360282421,-0.024205517023801804,-0.012751801870763302
1772812377396548900,7.975548828125,0.0011453714687377214,-0.002825249684974551,-0.023747367784380913
1772812377406249700,7.985249755859375,0.007254019379615784,0.006337722297757864,-0.029856016859412193
1772812377415950600,7.99495068359375,0.009392046369612217,0.00847574882209301,-0.02893971838057041
1772812377425651200,8.004651123046875,0.01030834298580885,0.002672533504664898,-0.020387612283229828
1772812377435352000,8.01435205078125,0.004505127668380737,-0.008017600513994694,-0.009697478264570236
1772812377445053000,8.024052978515625,-0.0016035200096666813,-0.011377356946468353,-0.000839939049910754
1772812377454753500,8.03375341796875,-0.004657844081521034,-0.014431680552661419,0.008017600513994694
1772812377464454400,8.043454345703125,-0.01107192412018776,-0.015958841890096664,0.009850194677710533
1772812377474155300,8.0531552734375,-0.015958841890096664,-0.018402300775051117,0.005268708802759647
1772812377483856000,8.06285595703125,-0.01565340906381607,-0.007406735327094793,-0.002061668550595641
1772812377493556700,8.072556640625,-0.012904518283903599,0.0035888305865228176,-0.012751801870763302
1772812377503257600,8.082257568359376,-0.00923932995647192,0.014278964139521122,-0.023136503994464874
1772812377512958200,8.091958251953125,-0.006185005884617567,0.025274530053138733,-0.02649625949561596
1772812377522659000,8.1016591796875,-0.007406735327094793,0.022525638341903687,-0.025274530053138733
1772812377532359700,8.111359619140625,-0.008628465235233307,0.015500693581998348,-0.015806125476956367
1772812377542060500,8.121060546875,-0.009850194677710533,0.00755945174023509,-0.004810560029000044
1772812377551761400,8.130761474609375,-0.006185005884617567,-0.0006872228696011007,0.005268708802759647
1772812377561462300,8.140462158203125,-0.003741546766832471,0.001450803829357028,0.01565340906381607
1772812377571163000,8.150162841796876,-0.0009926552884280682,0.00603228947147727,0.02176205813884735
1772812377580863700,8.15986376953125,0.003894262947142124,0.007254019379615784,0.023594651371240616
1772812377590564600,8.169564697265624,0.010613775812089443,0.013973532244563103,0.024205517023801804
1772812377600265200,8.17926513671875,0.010613775812089443,0.018860450014472008,0.02237292192876339
1772812377609966000,8.188966064453124,0.006337722297757864,0.013973532244563103,0.01565340906381607
1772812377619666700,8.198666748046875,0.0011453714687377214,0.00847574882209301,0.005574141163378954
1772812377629367600,8.208367431640625,-0.0019089524867013097,0.0023671009112149477,-0.010919207707047462
1772812377639068400,8.218068359375,-0.0031306820455938578,-0.006185005884617567,-0.02588539570569992
1772812377648769000,8.22776904296875,-0.0016035200096666813,-0.006490438245236874,-0.03810269013047218
1772812377658470000,8.237469970703126,-0.0009926552884280682,-0.0006872228696011007,-0.040546149015426636
1772812377668170800,8.247170654296875,-0.0025198173243552446,0.0035888305865228176,-0.033826638013124466
1772812377677871400,8.256871337890624,-0.004963276442140341,0.00022907429956831038,-0.022220205515623093
1772812377687572200,8.266572265625,-0.0077121676877141,-0.012904518283903599,-0.006337722297757864
1772812377697273000,8.276273193359375,-0.009850194677710533,-0.024816380813717842,0.0022143847309052944
1772812377706973700,8.2859736328125,-0.012904518283903599,-0.033979352563619614,0.0025198173243552446
1772812377716674600,8.295674560546875,-0.017486004158854485,-0.03367391973733902,-0.0057268571108579636
1772812377726375400,8.30537548828125,-0.02176205813884735,-0.004046979360282421,-0.00511599238961935
1772812377736076000,8.315075927734375,-0.027259841561317444,0.02588539570569992,-0.0023671009112149477
1772812377745777000,8.32477685546875,-0.026343543082475662,0.03840812295675278,0.003741546766832471
1772812377755477500,8.3344775390625,-0.02023489587008953,0.026801692321896553,0.015042545273900032
1772812377765178400,8.344178466796874,-0.014737112447619438,0.004505127668380737,0.02909243479371071
1772812377774879200,8.353879150390625,-0.012904518283903599,-0.015958841890096664,0.04069886729121208
1772812377784580000,8.363580078125,-0.012293653562664986,-0.027259841561317444,0.04069886729121208
1772812377794280700,8.37328076171875,-0.008628465235233307,-0.03367391973733902,0.025121813639998436
1772812377803981600,8.382981689453125,-0.0034361144062131643,-0.024205517023801804,0.010461059398949146
1772812377813682400,8.392682373046876,-0.00007635809743078426,-0.013515383005142212,-0.012446369975805283
1772812377823383000,8.402383056640625,-0.00007635809743078426,-0.004352411720901728,-0.0319940410554409
1772812377833084000,8.412083984375,-0.002825249684974551,0.002672533504664898,-0.04451677203178406
1772812377842784500,8.421784423828125,-0.008628465235233307,0.007864884100854397,-0.040546149015426636
1772812377852485400,8.4314853515625,-0.01626427471637726,0.014584396965801716,-0.030466880649328232
1772812377862186200,8.441186279296875,-0.022983787581324577,0.0319940410554409,-0.0319940410554409
1772812377871887000,8.45088720703125,-0.02390008419752121,0.056428633630275726,-0.0423787422478199
1772812377881587700,8.460587646484376,-0.020540328696370125,0.060704685747623444,-0.05520690605044365
1772812377891288600,8.47028857421875,-0.01565340906381607,0.05826122686266899,-0.0628427118062973
1772812377900989200,8.4799892578125,-0.010461059398949146,0.05459604039788246,-0.060093823820352554
1772812377910690000,8.48968994140625,-0.00679587060585618,0.03840812295675278,-0.045738499611616135
1772812377920391000,8.499390869140624,-0.002825249684974551,0.026190826669335365,-0.024663666263222694
1772812377930091500,8.509091552734375,0.005421424750238657,0.019471315667033195,-0.004810560029000044
1772812377939792400,8.51879248046875,0.013668099418282509,0.009392046369612217,0.0058795735239982605
1772812377949493200,8.5284931640625,0.017027854919433594,0.014278964139521122,0.006185005884617567
1772812377959193900,8.53819384765625,0.013973532244563103,0.017333287745714188,0.004963276442140341
1772812377968894700,8.547894775390626,0.0057268571108579636,0.022220205515623093,0.008323032408952713
1772812377978595300,8.55759521484375,0.00022907429956831038,0.02802342176437378,0.011377356946468353
1772812377988296200,8.567296142578124,0.0029779658652842045,0.01763872057199478,0.018096869811415672
1772812377997997000,8.5769970703125,0.00603228947147727,0.000839939049910754,0.025121813639998436
1772812378007698000,8.586697998046875,0.00603228947147727,-0.01259908638894558,0.02695440873503685
1772812378017398500,8.5963984375,0.009086613543331623,-0.014737112447619438,0.02237292192876339
1772812378027099400,8.606099365234375,0.014278964139521122,-0.004657844081521034,0.006490438245236874
1772812378036800000,8.615800048828126,0.01030834298580885,0.013057234697043896,-0.002672533504664898
1772812378046500900,8.6255009765625,0.0017562361899763346,0.01672242395579815,-0.00511599238961935
1772812378056201700,8.63520166015625,-0.0022143847309052944,0.004199695307761431,-0.002061668550595641
1772812378065902300,8.64490234375,0.001450803829357028,-0.017486004158854485,-0.000839939049910754
1772812378075603200,8.654603271484374,0.006337722297757864,-0.03520108386874199,-0.01183550525456667
1772812378085304000,8.664303955078125,0.00603228947147727,-0.03917170315980911,-0.02588539570569992
1772812378095005000,8.6740048828125,0.002061668550595641,-0.025121813639998436,-0.04512763395905495
1772812378104705500,8.68370556640625,-0.0034361144062131643,0.003283398225903511,-0.05948295816779137
1772812378114406100,8.69340625,-0.021456625312566757,0.020693045109510422,-0.061620984226465225
1772812378124107000,8.70310693359375,-0.04802924394607544,0.0319940410554409,-0.04634936526417732
1772812378133807900,8.712807861328125,-0.06818778067827225,0.03504836559295654,-0.023136503994464874
1772812378143508700,8.7225087890625,-0.07490729540586472,0.025579962879419327,-0.0023671009112149477
1772812378153209300,8.732209228515625,-0.07368556410074234,0.013057234697043896,0.00954476185142994
1772812378162910200,8.74191015625,-0.06238456442952156,0.00022907429956831038,0.010766491293907166
1772812378172611000,8.751611083984375,-0.049861837178468704,-0.004046979360282421,0.005574141163378954
1772812378182311700,8.761311767578125,-0.0345902182161808,0.002061668550595641,-0.003283398225903511
1772812378192012500,8.771012451171876,-0.027870705351233482,0.014584396965801716,-0.009697478264570236
1772812378201713200,8.780713134765625,-0.02848157100379467,0.01000291109085083,-0.01672242395579815
1772812378211414000,8.7904140625,-0.02695440873503685,0.0035888305865228176,-0.014889828860759735
1772812378221115000,8.800114990234375,-0.024510949850082397,0.003283398225903511,-0.011530072428286076
1772812378230815500,8.8098154296875,-0.03214675933122635,0.001450803829357028,-0.008781181648373604
1772812378240516400,8.819516357421875,-0.026648975908756256,0.009697478264570236,-0.004810560029000044
1772812378250217200,8.82921728515625,-0.01565340906381607,0.002061668550595641,-0.003283398225903511
1772812378259917800,8.838917724609376,-0.010766491293907166,-0.019929463043808937,-0.002672533504664898
1772812378269618700,8.84861865234375,-0.010155626572668552,-0.04650207981467247,0.004657844081521034
1772812378279319600,8.858319580078126,-0.010766491293907166,-0.06788235157728195,0.014737112447619438
1772812378289020200,8.868020263671875,-0.013209951110184193,-0.08193223923444748,0.030314164236187935
1772812378298721000,8.877720947265624,-0.01259908638894558,-0.10606139898300171,0.03061959706246853
1772812378308422000,8.887421875,-0.004657844081521034,-0.13110685348510742,0.021151192486286163
1772812378318122500,8.89712255859375,0.002061668550595641,-0.1329394429922104,0.00954476185142994
1772812378327823400,8.9068232421875,0.009086613543331623,-0.13049599528312683,-0.00847574882209301
1772812378337524000,8.91652392578125,0.02283107116818428,-0.11736239492893219,-0.023747367784380913
1772812378347224800,8.926224853515626,0.03840812295675278,-0.10728313028812408,-0.03657552972435951
1772812378356925700,8.93592578125,0.05826122686266899,-0.0965929925441742,-0.04298960790038109
1772812378366626300,8.945626220703126,0.07231111824512482,-0.07948877662420273,-0.045738499611616135
1772812378376327200,8.9553271484375,0.07628174126148224,-0.06268999725580215,-0.04390590637922287
1772812378386028000,8.965028076171874,0.07658717036247253,-0.04864010959863663,-0.04298960790038109
1772812378395728600,8.974728759765625,0.07506000995635986,-0.040088001638650894,-0.04390590637922287
1772812378405429500,8.984429443359375,0.0732274129986763,-0.05108356848359108,-0.04390590637922287
1772812378415130400,8.99413037109375,0.06345357745885849,-0.05169443041086197,-0.03504836559295654
1772812378424831000,9.0038310546875,0.050319984555244446,-0.04741837829351425,-0.028634287416934967
1772812378434531800,9.01353173828125,0.04696023091673851,-0.04344775900244713,-0.02802342176437378
1772812378444232700,9.023232666015625,0.05123628303408623,-0.024510949850082397,-0.022525638341903687
1772812378453933300,9.032933349609374,0.050930850207805634,-0.007406735327094793,-0.020998476073145866
1772812378463634200,9.04263427734375,0.04512763395905495,-0.00007635809743078426,-0.018860450014472008
1772812378473334800,9.052334716796874,0.0371863916516304,0.000839939049910754,-0.01824958436191082
1772812378483035600,9.06203564453125,0.02741255611181259,0.004199695307761431,-0.015806125476956367
1772812378492736500,9.071736572265625,0.019471315667033195,0.00511599238961935,-0.020693045109510422
1772812378502437000,9.08143701171875,0.018555017188191414,0.005421424750238657,-0.023441936820745468
1772812378512138000,9.091137939453125,0.011530072428286076,0.013668099418282509,-0.020998476073145866
1772812378521838800,9.1008388671875,0.0017562361899763346,0.006948587018996477,-0.0191658828407526
1772812378531539700,9.110539794921875,-0.0016035200096666813,0.0017562361899763346,-0.01763872057199478
1772812378541240300,9.120240234375,0.00022907429956831038,0.0017562361899763346,-0.014584396965801716
1772812378550941200,9.129941162109375,-0.004352411720901728,0.004505127668380737,-0.010919207707047462
1772812378560641800,9.139641845703125,-0.011377356946468353,0.01000291109085083,-0.0057268571108579636
1772812378570342700,9.1493427734375,-0.016875140368938446,0.01030834298580885,0.004657844081521034
1772812378580043500,9.15904345703125,-0.01870773360133171,0.005421424750238657,0.015958841890096664
1772812378589744000,9.168744140625,-0.01626427471637726,0.012751801870763302,0.025732679292559624
1772812378599445000,9.178445068359375,-0.014126247726380825,0.017333287745714188,0.02756527252495289
1772812378609145900,9.188145751953124,-0.013515383005142212,0.015806125476956367,0.024510949850082397
1772812378618846500,9.197846435546875,-0.011682788841426373,0.013668099418282509,0.02848157100379467
1772812378628547300,9.20754736328125,-0.013820815831422806,0.016416991129517555,0.028787001967430115
1772812378638248000,9.217248046875,-0.014126247726380825,0.022220205515623093,0.028787001967430115
1772812378647948800,9.22694873046875,-0.013209951110184193,0.0319940410554409,0.027259841561317444
1772812378657649700,9.236649658203126,-0.019624030217528343,0.03413207083940506,0.021456625312566757
1772812378667350500,9.2463505859375,-0.026648975908756256,0.027717988938093185,0.019013166427612305
1772812378677051100,9.256051025390626,-0.02756527252495289,0.01977674663066864,0.02390008419752121
1772812378686752000,9.265751953125,-0.014737112447619438,0.0017562361899763346,0.020540328696370125
1772812378696452600,9.27545263671875,0.0057268571108579636,-0.005268708802759647,0.013209951110184193
1772812378706153500,9.285153564453125,0.019471315667033195,0.002672533504664898,0.0058795735239982605
1772812378715854300,9.294854248046875,0.018860450014472008,0.01030834298580885,-0.0023671009112149477
1772812378725555000,9.304554931640626,0.011224640533328056,0.008781181648373604,-0.010613775812089443
1772812378735255800,9.314255859375,0.0066431546583771706,0.0057268571108579636,-0.01763872057199478
1772812378744956700,9.323956787109376,0.0029779658652842045,0.011530072428286076,-0.025274530053138733
1772812378754657300,9.3336572265625,-0.002825249684974551,0.021914774551987648,-0.023441936820745468
1772812378764358100,9.343358154296874,-0.016569707542657852,0.028328854590654373,-0.015500693581998348
1772812378774058800,9.353058837890625,-0.03245219215750694,0.029245151206851006,-0.009392046369612217
1772812378783759600,9.362759521484374,-0.04253146052360535,0.03352120518684387,-0.010919207707047462
1772812378793460500,9.37246044921875,-0.05413788929581642,0.02893971838057041,-0.017333287745714188
1772812378803161000,9.3821611328125,-0.07338013499975204,0.027717988938093185,-0.02893971838057041
1772812378812862000,9.391862060546876,-0.08681915700435638,0.04543306678533554,-0.04940368980169296
1772812378822562800,9.401562744140625,-0.08468113094568253,0.0631481483578682,-0.06589704006910324
1772812378832263700,9.411263671875,-0.07796161621809006,0.07872519642114639,-0.08116865903139114
1772812378841964300,9.42096435546875,-0.07399099320173264,0.08269581943750381,-0.08972076326608658
1772812378851665200,9.4306650390625,-0.06971494108438492,0.07475458085536957,-0.08727730810642242
1772812378861365800,9.44036572265625,-0.06268999725580215,0.05154171586036682,-0.07658717036247253
1772812378871066600,9.450066650390625,-0.052916161715984344,0.0191658828407526,-0.06467530876398087
1772812378880767500,9.459767578125,-0.04222602769732475,-0.0016035200096666813,-0.05215258151292801
1772812378890468000,9.469468017578125,-0.03520108386874199,-0.008017600513994694,-0.04146244749426842
1772812378900169000,9.4791689453125,-0.03581194952130318,-0.0022143847309052944,-0.041157014667987823
1772812378909869800,9.488869873046875,-0.03886627033352852,0.004505127668380737,-0.04329504072666168
1772812378919570400,9.4985703125,-0.04283689334988594,0.020693045109510422,-0.03260490670800209
1772812378929271300,9.508271240234375,-0.04192059487104416,0.025274530053138733,-0.02741255611181259
1772812378938972000,9.517971923828124,-0.03061959706246853,0.02649625949561596,-0.0243582334369421
1772812378948672800,9.5276728515625,-0.020540328696370125,0.026801692321896553,-0.022220205515623093
1772812378958373600,9.53737353515625,-0.014431680552661419,0.020998476073145866,-0.020998476073145866
1772812378968074500,9.547074462890626,-0.0058795735239982605,-0.0009926552884280682,-0.018555017188191414
1772812378977775000,9.556775146484375,0.006337722297757864,-0.03061959706246853,-0.02741255611181259
1772812378987476000,9.56647607421875,0.01824958436191082,-0.05230529606342316,-0.0423787422478199
1772812378997176600,9.576176513671875,0.018555017188191414,-0.06666062027215958,-0.05673406645655632
1772812379006877400,9.58587744140625,0.013668099418282509,-0.07399099320173264,-0.06742420047521591
1772812379016578300,9.595578369140625,0.009392046369612217,-0.07643445581197739,-0.07628174126148224
1772812379026279000,9.60527880859375,0.006337722297757864,-0.07460185885429382,-0.07903063297271729
1772812379035979800,9.614979736328126,-0.00038179047987796366,-0.08040507882833481,-0.0781143307685852
1772812379045680600,9.6246806640625,0.0035888305865228176,-0.0755181610584259,-0.06895136088132858
1772812379055381200,9.63438134765625,-0.0019089524867013097,-0.06788235157728195,-0.054901473224163055
1772812379065082000,9.64408203125,-0.01626427471637726,-0.02695440873503685,-0.02649625949561596
1772812379074782700,9.65378271484375,-0.029397867619991302,0.0066431546583771706,0.006490438245236874
1772812379084483600,9.663483642578125,-0.04130972921848297,0.024663666263222694,0.04741837829351425
1772812379094184400,9.673184326171874,-0.037949975579977036,0.03321577236056328,0.0758235901594162
1772812379103885000,9.682885009765625,-0.02909243479371071,0.037491824477910995,0.09262236952781677
1772812379113586000,9.6925859375,-0.012293653562664986,0.046654798090457916,0.09781472384929657
1772812379123286800,9.702286865234376,0.0017562361899763346,0.045738499611616135,0.09384410083293915
1772812379132987400,9.7119873046875,0.009697478264570236,0.02802342176437378,0.08498656004667282
1772812379142688300,9.721688232421876,0.014889828860759735,0.002061668550595641,0.07643445581197739
1772812379152388900,9.731388916015625,0.015806125476956367,-0.02909243479371071,0.05841394513845444
1772812379162089700,9.74108984375,0.017944153398275375,-0.07185296714305878,0.034895651042461395
1772812379171790600,9.75079052734375,0.013973532244563103,-0.09353867173194885,0.015347977168858051
1772812379181491500,9.760491455078125,0.01183550525456667,-0.09353867173194885,-0.003283398225903511
1772812379191192000,9.770192138671876,0.013668099418282509,-0.07460185885429382,-0.014584396965801716
1772812379200893000,9.779892822265625,0.02283107116818428,-0.046807512640953064,-0.017944153398275375
1772812379210593500,9.789593505859376,0.03993528336286545,-0.015347977168858051,-0.010919207707047462
1772812379220294400,9.79929443359375,0.05429060757160187,0.004199695307761431,0.005574141163378954
1772812379229995300,9.808995361328124,0.05948295816779137,-0.0031306820455938578,0.02023489587008953
1772812379239696000,9.81869580078125,0.057039499282836914,-0.007406735327094793,0.03214675933122635
1772812379249396700,9.828396728515624,0.050319984555244446,-0.01107192412018776,0.031230462715029716
1772812379259097600,9.83809765625,0.04298960790038109,-0.015347977168858051,0.026648975908756256
1772812379268798200,9.847798095703125,0.04298960790038109,-0.00038179047987796366,0.02176205813884735
1772812379278499000,9.8574990234375,0.04329504072666168,-0.007406735327094793,0.008628465235233307
1772812379288199700,9.86719970703125,0.0371863916516304,-0.022067490965127945,-0.00847574882209301
1772812379297900500,9.876900634765626,0.033826638013124466,-0.02023489587008953,-0.02283107116818428
1772812379307601400,9.886601318359375,0.03535379841923714,-0.02390008419752121,-0.03779725730419159
1772812379317302000,9.896302001953124,0.0319940410554409,-0.010155626572668552,-0.039018988609313965
1772812379327003000,9.9060029296875,0.012446369975805283,-0.004963276442140341,-0.0371863916516304
1772812379336703700,9.915703857421875,-0.005268708802759647,0.0066431546583771706,-0.020693045109510422
1772812379346404600,9.925404541015626,-0.01870773360133171,0.00755945174023509,-0.002672533504664898
1772812379356105200,9.935105224609375,-0.02695440873503685,-0.01107192412018776,0.003741546766832471
1772812379365806000,9.94480615234375,-0.026038112118840218,-0.008933897130191326,0.00679587060585618
1772812379375506700,9.954506591796875,-0.028787001967430115,-0.010766491293907166,-0.0017562361899763346
1772812379385207600,9.96420751953125,-0.033979352563619614,0.0005345066892914474,-0.010919207707047462
1772812379394908200,9.973908203125,-0.03367391973733902,0.024663666263222694,-0.013057234697043896
1772812379404609000,9.983609130859374,-0.03611737862229347,0.030466880649328232,-0.01611155830323696
1772812379414310000,9.993309814453125,-0.03917170315980911,0.022525638341903687,-0.012751801870763302
1772812379424010800,10.0030107421875,-0.0345902182161808,0.02130390889942646,-0.007254019379615784
1772812379433711400,10.01271142578125,-0.020540328696370125,0.015806125476956367,-0.0017562361899763346
1772812379443412200,10.022412109375,-0.008017600513994694,0.002672533504664898,-0.001450803829357028
1772812379453112800,10.03211279296875,0.009086613543331623,0.015806125476956367,0.0012980876490473747
1772812379462813700,10.041813720703125,0.017944153398275375,0.024052800610661507,0.0006872228696011007
1772812379472514600,10.0515146484375,0.013668099418282509,0.013973532244563103,-0.007864884100854397
1772812379482215200,10.061215087890625,0.01763872057199478,0.013057234697043896,-0.021914774551987648
1772812379491916000,10.070916015625,0.01672242395579815,0.00847574882209301,-0.03993528336286545
1772812379501617000,10.080616943359376,0.016416991129517555,-0.0058795735239982605,-0.06039925664663315
1772812379511317500,10.0903173828125,0.023747367784380913,0.003894262947142124,-0.06559160351753235
1772812379521018400,10.100018310546876,0.02649625949561596,0.01030834298580885,-0.061620984226465225
1772812379530719000,10.109718994140625,0.024052800610661507,0.017944153398275375,-0.042684175074100494
1772812379540419800,10.119419921875,0.018555017188191414,0.013362666592001915,-0.014889828860759735
1772812379550120700,10.12912060546875,0.013362666592001915,-0.0077121676877141,0.01779143698513508
1772812379559821300,10.1388212890625,0.010919207707047462,-0.019013166427612305,0.04436405375599861
1772812379569522200,10.148522216796875,0.004199695307761431,-0.021151192486286163,0.05933023989200592
1772812379579223000,10.15822314453125,-0.010155626572668552,-0.028176138177514076,0.0602465383708477
1772812379588923600,10.167923583984376,-0.022067490965127945,-0.024510949850082397,0.050778135657310486
1772812379598624500,10.17762451171875,-0.024510949850082397,-0.02848157100379467,0.028176138177514076
1772812379608325000,10.1873251953125,-0.011377356946468353,-0.039477135986089706,-0.00847574882209301
1772812379618026000,10.19702587890625,0.00755945174023509,-0.03886627033352852,-0.05948295816779137
1772812379627726800,10.206726806640624,0.01672242395579815,-0.01259908638894558,-0.10529781877994537
1772812379637427700,10.216427734375,0.009697478264570236,0.0017562361899763346,-0.14164426922798157
1772812379647128300,10.22612841796875,-0.010766491293907166,0.008781181648373604,-0.15202897787094116
1772812379656829200,10.2358291015625,-0.02756527252495289,0.03657552972435951,-0.11384992301464081
1772812379666529800,10.24552978515625,-0.037033677101135254,0.044211339205503464,-0.04390590637922287
