time,seconds_elapsed,z,y,x
1772812369519514400,0.098514404296875,0,0,0
1772812369529215000,0.108215087890625,0.05794525146484375,-0.009327888488769531,-0.00863945484161377
1772812369538915300,0.117915283203125,0.1266641616821289,-0.001994520425796509,-0.03163653612136841
1772812369548616700,0.12761669921875,0.13709545135498047,-0.0038108229637145996,-0.07170712947845459
1772812369558317300,0.1373173828125,0.051634788513183594,-0.029582470655441284,-0.1403629183769226
1772812369568018200,0.14701806640625,-0.016143798828125,0.016463756561279297,-0.18588805198669434
1772812369577719000,0.156718994140625,-0.14959144592285156,0.10105201601982117,-0.22682932019233704
1772812369587419600,0.166419677734375,-0.2927875518798828,0.07304155826568604,-0.24510616064071655
1772812369597120500,0.17612060546875,-0.3325958251953125,0.04731959104537964,-0.2983825206756592
1772812369606821400,0.1858212890625,-0.2987184524536133,0.03935331106185913,-0.331233948469162
1772812369616522000,0.19552197265625,-0.27893924713134766,0.0779842734336853,-0.350029319524765
1772812369626222800,0.205222900390625,-0.14166927337646484,0.08504527807235718,-0.35205793380737305
1772812369635923700,0.214923828125,0.00046062469482421875,0.05337035655975342,-0.3173503875732422
1772812369645624600,0.22462451171875,0.11018562316894531,-0.009540289640426636,-0.2882711887359619
1772812369655325200,0.2343251953125,0.2378091812133789,-0.053060948848724365,-0.21585524082183838
1772812369665026000,0.244026123046875,0.3743734359741211,-0.06378132104873657,-0.14403247833251953
1772812369674727000,0.253726806640625,0.5181035995483398,-0.07701528072357178,-0.12285923957824707
1772812369684427500,0.263427490234375,0.6366233825683594,-0.08264288306236267,-0.15213289856910706
1772812369694128400,0.27312841796875,0.6024684906005859,-0.07717147469520569,-0.1282840073108673
1772812369703829200,0.282829345703125,0.5785417556762695,-0.10006150603294373,-0.1136704683303833
1772812369713529900,0.29252978515625,0.5526838302612305,-0.10265599191188812,-0.08816294372081757
1772812369723230700,0.302230712890625,0.5373334884643555,-0.07209551334381104,-0.11757390946149826
1772812369732931600,0.311931640625,0.4803457260131836,-0.12325379252433777,-0.14075498282909393
1772812369742632200,0.321632080078125,0.3946084976196289,-0.13064324855804443,-0.16906943917274475
1772812369752333000,0.3313330078125,0.28433704376220703,-0.10801008343696594,-0.19971449673175812
1772812369762034000,0.341033935546875,0.1512126922607422,-0.11542734503746033,-0.21772851049900055
1772812369771734800,0.35073486328125,0.12008094787597656,-0.07631763815879822,-0.2509763538837433
1772812369781435400,0.360435302734375,0.1156463623046875,-0.053109437227249146,-0.24365335702896118
1772812369791136300,0.37013623046875,0.1265697479248047,-0.06092864274978638,-0.21639671921730042
1772812369800837000,0.379837158203125,0.1639413833618164,-0.08584311604499817,-0.17126691341400146
1772812369810537700,0.389537841796875,0.20731163024902344,-0.045833125710487366,-0.14679482579231262
1772812369820238600,0.399238525390625,0.2275838851928711,0.037600696086883545,-0.1251591295003891
1772812369829939500,0.408939453125,0.15468120574951172,0.04465046525001526,-0.1017940565943718
1772812369839640000,0.41864013671875,0.1096200942993164,0.026822417974472046,-0.09478901326656342
1772812369849341000,0.4283408203125,0.06708908081054688,0.0005140900611877441,-0.06135961785912514
1772812369859041800,0.438041748046875,0.04785728454589844,-0.013783961534500122,-0.00901300460100174
1772812369868742400,0.447742431640625,0.013991355895996094,-0.032272666692733765,0.06500963866710663
1772812369878443300,0.457443359375,0.029911041259765625,-0.0749567300081253,0.1142829954624176
1772812369888144100,0.46714404296875,0.10489082336425781,-0.08169020712375641,0.15471027791500092
1772812369897845000,0.476844970703125,0.11859798431396484,-0.07048681378364563,0.09397858381271362
1772812369907545600,0.486545654296875,0.13559913635253906,-0.05163256824016571,0.021107301115989685
1772812369917246500,0.49624658203125,0.1184682846069336,-0.02676299214363098,-0.029398364946246147
1772812369926947300,0.505947265625,0.04693126678466797,-0.017745941877365112,-0.009796913713216782
1772812369936648000,0.51564794921875,0.005124092102050781,-0.045500606298446655,0.020343832671642303
1772812369946348800,0.525348876953125,-0.018219947814941406,-0.05444423854351044,0.08528533577919006
1772812369956049700,0.535049560546875,-0.08675575256347656,-0.049197375774383545,0.11619344353675842
1772812369965750300,0.544750244140625,-0.10123920440673828,-0.07072624564170837,0.10223281383514404
1772812369975451100,0.554451171875,-0.09793949127197266,-0.06248350441455841,0.08201412856578827
1772812369985152000,0.564152099609375,-0.04202842712402344,-0.03028997778892517,0.004470787942409515
1772812369994852600,0.5738525390625,-0.035325050354003906,-0.0147971510887146,-0.06882569193840027
1772812370004553500,0.583553466796875,-0.014695167541503906,-0.02619272470474243,-0.10921148955821991
1772812370014254300,0.59325439453125,-0.04140186309814453,-0.03726133704185486,-0.1318812519311905
1772812370023955200,0.602955078125,-0.017151832580566406,-0.044300377368927,-0.10325631499290466
1772812370033655800,0.61265576171875,-0.013318061828613281,-0.08894211053848267,-0.03482138365507126
1772812370043356700,0.622356689453125,-0.021305084228515625,-0.11277748644351959,-0.0006132014095783234
1772812370053057500,0.6320576171875,0.0013914108276367188,-0.06546643376350403,-0.02066476084291935
1772812370062758100,0.641758056640625,-0.018639564514160156,0.009882956743240356,-0.04313845559954643
1772812370072459000,0.651458984375,0.03690338134765625,0.02958056330680847,-0.07940979301929474
1772812370082159900,0.661159912109375,0.07623863220214844,0.04072368144989014,-0.08808966726064682
1772812370091860500,0.670860595703125,0.1078939437866211,0.043094128370285034,-0.04197891801595688
1772812370101561300,0.680561279296875,0.1602153778076172,0.0199030339717865,0.036844659596681595
1772812370111262200,0.69026220703125,0.1740407943725586,-0.013529777526855469,0.0919780284166336
1772812370120962800,0.699962890625,0.15940570831298828,-0.030476778745651245,0.09603400528430939
1772812370130663700,0.70966357421875,0.14385318756103516,-0.03855207562446594,0.0790654644370079
1772812370140364500,0.719364501953125,0.10268974304199219,-0.004730701446533203,0.044136643409729004
1772812370150065400,0.7290654296875,0.09634017944335938,0.004831671714782715,-0.015470556914806366
1772812370159766000,0.73876611328125,0.033629417419433594,0.0046575069427490234,-0.025557853281497955
1772812370169467000,0.748466796875,-0.020971298217773438,-0.046241626143455505,0.002216443419456482
1772812370179167700,0.758167724609375,-0.020538330078125,-0.04085671901702881,-0.001355096697807312
1772812370188868400,0.767868408203125,-0.01774120330810547,-0.025228291749954224,-0.00036751478910446167
1772812370198569200,0.7775693359375,0.007386207580566406,-0.02333638072013855,0.015098683536052704
1772812370208270000,0.78727001953125,-0.009068489074707031,-0.027834206819534302,0.03903554379940033
1772812370217970700,0.796970703125,-0.02879047393798828,-0.007294386625289917,0.07745116204023361
1772812370227671600,0.806671630859375,-0.045871734619140625,0.04556995630264282,0.112063467502594
1772812370237372400,0.816372314453125,-0.07683753967285156,0.07276833057403564,0.13745687901973724
1772812370247073000,0.826072998046875,-0.053218841552734375,0.08926975727081299,0.1260077953338623
1772812370256774000,0.83577392578125,-0.000591278076171875,0.1531984508037567,0.07226911932229996
1772812370266474800,0.845474853515625,0.03938579559326172,0.20371419191360474,0.0394163578748703
1772812370276175600,0.855175537109375,0.06104469299316406,0.17215612530708313,0.039578914642333984
1772812370285876200,0.864876220703125,0.08353137969970703,0.057581037282943726,0.09324777871370316
1772812370295577000,0.8745771484375,0.13744258880615234,-0.017938196659088135,0.11517465114593506
1772812370305278000,0.88427783203125,0.18697452545166016,-0.02088305354118347,0.10015414655208588
1772812370314978600,0.893978515625,0.14159584045410156,-0.03550562262535095,0.09474849700927734
1772812370324679400,0.903679443359375,0.0640554428100586,-0.03616324067115784,0.04783402383327484
1772812370334380300,0.91338037109375,0.014888763427734375,-0.008486241102218628,-0.041200075298547745
1772812370344081000,0.923080810546875,-0.06287193298339844,0.01473948359489441,-0.10820192098617554
1772812370353781800,0.93278173828125,-0.15583133697509766,-0.016658037900924683,-0.12731753289699554
1772812370363482600,0.942482666015625,-0.22729969024658203,-0.06574103236198425,-0.10918407887220383
1772812370373183200,0.952183349609375,-0.23529815673828125,-0.07538303732872009,-0.07060796022415161
1772812370382884000,0.961884033203125,-0.22089481353759766,-0.08369511365890503,-0.04764821380376816
1772812370392585000,0.9715849609375,-0.18797683715820312,-0.058068037033081055,-0.030675683170557022
1772812370402285800,0.981285888671875,-0.07799530029296875,-0.0012047290802001953,-0.016291845589876175
1772812370411986400,0.990986328125,0.03134727478027344,0.048261284828186035,0.029268518090248108
1772812370421687300,1.000687255859375,0.10361766815185547,0.02736520767211914,0.046102650463581085
1772812370431388200,1.01038818359375,0.15944290161132812,0.028848499059677124,0.04439343512058258
1772812370441088800,1.0200888671875,0.1626272201538086,0.05701765418052673,0.027075745165348053
1772812370450789600,1.02978955078125,0.17168807983398438,0.0889626145362854,0.03880809247493744
1772812370460490500,1.039490478515625,0.19358348846435547,0.07394266128540039,0.08383836597204208
1772812370470191000,1.049191162109375,0.15398311614990234,0.023350149393081665,0.11179935187101364
1772812370479892000,1.05889208984375,0.13508892059326172,0.0005780160427093506,0.0999818965792656
1772812370489592800,1.0685927734375,0.054172515869140625,0.0238591730594635,0.03805585205554962
1772812370499293400,1.07829345703125,-0.0642547607421875,0.022252678871154785,-0.030754655599594116
1772812370508994300,1.087994384765625,-0.15843963623046875,0.025660425424575806,-0.0627722442150116
1772812370518695200,1.097695068359375,-0.23821640014648438,-0.0008952021598815918,-0.08974441885948181
1772812370528396000,1.10739599609375,-0.2355794906616211,-0.01731210947036743,-0.09592822194099426
1772812370538096600,1.1170966796875,-0.19892024993896484,-0.07792487740516663,-0.02965300902724266
1772812370547797500,1.126797607421875,-0.14405345916748047,-0.17360840737819672,0.010660551488399506
1772812370557498400,1.136498291015625,-0.0677194595336914,-0.18227022886276245,0.0034079253673553467
1772812370567199000,1.146198974609375,-0.016130447387695312,-0.12261402606964111,-0.046451762318611145
1772812370576899800,1.15589990234375,0.020524024963378906,-0.10358545184135437,-0.08088385313749313
1772812370586600700,1.1656005859375,0.04130744934082031,-0.08319146931171417,-0.07696092128753662
1772812370596301300,1.17530126953125,0.037055015563964844,-0.05557610094547272,-0.015936270356178284
1772812370606002200,1.185002197265625,0.052870750427246094,-0.023770391941070557,0.02371513843536377
1772812370615703000,1.194703125,0.01665210723876953,0.020590215921401978,0.011418752372264862
1772812370625403600,1.204403564453125,0.02572154998779297,0.06362912058830261,0.007038630545139313
1772812370635104500,1.2141044921875,0.014603614807128906,0.061891764402389526,0.03755044937133789
1772812370644805400,1.223805419921875,0.011871337890625,0.04079550504684448,0.08703768998384476
1772812370654506200,1.23350634765625,0.03034687042236328,0.00617372989654541,0.08832154422998428
1772812370664206800,1.243206787109375,0.046156883239746094,0.014608919620513916,0.08895353227853775
1772812370673907700,1.25290771484375,0.005222320556640625,-0.006094425916671753,0.09674545377492905
1772812370683608600,1.262608642578125,-0.029158592224121094,-0.015475362539291382,0.10703079402446747
1772812370693309200,1.27230908203125,-0.07120513916015625,-0.03581652045249939,0.06111858785152435
1772812370703010000,1.282010009765625,-0.07254505157470703,-0.04239624738693237,0.03698979318141937
1772812370712711000,1.2917109375,-0.09973812103271484,-0.028294935822486877,0.010965816676616669
1772812370722411500,1.30141162109375,-0.0935354232788086,-0.039623603224754333,0.014921531081199646
1772812370732112400,1.3111123046875,-0.08743953704833984,-0.04847598075866699,-0.02228447049856186
1772812370741813200,1.320813232421875,-0.06733417510986328,-0.050049081444740295,-0.03244724124670029
1772812370751513900,1.330513916015625,-0.03816509246826172,-0.05821574479341507,-0.026234038174152374
1772812370761214700,1.340214599609375,-0.01656055450439453,-0.04953455924987793,0.0009142309427261353
1772812370770915600,1.34991552734375,0.016442298889160156,-0.0584450364112854,0.04502145200967789
1772812370780616400,1.359616455078125,0.0712575912475586,-0.10184034705162048,0.0733749121427536
1772812370790317000,1.369317138671875,0.12871932983398438,-0.10131845623254776,0.13256806135177612
1772812370800018000,1.379017822265625,0.1829233169555664,-0.06069668382406235,0.1017318144440651
1772812370809718800,1.38871875,0.20333480834960938,-0.004025518894195557,0.023777902126312256
1772812370819419400,1.39841943359375,0.20815181732177734,0.04499232769012451,-0.025608420372009277
1772812370829120300,1.408120361328125,0.18702030181884766,0.0425209179520607,-0.041325829923152924
1772812370838821000,1.417821044921875,0.14977169036865234,0.044017091393470764,-0.07025770843029022
1772812370848522000,1.42752197265625,0.10608386993408203,0.03832583874464035,-0.07372505962848663
1772812370858222600,1.43722265625,0.0843048095703125,0.05421949177980423,-0.054002903401851654
1772812370867923500,1.44692333984375,0.07818317413330078,0.07001399248838425,-0.030070610344409943
1772812370877624000,1.4566240234375,0.06157112121582031,0.05061037838459015,0.014871671795845032
1772812370887325000,1.466324951171875,0.056990623474121094,-0.019323959946632385,0.044740378856658936
1772812370897025800,1.47602587890625,0.07600593566894531,-0.040145039558410645,0.01877589523792267
1772812370906726700,1.4857265625,0.0876321792602539,-0.03533002734184265,0.014716535806655884
1772812370916427300,1.49542724609375,0.08729743957519531,-0.03471936658024788,0.00661400705575943
1772812370926128000,1.505128173828125,0.08109664916992188,-0.04991986230015755,-0.013573229312896729
1772812370935829000,1.5148291015625,0.03266143798828125,-0.01202840730547905,-0.06747625768184662
1772812370945529600,1.524529541015625,-0.025547027587890625,0.006367165595293045,-0.09052421152591705
1772812370955230500,1.53423046875,-0.04983711242675781,0.03617764264345169,-0.08899906277656555
1772812370964931300,1.543931396484375,-0.044304847717285156,0.016079191118478775,-0.04568494111299515
1772812370974632000,1.5536318359375,-0.044750213623046875,0.012082535773515701,-0.011210158467292786
1772812370984332800,1.563332763671875,-0.06167888641357422,-0.0021904706954956055,0.030192717909812927
1772812370994033700,1.57303369140625,-0.03716850280761719,-0.005558125674724579,0.044514916837215424
1772812371003734300,1.582734375,0.005749702453613281,-0.008760090917348862,-0.000691831111907959
1772812371013435100,1.59243505859375,0.022070884704589844,0.03394366800785065,-0.005087755620479584
1772812371023136000,1.602135986328125,0.028717994689941406,0.08336417376995087,-0.04199753701686859
1772812371032836900,1.6118369140625,0.02232646942138672,0.10219626128673553,-0.05147457867860794
1772812371042537500,1.621537353515625,0.020753860473632812,0.0860460177063942,-0.05940541625022888
1772812371052238300,1.63123828125,-0.0043201446533203125,0.05292047560214996,-0.07182703912258148
1772812371061939200,1.640939208984375,0.053375244140625,0.035333991050720215,-0.052023448050022125
1772812371071639800,1.650639892578125,0.09364128112792969,-0.0006293170154094696,-0.012265525758266449
1772812371081340700,1.660340576171875,0.12853527069091797,-0.0008325055241584778,0.044506870210170746
1772812371091041500,1.67004150390625,0.11696529388427734,-0.02601577900350094,0.07938562333583832
1772812371100742100,1.6797421875,0.12558841705322266,-0.0512022003531456,0.0848131850361824
1772812371110443000,1.689443115234375,0.12347602844238281,-0.09688891470432281,0.0918695330619812
1772812371120144000,1.699143798828125,0.08845138549804688,-0.09331382811069489,0.07857014983892441
1772812371129844500,1.708844482421875,0.0716552734375,-0.07380902022123337,0.05667790770530701
1772812371139545300,1.71854541015625,0.03984642028808594,-0.07588880509138107,0.03885146975517273
1772812371149246200,1.72824609375,-0.01613903045654297,-0.13423147797584534,0.024016566574573517
1772812371158947000,1.737947021484375,-0.06648731231689453,-0.16273708641529083,0.012064874172210693
1772812371168647700,1.747647705078125,-0.09834766387939453,-0.11349555850028992,-0.024708468466997147
1772812371178348500,1.7573486328125,-0.13320350646972656,-0.07460570335388184,-0.0637359693646431
1772812371188049400,1.76704931640625,-0.17805862426757812,-0.05381833761930466,-0.10715025663375854
1772812371197750000,1.77675,-0.14803791046142578,-0.02038613148033619,-0.11825194954872131
1772812371207451000,1.786450927734375,-0.14556598663330078,0.02505449764430523,-0.15238997340202332
1772812371217151700,1.79615185546875,-0.119598388671875,0.02227528765797615,-0.11880309879779816
1772812371226852400,1.805852294921875,-0.10583305358886719,0.015663495287299156,-0.042912807315588
1772812371236553200,1.81555322265625,-0.04994964599609375,0.019084300845861435,0.03410951793193817
1772812371246254000,1.825254150390625,0.04029369354248047,-0.020859548822045326,0.07790102064609528
1772812371255954700,1.83495458984375,0.12314891815185547,-0.014602272771298885,0.09819984436035156
1772812371265655600,1.844655517578125,0.18226909637451172,0.006714264862239361,0.10211537778377533
1772812371275356400,1.8543564453125,0.25452518463134766,0.03636271506547928,0.05825483053922653
1772812371285057300,1.864057373046875,0.29146575927734375,0.06694917380809784,0.02340252697467804
1772812371294758000,1.8737578125,0.24779033660888672,0.09487063437700272,0.010165177285671234
1772812371304458800,1.883458740234375,0.1907215118408203,0.08673157542943954,0.05082707107067108
1772812371314159600,1.89315966796875,0.14636707305908203,0.015004148706793785,0.09662513434886932
1772812371323860200,1.902860107421875,0.09334087371826172,-0.03622070699930191,0.11018167436122894
1772812371333561000,1.91256103515625,0.035323143005371094,-0.016066821292042732,0.07602985948324203
1772812371343262000,1.922261962890625,-0.021722793579101562,0.04686754569411278,0.05367467552423477
1772812371352962600,1.931962646484375,-0.07429027557373047,0.034904733300209045,0.05783341825008392
1772812371362663400,1.941663330078125,-0.12129020690917969,0.009180672466754913,0.08228328078985214
1772812371372364300,1.9513642578125,-0.13574981689453125,-0.04324370250105858,0.0741533562541008
1772812371382065000,1.96106494140625,-0.13585472106933594,-0.044415779411792755,0.03539976477622986
1772812371391765800,1.970765869140625,-0.13477420806884766,-0.028639663010835648,-0.020543936640024185
1772812371401466600,1.980466552734375,-0.12193489074707031,-0.0196708794683218,-0.03412877768278122
1772812371411167500,1.99016748046875,-0.15282726287841797,-0.05479109287261963,-0.057596080005168915
1772812371420868000,1.9998681640625,-0.18320465087890625,-0.09544865787029266,-0.022359762340784073
1772812371430569000,2.00956884765625,-0.1472034454345703,-0.1286962479352951,0.02297716587781906
1772812371440269800,2.019269775390625,-0.09299373626708984,-0.14589931070804596,0.04035799205303192
1772812371449970400,2.028970458984375,-0.019690513610839844,-0.138081893324852,0.03697981685400009
1772812371459671300,2.03867138671875,0.038277626037597656,-0.10524941235780716,-0.012481201440095901
1772812371469372200,2.0483720703125,0.0905752182006836,-0.04342397674918175,-0.029609445482492447
1772812371479072800,2.05807275390625,0.1149444580078125,-0.038051072508096695,-0.006253987550735474
1772812371488773600,2.067773681640625,0.12596702575683594,-0.06348669528961182,-0.02426522970199585
1772812371498474500,2.077474609375,0.1297454833984375,-0.018873773515224457,-0.0664549171924591
1772812371508175000,2.087175048828125,0.07581806182861328,0.008103366941213608,-0.09996135532855988
1772812371517876000,2.0968759765625,0.038089752197265625,0.02444472722709179,-0.12673060595989227
1772812371527576800,2.106576904296875,-0.03312492370605469,0.03434006869792938,-0.1607663780450821
1772812371537277400,2.11627734375,-0.11139106750488281,0.02428945153951645,-0.15070664882659912
1772812371546978300,2.125978271484375,-0.12247467041015625,-0.00044716522097587585,-0.08655478060245514
1772812371556679200,2.13567919921875,-0.10749435424804688,-0.03319428116083145,-0.03481018543243408
1772812371566380000,2.145380126953125,-0.04217720031738281,-0.04990578815340996,-0.000029589980840682983
1772812371576080600,2.15508056640625,0.038516998291015625,-0.059992462396621704,0.022194568067789078
1772812371585781500,2.164781494140625,0.0790414810180664,-0.0784468874335289,0.020136546343564987
1772812371595482400,2.174482421875,0.12006759643554688,-0.0696907788515091,0.008445672690868378
1772812371605183000,2.184182861328125,0.14276790618896484,0.019999852403998375,-0.005602099001407623
1772812371614883800,2.1938837890625,0.1015615463256836,0.03440917655825615,-0.02911173179745674
1772812371624584700,2.203584716796875,0.05516242980957031,0.006892303004860878,-0.02872864156961441
1772812371634285300,2.213285400390625,-0.03399467468261719,-0.024817289784550667,0.0038961954414844513
1772812371643986200,2.222986083984375,-0.0793142318725586,-0.017985718324780464,0.014363996684551239
1772812371653687000,2.23268701171875,-0.12388134002685547,0.0051294732838869095,0.02147059515118599
1772812371663387600,2.2423876953125,-0.13005733489990234,0.019721947610378265,-0.02458132430911064
1772812371673088500,2.252088623046875,-0.11494922637939453,0.09434276074171066,-0.0930003821849823
1772812371682789400,2.261789306640625,-0.09891223907470703,0.1216585785150528,-0.12116098403930664
1772812371692490200,2.271490234375,-0.07961750030517578,0.055056728422641754,-0.06464383751153946
1772812371702190800,2.28119091796875,-0.047710418701171875,-0.06295157968997955,-0.04426312819123268
1772812371711891700,2.2908916015625,-0.017516136169433594,-0.08840587735176086,-0.020905066281557083
1772812371721592600,2.300592529296875,0.027471542358398438,-0.09259900450706482,-0.01174282655119896
1772812371731293200,2.310293212890625,0.06700611114501953,-0.08207934349775314,-0.04164240509271622
1772812371740994000,2.319994140625,0.08588409423828125,-0.06302963942289352,-0.0804842859506607
1772812371750695000,2.32969482421875,0.09385871887207031,-0.04270796477794647,-0.07962855696678162
1772812371760395500,2.3393955078125,0.11111068725585938,-0.027996204793453217,-0.06614302098751068
1772812371770096400,2.349096435546875,0.07513236999511719,-0.0005595185793936253,-0.05054222792387009
1772812371779797200,2.35879736328125,0.05505084991455078,0.0513530895113945,-0.04349324852228165
1772812371789497900,2.368497802734375,0.06471920013427734,0.09307379275560379,-0.05224040523171425
1772812371799198700,2.37819873046875,0.07187366485595703,0.1266714632511139,-0.07895927131175995
1772812371808899600,2.387899658203125,0.0706787109375,0.12809902429580688,-0.036065369844436646
1772812371818600400,2.397600341796875,0.0800933837890625,0.09528358280658722,0.038571037352085114
1772812371828301000,2.407301025390625,0.07052993774414062,0.0704260915517807,0.1286771595478058
1772812371838002000,2.417001953125,0.03406715393066406,0.07471182942390442,0.17000038921833038
1772812371847702800,2.426702880859375,0.024095535278320312,0.05654300004243851,0.17358705401420593
1772812371857403400,2.4364033203125,0.035468101501464844,0.06932053714990616,0.12862661480903625
1772812371867104300,2.446104248046875,-0.01805400848388672,0.08337335288524628,0.10137070715427399
1772812371876805000,2.45580517578125,-0.03774070739746094,0.06442135572433472,0.07233038544654846
1772812371886505700,2.465505615234375,-0.048862457275390625,0.02477934956550598,0.05006740987300873
1772812371896206600,2.47520654296875,-0.07862186431884766,0.039222411811351776,0.020179811865091324
1772812371905907500,2.484907470703125,-0.1114187240600586,0.04007432982325554,0.014261270873248577
1772812371915608000,2.494608154296875,-0.14249801635742188,0.030226558446884155,0.03124772198498249
1772812371925309000,2.504308837890625,-0.14482879638671875,0.006270736455917358,0.04926987364888191
1772812371935009800,2.514009765625,-0.12830448150634766,-0.033911485224962234,-0.008472150191664696
1772812371944710700,2.523710693359375,-0.1026468276977539,-0.03506782650947571,-0.014863206073641777
1772812371954411300,2.533411376953125,-0.07977008819580078,-0.03113054670393467,-0.02504732273519039
1772812371964112100,2.543112060546875,-0.0525665283203125,-0.04392828419804573,-0.04682881385087967
1772812371973812700,2.552812744140625,-0.0022859573364257812,-0.054273441433906555,-0.025923866778612137
1772812371983513600,2.562513671875,0.020097732543945312,-0.03161861002445221,-0.004334086552262306
1772812371993214500,2.57221435546875,0.06328678131103516,0.0018840804696083069,-0.01266018208116293
1772812372002915300,2.581915283203125,0.06458282470703125,0.04249608889222145,-0.01068646926432848
1772812372012616000,2.591615966796875,0.0988016128540039,0.04267177730798721,0.008249001577496529
1772812372032017700,2.611017578125,0.0813913345336914,-0.0013233199715614319,0.04409433901309967
1772812372041718300,2.62071826171875,0.10475349426269531,0.006612058728933334,0.046076010912656784
1772812372051419100,2.630419189453125,0.11125946044921875,0.043628089129924774,0.03586424142122269
1772812372061120000,2.6401201171875,0.10354137420654297,0.033945776522159576,0.06231009215116501
1772812372070820900,2.64982080078125,0.05713367462158203,0.007613390684127808,0.07615897059440613
1772812372080521500,2.659521484375,0.04561901092529297,-0.02915170043706894,0.05849910527467728
1772812372090222300,2.669222412109375,0.015478134155273438,-0.005701325833797455,0.0249042809009552
1772812372099923000,2.6789228515625,-0.035335540771484375,0.009093709290027618,0.02123301848769188
1772812372109623800,2.688623779296875,-0.10412979125976562,-0.019518613815307617,-0.007357470691204071
1772812372119324700,2.69832470703125,-0.16237449645996094,-0.044448669999837875,-0.006500750780105591
1772812372129025500,2.708025634765625,-0.23731327056884766,-0.02081015333533287,-0.03668975830078125
1772812372138726100,2.71772607421875,-0.29220104217529297,0.04148602485656738,-0.06392839550971985
1772812372148427000,2.727427001953125,-0.30031299591064453,0.03863271325826645,-0.08208320289850235
1772812372158127600,2.737127685546875,-0.20594406127929688,0.03167072683572769,0.044019296765327454
1772812372167828500,2.746828369140625,-0.054314613342285156,-0.043978966772556305,0.12895934283733368
1772812372177529300,2.756529296875,0.10774612426757812,-0.09211516380310059,0.15818938612937927
1772812372187230200,2.766230224609375,0.23653316497802734,-0.05166434496641159,0.11258004605770111
1772812372196930800,2.775930908203125,0.2702445983886719,0.011217210441827774,0.04106936603784561
1772812372206631700,2.785631591796875,0.1892862319946289,0.0562807135283947,-0.0158885195851326
1772812372216332500,2.79533251953125,0.11320686340332031,0.03697742149233818,-0.03458127751946449
1772812372226033200,2.805033203125,0.02192211151123047,0.009718380868434906,-0.03990864381194115
1772812372235734000,2.814734130859375,-0.04432201385498047,-0.03673093765974045,0.004991129506379366
1772812372245435000,2.824434814453125,-0.08829593658447266,-0.08813175559043884,0.031585801392793655
1772812372255135700,2.8341357421875,-0.07036399841308594,-0.07911504805088043,0.01307682879269123
1772812372264836400,2.84383642578125,-0.043318748474121094,-0.03725066035985947,-0.028994595631957054
1772812372274537200,2.853537109375,-0.03084087371826172,0.015624143183231354,-0.04274407774209976
1772812372284237800,2.86323779296875,-0.038570404052734375,0.04170702025294304,-0.08063577115535736
1772812372293938700,2.872938720703125,-0.05675983428955078,0.06778080761432648,-0.08561123162508011
1772812372303639600,2.8826396484375,-0.035826683044433594,0.09981293976306915,-0.03565143048763275
1772812372313340400,2.89234033203125,-0.0046520233154296875,0.07335223257541656,0.010442645289003849
1772812372323041000,2.902041015625,0.04247856140136719,0.05925269052386284,0.026870395988225937
1772812372332742000,2.911741943359375,0.09235858917236328,0.07590462267398834,0.04957936704158783
1772812372352143400,2.931143310546875,0.06781482696533203,0.1034349799156189,0.04699651524424553
1772812372361844200,2.94084423828125,0.01845836639404297,0.1241801530122757,0.028686365112662315
1772812372371545000,2.950545166015625,-0.027730941772460938,0.0765010416507721,0.013246908783912659
1772812372381245700,2.96024560546875,-0.04374885559082031,0.022715184837579727,0.0034074466675519943
1772812372390946600,2.969946533203125,-0.058333396911621094,-0.017501037567853928,0.0014554550871253014
1772812372400647400,2.9796474609375,-0.037380218505859375,-0.09116455912590027,0.01217945758253336
1772812372410348000,2.98934814453125,-0.00029850006103515625,-0.11943329870700836,-0.01972721889615059
1772812372420049000,2.999048828125,0.04205513000488281,-0.12368762493133545,-0.055582281202077866
1772812372429749800,3.008749755859375,0.02253246307373047,-0.08989781141281128,-0.07618843019008636
1772812372439450600,3.01845068359375,0.0162811279296875,-0.044296588748693466,-0.08048232644796371
1772812372449151200,3.028151123046875,0.006602287292480469,-0.002558615058660507,-0.07017945498228073
1772812372458852000,3.03785205078125,-0.08527278900146484,0.023120183497667313,-0.042615316808223724
1772812372468552700,3.047552734375,-0.1085662841796875,0.027493208646774292,0.008373699150979519
1772812372478253600,3.057253662109375,-0.09853458404541016,0.051664818078279495,0.036092646420001984
1772812372487954400,3.066954345703125,-0.08867168426513672,0.05958499014377594,0.06985878199338913
1772812372497655300,3.0766552734375,-0.060149192810058594,0.044762980192899704,0.06925950199365616
1772812372507356000,3.08635595703125,0.005550384521484375,0.061298977583646774,0.07381772994995117
1772812372517056800,3.096056884765625,0.04310035705566406,0.047324150800704956,0.011143656447529793
1772812372526757600,3.105757568359375,0.05414772033691406,0.05433384329080582,-0.01948762871325016
1772812372536458200,3.115458251953125,0.06736278533935547,0.0576423779129982,-0.02574138715863228
1772812372546159000,3.1251591796875,0.056824684143066406,0.041435256600379944,-0.040226347744464874
1772812372555860000,3.13485986328125,0.058220863342285156,0.007298177108168602,-0.03859378397464752
1772812372565560600,3.144560546875,0.03958892822265625,-0.03307270258665085,-0.03690309077501297
1772812372575261400,3.154261474609375,0.06479930877685547,-0.02658926509320736,-0.04222922772169113
1772812372584962300,3.16396240234375,0.09665679931640625,-0.03947663679718971,-0.07179068773984909
1772812372594663000,3.173662841796875,0.08681011199951172,-0.04139222949743271,-0.0852547362446785
1772812372604363800,3.18336376953125,0.07831001281738281,-0.02147754654288292,-0.07020427286624908
1772812372614064600,3.193064697265625,0.02407073974609375,-0.004560334607958794,-0.047951001673936844
1772812372623765200,3.20276513671875,-0.04691028594970703,0.017859047278761864,-0.05263180658221245
1772812372633466000,3.212466064453125,-0.1167144775390625,0.0460730642080307,-0.03417126461863518
1772812372643167000,3.2221669921875,-0.14301109313964844,0.0585811473429203,0.0020280834287405014
1772812372652867800,3.231867919921875,-0.11240196228027344,0.03003036230802536,0.0363350510597229
1772812372662568400,3.241568359375,-0.04700756072998047,0.023443128913640976,0.016207024455070496
1772812372672269300,3.251269287109375,-0.016817092895507812,0.0032867928966879845,0.02276419661939144
1772812372681970200,3.26097021484375,-0.00006961822509765625,-0.03399670869112015,0.03451310098171234
1772812372691670800,3.2706708984375,0.011696815490722656,-0.05452856048941612,0.0385114811360836
1772812372701371600,3.28037158203125,-0.0320281982421875,-0.05084862932562828,0.06544847786426544
1772812372711072500,3.290072509765625,-0.06208229064941406,-0.0545300655066967,0.09111455827951431
1772812372720773000,3.299773193359375,-0.05163288116455078,-0.03945467993617058,0.07585623860359192
1772812372730474000,3.309473876953125,-0.01900005340576172,0.005347702652215958,0.05547952651977539
1772812372740174800,3.3191748046875,0.016618728637695312,-0.002984810620546341,0.037072841078042984
1772812372749875500,3.32887548828125,0.062232017517089844,-0.0005757082253694534,0.022744283080101013
1772812372759576300,3.338576416015625,0.06708335876464844,0.038193345069885254,0.02236142009496689
1772812372769277200,3.348277099609375,0.060088157653808594,0.06392785906791687,0.03244407847523689
1772812372778978000,3.35797802734375,0.013207435607910156,0.04665324464440346,0.05325579270720482
1772812372788678700,3.3676787109375,-0.04700660705566406,0.03401744365692139,0.05639668181538582
1772812372798379500,3.377379638671875,-0.054447174072265625,0.018587147817015648,0.031431835144758224
1772812372808080100,3.387080078125,-0.05469799041748047,0.062252260744571686,-0.024838654324412346
1772812372817781000,3.396781005859375,-0.01964569091796875,0.08699031174182892,-0.06722626835107803
1772812372827481900,3.40648193359375,0.050118446350097656,0.08027416467666626,-0.0742335170507431
1772812372837182700,3.4161826171875,0.09871482849121094,0.00972987711429596,-0.05463123694062233
1772812372846883300,3.42588330078125,0.09590625762939453,-0.04831301048398018,-0.05133048817515373
1772812372866284800,3.445284912109375,0.009684562683105469,-0.06981507688760757,-0.039838939905166626
1772812372875985700,3.454985595703125,-0.024591445922851562,-0.04456334188580513,-0.059373438358306885
1772812372885686500,3.4646865234375,-0.07946968078613281,-0.04275285825133324,-0.05952591449022293
1772812372895387400,3.474387451171875,-0.08636665344238281,-0.02095954492688179,-0.052171848714351654
1772812372905088000,3.484087890625,-0.0919647216796875,0.048974305391311646,-0.02636764943599701
1772812372914788900,3.493788818359375,-0.07628154754638672,0.057586316019296646,0.04175721853971481
1772812372924489700,3.50348974609375,-0.03614997863769531,0.025162559002637863,0.0764809176325798
1772812372934190300,3.5131904296875,0.025664329528808594,0.008234694600105286,0.10986527800559998
1772812372943891200,3.52289111328125,0.06526851654052734,-0.005900397896766663,0.13403794169425964
1772812372953592000,3.532592041015625,0.0900869369506836,0.007245905697345734,0.11105452477931976
1772812372963293000,3.54229296875,0.12389373779296875,0.036856770515441895,0.05015309900045395
1772812372972993500,3.55199365234375,0.11713123321533203,0.060673072934150696,0.03485880419611931
1772812372982694400,3.5616943359375,0.08694934844970703,0.04616211727261543,0.022568436339497566
1772812372992395000,3.57139501953125,0.07844924926757812,0.016514308750629425,0.021778590977191925
1772812373002095900,3.581095947265625,0.04656028747558594,0.016857914626598358,-0.009501233696937561
1772812373011796700,3.590796630859375,0.017556190490722656,0.03949115425348282,-0.04821973294019699
1772812373021497600,3.60049755859375,0.00667572021484375,0.07793305814266205,-0.07226994633674622
1772812373031198200,3.6101982421875,0.024211883544921875,0.058001816272735596,-0.05645718798041344
1772812373040899000,3.619899169921875,-0.027956008911132812,0.009799301624298096,-0.006579717621207237
1772812373050600000,3.629599853515625,-0.03219413757324219,0.003265365958213806,0.051253050565719604
1772812373060300500,3.639300537109375,-0.039890289306640625,-0.006801195442676544,0.038124941289424896
1772812373070001400,3.64900146484375,-0.04981040954589844,-0.02462175488471985,0.027224350720643997
1772812373079702300,3.658702392578125,-0.08661842346191406,-0.038161277770996094,0.024427441880106926
1772812373089403000,3.66840283203125,-0.10986995697021484,-0.024968862533569336,-0.023935837671160698
1772812373099103700,3.678103759765625,-0.08802318572998047,-0.004030309617519379,-0.034894637763500214
1772812373108804600,3.6878046875,-0.0994729995727539,-0.023824244737625122,-0.05485362559556961
1772812373118505200,3.697505126953125,-0.0919036865234375,-0.04183042049407959,-0.062285009771585464
1772812373128206000,3.7072060546875,-0.02328205108642578,-0.0038490816950798035,-0.11192265152931213
1772812373137907000,3.716906982421875,0.014783859252929688,0.044536978006362915,-0.1411610245704651
1772812373147607600,3.726607666015625,0.02750682830810547,0.065223827958107,-0.12621456384658813
1772812373157308400,3.736308349609375,0.047080039978027344,0.026598595082759857,-0.06136098876595497
1772812373167009300,3.74600927734375,0.07103538513183594,-0.025117725133895874,0.03073311038315296
1772812373176710100,3.755710205078125,0.1039876937866211,-0.06091746687889099,0.05247238650918007
1772812373186410800,3.76541064453125,0.16578102111816406,0.0011725127696990967,0.01917772926390171
1772812373196111600,3.775111572265625,0.18298816680908203,0.08528727293014526,0.007249562069773674
1772812373205812200,3.784812255859375,0.18106746673583984,0.14336416125297546,-0.004735918715596199
1772812373215513000,3.79451318359375,0.15211772918701172,0.16828463971614838,0.044859107583761215
1772812373225214000,3.8042138671875,0.10484027862548828,0.16030636429786682,0.11362531036138535
1772812373234914800,3.813914794921875,0.05601692199707031,0.12289698421955109,0.20578177273273468
1772812373244615400,3.823615478515625,0.03271961212158203,0.057296182960271835,0.24523404240608215
1772812373254316300,3.83331640625,0.03098773956298828,-0.00485827773809433,0.21437686681747437
1772812373264017200,3.84301708984375,0.04457664489746094,-0.008812397718429565,0.11172091960906982
1772812373273717800,3.8527177734375,0.015583038330078125,-0.015223734080791473,0.020580055192112923
1772812373283418600,3.862418701171875,-0.06116485595703125,-0.0829603299498558,-0.057290930300951004
1772812373293119500,3.872119384765625,-0.14368820190429688,-0.1832590252161026,-0.10254961997270584
1772812373302820400,3.8818203125,-0.19071292877197266,-0.24117545783519745,-0.12991362810134888
1772812373312521000,3.89152099609375,-0.23694324493408203,-0.26121410727500916,-0.12261229753494263
1772812373322221800,3.901221923828125,-0.2659139633178711,-0.24633264541625977,-0.15223328769207
1772812373331922400,3.91092236328125,-0.22733592987060547,-0.246116042137146,-0.12638148665428162
1772812373341623300,3.920623291015625,-0.19762897491455078,-0.23136213421821594,-0.13029232621192932
1772812373351324200,3.93032421875,-0.1448822021484375,-0.2120366394519806,-0.07211519032716751
1772812373361025000,3.94002490234375,-0.0965423583984375,-0.1942671686410904,-0.0016818372532725334
1772812373370725600,3.9497255859375,-0.056061744689941406,-0.19200357794761658,0.07550757378339767
1772812373380426500,3.959426513671875,-0.022131919860839844,-0.1578153669834137,0.09552713483572006
1772812373390127000,3.969127197265625,0.06653022766113281,-0.07842816412448883,0.0797802284359932
1772812373399828000,3.978827880859375,0.16077232360839844,0.029970571398735046,0.01240111980587244
1772812373409528800,3.98852880859375,0.2110757827758789,0.09554462879896164,0.032688383013010025
1772812373419229700,3.998229736328125,0.2452230453491211,0.06908451020717621,0.043763622641563416
1772812373428930300,4.007930419921875,0.2552461624145508,0.06606927514076233,0.050887949764728546
1772812373438631200,4.017631103515625,0.2415485382080078,0.10604880750179291,0.061123766005039215
1772812373448331800,4.027331787109375,0.20688152313232422,0.12032375484704971,0.08476310223340988
1772812373458032600,4.03703271484375,0.14336776733398438,0.08899607509374619,0.0779852569103241
1772812373467733500,4.0467333984375,0.049147605895996094,0.05107080191373825,0.07797344028949738
1772812373477434400,4.056434326171875,-0.02349376678466797,0.0014312192797660828,0.019983237609267235
1772812373487135000,4.066135009765625,-0.07609272003173828,-0.013954833149909973,-0.052699457854032516
1772812373496835800,4.0758359375,-0.1278057098388672,-0.02506840229034424,-0.106584832072258
1772812373506536700,4.08553662109375,-0.15629291534423828,-0.07774993032217026,-0.10895942896604538
1772812373516237300,4.0952373046875,-0.18900585174560547,-0.1361561268568039,-0.08339440822601318
1772812373525938200,4.104938232421875,-0.17410945892333984,-0.18254540860652924,-0.050586264580488205
1772812373535639000,4.11463916015625,-0.15592193603515625,-0.14148373901844025,-0.04697990044951439
1772812373545339600,4.124339599609375,-0.14508438110351562,-0.08599434047937393,-0.03355235233902931
1772812373555040500,4.13404052734375,-0.13441944122314453,-0.0470770001411438,0.016872646287083626
1772812373564741400,4.143741455078125,-0.1027536392211914,-0.04028983414173126,0.059426359832286835
1772812373574442000,4.15344189453125,-0.03631401062011719,-0.008599281311035156,0.09206214547157288
1772812373584142800,4.163142822265625,0.0019588470458984375,0.044744618237018585,0.11362668871879578
1772812373593843700,4.17284375,0.02195262908935547,0.09742425382137299,0.07856473326683044
1772812373603544300,4.18254443359375,0.0298614501953125,0.1595146358013153,0.047159045934677124
1772812373613245200,4.1922451171875,0.025885581970214844,0.1922636479139328,0.017243340611457825
1772812373622946000,4.201946044921875,0.026689529418945312,0.19601939618587494,0.004016859456896782
1772812373632647000,4.21164697265625,0.0804147720336914,0.11828019469976425,0.037298090755939484
1772812373642347500,4.221347412109375,0.15910720825195312,0.027334272861480713,0.052645519375801086
1772812373652048400,4.23104833984375,0.20704269409179688,0.007228940725326538,0.03934629261493683
1772812373661749000,4.2407490234375,0.2094411849975586,0.005856059491634369,-0.004942024126648903
1772812373671449900,4.250449951171875,0.19060230255126953,0.02257736772298813,-0.047576360404491425
1772812373681150700,4.260150634765625,0.11678218841552734,0.010217592120170593,-0.11096343398094177
1772812373690851600,4.2698515625,0.014788627624511719,-0.002485930919647217,-0.13823840022087097
1772812373700552200,4.27955224609375,-0.06665992736816406,-0.021534383296966553,-0.15150344371795654
1772812373710253000,4.289253173828125,-0.07732105255126953,-0.03135877102613449,-0.12130245566368103
1772812373719953700,4.29895361328125,-0.09837913513183594,-0.0301310196518898,-0.09043613076210022
1772812373729654500,4.308654541015625,-0.08025836944580078,-0.03897297382354736,-0.015048304572701454
1772812373739355400,4.31835546875,-0.04832744598388672,-0.03764752298593521,0.02510693669319153
1772812373749056300,4.32805615234375,0.021881103515625,0.012882053852081299,-0.0032749129459261894
1772812373758756900,4.3377568359375,0.05796623229980469,0.10344740003347397,-0.013281352818012238
1772812373768457700,4.347457763671875,0.03226184844970703,0.12428108602762222,0.004897916689515114
1772812373778158600,4.35715869140625,0.024634361267089844,0.14672261476516724,0.04088135436177254
1772812373787859200,4.366859130859375,-0.018157005310058594,0.13834169507026672,0.07850891351699829
1772812373797560000,4.37656005859375,-0.043755531311035156,0.10299661755561829,0.08787267655134201
1772812373807261000,4.386260986328125,-0.06186389923095703,0.07433211803436279,0.10687725245952606
1772812373816961800,4.3959619140625,-0.08319568634033203,0.016631588339805603,0.06182678043842316
1772812373826662400,4.405662353515625,-0.07593059539794922,-0.024104543030261993,0.005698606371879578
1772812373836363300,4.41536328125,-0.07348442077636719,-0.06981544941663742,-0.08256374299526215
1772812373846063900,4.42506396484375,-0.10048389434814453,-0.09777987748384476,-0.13922646641731262
1772812373855764700,4.4347646484375,-0.11643600463867188,-0.13764888048171997,-0.18174931406974792
1772812373865465600,4.444465576171875,-0.10976028442382812,-0.2029465138912201,-0.13388532400131226
1772812373875166200,4.454166259765625,-0.10554027557373047,-0.2560569941997528,-0.09876152873039246
1772812373884867000,4.4638671875,-0.057861328125,-0.29072052240371704,-0.05659295991063118
1772812373894568000,4.47356787109375,-0.0050983428955078125,-0.2690727114677429,-0.04909686744213104
1772812373904268500,4.4832685546875,0.01736736297607422,-0.19891245663166046,-0.05505311116576195
1772812373913969400,4.492969482421875,0.02062702178955078,-0.14469124376773834,-0.06022704392671585
1772812373923670300,4.502670166015625,0.012064933776855469,-0.059864744544029236,-0.0626453310251236
1772812373933371100,4.51237109375,-0.00458526611328125,0.02150629460811615,-0.06247109919786453
1772812373943071700,4.52207177734375,-0.029180526733398438,0.07643216848373413,-0.029918041080236435
1772812373952772600,4.531772705078125,-0.0427703857421875,0.11212952435016632,0.01907065510749817
1772812373962473500,4.541473388671875,-0.007897377014160156,0.10602737963199615,0.0717763751745224
1772812373972174000,4.551174072265625,0.059327125549316406,0.1371360421180725,0.08731215447187424
1772812373981875000,4.560875,0.08659172058105469,0.15023593604564667,0.0976988673210144
1772812373991575800,4.570575927734375,0.10986042022705078,0.1810626983642578,0.08013290166854858
1772812374001276400,4.5802763671875,0.08332157135009766,0.16383489966392517,0.040101464837789536
1772812374010977300,4.589977294921875,0.03722381591796875,0.1420467644929886,0.0008527282625436783
1772812374020678100,4.59967822265625,0.018957138061523438,0.08552645891904831,0.002660323865711689
1772812374030378800,4.609378662109375,-0.014304161071777344,-0.004424750804901123,0.0403544083237648
1772812374040079600,4.61907958984375,0.011808395385742188,-0.09901484847068787,0.04323673993349075
1772812374049780500,4.628780517578125,0.03630256652832031,-0.09609736502170563,0.05572652071714401
1772812374059481000,4.638481201171875,0.049800872802734375,-0.09210988879203796,0.06833454966545105
1772812374069182000,4.648181884765625,0.02660655975341797,-0.06765089929103851,0.0324169397354126
1772812374078882800,4.6578828125,0.010869026184082031,-0.06639115512371063,-0.008017300628125668
1772812374088583700,4.667583740234375,0.036581993103027344,-0.012649178504943848,-0.023953920230269432
1772812374098284300,4.6772841796875,0.057159423828125,0.043613895773887634,-0.0223156176507473
1772812374107985200,4.686985107421875,0.10208606719970703,0.03438881039619446,0.007538996171206236
1772812374117685800,4.696685791015625,0.1415386199951172,0.03207746893167496,0.01797330006957054
1772812374127386600,4.70638671875,0.15325355529785156,0.06000800430774689,0.017150893807411194
1772812374137087500,4.71608740234375,0.1200551986694336,0.11362244933843613,0.004198279697448015
1772812374146788400,4.725788330078125,0.08741092681884766,0.15082097053527832,-0.015124352648854256
1772812374156489000,4.735489013671875,0.07296371459960938,0.1875976324081421,-0.015153761021792889
1772812374166189800,4.74518994140625,0.06582164764404297,0.20048706233501434,0.01146630384027958
1772812374175890400,4.754890380859375,0.04586315155029297,0.18280036747455597,0.037284236401319504
1772812374185591300,4.76459130859375,0.013301849365234375,0.19146107137203217,0.044465672224760056
1772812374195292200,4.774292236328125,-0.0010690689086914062,0.18101191520690918,0.057403143495321274
1772812374214693600,4.793693603515625,-0.01505279541015625,0.12232997268438339,0.023752111941576004
1772812374224394500,4.80339453125,-0.04658985137939453,0.06726420670747757,0.022974632680416107
1772812374234095000,4.81309521484375,-0.05642509460449219,-0.0022344551980495453,0.06615244597196579
1772812374243796000,4.8227958984375,-0.024916648864746094,-0.0456981398165226,0.05545617267489433
1772812374253496800,4.832496826171875,-0.04451942443847656,-0.04683450981974602,0.014577184803783894
1772812374263197700,4.84219775390625,-0.06966876983642578,-0.06466144323348999,0.0018220943165943027
1772812374272898300,4.851898193359375,-0.09675025939941406,-0.06722160428762436,-0.02207142859697342
1772812374282599200,4.86159912109375,-0.10455322265625,-0.09496869146823883,-0.03284763544797897
1772812374292300000,4.871300048828125,-0.10751724243164062,-0.10771029442548752,-0.02713954821228981
1772812374302000600,4.881000732421875,-0.08690357208251953,-0.12858885526657104,-0.011161472648382187
1772812374311701500,4.890701416015625,-0.0536956787109375,-0.1296302080154419,0.00421071145683527
1772812374321402400,4.90040234375,-0.053985595703125,-0.10858479142189026,0.044471804052591324
1772812374331103000,4.91010302734375,-0.06956100463867188,-0.046287693083286285,0.011616557836532593
1772812374340803800,4.919803955078125,-0.07898902893066406,0.014674291014671326,0.03118889220058918
1772812374350504700,4.929504638671875,-0.06472110748291016,0.0702413022518158,0.06136567145586014
1772812374360205300,4.939205322265625,-0.06597614288330078,0.061339132487773895,0.04589426517486572
1772812374369906200,4.94890625,-0.031909942626953125,0.08637702465057373,0.06292784214019775
1772812374379607000,4.95860693359375,0.01570606231689453,0.09704996645450592,0.05766360089182854
1772812374389307600,4.9683076171875,0.06958580017089844,0.09283177554607391,0.11009912937879562
1772812374399008500,4.978008544921875,0.1390237808227539,0.06566403806209564,0.1261572539806366
1772812374408709400,4.98770947265625,0.20140457153320312,0.026898473501205444,0.14968839287757874
1772812374418410200,4.99741015625,0.2156686782836914,-0.0023532062768936157,0.15589283406734467
1772812374428110800,5.00711083984375,0.17086219787597656,-0.0070837996900081635,0.11849058419466019
1772812374437811700,5.016811767578125,0.126800537109375,0.02155587077140808,0.07671290636062622
1772812374447512300,5.02651220703125,0.029358863830566406,-0.030169881880283356,0.03261738643050194
1772812374457213200,5.036213134765625,-0.013504981994628906,-0.06437615305185318,-0.05202976241707802
1772812374466914000,5.0459140625,-0.09682464599609375,-0.021040096879005432,-0.055897269397974014
1772812374476615000,5.055614990234375,-0.12110233306884766,-0.04383571445941925,-0.04753423482179642
1772812374486315500,5.0653154296875,-0.14261627197265625,-0.08491598069667816,-0.05325770378112793
1772812374496016400,5.075016357421875,-0.13671016693115234,-0.10457266867160797,-0.06574573367834091
1772812374505717000,5.084717041015625,-0.1085500717163086,-0.08143439143896103,-0.042063966393470764
1772812374515417900,5.09441796875,-0.09733009338378906,-0.09807245433330536,-0.04137089103460312
1772812374525118700,5.10411865234375,-0.101593017578125,-0.10650983452796936,-0.03224167600274086
1772812374534819300,5.1138193359375,-0.11989879608154297,-0.09894511848688126,-0.002398963086307049
1772812374544520200,5.123520263671875,-0.12966156005859375,-0.0691390186548233,-0.02329988405108452
1772812374554221000,5.133220947265625,-0.10983943939208984,-0.007597547024488449,-0.02494385465979576
1772812374563921700,5.142921630859375,-0.08210182189941406,0.04196061193943024,-0.04701283201575279
1772812374573622500,5.15262255859375,-0.020699501037597656,0.05896972492337227,-0.050638630986213684
1772812374583323400,5.162323486328125,0.0032129287719726562,0.045277342200279236,-0.07225743681192398
1772812374593024000,5.17202392578125,0.07143020629882812,0.002727620303630829,-0.04637010768055916
1772812374602724900,5.181724853515625,0.13379192352294922,-0.04935994744300842,-0.004019296728074551
1772812374612425700,5.19142578125,0.15744972229003906,-0.10315845161676407,0.02129286155104637
1772812374622126600,5.201126708984375,0.14893150329589844,-0.1254158616065979,0.011041111312806606
1772812374631827200,5.2108271484375,0.11113357543945312,-0.08278154581785202,-0.045771028846502304
1772812374641528000,5.220528076171875,0.03514289855957031,-0.03953956812620163,-0.09272785484790802
1772812374651228700,5.230228759765625,-0.046629905700683594,-0.004089847207069397,-0.10670220106840134
1772812374660929500,5.239929443359375,-0.09879589080810547,-0.00310661643743515,-0.09316624701023102
1772812374670630400,5.24963037109375,-0.09714412689208984,-0.03744840621948242,-0.023780856281518936
1772812374680331300,5.259331298828125,-0.07669448852539062,-0.0652799978852272,0.04729368910193443
1772812374690031900,5.269031982421875,-0.04129314422607422,-0.09209569543600082,0.04568325728178024
1772812374699732700,5.278732666015625,0.024099349975585938,-0.02838655561208725,-0.026278287172317505
1772812374709433300,5.288433349609375,0.01663494110107422,0.0375918373465538,-0.07378993183374405
1772812374719134200,5.29813427734375,-0.038936614990234375,0.045164428651332855,-0.06731847673654556
1772812374728835000,5.3078349609375,-0.04298210144042969,0.06475989520549774,-0.024364599958062172
1772812374738536000,5.317535888671875,-0.041065216064453125,0.07480252534151077,0.05615769699215889
1772812374748236500,5.327236572265625,-0.01447296142578125,0.053479768335819244,0.1345495581626892
1772812374757937400,5.3369375,0.046966552734375,0.010739192366600037,0.205113023519516
1772812374767638000,5.346637939453125,0.11795616149902344,-0.0036079734563827515,0.1657113879919052
1772812374777339000,5.3563388671875,0.1159820556640625,0.04377104341983795,0.11397598683834076
1772812374787039700,5.366039794921875,0.0657949447631836,0.06753887236118317,0.05530887469649315
1772812374796740600,5.37574072265625,0.024675369262695312,0.06801880151033401,0.03137195110321045
1772812374806441200,5.385441162109375,-0.07575416564941406,0.053735584020614624,0.023781809955835342
1772812374816142000,5.39514208984375,-0.138031005859375,0.03264597803354263,0.009682209230959415
1772812374825843000,5.404843017578125,-0.17219829559326172,-0.004959031939506531,-0.02975383587181568
1772812374835543600,5.41454345703125,-0.18813323974609375,0.03559684753417969,-0.06648871302604675
1772812374845244400,5.424244384765625,-0.17084598541259766,0.031436607241630554,-0.09101034700870514
1772812374854945300,5.4339453125,-0.13030433654785156,0.009937956929206848,-0.09965357184410095
1772812374864646000,5.44364599609375,-0.07278633117675781,-0.01929756999015808,-0.08296274393796921
1772812374874346800,5.4533466796875,0.0025930404663085938,-0.0758986845612526,-0.053354158997535706
1772812374884047600,5.463047607421875,0.06494331359863281,-0.07986155152320862,-0.04365738853812218
1772812374893748200,5.472748291015625,0.10153865814208984,-0.03685368597507477,-0.05496923252940178
1772812374903449000,5.482448974609375,0.09515953063964844,-0.011910751461982727,-0.07623564451932907
1772812374913150000,5.49214990234375,0.10770702362060547,-0.007949702441692352,-0.06347911804914474
1772812374922850600,5.5018505859375,0.11768817901611328,-0.012629784643650055,-0.021413160488009453
1772812374932551400,5.511551513671875,0.10397148132324219,-0.022306092083454132,0.0169812124222517
1772812374942252300,5.521252197265625,0.10695171356201172,-0.008320227265357971,0.023643044754862785
1772812374951953200,5.530953125,0.08988380432128906,0.022073403000831604,0.029896307736635208
1772812374961653800,5.54065380859375,0.08486461639404297,0.05764470994472504,0.013869702816009521
1772812374971354600,5.550354736328125,0.09757041931152344,0.06166645511984825,0.02167445607483387
1772812374981055200,5.56005517578125,0.11711502075195312,0.04026284068822861,0.052367012947797775
1772812374990756000,5.569756103515625,0.1080923080444336,0.02662811428308487,0.08810792118310928
1772812375000457000,5.57945703125,0.07333183288574219,0.03276590257883072,0.11198724061250687
1772812375010157600,5.589157470703125,0.04855537414550781,0.06176256015896797,0.12722724676132202
1772812375019858400,5.5988583984375,0.0406646728515625,0.08783700317144394,0.0905139297246933
1772812375029559300,5.608559326171875,-0.014151573181152344,0.08776390552520752,0.08953332155942917
1772812375039260000,5.618260009765625,-0.07981681823730469,0.06197909265756607,0.09271995723247528
1772812375048960800,5.627960693359375,-0.09967327117919922,0.03629807382822037,0.08416939526796341
1772812375058661600,5.63766162109375,-0.11330604553222656,0.06511969864368439,0.019921010360121727
1772812375068362200,5.6473623046875,-0.13022994995117188,0.07924386858940125,-0.01625773124396801
1772812375078063000,5.65706298828125,-0.11273574829101562,0.07603871077299118,-0.04537095129489899
1772812375087764000,5.666763916015625,-0.10022640228271484,0.10859183222055435,-0.07772768288850784
1772812375097464800,5.67646484375,-0.042031288146972656,0.06397616863250732,-0.10642348229885101
1772812375107165400,5.68616552734375,0.009310722351074219,-0.004543676972389221,-0.06822839379310608
1772812375116866300,5.6958662109375,0.07155036926269531,-0.0696093812584877,-0.06502344459295273
1772812375126567000,5.70556689453125,0.15508365631103516,-0.11358921229839325,-0.11694637686014175
1772812375136267800,5.715267822265625,0.1901378631591797,-0.13252680003643036,-0.14995238184928894
1772812375145968600,5.72496875,0.14576339721679688,-0.12954804301261902,-0.16493435204029083
1772812375155669500,5.73466943359375,0.05859184265136719,-0.10612353682518005,-0.14641660451889038
1772812375165370000,5.7443701171875,0.0011148452758789062,-0.09663901478052139,-0.16558794677257538
1772812375175071000,5.754071044921875,-0.0895071029663086,-0.07877745479345322,-0.11634909361600876
1772812375184771600,5.763771484375,-0.0997762680053711,-0.04542122781276703,-0.08321908116340637
1772812375194472400,5.773472412109375,-0.08279895782470703,-0.0431370809674263,-0.0667572095990181
1772812375204173300,5.78317333984375,-0.06962394714355469,-0.056425198912620544,-0.019487280398607254
1772812375213874200,5.792874267578125,-0.07078170776367188,-0.07752819359302521,0.013442764058709145
1772812375223574800,5.80257470703125,-0.04721260070800781,-0.07819417119026184,0.04916917532682419
1772812375233275600,5.812275634765625,-0.007572174072265625,-0.06168387830257416,0.057681210339069366
1772812375242976300,5.821976318359375,0.05727195739746094,-0.02893669903278351,0.09796738624572754
1772812375252677000,5.831677001953125,0.0821981430053711,-0.029607534408569336,0.09182930737733841
1772812375262378000,5.8413779296875,0.12080955505371094,0.012012600898742676,0.09703519195318222
1772812375272078800,5.851078857421875,0.0893564224243164,0.05908866226673126,0.04378996044397354
1772812375281779500,5.860779541015625,0.033721923828125,0.08173683285713196,0.010722439736127853
1772812375291480300,5.870480224609375,-0.037445068359375,0.08813291788101196,-0.02474145032465458
1772812375301181200,5.88018115234375,-0.0674123764038086,0.06032057851552963,-0.0446014404296875
1772812375310881800,5.8898818359375,-0.10744953155517578,0.03806135058403015,-0.04953232407569885
1772812375320582700,5.899582763671875,-0.13268089294433594,-0.04313144087791443,-0.0627717450261116
1772812375330283300,5.909283203125,-0.1068887710571289,-0.06516745686531067,-0.05479293316602707
1772812375339984100,5.918984130859375,-0.034458160400390625,-0.09447607398033142,-0.06413409858942032
1772812375349685000,5.92868505859375,0.04264259338378906,-0.10047513246536255,-0.07902082055807114
1772812375359385900,5.9383857421875,0.09843730926513672,-0.11625337600708008,-0.06101818382740021
1772812375369086500,5.94808642578125,0.12503719329833984,-0.14106746017932892,-0.06897716224193573
1772812375378787300,5.957787353515625,0.12528038024902344,-0.11686518788337708,-0.06418276578187943
1772812375388488000,5.967488037109375,0.10079383850097656,-0.07930397987365723,-0.062096573412418365
1772812375398188800,5.977188720703125,0.04494476318359375,-0.04158981144428253,-0.04566831514239311
1772812375407889700,5.9868896484375,-0.0029115676879882812,-0.02200978994369507,0.026145033538341522
1772812375417590500,5.996590576171875,-0.025249481201171875,-0.004201352596282959,0.06260204315185547
1772812375427291100,6.006291015625,-0.060143470764160156,0.03671232610940933,0.08468414843082428
1772812375436992000,6.015991943359375,-0.0944356918334961,0.04094195365905762,0.0969604030251503
1772812375446692600,6.025692626953125,-0.11401176452636719,0.055321961641311646,0.08158717304468155
1772812375456393500,6.0353935546875,-0.07794666290283203,0.07205671817064285,0.05866176262497902
1772812375466094300,6.04509423828125,-0.03423881530761719,0.06666966527700424,0.05427832156419754
1772812375475795200,6.054795166015625,0.01578807830810547,0.03719009459018707,0.07363561540842056
1772812375485495800,6.064495849609375,0.0873098373413086,0.016861245036125183,0.08254431933164597
1772812375495196700,6.07419677734375,0.0870208740234375,-0.012315347790718079,0.10809063911437988
1772812375504897500,6.0838974609375,0.1220102310180664,-0.0520639568567276,0.08785325288772583
1772812375514598100,6.09359814453125,0.07522869110107422,-0.010627761483192444,0.0634666308760643
1772812375524299000,6.103299072265625,-0.00017833709716796875,-0.0011642426252365112,0.03752581402659416
1772812375533999600,6.11299951171875,-0.021373748779296875,0.012637093663215637,0.049493208527565
1772812375543700500,6.122700439453125,-0.03749561309814453,0.019137263298034668,0.021977175027132034
1772812375553401300,6.1324013671875,-0.05099296569824219,0.009370625019073486,0.040135812014341354
1772812375563102200,6.142102294921875,-0.03013896942138672,-0.0022177696228027344,0.04866878688335419
1772812375572802800,6.151802734375,-0.0072803497314453125,0.013445310294628143,0.03350280225276947
1772812375582503700,6.161503662109375,-0.011858940124511719,0.03601934015750885,0.028546635061502457
1772812375592204300,6.171204345703125,-0.030470848083496094,0.07757970690727234,-0.0038661439903080463
1772812375601905200,6.1809052734375,-0.032294273376464844,0.10257281363010406,-0.04481729865074158
1772812375611606000,6.19060595703125,-0.03642845153808594,0.12435784190893173,-0.035069048404693604
1772812375621307000,6.200306884765625,-0.07107353210449219,0.1124851182103157,0.04145919159054756
1772812375631007500,6.210007568359375,-0.031023025512695312,0.02548713982105255,0.06018056347966194
1772812375640708400,6.219708251953125,0.0059986114501953125,-0.05138754844665527,0.07793168723583221
1772812375650409000,6.229408935546875,0.01768016815185547,-0.08349531888961792,0.12350377440452576
1772812375660109800,6.23910986328125,0.02208995819091797,-0.08205677568912506,0.11427076160907745
1772812375679511600,6.258511474609375,-0.019929885864257812,-0.03826214373111725,-0.04906323552131653
1772812375689212200,6.268212158203125,-0.06429195404052734,-0.022806063294410706,-0.08533937484025955
1772812375698913000,6.2779130859375,-0.07730579376220703,-0.00971829891204834,-0.12609092891216278
1772812375708614000,6.28761376953125,-0.09360694885253906,-0.02478596568107605,-0.11269626766443253
1772812375718314500,6.297314453125,-0.0802154541015625,-0.06486186385154724,-0.05284455046057701
1772812375728015400,6.307015380859375,-0.010572433471679688,-0.07118774950504303,-0.044440485537052155
1772812375737716000,6.316716064453125,0.059078216552734375,-0.02870526909828186,-0.05315583199262619
1772812375747416800,6.326416748046875,0.10402297973632812,0.028604522347450256,-0.046039849519729614
1772812375757117700,6.33611767578125,0.1470184326171875,0.07536326348781586,-0.05536075308918953
1772812375766818600,6.345818603515625,0.12927818298339844,0.07553082704544067,-0.01899278722703457
1772812375776519200,6.355519287109375,0.1306438446044922,0.08313660323619843,0.003637520130723715
1772812375786220000,6.365219970703125,0.09551143646240234,0.06792213767766953,0.03507544472813606
1772812375795920600,6.374920654296875,0.059783935546875,0.0408560186624527,0.014328680001199245
1772812375805621500,6.38462158203125,0.01288604736328125,0.06017999351024628,-0.026897616684436798
1772812375815322400,6.394322265625,-0.012048721313476562,0.08767207711935043,-0.06561527401208878
1772812375825023200,6.404023193359375,-0.03656196594238281,0.07851812988519669,-0.027984868735074997
1772812375834723800,6.413723876953125,-0.04654884338378906,0.011869058012962341,-0.02234536036849022
1772812375844424700,6.4234248046875,-0.018728256225585938,0.00251731276512146,-0.010847595520317554
1772812375854125300,6.433125244140625,0.00038909912109375,0.03553219884634018,0.0004460969939827919
1772812375863826200,6.442826171875,-0.009050369262695312,0.05718168616294861,0.046307019889354706
1772812375873527000,6.452527099609375,-0.0030355453491210938,0.04808225482702255,0.06513965129852295
1772812375883228000,6.462227783203125,-0.03357982635498047,0.0209934264421463,0.10471919178962708
1772812375892928500,6.471928466796875,-0.05889892578125,0.005484089255332947,0.1435745805501938
1772812375902629400,6.48162939453125,-0.03084564208984375,-0.004521533846855164,0.11459144949913025
1772812375912330200,6.491330322265625,0.01790904998779297,0.035660624504089355,0.07199970632791519
1772812375922030800,6.50103076171875,0.02466106414794922,0.05908440053462982,0.03722231835126877
1772812375931731700,6.510731689453125,0.005413055419921875,0.05133099853992462,-0.0014857519418001175
1772812375941432300,6.520432373046875,-0.045271873474121094,0.08192135393619537,-0.008084014058113098
1772812375951133200,6.53013330078125,-0.09155941009521484,0.06300222873687744,-0.004012642428278923
1772812375960834000,6.539833984375,-0.13234424591064453,0.00710633397102356,0.017099803313612938
1772812375970535000,6.549534912109375,-0.13243389129638672,-0.0328899621963501,0.026901056990027428
1772812375980235500,6.559235595703125,-0.05134868621826172,-0.05608952045440674,0.03508482500910759
1772812375989936400,6.568936279296875,0.03424835205078125,-0.04370734095573425,0.0011867182329297066
1772812375999637000,6.578636962890625,0.07721328735351562,-0.04146800935268402,-0.030482931062579155
1772812376009337900,6.588337890625,0.050026893615722656,-0.01589362323284149,-0.0593315064907074
1772812376019038700,6.598038818359375,0.009174346923828125,-0.027160227298736572,-0.07574056088924408
1772812376028739600,6.607739501953125,-0.0274505615234375,-0.03607061505317688,-0.08906172215938568
1772812376038440200,6.617440185546875,-0.07520484924316406,-0.03400367498397827,-0.06529679894447327
1772812376048141000,6.62714111328125,-0.07390499114990234,-0.01313452422618866,-0.0647081732749939
1772812376057841700,6.636841552734375,-0.03615760803222656,-0.02325962483882904,-0.039301492273807526
1772812376067542500,6.64654248046875,-0.019054412841796875,-0.0352148562669754,-0.010802404955029488
1772812376077243400,6.656243408203125,0.014210700988769531,-0.03762879967689514,-0.00144093856215477
1772812376086944000,6.665944091796875,-0.0119171142578125,-0.02191460132598877,0.0022106915712356567
1772812376096644900,6.675644775390625,-0.04701423645019531,0.04793946444988251,0.012997639365494251
1772812376106345700,6.685345703125,-0.10738182067871094,0.08507730811834335,0.06613925099372864
1772812376116046600,6.695046630859375,-0.09729576110839844,0.09893055260181427,0.08184646815061569
1772812376125747200,6.704747314453125,-0.08382034301757812,0.08693806827068329,0.07448643445968628
1772812376135448000,6.714447998046875,-0.028202056884765625,0.0852925032377243,0.06091590225696564
1772812376145148700,6.724148681640625,-0.0029268264770507812,0.037423014640808105,0.06629036366939545
1772812376154849500,6.733849609375,0.030153274536132812,-0.006685957312583923,0.060899753123521805
1772812376164550400,6.74355029296875,0.05678272247314453,-0.007606938481330872,0.036788128316402435
1772812376174251300,6.753251220703125,0.05942249298095703,-0.0212690532207489,0.0010973261669278145
1772812376183952000,6.762951904296875,0.05260276794433594,-0.027956783771514893,0.00024416297674179077
1772812376203353300,6.782353271484375,0.019683837890625,-0.05462944507598877,-0.02111206203699112
1772812376213054200,6.79205419921875,0.05119132995605469,-0.04906557500362396,-0.009720759466290474
1772812376222755000,6.801755126953125,0.0974588394165039,-0.03581111133098602,-0.025806497782468796
1772812376232455700,6.81145556640625,0.1370525360107422,-0.022621169686317444,-0.037515610456466675
1772812376242156500,6.821156494140625,0.15125179290771484,0.001872822642326355,-0.038742467761039734
1772812376251857400,6.830857421875,0.15577316284179688,0.005717188119888306,-0.04455706104636192
1772812376261558000,6.84055810546875,0.10607719421386719,0.013210326433181763,-0.02749577909708023
1772812376271259000,6.8502587890625,0.0736703872680664,0.0012441575527191162,-0.02053852751851082
1772812376280959700,6.859959716796875,0.03239250183105469,0.020121976733207703,-0.024061396718025208
1772812376290660400,6.869660400390625,0.008276939392089844,0.005828946828842163,-0.035705793648958206
1772812376300361200,6.879361328125,-0.035439491271972656,-0.017751097679138184,-0.02586480975151062
1772812376310062000,6.88906201171875,-0.049012184143066406,-0.03611844778060913,-0.04848757013678551
1772812376319763000,6.898762939453125,-0.08117198944091797,-0.034845009446144104,-0.059071481227874756
1772812376329463600,6.908463623046875,-0.10454273223876953,-0.03509427607059479,-0.058820586651563644
1772812376339164400,6.918164306640625,-0.1145639419555664,-0.053226813673973083,-0.03821941837668419
1772812376348865000,6.927864990234375,-0.11499500274658203,-0.07178018987178802,-0.015094569884240627
1772812376358566000,6.93756591796875,-0.10129737854003906,-0.06150585412979126,0.017689723521471024
1772812376368266800,6.947266845703125,-0.08194446563720703,-0.08081464469432831,-0.001570018706843257
1772812376377967400,6.95696728515625,-0.09114551544189453,-0.07142467796802521,0.024410894140601158
1772812376387668200,6.966668212890625,-0.0954751968383789,-0.0310642272233963,0.0066206613555550575
1772812376397369000,6.976369140625,-0.062066078186035156,0.011798486113548279,0.011634278111159801
1772812376407069700,6.986069580078125,-0.029193878173828125,0.01838304102420807,0.04217960685491562
1772812376416770600,6.9957705078125,0.030199050903320312,0.020576775074005127,0.05638684332370758
1772812376426471400,7.005471435546875,0.0850667953491211,0.03298206627368927,0.08668211102485657
1772812376436172000,7.015172119140625,0.10135173797607422,0.043097227811813354,0.10100194066762924
1772812376445873000,7.024872802734375,0.14675235748291016,0.05199499428272247,0.08774906396865845
1772812376455573800,7.03457373046875,0.14196205139160156,0.0726366639137268,0.06111101433634758
1772812376465274400,7.0442744140625,0.10546875,0.09687456488609314,0.008042487315833569
1772812376474975200,7.053975341796875,0.06369686126708984,0.07577551901340485,-0.01165587268769741
1772812376484675800,7.06367578125,0.00850677490234375,0.04578584432601929,0.006141004152595997
1772812376494376700,7.073376708984375,-0.024585723876953125,-0.021238043904304504,0.011312754824757576
1772812376504077600,7.08307763671875,-0.012411117553710938,-0.04086560010910034,-0.01764075830578804
1772812376513778400,7.0927783203125,-0.007495880126953125,-0.010611534118652344,-0.03844138979911804
1772812376523479000,7.10247900390625,0.020868301391601562,-0.013773709535598755,-0.0672261193394661
1772812376533180000,7.112179931640625,0.0099334716796875,-0.04637964069843292,-0.08389653265476227
1772812376542880800,7.121880859375,0.00153350830078125,-0.05261629819869995,-0.07117703557014465
1772812376552581400,7.131581298828125,-0.004383087158203125,-0.03802645206451416,-0.0658770352602005
1772812376562282200,7.1412822265625,-0.04080677032470703,-0.04559394717216492,-0.031833600252866745
1772812376571983000,7.150983154296875,-0.04016304016113281,-0.0451970249414444,-0.0009772954508662224
1772812376581683700,7.16068359375,-0.07952499389648438,-0.017633944749832153,0.047094449400901794
1772812376591384600,7.170384521484375,-0.1334991455078125,-0.010572493076324463,0.09519754350185394
1772812376601085400,7.18008544921875,-0.1618194580078125,-0.0015607327222824097,0.11949891597032547
1772812376610786000,7.1897861328125,-0.17548179626464844,0.061925336718559265,0.09449891000986099
1772812376620487000,7.19948681640625,-0.11591911315917969,0.12317361682653427,0.024382328614592552
1772812376630187500,7.2091875,-0.03850078582763672,0.13016119599342346,-0.04535027593374252
1772812376639888400,7.218888427734375,0.04233264923095703,0.09792624413967133,-0.060933008790016174
1772812376649589200,7.22858935546875,0.11355876922607422,0.0685964822769165,-0.02230016700923443
1772812376659290000,7.2382900390625,0.10238170623779297,0.016850575804710388,0.008910376578569412
1772812376668990700,7.24799072265625,0.112548828125,-0.0033466219902038574,0.0035663973540067673
1772812376678691600,7.257691650390625,0.04605865478515625,-0.009828060865402222,0.004012934863567352
1772812376688392200,7.26739208984375,0.07596111297607422,-0.03430381417274475,-0.001789826899766922
1772812376698093000,7.277093017578125,0.035938262939453125,-0.0492129921913147,0.013030312955379486
1772812376707794000,7.2867939453125,0.08243846893310547,-0.024435847997665405,-0.06740376353263855
1772812376717494500,7.29649462890625,0.07401466369628906,-0.059912264347076416,-0.050188954919576645
1772812376727195400,7.3061953125,0.11159420013427734,-0.07909232378005981,-0.05245373770594597
1772812376736896300,7.315896240234375,0.10382080078125,-0.05183076858520508,-0.05140126496553421
1772812376746597000,7.32559716796875,0.07851982116699219,-0.032650500535964966,-0.08492976427078247
1772812376756297700,7.335297607421875,0.025411605834960938,-0.007764369249343872,-0.0848749428987503
1772812376765998600,7.34499853515625,-0.031493186950683594,0.00215303897857666,-0.08206500113010406
1772812376775699200,7.35469921875,-0.07447528839111328,0.007217586040496826,-0.07868175208568573
1772812376785400000,7.364400146484375,-0.11318111419677734,0.024036675691604614,-0.03672414645552635
1772812376795101000,7.374100830078125,-0.08651065826416016,0.040476590394973755,0.0054723359644412994
1772812376804801800,7.3838017578125,-0.08498382568359375,0.013508588075637817,0.04602299630641937
1772812376814502400,7.39350244140625,-0.04112815856933594,-0.01413261890411377,0.08079282939434052
1772812376824203300,7.403203369140625,0.017264366149902344,0.0013647973537445068,0.07190106809139252
1772812376833903900,7.41290380859375,0.05817890167236328,0.018912672996520996,0.04395259544253349
1772812376843604700,7.422604736328125,0.07721328735351562,0.029461592435836792,0.03456845507025719
1772812376853305600,7.4323056640625,0.05119800567626953,0.03878478705883026,0.05311673507094383
1772812376863006200,7.442006103515625,0.03735637664794922,0.010572582483291626,0.025983229279518127
1772812376872707000,7.45170703125,-0.0021352767944335938,0.01809433102607727,-0.013014374300837517
1772812376882408000,7.461407958984375,-0.02566051483154297,0.026030510663986206,0.004478383809328079
1772812376892108500,7.471108642578125,-0.07582855224609375,0.032533034682273865,0.011093657463788986
1772812376901809400,7.480809326171875,-0.04160499572753906,-0.0012842416763305664,-0.00395328551530838
1772812376911510300,7.49051025390625,-0.03852272033691406,-0.019711822271347046,-0.02650607004761696
1772812376921211000,7.5002109375,-0.014314651489257812,-0.04735681414604187,-0.008903522044420242
1772812376930911700,7.509911865234375,0.014177322387695312,-0.057545006275177,-0.01929635740816593
1772812376940612600,7.519612548828125,0.029249191284179688,-0.04081535339355469,-0.05898801609873772
1772812376950313200,7.529313232421875,0.028769493103027344,-0.02344125509262085,-0.03481002151966095
1772812376960014000,7.53901416015625,0.03182411193847656,-0.058177798986434937,-0.00965588353574276
1772812376969714700,7.548714599609375,0.03247356414794922,-0.06883519887924194,0.021434500813484192
1772812376979415600,7.55841552734375,0.05546379089355469,-0.04872786998748779,0.013286001980304718
1772812376989116400,7.568116455078125,0.052196502685546875,-0.029933422803878784,-0.025454947724938393
1772812376998817300,7.5778173828125,0.02899169921875,0.005388528108596802,-0.030195990577340126
1772812377008518000,7.587517822265625,0.009701728820800781,0.02950650453567505,0.001076938584446907
1772812377018218800,7.59721875,0.03778362274169922,0.024702787399291992,0.026633935049176216
1772812377027919600,7.606919677734375,0.037125587463378906,0.009260952472686768,0.056480832397937775
1772812377037620200,7.6166201171875,0.044676780700683594,-0.007145524024963379,0.07779690623283386
1772812377047321000,7.626321044921875,0.02501392364501953,-0.020772427320480347,0.08128874003887177
1772812377057021700,7.636021728515625,-0.031975746154785156,0.004339486360549927,0.019794538617134094
1772812377066722600,7.64572265625,-0.08328628540039062,0.043805450201034546,-0.011280682869255543
1772812377076423400,7.65542333984375,-0.15017223358154297,0.049832552671432495,-0.032154202461242676
1772812377086124300,7.665124267578125,-0.18413257598876953,0.03037440776824951,0.03197333589196205
1772812377095825000,7.674824951171875,-0.1833629608154297,-0.014205753803253174,0.08466304838657379
1772812377105525800,7.68452587890625,-0.15433406829833984,-0.029657751321792603,0.11180540919303894
1772812377115226400,7.694226318359375,-0.07282257080078125,0.004171431064605713,0.10190707445144653
1772812377124927200,7.70392724609375,0.0038194656372070312,0.0320897102355957,0.05425683781504631
1772812377134628000,7.713628173828125,0.08506298065185547,0.0617840439081192,0.012746337801218033
1772812377144328700,7.72332861328125,0.15081310272216797,0.05386406183242798,0.022235583513975143
1772812377154029600,7.733029541015625,0.18954849243164062,0.03662291169166565,0.02854452282190323
1772812377163730400,7.74273046875,0.18406391143798828,-0.028780817985534668,0.027142010629177094
1772812377173431000,7.75243115234375,0.13157081604003906,-0.05084237456321716,0.04303983226418495
1772812377183132000,7.7621318359375,0.10345077514648438,-0.04764634370803833,0.04478069394826889
1772812377192832800,7.771832763671875,0.08048439025878906,-0.03241237998008728,0.021426307037472725
1772812377202533400,7.781533447265625,0.06141185760498047,-0.032231152057647705,0.002002006396651268
1772812377212234200,7.791234130859375,0.03676128387451172,-0.04785794019699097,-0.02777109295129776
1772812377221935000,7.80093505859375,-0.02160358428955078,-0.029361039400100708,-0.02148924581706524
1772812377231635700,7.8106357421875,-0.046051025390625,-0.0029068589210510254,-0.04510556161403656
1772812377241336600,7.820336669921875,-0.06654167175292969,0.009614676237106323,-0.06535270065069199
1772812377251037200,7.830037109375,-0.07960319519042969,0.02524539828300476,-0.045236825942993164
1772812377260738000,7.839738037109375,-0.11477470397949219,0.008695542812347412,-0.005619943141937256
1772812377280139800,7.859139892578125,-0.07837581634521484,0.03222218155860901,-0.03804914653301239
1772812377289840400,7.86884033203125,-0.04643440246582031,0.058111727237701416,-0.04224785044789314
1772812377299541200,7.878541259765625,-0.0009088516235351562,0.07634125649929047,-0.074490025639534
1772812377309242000,7.8882421875,0.02150440216064453,0.08824251592159271,-0.038119666278362274
1772812377318942700,7.897942626953125,0.00940704345703125,0.019263744354248047,0.02138526365160942
1772812377328643600,7.9076435546875,-0.010746002197265625,-0.05874431133270264,0.03442426398396492
1772812377338344200,7.91734423828125,-0.011740684509277344,-0.026154637336730957,0.011323865503072739
1772812377348045000,7.927045166015625,-0.010366439819335938,0.024603337049484253,-0.025050334632396698
1772812377367446800,7.94644677734375,-0.02634906768798828,-0.022643238306045532,-0.02463027834892273
1772812377377147400,7.9561474609375,-0.02470874786376953,-0.04661273956298828,-0.006974704563617706
1772812377386848300,7.96584814453125,-0.05601692199707031,-0.034066081047058105,0.0097104012966156
1772812377396548900,7.975548828125,-0.06913566589355469,-0.032470881938934326,0.029292277991771698
1772812377406249700,7.985249755859375,-0.032608985900878906,-0.03386273980140686,0.010591231286525726
1772812377415950600,7.99495068359375,0.004481315612792969,-0.0023745298385620117,-0.0017112866044044495
1772812377425651200,8.004651123046875,0.03387451171875,0.007795602083206177,-0.013168003410100937
1772812377435352000,8.01435205078125,0.05333900451660156,0.002684473991394043,0.011028774082660675
1772812377445053000,8.024052978515625,0.0195159912109375,0.021540135145187378,0.04508158192038536
1772812377454753500,8.03375341796875,0.029761314392089844,0.02278757095336914,0.04651010408997536
1772812377464454400,8.043454345703125,0.009245872497558594,0.006194084882736206,0.014814052730798721
1772812377474155300,8.0531552734375,0.01849651336669922,-0.006170690059661865,-0.004829302430152893
1772812377483856000,8.06285595703125,0.017020225524902344,0.022350966930389404,-0.009006258100271225
1772812377493556700,8.072556640625,-0.0020532608032226562,-0.002726912498474121,-0.003850165754556656
1772812377503257600,8.082257568359376,-0.0019598007202148438,0.019461244344711304,-0.013071887195110321
1772812377512958200,8.091958251953125,0.0016651153564453125,0.014534056186676025,-0.03287570923566818
1772812377522659000,8.1016591796875,0.012290000915527344,0.00016352534294128418,0.021509498357772827
1772812377532359700,8.111359619140625,0.05682945251464844,-0.02543497085571289,0.0025679096579551697
1772812377542060500,8.121060546875,0.057068824768066406,-0.07045120000839233,-0.02268095314502716
1772812377551761400,8.130761474609375,0.06316089630126953,-0.059180766344070435,-0.015322888270020485
1772812377561462300,8.140462158203125,0.07147407531738281,-0.06082615256309509,-0.011411348357796669
1772812377571163000,8.150162841796876,0.0255126953125,-0.038304537534713745,-0.02948460355401039
1772812377580863700,8.15986376953125,0.060311317443847656,-0.03162086009979248,-0.027129191905260086
1772812377590564600,8.169564697265624,-0.011354446411132812,-0.02275031805038452,-0.010052245110273361
1772812377600265200,8.17926513671875,-0.05711841583251953,-0.03150463104248047,0.0071937330067157745
1772812377609966000,8.188966064453124,-0.077392578125,-0.0465492308139801,0.026039130985736847
1772812377619666700,8.198666748046875,-0.10906219482421875,-0.01217341423034668,0.0028687119483947754
1772812377629367600,8.208367431640625,-0.14133167266845703,0.05257156491279602,0.0006851442158222198
1772812377639068400,8.218068359375,-0.07772445678710938,0.07644924521446228,-0.011671025305986404
1772812377648769000,8.22776904296875,-0.06690692901611328,0.10459218919277191,-0.01208052784204483
1772812377658470000,8.237469970703126,-0.02802753448486328,0.0783749520778656,-0.008413558825850487
1772812377668170800,8.247170654296875,0.021947860717773438,0.02608811855316162,0.037937555462121964
1772812377677871400,8.256871337890624,0.07811641693115234,-0.009934216737747192,0.04672672227025032
1772812377687572200,8.266572265625,0.09801292419433594,-0.03977188467979431,0.03296613693237305
1772812377697273000,8.276273193359375,0.11167526245117188,-0.03814205527305603,0.03949934244155884
1772812377706973700,8.2859736328125,0.06629180908203125,-0.016569286584854126,0.047416653484106064
1772812377716674600,8.295674560546875,0.08521842956542969,-0.0028282999992370605,0.05051064118742943
1772812377726375400,8.30537548828125,0.000286102294921875,-0.042316585779190063,0.05746733769774437
1772812377736076000,8.315075927734375,-0.005606651306152344,-0.11199277639389038,0.07765919715166092
1772812377745777000,8.32477685546875,0.0191650390625,-0.08107399940490723,0.0622088722884655
1772812377755477500,8.3344775390625,0.0823202133178711,-0.001128464937210083,0.009485840797424316
1772812377765178400,8.344178466796874,0.09733104705810547,0.032652705907821655,-0.02676507458090782
1772812377774879200,8.353879150390625,0.06500911712646484,0.02126362919807434,-0.0513654500246048
1772812377784580000,8.363580078125,0.002643585205078125,0.015946298837661743,-0.04836824908852577
1772812377794280700,8.37328076171875,-0.052750587463378906,0.026283711194992065,-0.051888417452573776
1772812377803981600,8.382981689453125,-0.1130666732788086,0.05075424909591675,-0.04504361376166344
1772812377813682400,8.392682373046876,-0.1381998062133789,0.02635785937309265,-0.04436899721622467
1772812377823383000,8.402383056640625,-0.12639236450195312,0.013594478368759155,-0.00873689353466034
1772812377833084000,8.412083984375,-0.08768939971923828,-0.006030946969985962,0.009298603981733322
1772812377842784500,8.421784423828125,-0.009644508361816406,-0.05040711164474487,0.011027853935956955
1772812377852485400,8.4314853515625,-0.0011653900146484375,-0.0938061773777008,0.015682093799114227
1772812377862186200,8.441186279296875,0.00246429443359375,-0.04575467109680176,0.04067730903625488
1772812377871887000,8.45088720703125,-0.07747268676757812,-0.03636336326599121,0.06046115607023239
1772812377881587700,8.460587646484376,-0.04544544219970703,-0.045936644077301025,0.019143879413604736
1772812377891288600,8.47028857421875,0.0001964569091796875,0.013595491647720337,-0.01110975444316864
1772812377900989200,8.4799892578125,0.032134056091308594,0.013058990240097046,-0.020007112994790077
1772812377910690000,8.48968994140625,0.1023263931274414,-0.029975593090057373,-0.02671729400753975
1772812377920391000,8.499390869140624,0.13952064514160156,-0.0413057804107666,-0.0356125608086586
1772812377930091500,8.509091552734375,0.13132476806640625,-0.014288097620010376,-0.043779246509075165
1772812377939792400,8.51879248046875,0.09852790832519531,0.0054055750370025635,-0.06683576107025146
1772812377949493200,8.5284931640625,0.05450916290283203,0.010625004768371582,-0.024337224662303925
1772812377959193900,8.53819384765625,0.014760017395019531,0.004105567932128906,0.028314922004938126
1772812377968894700,8.547894775390626,0.005072593688964844,-0.05438283085823059,0.0016928780823946
1772812377978595300,8.55759521484375,-0.039755821228027344,-0.08041593432426453,0.01368262805044651
1772812377988296200,8.567296142578124,-0.0015039443969726562,-0.024286001920700073,0.008046367205679417
1772812377997997000,8.5769970703125,-0.0027379989624023438,0.004373759031295776,-0.03434028849005699
1772812378007698000,8.586697998046875,-0.020424842834472656,0.02650320529937744,-0.07491576671600342
1772812378017398500,8.5963984375,-0.07780075073242188,0.028689593076705933,-0.053827397525310516
1772812378027099400,8.606099365234375,-0.11417293548583984,0.038197100162506104,-0.010961605235934258
1772812378036800000,8.615800048828126,-0.1334381103515625,0.06369084119796753,0.06223350390791893
1772812378046500900,8.6255009765625,-0.08649158477783203,0.006633132696151733,0.06040377914905548
1772812378056201700,8.63520166015625,-0.0673971176147461,0.011419296264648438,0.024488434195518494
1772812378065902300,8.64490234375,-0.05685901641845703,0.0583653450012207,-0.009299522265791893
1772812378075603200,8.654603271484374,-0.07469463348388672,0.09966707229614258,-0.026505280286073685
1772812378085304000,8.664303955078125,-0.12042236328125,0.07217195630073547,0.011501040309667587
1772812378095005000,8.6740048828125,-0.1065053939819336,0.04221314191818237,0.054871123284101486
1772812378104705500,8.68370556640625,-0.07747936248779297,0.028200775384902954,0.12366455048322678
1772812378114406100,8.69340625,-0.0018720626831054688,0.0028519630432128906,0.21404269337654114
1772812378124107000,8.70310693359375,0.07242679595947266,-0.04349479079246521,0.22622576355934143
1772812378143508700,8.7225087890625,0.1610870361328125,-0.015556961297988892,0.08664572238922119
1772812378153209300,8.732209228515625,0.15248584747314453,0.04027438163757324,-0.00912796426564455
1772812378162910200,8.74191015625,0.1334371566772461,0.07153439521789551,-0.10327967256307602
1772812378172611000,8.751611083984375,0.10296058654785156,0.07452255487442017,-0.14209821820259094
1772812378182311700,8.761311767578125,0.080078125,0.07593309879302979,-0.15965113043785095
1772812378192012500,8.771012451171876,0.012891769409179688,0.0237998366355896,-0.12749090790748596
1772812378201713200,8.780713134765625,0.008027076721191406,-0.0197526216506958,-0.12100020051002502
1772812378211414000,8.7904140625,0.0491180419921875,-0.054513245820999146,-0.13638505339622498
1772812378221115000,8.800114990234375,0.01422119140625,-0.03488802909851074,-0.1162399873137474
1772812378230815500,8.8098154296875,0.02460193634033203,-0.06878584623336792,-0.1154506504535675
1772812378240516400,8.819516357421875,-0.014614105224609375,-0.08248674869537354,-0.08094928413629532
1772812378250217200,8.82921728515625,-0.043770790100097656,-0.044336408376693726,-0.07475362718105316
1772812378259917800,8.838917724609376,0.0052032470703125,0.007238984107971191,-0.12951001524925232
1772812378269618700,8.84861865234375,0.029804229736328125,0.036097556352615356,-0.11052478849887848
1772812378279319600,8.858319580078126,0.08925724029541016,0.000009387731552124023,-0.07619640976190567
1772812378289020200,8.868020263671875,0.060611724853515625,-0.026336699724197388,-0.07904816418886185
1772812378298721000,8.877720947265624,0.039511680603027344,-0.04050850868225098,-0.07938612252473831
1772812378308422000,8.887421875,0.04234123229980469,0.04878878593444824,-0.10201887041330338
1772812378318122500,8.89712255859375,-0.045411109924316406,0.0729716420173645,-0.12206995487213135
1772812378327823400,8.9068232421875,-0.09515953063964844,0.005487352609634399,-0.10859446227550507
1772812378337524000,8.91652392578125,-0.13107967376708984,0.006436347961425781,-0.08231084793806076
1772812378347224800,8.926224853515626,-0.1275310516357422,0.02974802255630493,-0.07312092930078506
1772812378356925700,8.93592578125,-0.10872268676757812,0.04269400238990784,-0.05360891669988632
1772812378366626300,8.945626220703126,-0.1384592056274414,0.022751837968826294,-0.0445474237203598
1772812378376327200,8.9553271484375,-0.11712455749511719,-0.029963195323944092,0.004763521254062653
1772812378386028000,8.965028076171874,-0.11615753173828125,-0.04188165068626404,0.02867932617664337
1772812378395728600,8.974728759765625,-0.10461711883544922,0.011190414428710938,0.07063579559326172
1772812378405429500,8.984429443359375,-0.03090381622314453,0.049261271953582764,0.08498822897672653
1772812378415130400,8.99413037109375,-0.019620895385742188,0.03175291419029236,0.0813646987080574
1772812378424831000,9.0038310546875,-0.012080192565917969,-0.03312772512435913,0.10756363719701767
1772812378434531800,9.01353173828125,0.027093887329101562,-0.018161088228225708,0.121918685734272
1772812378444232700,9.023232666015625,0.07028484344482422,0.005465656518936157,0.09545409679412842
1772812378463634200,9.04263427734375,0.1102743148803711,0.010160058736801147,0.10931079089641571
1772812378473334800,9.052334716796874,0.11203384399414062,0.03878733515739441,0.11241526901721954
1772812378483035600,9.06203564453125,0.070220947265625,0.01140543818473816,0.06986087560653687
1772812378492736500,9.071736572265625,0.05500316619873047,0.029629617929458618,0.09277701377868652
1772812378502437000,9.08143701171875,0.07181549072265625,0.05839255452156067,0.0765128880739212
1772812378512138000,9.091137939453125,0.017740249633789062,0.03467613458633423,0.06831742823123932
1772812378521838800,9.1008388671875,0.016332626342773438,0.013525575399398804,0.043127208948135376
1772812378531539700,9.110539794921875,-0.006226539611816406,0.033758074045181274,0.019038647413253784
1772812378541240300,9.120240234375,-0.04959869384765625,0.04748988151550293,0.009476259350776672
1772812378550941200,9.129941162109375,-0.054617881774902344,0.044176191091537476,0.04266360402107239
1772812378560641800,9.139641845703125,-0.012521743774414062,-0.01604360342025757,0.07931022346019745
1772812378570342700,9.1493427734375,0.005303382873535156,-0.025642037391662598,0.05652967095375061
1772812378580043500,9.15904345703125,0.10161781311035156,-0.022013694047927856,0.0430801659822464
1772812378589744000,9.168744140625,0.0856924057006836,-0.009938269853591919,0.027015402913093567
1772812378599445000,9.178445068359375,0.07472515106201172,-0.0017611384391784668,0.03165233135223389
1772812378609145900,9.188145751953124,0.06160259246826172,0.012446165084838867,0.010190755128860474
1772812378618846500,9.197846435546875,0.05809783935546875,-0.008067518472671509,-0.002868935465812683
1772812378628547300,9.20754736328125,-0.0018215179443359375,-0.06591743230819702,0.0057131946086883545
1772812378638248000,9.217248046875,-0.014866828918457031,-0.08162695169448853,0.013513758778572083
1772812378647948800,9.22694873046875,-0.045345306396484375,-0.060460805892944336,0.019742392003536224
1772812378657649700,9.236649658203126,-0.05412006378173828,-0.047350913286209106,0.015453740954399109
1772812378667350500,9.2463505859375,-0.01684856414794922,-0.04012235999107361,0.010615229606628418
1772812378677051100,9.256051025390626,-0.03550148010253906,-0.03935077786445618,-0.061941809952259064
1772812378686752000,9.265751953125,-0.020870208740234375,-0.006500691175460815,-0.12197399139404297
1772812378696452600,9.27545263671875,-0.0123291015625,0.11003431677818298,-0.1368771195411682
1772812378706153500,9.285153564453125,-0.06744194030761719,0.11355733871459961,-0.06603924930095673
1772812378715854300,9.294854248046875,-0.07926082611083984,0.04484483599662781,0.006677024066448212
1772812378725555000,9.304554931640626,-0.06849956512451172,0.03685829043388367,0.038012005388736725
1772812378735255800,9.314255859375,-0.0731821060180664,0.0472988486289978,0.03911305218935013
1772812378744956700,9.323956787109376,-0.0954122543334961,0.04650506377220154,0.07366208732128143
1772812378754657300,9.3336572265625,-0.05611228942871094,0.004371613264083862,0.10151856392621994
1772812378764358100,9.343358154296874,-0.061031341552734375,-0.057810455560684204,0.11416121572256088
1772812378774058800,9.353058837890625,-0.0388336181640625,-0.09012717008590698,0.1277957558631897
1772812378783759600,9.362759521484374,-0.053473472595214844,0.0029321610927581787,0.14273801445960999
1772812378793460500,9.37246044921875,-0.04313468933105469,-0.0014470219612121582,0.15460975468158722
1772812378803161000,9.3821611328125,-0.06939506530761719,-0.04352039098739624,0.12727390229701996
1772812378812862000,9.391862060546876,-0.10692310333251953,-0.041832149028778076,0.11727620661258698
1772812378822562800,9.401562744140625,-0.08495044708251953,-0.005698829889297485,0.09614818543195724
1772812378832263700,9.411263671875,-0.052703857421875,0.025374293327331543,0.07095301896333694
1772812378841964300,9.42096435546875,-0.0056610107421875,0.02967017889022827,0.03126067668199539
1772812378851665200,9.4306650390625,0.03354835510253906,0.025440752506256104,-0.0002591833472251892
1772812378861365800,9.44036572265625,0.06149864196777344,0.035594671964645386,-0.06043928861618042
1772812378871066600,9.450066650390625,0.08661174774169922,0.03977975249290466,-0.10610844939947128
1772812378880767500,9.459767578125,0.08185863494873047,0.042743951082229614,-0.1352514922618866
1772812378890468000,9.469468017578125,0.048911094665527344,0.01643851399421692,-0.13976916670799255
1772812378900169000,9.4791689453125,0.010624885559082031,-0.015338718891143799,-0.10838334262371063
1772812378909869800,9.488869873046875,0.06592655181884766,-0.019330710172653198,-0.07455943524837494
1772812378919570400,9.4985703125,0.04025077819824219,-0.05836611986160278,-0.08099379390478134
1772812378929271300,9.508271240234375,0.03380393981933594,-0.07370072603225708,-0.1551288664340973
1772812378938972000,9.517971923828124,0.06627464294433594,0.005062967538833618,-0.15257231891155243
1772812378948672800,9.5276728515625,0.04290294647216797,0.041145890951156616,-0.11704442650079727
1772812378958373600,9.53737353515625,0.01992034912109375,0.009458988904953003,-0.10144325345754623
1772812378968074500,9.547074462890626,0.005553245544433594,-0.01015743613243103,-0.13280922174453735
1772812378977775000,9.556775146484375,-0.010873794555664062,0.05608552694320679,-0.1569332480430603
1772812378987476000,9.56647607421875,-0.028125762939453125,0.09202912449836731,-0.13437673449516296
1772812378997176600,9.576176513671875,-0.06266307830810547,0.03576391935348511,-0.07352495938539505
1772812379006877400,9.58587744140625,-0.07303428649902344,-0.030339539051055908,-0.03085816651582718
1772812379016578300,9.595578369140625,-0.07965278625488281,-0.06275820732116699,-0.016205735504627228
1772812379026279000,9.60527880859375,-0.028491973876953125,-0.03909027576446533,0.014830566942691803
1772812379035979800,9.614979736328126,0.04065227508544922,-0.011201024055480957,0.013015851378440857
1772812379045680600,9.6246806640625,0.015666961669921875,0.020083636045455933,0.06346815079450607
1772812379055381200,9.63438134765625,0.14279460906982422,0.002481400966644287,0.08787792176008224
1772812379065082000,9.64408203125,0.1358642578125,-0.05511951446533203,0.10854259878396988
1772812379074782700,9.65378271484375,0.22179698944091797,-0.10071343183517456,0.1260288953781128
1772812379084483600,9.663483642578125,0.32489871978759766,-0.09288454055786133,0.06836557388305664
1772812379094184400,9.673184326171874,0.3508415222167969,-0.04429185390472412,0.012476637959480286
1772812379103885000,9.682885009765625,0.36568546295166016,0.04075923562049866,-0.07144767045974731
1772812379113586000,9.6925859375,0.2555522918701172,0.08156716823577881,-0.12597744166851044
1772812379123286800,9.702286865234376,0.1531696319580078,0.06442469358444214,-0.1290261298418045
1772812379132987400,9.7119873046875,0.05843925476074219,0.03074774146080017,-0.1771632730960846
1772812379142688300,9.721688232421876,-0.051115989685058594,0.025488585233688354,-0.21277233958244324
1772812379152388900,9.731388916015625,-0.16226863861083984,-0.01800614595413208,-0.1765647530555725
1772812379162089700,9.74108984375,-0.22555065155029297,-0.0032917559146881104,-0.12728027999401093
1772812379171790600,9.75079052734375,-0.28531742095947266,-0.01877114176750183,-0.1220245510339737
1772812379181491500,9.760491455078125,-0.29811859130859375,-0.02402636408805847,-0.03215564042329788
1772812379191192000,9.770192138671876,-0.25890159606933594,-0.04696586728096008,0.005045540630817413
1772812379200893000,9.779892822265625,-0.18152332305908203,-0.031555384397506714,0.04307391494512558
1772812379210593500,9.789593505859376,-0.11725807189941406,0.0006105303764343262,0.05170042812824249
1772812379220294400,9.79929443359375,-0.06239128112792969,0.060136497020721436,0.0679430142045021
1772812379229995300,9.808995361328124,0.030325889587402344,0.044374942779541016,0.08090384304523468
1772812379239696000,9.81869580078125,0.04262828826904297,0.0630635917186737,0.09441594034433365
1772812379249396700,9.828396728515624,0.011205673217773438,0.06034332513809204,0.12262538820505142
1772812379259097600,9.83809765625,0.02033233642578125,0.015734046697616577,0.06640507280826569
1772812379268798200,9.847798095703125,-0.06833457946777344,0.01938113570213318,0.040744416415691376
1772812379278499000,9.8574990234375,-0.07193183898925781,0.01830422878265381,0.038389816880226135
1772812379288199700,9.86719970703125,-0.05067253112792969,0.04470822215080261,0.0323355495929718
1772812379297900500,9.876900634765626,-0.1120595932006836,0.07082405686378479,0.034773506224155426
1772812379307601400,9.886601318359375,-0.0982370376586914,0.11318859457969666,0.07448558509349823
1772812379317302000,9.896302001953124,-0.062302589416503906,0.10907420516014099,0.11479651927947998
1772812379327003000,9.9060029296875,0.008315086364746094,0.09424716234207153,0.18071520328521729
1772812379336703700,9.915703857421875,0.13061141967773438,0.07223466038703918,0.19241659343242645
1772812379346404600,9.925404541015626,0.07549476623535156,0.06890168786048889,0.19218502938747406
1772812379356105200,9.935105224609375,0.12364673614501953,0.08972415328025818,0.09607663750648499
1772812379365806000,9.94480615234375,0.05333137512207031,0.11579909920692444,0.0405961275100708
1772812379375506700,9.954506591796875,0.013640403747558594,0.0739932656288147,0.044682592153549194
1772812379385207600,9.96420751953125,-0.021834373474121094,-0.0027438998222351074,0.035609468817710876
1772812379394908200,9.973908203125,-0.06850528717041016,-0.03917974233627319,0.027750074863433838
1772812379404609000,9.983609130859374,-0.05204010009765625,-0.05355119705200195,0.03466610610485077
1772812379414310000,9.993309814453125,-0.033499717712402344,-0.07035115361213684,-0.006342709064483643
1772812379424010800,10.0030107421875,-0.052936553955078125,-0.07678622007369995,-0.05264461040496826
1772812379433711400,10.01271142578125,-0.08971309661865234,-0.06831112504005432,-0.04097682982683182
1772812379443412200,10.022412109375,-0.09292316436767578,-0.06940150260925293,-0.10949024558067322
1772812379453112800,10.03211279296875,-0.16434001922607422,-0.06011921167373657,-0.10145172476768494
1772812379462813700,10.041813720703125,-0.16751480102539062,-0.08739542961120605,-0.04568549245595932
1772812379472514600,10.0515146484375,-0.10941028594970703,-0.11931252479553223,-0.012978136539459229
1772812379482215200,10.061215087890625,-0.04985618591308594,-0.055274516344070435,-0.05500058829784393
1772812379491916000,10.070916015625,-0.038268089294433594,-0.0024011433124542236,-0.0638093501329422
1772812379501617000,10.080616943359376,0.08971023559570312,0.04207324981689453,-0.059683658182621
1772812379511317500,10.0903173828125,0.11086463928222656,0.07688412070274353,-0.04409889876842499
1772812379521018400,10.100018310546876,0.1610565185546875,0.0789860188961029,0.007128223776817322
1772812379530719000,10.109718994140625,0.22090530395507812,0.04753214120864868,0.026434078812599182
1772812379540419800,10.119419921875,0.24080753326416016,0.04225704073905945,0.04732178896665573
1772812379550120700,10.12912060546875,0.2626008987426758,0.02344629168510437,0.02117741107940674
1772812379559821300,10.1388212890625,0.20980358123779297,0.03542187809944153,0.0049965232610702515
1772812379569522200,10.148522216796875,0.0872335433959961,0.005800068378448486,0.02885480225086212
1772812379579223000,10.15822314453125,0.02553844451904297,-0.03754782676696777,0.0233624204993248
1772812379588923600,10.167923583984376,-0.09391117095947266,-0.055779337882995605,0.018248550593852997
1772812379598624500,10.17762451171875,-0.1724376678466797,-0.0492590069770813,-0.018923319876194
1772812379608325000,10.1873251953125,-0.2412424087524414,0.019393056631088257,-0.05761291831731796
1772812379618026000,10.19702587890625,-0.24631786346435547,0.12341916561126709,-0.057867616415023804
1772812379627726800,10.206726806640624,-0.2734842300415039,0.12643805146217346,0.034948959946632385
1772812379637427700,10.216427734375,-0.17297744750976562,0.09746620059013367,0.1475180834531784
1772812379647128300,10.22612841796875,0.041205406188964844,0.12873148918151855,0.21170654892921448
1772812379656829200,10.2358291015625,0.1763172149658203,0.06297650933265686,0.3267286419868469
1772812379666529800,10.24552978515625,0.39118289947509766,0.029474705457687378,0.33814096450805664
