time,seconds_elapsed,z,y,x
1772812380898527700,0.09052783203125,-0.12011128664016724,0.057955797761678696,0.05199986323714256
1772812380917929200,0.10992919921875,-0.05169443041086197,0.09185878932476044,-0.004810560029000044
1772812380927630000,0.119630126953125,-0.05413788929581642,0.10499238222837448,-0.05826122686266899
1772812380937330700,0.12933056640625,-0.06788235157728195,0.09246965497732162,-0.08575014024972916
1772812380947031600,0.139031494140625,-0.08407026529312134,0.09308052062988281,-0.08605557680130005
1772812380956732400,0.148732421875,-0.0758235901594162,0.08666644245386124,-0.07903063297271729
1772812380966433000,0.15843310546875,-0.04405862092971802,0.07047852128744125,-0.07108938694000244
1772812380976134000,0.1681337890625,0.0017562361899763346,0.05734493210911751,-0.06192641705274582
1772812380985834500,0.17783447265625,0.03871355578303337,0.05581776797771454,-0.0423787422478199
1772812380995535400,0.187535400390625,0.046654798090457916,0.05001455545425415,-0.025274530053138733
1772812381005236200,0.197236328125,0.03260490670800209,0.02496909722685814,-0.013362666592001915
1772812381014936800,0.206936767578125,0.012446369975805283,-0.0025198173243552446,0.0019089524867013097
1772812381024637700,0.2166376953125,0.0017562361899763346,-0.008323032408952713,0.013820815831422806
1772812381034338600,0.226338623046875,0.00847574882209301,-0.014431680552661419,0.015042545273900032
1772812381044039200,0.2360390625,0.023747367784380913,-0.00923932995647192,0.01107192412018776
1772812381053740000,0.245739990234375,0.03657552972435951,-0.005268708802759647,-0.00022907429956831038
1772812381063440600,0.255440673828125,0.042073313146829605,-0.004657844081521034,-0.012446369975805283
1772812381073141500,0.2651416015625,0.0371863916516304,-0.00007635809743078426,-0.018860450014472008
1772812381082842400,0.27484228515625,0.02741255611181259,0.002672533504664898,-0.018555017188191414
1772812381092543000,0.28454296875,0.018555017188191414,0.012446369975805283,-0.00847574882209301
1772812381102243800,0.294243896484375,0.012446369975805283,0.02130390889942646,0.0058795735239982605
1772812381111944700,0.30394482421875,0.011530072428286076,0.013668099418282509,0.020540328696370125
1772812381121645300,0.313645263671875,0.013362666592001915,0.001450803829357028,0.038560837507247925
1772812381131346200,0.32334619140625,0.01000291109085083,-0.0016035200096666813,0.052916161715984344
1772812381141046800,0.333046875,0.001450803829357028,-0.007101302966475487,0.05688678100705147
1772812381150747600,0.34274755859375,-0.004963276442140341,-0.0022143847309052944,0.04741837829351425
1772812381160448500,0.352448486328125,-0.008933897130191326,0.013057234697043896,0.030925029888749123
1772812381170149000,0.362149169921875,-0.011682788841426373,0.029856016859412193,0.014431680552661419
1772812381179850000,0.37185009765625,-0.01107192412018776,0.03168861195445061,-0.003283398225903511
1772812381189550800,0.38155078125,-0.004963276442140341,0.022525638341903687,-0.01824958436191082
1772812381199251500,0.39125146484375,0.0023671009112149477,0.022525638341903687,-0.023747367784380913
1772812381208952300,0.400952392578125,0.004199695307761431,0.015500693581998348,-0.024052800610661507
1772812381218653000,0.41065283203125,0.001450803829357028,0.008781181648373604,-0.016416991129517555
1772812381228353800,0.420353759765625,-0.008323032408952713,0.004505127668380737,-0.0066431546583771706
1772812381238054700,0.4300546875,-0.01626427471637726,0.00022907429956831038,0.007101302966475487
1772812381247755300,0.43975537109375,-0.019929463043808937,0.007254019379615784,0.01779143698513508
1772812381257456000,0.4494560546875,-0.014431680552661419,0.00603228947147727,0.018096869811415672
1772812381267157000,0.459156982421875,-0.008323032408952713,-0.0006872228696011007,0.008628465235233307
1772812381276857600,0.468857666015625,-0.005268708802759647,0.004810560029000044,-0.004199695307761431
1772812381286558500,0.478558349609375,-0.002825249684974551,0.02649625949561596,-0.00755945174023509
1772812381296259000,0.488259033203125,-0.003741546766832471,0.0322994738817215,-0.006948587018996477
1772812381305960000,0.4979599609375,-0.004657844081521034,0.015806125476956367,-0.002061668550595641
1772812381315660800,0.507660888671875,0.00022907429956831038,0.004810560029000044,0.006490438245236874
1772812381325361400,0.517361328125,0.013668099418282509,0.003894262947142124,0.017486004158854485
1772812381335062300,0.527062255859375,0.02130390889942646,0.009086613543331623,0.026038112118840218
1772812381344763100,0.53676318359375,0.01183550525456667,0.0023671009112149477,0.026038112118840218
1772812381354463700,0.546463623046875,-0.00038179047987796366,-0.004352411720901728,0.019013166427612305
1772812381364164600,0.55616455078125,-0.00679587060585618,-0.00038179047987796366,0.012904518283903599
1772812381373865200,0.565865234375,-0.01565340906381607,-0.007101302966475487,0.004657844081521034
1772812381383566000,0.575566162109375,-0.019624030217528343,-0.014737112447619438,-0.008781181648373604
1772812381393267000,0.585266845703125,-0.011988221667706966,-0.0031306820455938578,-0.0191658828407526
1772812381402967600,0.594967529296875,-0.004046979360282421,0.009697478264570236,-0.030772313475608826
1772812381412668400,0.60466845703125,0.003894262947142124,0.020998476073145866,-0.03321577236056328
1772812381422369300,0.614369384765625,0.01030834298580885,0.022525638341903687,-0.02130390889942646
1772812381432070000,0.62406982421875,0.004505127668380737,0.009697478264570236,-0.0005345066892914474
1772812381441770800,0.633770751953125,-0.00923932995647192,-0.003741546766832471,0.02390008419752121
1772812381451471400,0.643471435546875,-0.018096869811415672,-0.008628465235233307,0.04558578506112099
1772812381461172200,0.653172119140625,-0.021456625312566757,-0.006185005884617567,0.05688678100705147
1772812381470873000,0.662873046875,-0.01565340906381607,-0.004046979360282421,0.0501672700047493
1772812381480573700,0.67257373046875,-0.0022143847309052944,0.007254019379615784,0.031230462715029716
1772812381490274600,0.682274658203125,0.010613775812089443,0.025579962879419327,0.007101302966475487
1772812381499975400,0.691975341796875,0.01611155830323696,0.028328854590654373,-0.015806125476956367
1772812381509676000,0.701676025390625,0.012751801870763302,0.015195261687040329,-0.03413207083940506
1772812381519377000,0.711376953125,0.012446369975805283,-0.0025198173243552446,-0.049709122627973557
1772812381529077500,0.721077392578125,0.015806125476956367,-0.019013166427612305,-0.058566659688949585
1772812381538778400,0.7307783203125,0.014889828860759735,-0.025121813639998436,-0.06039925664663315
1772812381548479200,0.740479248046875,0.009086613543331623,-0.02176205813884735,-0.053374309092760086
1772812381558179800,0.750179931640625,0.0023671009112149477,-0.015958841890096664,-0.04451677203178406
1772812381567880700,0.759880615234375,0.00022907429956831038,-0.008017600513994694,-0.035964664071798325
1772812381577581600,0.76958154296875,-0.0009926552884280682,-0.0019089524867013097,-0.02893971838057041
1772812381587282200,0.7792822265625,-0.004963276442140341,-0.0031306820455938578,-0.021609341725707054
1772812381596983000,0.788983154296875,-0.007406735327094793,-0.0031306820455938578,-0.015500693581998348
1772812381606683600,0.79868359375,-0.007101302966475487,0.0005345066892914474,-0.010613775812089443
1772812381616384500,0.808384521484375,-0.0058795735239982605,0.007864884100854397,-0.002672533504664898
1772812381626085400,0.81808544921875,-0.008323032408952713,0.0057268571108579636,0.00007635809743078426
1772812381635786000,0.827785888671875,-0.008933897130191326,0.002061668550595641,0.004963276442140341
1772812381645486800,0.83748681640625,-0.006490438245236874,-0.0077121676877141,0.005574141163378954
1772812381655187700,0.847187744140625,-0.004046979360282421,-0.019013166427612305,0.004046979360282421
1772812381664888300,0.856888427734375,-0.0006872228696011007,-0.02023489587008953,-0.003283398225903511
1772812381674589200,0.866589111328125,0.006948587018996477,-0.016569707542657852,-0.012140937149524689
1772812381684289800,0.876289794921875,0.014278964139521122,-0.002825249684974551,-0.020998476073145866
1772812381693990700,0.88599072265625,0.012751801870763302,0.004199695307761431,-0.023136503994464874
1772812381703691500,0.89569140625,0.005421424750238657,-0.00038179047987796366,-0.015500693581998348
1772812381713392000,0.90539208984375,-0.0031306820455938578,-0.00679587060585618,0.0019089524867013097
1772812381723093000,0.915093017578125,-0.008628465235233307,-0.015347977168858051,0.013820815831422806
1772812381732793900,0.9247939453125,-0.008933897130191326,-0.021151192486286163,0.023594651371240616
1772812381742494500,0.934494384765625,-0.00923932995647192,-0.014431680552661419,0.029703300446271896
1772812381752195300,0.9441953125,-0.01107192412018776,-0.010155626572668552,0.028176138177514076
1772812381761896000,0.95389599609375,-0.012904518283903599,-0.010766491293907166,0.016875140368938446
1772812381771596800,0.9635966796875,-0.013820815831422806,-0.005574141163378954,0.0034361144062131643
1772812381781297700,0.973297607421875,-0.016875140368938446,-0.008628465235233307,-0.008170315995812416
1772812381790998300,0.982998291015625,-0.019013166427612305,-0.018402300775051117,-0.018860450014472008
1772812381800699100,0.99269921875,-0.018402300775051117,-0.031841326504945755,-0.02741255611181259
1772812381810400000,1.00239990234375,-0.015347977168858051,-0.033368486911058426,-0.026190826669335365
1772812381820100600,1.0121005859375,-0.01718057133257389,-0.01565340906381607,-0.014889828860759735
1772812381829801500,1.021801513671875,-0.02176205813884735,-0.011377356946468353,-0.004810560029000044
1772812381839502000,1.031502197265625,-0.026648975908756256,-0.017486004158854485,0.008323032408952713
1772812381849203000,1.041202880859375,-0.023594651371240616,-0.01779143698513508,0.01259908638894558
1772812381858903800,1.05090380859375,-0.010766491293907166,-0.0034361144062131643,0.014431680552661419
1772812381868604400,1.0606044921875,-0.0009926552884280682,0.0057268571108579636,0.013820815831422806
1772812381878305300,1.07030517578125,-0.0016035200096666813,0.0011453714687377214,0.015347977168858051
1772812381888006100,1.080006103515625,-0.007406735327094793,-0.004352411720901728,0.020540328696370125
1772812381897706800,1.089706787109375,-0.014431680552661419,-0.003741546766832471,0.02695440873503685
1772812381907407600,1.09940771484375,-0.024205517023801804,-0.00679587060585618,0.027870705351233482
1772812381917108200,1.109108154296875,-0.02390008419752121,-0.012904518283903599,0.01626427471637726
1772812381926809000,1.11880908203125,-0.00923932995647192,-0.022983787581324577,0.0009926552884280682
1772812381936510000,1.128510009765625,0.014278964139521122,-0.03550651669502258,-0.023747367784380913
1772812381946210600,1.13821044921875,0.03535379841923714,-0.04192059487104416,-0.04604393243789673
1772812381955911400,1.147911376953125,0.04634936526417732,-0.03153589367866516,-0.06131555140018463
1772812381965612300,1.1576123046875,0.0423787422478199,-0.00679587060585618,-0.05673406645655632
1772812381975313000,1.16731298828125,0.028328854590654373,0.015806125476956367,-0.030161447823047638
1772812381985013800,1.177013671875,0.01000291109085083,0.013973532244563103,0.01107192412018776
1772812381994714600,1.186714599609375,0.002061668550595641,-0.0012980876490473747,0.050778135657310486
1772812382004415200,1.196415283203125,0.00755945174023509,-0.016875140368938446,0.07521272450685501
1772812382014115800,1.20611572265625,0.01611155830323696,-0.02084576152265072,0.07979421317577362
1772812382023816700,1.215816650390625,0.020082179456949234,-0.014126247726380825,0.06940951198339462
1772812382033517600,1.225517578125,0.015806125476956367,-0.0006872228696011007,0.05230529606342316
1772812382052919000,1.2449189453125,-0.002825249684974551,0.00755945174023509,0.021151192486286163
1772812382062620000,1.254619873046875,-0.012293653562664986,-0.005268708802759647,0.0058795735239982605
1772812382072320800,1.26432080078125,-0.01779143698513508,-0.008628465235233307,-0.00847574882209301
1772812382082021400,1.274021484375,-0.022678354755043983,0.0005345066892914474,-0.01672242395579815
1772812382091722000,1.283721923828125,-0.03000873140990734,0.0057268571108579636,-0.017027854919433594
1772812382101422800,1.2934228515625,-0.0345902182161808,-0.00007635809743078426,-0.016416991129517555
1772812382111123700,1.303123779296875,-0.03061959706246853,-0.006185005884617567,-0.01824958436191082
1772812382120824600,1.312824462890625,-0.025121813639998436,-0.0022143847309052944,-0.013973532244563103
1772812382130525200,1.322525146484375,-0.02390008419752121,-0.0034361144062131643,-0.004810560029000044
1772812382140226000,1.33222607421875,-0.026343543082475662,-0.01565340906381607,-0.00022907429956831038
1772812382149927000,1.341927001953125,-0.025121813639998436,-0.01718057133257389,-0.002672533504664898
1772812382159627500,1.35162744140625,-0.024205517023801804,-0.003741546766832471,-0.00755945174023509
1772812382169328000,1.361328125,-0.028176138177514076,0.007864884100854397,-0.012751801870763302
1772812382179029000,1.371029052734375,-0.03367391973733902,0.015806125476956367,-0.014584396965801716
1772812382188729900,1.380729736328125,-0.03733910992741585,0.02802342176437378,-0.00511599238961935
1772812382198430500,1.390430419921875,-0.040088001638650894,0.030772313475608826,0.0077121676877141
1772812382208131300,1.40013134765625,-0.038560837507247925,0.017944153398275375,0.018402300775051117
1772812382217832200,1.409832275390625,-0.030314164236187935,-0.0025198173243552446,0.026343543082475662
1772812382227532800,1.41953271484375,-0.0193185992538929,-0.012904518283903599,0.022678354755043983
1772812382237233700,1.429233642578125,-0.007101302966475487,-0.00954476185142994,0.013820815831422806
1772812382246934300,1.438934326171875,0.003283398225903511,-0.0012980876490473747,0.0058795735239982605
1772812382256635100,1.44863525390625,0.009086613543331623,0.008170315995812416,-0.0029779658652842045
1772812382266336000,1.4583359375,0.013668099418282509,0.012751801870763302,-0.010613775812089443
1772812382276036600,1.46803662109375,0.01611155830323696,0.00511599238961935,-0.013362666592001915
1772812382285737500,1.477737548828125,0.006948587018996477,-0.005268708802759647,-0.01183550525456667
1772812382295438300,1.487438232421875,-0.00007635809743078426,-0.011682788841426373,-0.01000291109085083
1772812382305139000,1.497138916015625,-0.0025198173243552446,-0.01259908638894558,-0.002061668550595641
1772812382314839800,1.50683984375,-0.004963276442140341,-0.013820815831422806,0.0006872228696011007
1772812382324540400,1.51654052734375,-0.0031306820455938578,-0.010766491293907166,0.0012980876490473747
1772812382334241300,1.5262412109375,0.0029779658652842045,0.0005345066892914474,0.00679587060585618
1772812382343942100,1.535942138671875,0.01030834298580885,-0.0006872228696011007,0.011682788841426373
1772812382353642800,1.545642822265625,0.013057234697043896,-0.0022143847309052944,0.019013166427612305
1772812382363343600,1.555343505859375,0.01000291109085083,0.005421424750238657,0.028176138177514076
1772812382373044500,1.56504443359375,0.004810560029000044,0.012751801870763302,0.037949975579977036
1772812382382745000,1.5747451171875,0.0011453714687377214,0.013057234697043896,0.04802924394607544
1772812382392446000,1.584446044921875,0.0017562361899763346,0.011530072428286076,0.05719221383333206
1772812382402146600,1.594146484375,0.003894262947142124,0.001450803829357028,0.05933023989200592
1772812382411847400,1.603847412109375,0.0011453714687377214,-0.012904518283903599,0.05047270283102989
1772812382421548300,1.61354833984375,-0.0034361144062131643,-0.017486004158854485,0.030314164236187935
1772812382431249000,1.623248779296875,-0.008933897130191326,-0.008933897130191326,0.006185005884617567
1772812382440949800,1.63294970703125,-0.014126247726380825,0.006337722297757864,-0.021609341725707054
1772812382450650600,1.642650634765625,-0.013820815831422806,0.012140937149524689,-0.04482220485806465
1772812382460351200,1.652351318359375,-0.008017600513994694,0.002672533504664898,-0.0576503649353981
1772812382470052000,1.662052001953125,-0.00007635809743078426,-0.010766491293907166,-0.05673406645655632
1772812382479752700,1.671752685546875,0.00511599238961935,-0.02328922040760517,-0.05306887626647949
1772812382489453600,1.68145361328125,0.00847574882209301,-0.027870705351233482,-0.04390590637922287
1772812382499154400,1.691154541015625,0.0057268571108579636,-0.016569707542657852,-0.030466880649328232
1772812382508855000,1.70085498046875,0.002672533504664898,-0.0016035200096666813,-0.013057234697043896
1772812382518556000,1.710555908203125,-0.0034361144062131643,0.01030834298580885,0.007101302966475487
1772812382528256800,1.7202568359375,-0.006490438245236874,0.017333287745714188,0.02756527252495289
1772812382537957400,1.729957275390625,-0.011682788841426373,0.017944153398275375,0.04650207981467247
1772812382547658200,1.739658203125,-0.01626427471637726,0.017944153398275375,0.0602465383708477
1772812382557358800,1.74935888671875,-0.01718057133257389,0.009697478264570236,0.06391172856092453
1772812382567059700,1.759059814453125,-0.013515383005142212,0.00022907429956831038,0.05566505342721939
1772812382576760300,1.76876025390625,-0.004352411720901728,-0.0077121676877141,0.033368486911058426
1772812382586461200,1.778461181640625,0.000839939049910754,-0.01565340906381607,0.008017600513994694
1772812382596162000,1.788162109375,0.00022907429956831038,-0.011988221667706966,-0.018555017188191414
1772812382605862700,1.797862548828125,0.0011453714687377214,0.0035888305865228176,-0.034437503665685654
1772812382615563500,1.8075634765625,0.0011453714687377214,0.011530072428286076,-0.041157014667987823
1772812382625264400,1.817264404296875,0.0005345066892914474,0.012751801870763302,-0.0322994738817215
1772812382634965200,1.82696533203125,0.0017562361899763346,0.0057268571108579636,-0.011530072428286076
1772812382644665900,1.836665771484375,0.00511599238961935,-0.0022143847309052944,0.011682788841426373
1772812382654366500,1.846366455078125,0.00603228947147727,-0.006185005884617567,0.03275762498378754
1772812382664067300,1.8560673828125,0.00755945174023509,-0.0077121676877141,0.04253146052360535
1772812382673768200,1.865768310546875,0.01183550525456667,-0.008628465235233307,0.04069886729121208
1772812382683468800,1.87546875,0.012140937149524689,-0.0077121676877141,0.029397867619991302
1772812382693169700,1.885169677734375,0.009392046369612217,-0.007406735327094793,0.010766491293907166
1772812382702870500,1.89487060546875,0.006337722297757864,-0.0019089524867013097,-0.0066431546583771706
1772812382712571100,1.904571044921875,0.002061668550595641,0.013362666592001915,-0.01672242395579815
1772812382722272000,1.91427197265625,-0.005574141163378954,0.023747367784380913,-0.015806125476956367
1772812382731972600,1.92397265625,-0.01565340906381607,0.0295505840331316,-0.010613775812089443
1772812382741673500,1.933673583984375,-0.022983787581324577,0.03168861195445061,-0.0017562361899763346
1772812382751374300,1.943374267578125,-0.025732679292559624,0.024052800610661507,0.00954476185142994
1772812382761075000,1.953074951171875,-0.02390008419752121,0.009392046369612217,0.011988221667706966
1772812382770775800,1.96277587890625,-0.01565340906381607,0.002061668550595641,0.004046979360282421
1772812382780476700,1.9724765625,-0.004046979360282421,0.00755945174023509,-0.013057234697043896
1772812382790177300,1.98217724609375,0.007864884100854397,0.014278964139521122,-0.0243582334369421
1772812382799878100,1.991878173828125,0.01183550525456667,0.012446369975805283,-0.028634287416934967
1772812382809578800,2.001578857421875,0.00755945174023509,0.00603228947147727,-0.014889828860759735
1772812382819279600,2.011279541015625,-0.0016035200096666813,-0.0012980876490473747,0.009850194677710533
1772812382828980500,2.02098046875,-0.009850194677710533,-0.013515383005142212,0.034895651042461395
1772812382838681000,2.03068115234375,-0.01870773360133171,-0.024816380813717842,0.04558578506112099
1772812382848382000,2.0403818359375,-0.024205517023801804,-0.020540328696370125,0.03428478538990021
1772812382858082800,2.050082763671875,-0.01565340906381607,0.011530072428286076,0.018096869811415672
1772812382867783400,2.059783447265625,-0.00679587060585618,0.0423787422478199,0.0025198173243552446
1772812382877484300,2.069484375,-0.007101302966475487,0.04634936526417732,-0.0005345066892914474
1772812382887185000,2.079184814453125,-0.013820815831422806,0.03535379841923714,0.0025198173243552446
1772812382896885800,2.0888857421875,-0.022983787581324577,0.021914774551987648,0.010155626572668552
1772812382906586400,2.09858642578125,-0.02909243479371071,0.010919207707047462,0.016875140368938446
1772812382916287200,2.108287353515625,-0.024205517023801804,0.0057268571108579636,0.016875140368938446
1772812382925988000,2.117988037109375,-0.012904518283903599,0.0017562361899763346,0.008628465235233307
1772812382935688700,2.127688720703125,-0.00679587060585618,0.004199695307761431,-0.0017562361899763346
1772812382955090400,2.14709033203125,-0.017486004158854485,0.0023671009112149477,-0.022525638341903687
1772812382964791000,2.156791015625,-0.02084576152265072,-0.005268708802759647,-0.034437503665685654
1772812382974492000,2.166491943359375,-0.015347977168858051,-0.013515383005142212,-0.042073313146829605
1772812382984192500,2.176192626953125,-0.0012980876490473747,-0.022983787581324577,-0.04909825697541237
1772812382993893400,2.185893310546875,0.013668099418282509,-0.022983787581324577,-0.0524580143392086
1772812383003594200,2.19559423828125,0.0191658828407526,-0.012293653562664986,-0.04787652567028999
1772812383013294800,2.205294921875,0.016416991129517555,0.0017562361899763346,-0.0371863916516304
1772812383022995700,2.21499560546875,0.004810560029000044,0.019471315667033195,-0.014278964139521122
1772812383032696600,2.224696533203125,-0.009850194677710533,0.023136503994464874,0.008323032408952713
1772812383042397200,2.234397216796875,-0.01565340906381607,0.023747367784380913,0.027870705351233482
1772812383052098000,2.24409814453125,-0.011682788841426373,0.014889828860759735,0.03367391973733902
1772812383061798700,2.253798583984375,-0.008628465235233307,0.0005345066892914474,0.03428478538990021
1772812383071499500,2.26349951171875,-0.004657844081521034,0.0057268571108579636,0.0345902182161808
1772812383081200400,2.273200439453125,-0.00038179047987796366,0.016416991129517555,0.03581194952130318
1772812383090901000,2.28290087890625,-0.0016035200096666813,0.017333287745714188,0.03428478538990021
1772812383100601900,2.292601806640625,-0.0009926552884280682,0.01672242395579815,0.03581194952130318
1772812383110302700,2.302302734375,-0.0025198173243552446,0.008170315995812416,0.036422811448574066
1772812383120003300,2.31200341796875,-0.004352411720901728,-0.008323032408952713,0.0345902182161808
1772812383129704200,2.3217041015625,-0.0016035200096666813,-0.022983787581324577,0.02695440873503685
1772812383139404800,2.33140478515625,0.00022907429956831038,-0.03245219215750694,0.013515383005142212
1772812383149105700,2.341105712890625,-0.004657844081521034,-0.033979352563619614,-0.0023671009112149477
1772812383158806300,2.35080615234375,-0.01870773360133171,-0.02695440873503685,-0.018860450014472008
1772812383168507100,2.360507080078125,-0.034895651042461395,-0.008323032408952713,-0.03321577236056328
1772812383178208000,2.3702080078125,-0.04558578506112099,0.017333287745714188,-0.041157014667987823
1772812383187908600,2.37990869140625,-0.054443322122097015,0.029856016859412193,-0.043600473552942276
1772812383197609500,2.389609375,-0.05261072888970375,0.02283107116818428,-0.03871355578303337
1772812383207310300,2.399310302734375,-0.04253146052360535,0.004810560029000044,-0.027107125148177147
1772812383217011000,2.409010986328125,-0.03153589367866516,-0.011682788841426373,-0.012446369975805283
1772812383226711800,2.4187119140625,-0.022678354755043983,-0.015042545273900032,-0.0011453714687377214
1772812383236412400,2.428412353515625,-0.021151192486286163,-0.008323032408952713,0.00923932995647192
1772812383246113300,2.43811328125,-0.02390008419752121,0.006948587018996477,0.0193185992538929
1772812383255814100,2.447814208984375,-0.026648975908756256,0.023441936820745468,0.02909243479371071
1772812383265514800,2.4575146484375,-0.019929463043808937,0.025274530053138733,0.03764454275369644
1772812383275215600,2.467215576171875,-0.008628465235233307,0.018555017188191414,0.04253146052360535
1772812383284916500,2.47691650390625,0.00603228947147727,0.011224640533328056,0.04253146052360535
1772812383294617000,2.4866171875,0.014889828860759735,0.000839939049910754,0.03733910992741585
1772812383304318000,2.49631787109375,0.018555017188191414,-0.0016035200096666813,0.029703300446271896
1772812383314018600,2.5060185546875,0.01977674663066864,-0.00007635809743078426,0.02390008419752121
1772812383323719400,2.515719482421875,0.016416991129517555,-0.007101302966475487,0.016875140368938446
1772812383333420000,2.525419921875,0.01183550525456667,-0.014431680552661419,0.00923932995647192
1772812383343121000,2.535120849609375,0.014889828860759735,-0.019624030217528343,0.0006872228696011007
1772812383352821800,2.54482177734375,0.020387612283229828,-0.01779143698513508,-0.012140937149524689
1772812383362522400,2.5545224609375,0.020998476073145866,-0.010155626572668552,-0.017027854919433594
1772812383372223200,2.56422314453125,0.021609341725707054,-0.002825249684974551,-0.0191658828407526
1772812383381924000,2.573924072265625,0.019471315667033195,0.003894262947142124,-0.015806125476956367
1772812383391624700,2.583624755859375,0.017333287745714188,0.0057268571108579636,-0.004199695307761431
1772812383401325600,2.59332568359375,0.014278964139521122,0.005421424750238657,0.01565340906381607
1772812383411026200,2.603026123046875,0.0057268571108579636,-0.008323032408952713,0.03367391973733902
1772812383420727000,2.61272705078125,-0.0016035200096666813,-0.010461059398949146,0.05261072888970375
1772812383430428000,2.622427978515625,-0.002825249684974551,0.0035888305865228176,0.06666062027215958
1772812383440128500,2.63212841796875,-0.0022143847309052944,0.01000291109085083,0.06879864633083344
1772812383449829400,2.641829345703125,-0.0016035200096666813,0.01183550525456667,0.06207913160324097
1772812383459530200,2.6515302734375,-0.0019089524867013097,0.00847574882209301,0.049861837178468704
1772812383469230800,2.66123095703125,-0.0031306820455938578,0.004199695307761431,0.028787001967430115
1772812383478931500,2.670931396484375,-0.007101302966475487,0.0029779658652842045,0.0058795735239982605
1772812383488632300,2.68063232421875,-0.010461059398949146,-0.00038179047987796366,-0.020387612283229828
1772812383498333200,2.690333251953125,-0.014126247726380825,-0.0006872228696011007,-0.04329504072666168
1772812383508033800,2.70003369140625,-0.01259908638894558,0.0066431546583771706,-0.05367974191904068
1772812383517734700,2.709734619140625,-0.0077121676877141,0.012446369975805283,-0.053985174745321274
1772812383527435500,2.719435546875,-0.0022143847309052944,0.010613775812089443,-0.045738499611616135
1772812383537136000,2.72913623046875,0.0023671009112149477,0.0035888305865228176,-0.023136503994464874
1772812383546837000,2.7388369140625,-0.00007635809743078426,-0.005574141163378954,0.0009926552884280682
1772812383556537600,2.74853759765625,-0.0006872228696011007,-0.010155626572668552,0.021456625312566757
1772812383566238500,2.758238525390625,0.001450803829357028,-0.0034361144062131643,0.036422811448574066
1772812383575939300,2.767939208984375,0.009697478264570236,-0.0016035200096666813,0.03367391973733902
1772812383585640000,2.777639892578125,0.021914774551987648,0.010613775812089443,0.015347977168858051
1772812383595340800,2.7873408203125,0.02802342176437378,0.023747367784380913,-0.013973532244563103
1772812383605041700,2.797041748046875,0.020082179456949234,0.02741255611181259,-0.039018988609313965
1772812383614742300,2.8067421875,0.0017562361899763346,0.02496909722685814,-0.04604393243789673
1772812383624443100,2.816443115234375,-0.02023489587008953,0.017027854919433594,-0.033826638013124466
1772812383634143700,2.826143798828125,-0.029703300446271896,0.0057268571108579636,-0.020998476073145866
1772812383643844600,2.8358447265625,-0.015042545273900032,-0.0058795735239982605,-0.009086613543331623
1772812383653545200,2.845545166015625,0.004199695307761431,-0.010155626572668552,0.006490438245236874
1772812383663246000,2.85524609375,0.014889828860759735,-0.018402300775051117,0.014126247726380825
1772812383672947000,2.864947021484375,0.02130390889942646,-0.02023489587008953,0.018402300775051117
1772812383682647600,2.8746474609375,0.028328854590654373,-0.013820815831422806,0.021151192486286163
1772812383692348400,2.884348388671875,0.03168861195445061,-0.013515383005142212,0.021151192486286163
1772812383702049300,2.89404931640625,0.03138317912817001,-0.010155626572668552,0.018402300775051117
1772812383711750000,2.90375,0.0322994738817215,-0.0016035200096666813,0.01626427471637726
1772812383721450800,2.91345068359375,0.0322994738817215,0.004810560029000044,0.01779143698513508
1772812383731151400,2.9231513671875,0.028634287416934967,0.002672533504664898,0.018096869811415672
1772812383740852200,2.932852294921875,0.02496909722685814,0.002061668550595641,0.022067490965127945
1772812383750553000,2.942552978515625,0.022525638341903687,0.0035888305865228176,0.02848157100379467
1772812383760253700,2.952253662109375,0.014889828860759735,-0.0012980876490473747,0.028787001967430115
1772812383769954600,2.96195458984375,0.01030834298580885,-0.0025198173243552446,0.031230462715029716
1772812383779655400,2.971655517578125,0.009697478264570236,0.0011453714687377214,0.02848157100379467
1772812383789356000,2.98135595703125,0.011224640533328056,0.006948587018996477,0.023594651371240616
1772812383799057000,2.991056884765625,0.012140937149524689,0.011224640533328056,0.016569707542657852
1772812383808757500,3.000757568359375,0.01183550525456667,0.01000291109085083,0.00679587060585618
1772812383818458400,3.010458251953125,0.010613775812089443,0.009392046369612217,0.004963276442140341
1772812383828159000,3.020158935546875,0.003894262947142124,0.009086613543331623,0.00954476185142994
1772812383837859800,3.02985986328125,-0.010155626572668552,-0.0012980876490473747,0.007406735327094793
1772812383847560700,3.039560791015625,-0.01718057133257389,-0.0022143847309052944,0.0031306820455938578
1772812383857261300,3.04926123046875,-0.014126247726380825,0.003283398225903511,0.00038179047987796366
1772812383866962200,3.058962158203125,-0.006185005884617567,0.0017562361899763346,-0.00511599238961935
1772812383876663000,3.0686630859375,0.004505127668380737,-0.0006872228696011007,-0.009392046369612217
1772812383886363600,3.07836376953125,0.013362666592001915,-0.0009926552884280682,-0.011224640533328056
1772812383896064500,3.088064453125,0.013362666592001915,0.006337722297757864,-0.011224640533328056
1772812383905765000,3.09776513671875,0.00603228947147727,0.013668099418282509,-0.006337722297757864
1772812383915466000,3.107466064453125,-0.0034361144062131643,0.015500693581998348,0.0034361144062131643
1772812383925166600,3.11716650390625,-0.005268708802759647,0.014889828860759735,0.009850194677710533
1772812383934867500,3.126867431640625,0.0005345066892914474,0.006948587018996477,0.016569707542657852
1772812383944568300,3.136568359375,0.0029779658652842045,-0.007406735327094793,0.01779143698513508
1772812383954269000,3.14626904296875,-0.00007635809743078426,-0.011682788841426373,0.0193185992538929
1772812383963969800,3.1559697265625,0.0011453714687377214,-0.00954476185142994,0.016569707542657852
1772812383973670700,3.165670654296875,0.00847574882209301,0.0035888305865228176,0.008323032408952713
1772812383983371300,3.175371337890625,0.015195261687040329,0.01977674663066864,-0.00022907429956831038
1772812383993072000,3.185072021484375,0.014889828860759735,0.025579962879419327,-0.002672533504664898
1772812384002772700,3.194772705078125,0.011530072428286076,0.01611155830323696,-0.0035888305865228176
1772812384012473600,3.2044736328125,0.007254019379615784,-0.0016035200096666813,-0.0011453714687377214
1772812384022174500,3.214174560546875,0.003283398225903511,-0.015958841890096664,-0.0011453714687377214
1772812384031875000,3.223875,0.0017562361899763346,-0.018402300775051117,-0.004505127668380737
1772812384041576000,3.233575927734375,0.00755945174023509,-0.007101302966475487,-0.014278964139521122
1772812384051276800,3.24327685546875,0.014889828860759735,0.009392046369612217,-0.0191658828407526
1772812384060977400,3.252977294921875,0.013973532244563103,0.016416991129517555,-0.021609341725707054
1772812384070678000,3.262677978515625,0.009086613543331623,0.017027854919433594,-0.020693045109510422
1772812384080379000,3.27237890625,0.004505127668380737,0.011530072428286076,-0.014584396965801716
1772812384090079700,3.282079833984375,-0.004046979360282421,0.000839939049910754,-0.0029779658652842045
1772812384099780400,3.2917802734375,-0.010461059398949146,-0.008017600513994694,0.008017600513994694
1772812384109481200,3.301481201171875,-0.009850194677710533,-0.008017600513994694,0.017486004158854485
1772812384119182000,3.31118212890625,-0.004352411720901728,-0.004963276442140341,0.0193185992538929
1772812384128882700,3.320882568359375,-0.0009926552884280682,-0.0016035200096666813,0.012904518283903599
1772812384148284200,3.3402841796875,0.0023671009112149477,0.007864884100854397,-0.01000291109085083
1772812384157985000,3.349985107421875,-0.00038179047987796366,0.01000291109085083,-0.0191658828407526
1772812384167685600,3.359685546875,-0.0022143847309052944,0.011530072428286076,-0.023136503994464874
1772812384177386500,3.369386474609375,-0.0022143847309052944,0.00847574882209301,-0.0191658828407526
1772812384187087400,3.37908740234375,-0.003741546766832471,-0.002825249684974551,-0.015195261687040329
1772812384196788000,3.3887880859375,-0.0016035200096666813,-0.006490438245236874,-0.013362666592001915
1772812384206488800,3.39848876953125,-0.0006872228696011007,-0.0012980876490473747,-0.012446369975805283
1772812384216189700,3.408189697265625,-0.002825249684974551,0.007864884100854397,-0.01030834298580885
1772812384225890300,3.417890380859375,-0.005268708802759647,0.015806125476956367,-0.007864884100854397
1772812384235591200,3.427591064453125,-0.006185005884617567,0.01000291109085083,-0.0029779658652842045
1772812384245291800,3.437291748046875,-0.008017600513994694,0.000839939049910754,0.002825249684974551
1772812384254992600,3.44699267578125,-0.0058795735239982605,-0.004657844081521034,0.008933897130191326
1772812384264693200,3.456693359375,-0.005268708802759647,-0.011377356946468353,0.01107192412018776
1772812384274394000,3.46639404296875,-0.004352411720901728,-0.014737112447619438,0.0058795735239982605
1772812384284095000,3.476094970703125,0.0011453714687377214,-0.010766491293907166,-0.003283398225903511
1772812384293795600,3.485795654296875,0.007254019379615784,0.000839939049910754,-0.00847574882209301
1772812384303496400,3.495496337890625,0.01030834298580885,0.0057268571108579636,-0.009697478264570236
1772812384313197300,3.505197265625,0.013973532244563103,0.007254019379615784,-0.008170315995812416
1772812384322898000,3.51489794921875,0.0191658828407526,0.012446369975805283,-0.0023671009112149477
1772812384332598800,3.524598876953125,0.014889828860759735,0.007864884100854397,0.0034361144062131643
1772812384342299400,3.53429931640625,0.008781181648373604,0.007864884100854397,0.00679587060585618
1772812384352000300,3.544000244140625,0.0017562361899763346,0.010919207707047462,0.010461059398949146
1772812384361701000,3.553701171875,-0.010155626572668552,0.01977674663066864,0.013209951110184193
1772812384371401700,3.563401611328125,-0.019013166427612305,0.02588539570569992,0.016569707542657852
1772812384381102600,3.5731025390625,-0.023594651371240616,0.01977674663066864,0.02237292192876339
1772812384390803500,3.582803466796875,-0.027870705351233482,0.003894262947142124,0.02848157100379467
1772812384400504000,3.592504150390625,-0.02695440873503685,-0.00923932995647192,0.026343543082475662
1772812384410205000,3.602204833984375,-0.02176205813884735,-0.011377356946468353,0.021151192486286163
1772812384419905500,3.611905517578125,-0.01565340906381607,-0.013820815831422806,0.011682788841426373
1772812384429606400,3.6216064453125,-0.014431680552661419,0.0005345066892914474,-0.004199695307761431
1772812384439307000,3.63130712890625,-0.008323032408952713,0.014278964139521122,-0.013668099418282509
1772812384449007900,3.6410078125,-0.003741546766832471,0.013362666592001915,-0.0191658828407526
1772812384458708700,3.650708740234375,-0.0025198173243552446,0.000839939049910754,-0.01824958436191082
1772812384468409300,3.660409423828125,-0.0016035200096666813,-0.014126247726380825,-0.009086613543331623
1772812384478110200,3.670110107421875,0.000839939049910754,-0.013820815831422806,0.0016035200096666813
1772812384487811000,3.67981103515625,0.00755945174023509,-0.0009926552884280682,0.00954476185142994
1772812384497511700,3.68951171875,0.016416991129517555,0.004199695307761431,0.01870773360133171
1772812384507212300,3.69921240234375,0.020693045109510422,0.002061668550595641,0.02756527252495289
1772812384516913200,3.7089130859375,0.020998476073145866,-0.006185005884617567,0.02909243479371071
1772812384526614000,3.718614013671875,0.016416991129517555,-0.015042545273900032,0.026648975908756256
1772812384536314600,3.728314697265625,0.008170315995812416,-0.0193185992538929,0.014737112447619438
1772812384546015500,3.738015380859375,-0.0031306820455938578,-0.015347977168858051,-0.0029779658652842045
1772812384555716400,3.74771630859375,-0.010155626572668552,-0.008017600513994694,-0.021914774551987648
1772812384565417000,3.7574169921875,-0.0077121676877141,-0.0019089524867013097,-0.0371863916516304
1772812384575117800,3.767117919921875,-0.0034361144062131643,-0.002825249684974551,-0.04085158184170723
1772812384584818400,3.776818359375,0.000839939049910754,-0.0058795735239982605,-0.03779725730419159
1772812384594519300,3.786519287109375,0.0017562361899763346,-0.0019089524867013097,-0.029856016859412193
1772812384604220000,3.796219970703125,-0.0025198173243552446,0.0017562361899763346,-0.017027854919433594
1772812384613920800,3.805920654296875,-0.006490438245236874,0.0005345066892914474,0.0009926552884280682
1772812384623621600,3.81562158203125,-0.004352411720901728,-0.00038179047987796366,0.010155626572668552
1772812384633322200,3.825322265625,0.00847574882209301,0.002672533504664898,0.01565340906381607
1772812384643023000,3.835023193359375,0.020387612283229828,0.004505127668380737,0.01259908638894558
1772812384652724000,3.844723876953125,0.022525638341903687,-0.0012980876490473747,0.007406735327094793
1772812384662424600,3.854424560546875,0.018860450014472008,-0.006490438245236874,-0.003894262947142124
1772812384672125400,3.86412548828125,0.018555017188191414,-0.0012980876490473747,-0.014278964139521122
1772812384681826000,3.873825927734375,0.018555017188191414,0.001450803829357028,-0.022220205515623093
1772812384691527000,3.88352685546875,0.013668099418282509,0.005421424750238657,-0.020693045109510422
1772812384701227500,3.8932275390625,0.009697478264570236,0.0023671009112149477,-0.016416991129517555
1772812384710928400,3.902928466796875,0.00511599238961935,-0.0031306820455938578,-0.00603228947147727
1772812384720629200,3.912629150390625,0.0011453714687377214,-0.006490438245236874,0.0022143847309052944
1772812384730329900,3.922329833984375,-0.0025198173243552446,-0.002825249684974551,0.008628465235233307
1772812384740030700,3.93203076171875,-0.005268708802759647,-0.0058795735239982605,0.014737112447619438
1772812384749731600,3.941731689453125,-0.00679587060585618,-0.007406735327094793,0.018402300775051117
1772812384759432200,3.95143212890625,-0.004657844081521034,-0.004046979360282421,0.021456625312566757
1772812384769133000,3.961133056640625,-0.005268708802759647,0.0066431546583771706,0.026038112118840218
1772812384788534500,3.980534423828125,-0.01718057133257389,0.00022907429956831038,0.04130972921848297
1772812384798235100,3.990235107421875,-0.015347977168858051,-0.019624030217528343,0.044669486582279205
1772812384807936000,3.99993603515625,-0.006490438245236874,-0.024510949850082397,0.04253146052360535
1772812384817636900,4.009636962890625,0.0035888305865228176,-0.015042545273900032,0.03275762498378754
1772812384827337500,4.01933740234375,0.006948587018996477,-0.008017600513994694,0.013209951110184193
1772812384837038300,4.029038330078125,0.0035888305865228176,-0.00007635809743078426,-0.01000291109085083
1772812384846739200,4.0387392578125,0.00603228947147727,0.009086613543331623,-0.03474293276667595
1772812384856439800,4.048439697265625,0.013057234697043896,0.018860450014472008,-0.03993528336286545
1772812384866140400,4.058140380859375,0.016416991129517555,0.013057234697043896,-0.042684175074100494
1772812384875841300,4.06784130859375,0.015195261687040329,0.006948587018996477,-0.03565923124551773
1772812384885542100,4.077542236328125,0.013057234697043896,0.01000291109085083,-0.013973532244563103
1772812384895242800,4.08724267578125,0.007864884100854397,0.002672533504664898,0.0009926552884280682
1772812384904943600,4.096943603515625,-0.0009926552884280682,-0.0077121676877141,0.012293653562664986
1772812384914644500,4.10664453125,-0.005268708802759647,-0.00954476185142994,0.02084576152265072
1772812384924345000,4.116344970703125,-0.00954476185142994,-0.005268708802759647,0.019929463043808937
1772812384934046000,4.1260458984375,-0.017486004158854485,-0.00038179047987796366,0.016875140368938446
1772812384943746600,4.13574658203125,-0.02237292192876339,0.0057268571108579636,0.008323032408952713
1772812384953447400,4.145447509765625,-0.02237292192876339,0.017333287745714188,-0.0023671009112149477
1772812384963148000,4.15514794921875,-0.016875140368938446,0.0319940410554409,-0.004505127668380737
1772812384972849000,4.164848876953125,-0.013515383005142212,0.03260490670800209,-0.005421424750238657
1772812384982549800,4.1745498046875,-0.018096869811415672,0.02130390889942646,-0.002061668550595641
1772812384992250400,4.18425048828125,-0.024205517023801804,0.01000291109085083,0.006490438245236874
1772812385001951200,4.193951171875,-0.03061959706246853,-0.0019089524867013097,0.012293653562664986
1772812385011652000,4.203652099609375,-0.02756527252495289,-0.010155626572668552,0.01259908638894558
1772812385021352700,4.213352783203125,-0.01565340906381607,-0.008933897130191326,0.006185005884617567
1772812385031053600,4.223053466796875,0.00022907429956831038,-0.0019089524867013097,-0.002672533504664898
1772812385040754200,4.232754150390625,0.00755945174023509,0.005421424750238657,-0.012751801870763302
1772812385050455000,4.242455078125,0.0023671009112149477,0.008170315995812416,-0.023441936820745468
1772812385060155600,4.25215576171875,-0.009850194677710533,0.007254019379615784,-0.03138317912817001
1772812385069856500,4.2618564453125,-0.021456625312566757,0.0029779658652842045,-0.04085158184170723
1772812385079557400,4.271557373046875,-0.02390008419752121,-0.010155626572668552,-0.048792824149131775
1772812385089258000,4.281258056640625,-0.018402300775051117,-0.013515383005142212,-0.05123628303408623
1772812385098958800,4.290958740234375,-0.008933897130191326,-0.006185005884617567,-0.05062541738152504
1772812385108659700,4.30065966796875,0.00022907429956831038,0.0035888305865228176,-0.0475710928440094
1772812385118360300,4.3103603515625,0.004199695307761431,0.007254019379615784,-0.03413207083940506
1772812385128061200,4.320061279296875,0.000839939049910754,0.002672533504664898,-0.01611155830323696
1772812385137761800,4.32976171875,-0.003741546766832471,0.003283398225903511,0.0058795735239982605
1772812385147462700,4.339462646484375,-0.005268708802759647,-0.0012980876490473747,0.021456625312566757
1772812385157163300,4.349163330078125,-0.0019089524867013097,-0.008323032408952713,0.03153589367866516
1772812385166864100,4.358864013671875,0.002672533504664898,-0.007101302966475487,0.03275762498378754
1772812385176565000,4.36856494140625,0.009697478264570236,0.0035888305865228176,0.024205517023801804
1772812385186265600,4.378265625,0.012446369975805283,0.014278964139521122,0.00954476185142994
1772812385195966500,4.387966552734375,0.013057234697043896,0.020998476073145866,-0.002672533504664898
1772812385205667300,4.397667236328125,0.00847574882209301,0.020082179456949234,-0.010919207707047462
1772812385215368000,4.407367919921875,0.0011453714687377214,0.011530072428286076,-0.014584396965801716
1772812385225068500,4.417068603515625,-0.005268708802759647,0.00603228947147727,-0.010919207707047462
1772812385234769400,4.426769287109375,-0.007101302966475487,-0.003741546766832471,-0.0057268571108579636
1772812385244470300,4.43647021484375,-0.00954476185142994,-0.010766491293907166,0.0016035200096666813
1772812385254171000,4.4461708984375,-0.010461059398949146,-0.015042545273900032,0.0022143847309052944
1772812385263871700,4.455871826171875,-0.008017600513994694,-0.015042545273900032,0.0022143847309052944
1772812385273572600,4.465572509765625,-0.006185005884617567,-0.004352411720901728,0.00038179047987796366
1772812385283273200,4.475273193359375,-0.0058795735239982605,0.0057268571108579636,-0.0035888305865228176
1772812385292974000,4.48497412109375,-0.004046979360282421,0.007864884100854397,-0.004810560029000044
1772812385302674700,4.4946748046875,-0.0019089524867013097,0.003894262947142124,-0.004199695307761431
1772812385312375600,4.50437548828125,0.001450803829357028,-0.0025198173243552446,-0.00022907429956831038
1772812385322076200,4.514076171875,0.0029779658652842045,-0.007101302966475487,0.006490438245236874
1772812385331777000,4.523777099609375,0.0011453714687377214,-0.007406735327094793,0.00954476185142994
1772812385341478000,4.533477783203125,-0.0031306820455938578,-0.008628465235233307,0.00923932995647192
1772812385351178500,4.543178466796875,-0.0012980876490473747,-0.010461059398949146,0.0012980876490473747
1772812385360879400,4.55287939453125,0.004199695307761431,-0.0058795735239982605,-0.001450803829357028
1772812385370580000,4.562580078125,0.003283398225903511,-0.003741546766832471,-0.0057268571108579636
1772812385380280800,4.57228076171875,-0.004352411720901728,0.0005345066892914474,-0.00511599238961935
1772812385389981700,4.581981689453125,-0.008933897130191326,0.008170315995812416,-0.003894262947142124
1772812385399682300,4.591682373046875,-0.011682788841426373,0.012751801870763302,-0.000839939049910754
1772812385409383200,4.601383056640625,-0.018402300775051117,0.008170315995812416,0.0016035200096666813
1772812385419083800,4.611083740234375,-0.024205517023801804,0.002672533504664898,0.0034361144062131643
1772812385428784600,4.62078466796875,-0.026648975908756256,0.00511599238961935,0.00007635809743078426
1772812385438485200,4.6304853515625,-0.027259841561317444,0.010919207707047462,0.0034361144062131643
1772812385448186000,4.64018603515625,-0.030314164236187935,0.015500693581998348,0.008628465235233307
1772812385457887000,4.649886962890625,-0.03275762498378754,0.013973532244563103,0.013820815831422806
1772812385467587600,4.659587646484375,-0.031230462715029716,0.003894262947142124,0.01626427471637726
1772812385477288400,4.669288330078125,-0.027259841561317444,0.00511599238961935,0.01107192412018776
1772812385486989000,4.678989013671875,-0.0193185992538929,0.020387612283229828,-0.007254019379615784
1772812385496690000,4.68868994140625,-0.00954476185142994,0.020998476073145866,-0.02741255611181259
1772812385506390500,4.698390625,-0.005268708802759647,0.023441936820745468,-0.044211339205503464
1772812385516091400,4.70809130859375,-0.005268708802759647,0.02741255611181259,-0.0524580143392086
1772812385525792300,4.717792236328125,-0.01107192412018776,0.0322994738817215,-0.04696023091673851
1772812385545193700,4.73719384765625,-0.026038112118840218,0.03474293276667595,-0.018555017188191414
1772812385554894600,4.74689453125,-0.028176138177514076,0.017027854919433594,-0.006948587018996477
1772812385564595200,4.75659521484375,-0.02909243479371071,-0.0009926552884280682,0.0022143847309052944
1772812385574296000,4.766296142578125,-0.03061959706246853,-0.006490438245236874,0.005574141163378954
1772812385583996700,4.77599658203125,-0.03611737862229347,-0.0016035200096666813,-0.001450803829357028
1772812385593697500,4.785697509765625,-0.040088001638650894,-0.0034361144062131643,-0.019471315667033195
1772812385603398100,4.795398193359375,-0.033979352563619614,-0.0006872228696011007,-0.03535379841923714
1772812385613099000,4.80509912109375,-0.02542724646627903,0.004810560029000044,-0.04634936526417732
1772812385622800000,4.8147998046875,-0.02084576152265072,0.004810560029000044,-0.05459604039788246
1772812385632500500,4.82450048828125,-0.01779143698513508,0.016416991129517555,-0.048792824149131775
1772812385642201300,4.834201416015625,-0.019929463043808937,0.015500693581998348,-0.03504836559295654
1772812385651902000,4.84390185546875,-0.022678354755043983,0.015500693581998348,-0.011530072428286076
1772812385661602800,4.853602783203125,-0.022983787581324577,0.006948587018996477,0.01107192412018776
1772812385671303700,4.8633037109375,-0.019929463043808937,-0.0019089524867013097,0.02542724646627903
1772812385681004300,4.87300439453125,-0.01626427471637726,-0.0022143847309052944,0.03214675933122635
1772812385690705200,4.882705078125,-0.012904518283903599,-0.0006872228696011007,0.03061959706246853
1772812385700405800,4.89240576171875,-0.010766491293907166,0.003894262947142124,0.01718057133257389
1772812385710106600,4.902106689453125,-0.005574141163378954,0.01183550525456667,0.004657844081521034
1772812385719807200,4.91180712890625,0.0005345066892914474,0.00847574882209301,-0.007864884100854397
1772812385729508000,4.921508056640625,0.003894262947142124,-0.0019089524867013097,-0.019471315667033195
1772812385739209000,4.931208984375,0.00603228947147727,-0.006185005884617567,-0.0295505840331316
1772812385748909600,4.94090966796875,0.003283398225903511,-0.005268708802759647,-0.03932442143559456
1772812385758610400,4.9506103515625,-0.00007635809743078426,-0.004352411720901728,-0.0475710928440094
1772812385768311000,4.96031103515625,-0.005268708802759647,-0.007101302966475487,-0.049709122627973557
1772812385778012000,4.970011962890625,-0.011682788841426373,-0.005268708802759647,-0.04482220485806465
1772812385787712500,4.97971240234375,-0.01870773360133171,-0.0012980876490473747,-0.0371863916516304
1772812385797413400,4.989413330078125,-0.02328922040760517,0.008781181648373604,-0.023747367784380913
1772812385807114200,4.9991142578125,-0.02756527252495289,0.008781181648373604,-0.007254019379615784
1772812385816814800,5.00881494140625,-0.024205517023801804,0.004505127668380737,0.007406735327094793
1772812385826515700,5.018515625,-0.011682788841426373,0.002061668550595641,0.02084576152265072
1772812385836216600,5.028216552734375,-0.004046979360282421,-0.012904518283903599,0.028176138177514076
1772812385845917200,5.037917236328125,0.0011453714687377214,-0.013515383005142212,0.03061959706246853
1772812385855618000,5.0476181640625,0.004505127668380737,0.0029779658652842045,0.029703300446271896
1772812385865318700,5.057318603515625,0.008781181648373604,0.01611155830323696,0.019013166427612305
1772812385875019500,5.06701953125,0.013973532244563103,0.023441936820745468,0.008323032408952713
1772812385884720000,5.07672021484375,0.0191658828407526,0.01824958436191082,-0.002061668550595641
1772812385894421000,5.0864208984375,0.028634287416934967,0.009086613543331623,-0.011530072428286076
1772812385904121900,5.096121826171875,0.03932442143559456,-0.0019089524867013097,-0.015500693581998348
1772812385913822500,5.105822509765625,0.04543306678533554,-0.013515383005142212,-0.015500693581998348
1772812385923523300,5.1155234375,0.045738499611616135,-0.018096869811415672,-0.007864884100854397
1772812385933224000,5.125223876953125,0.03657552972435951,-0.015042545273900032,0.00679587060585618
1772812385942924800,5.1349248046875,0.023441936820745468,-0.01718057133257389,0.018096869811415672
1772812385952625700,5.144625732421875,0.017027854919433594,-0.01870773360133171,0.024510949850082397
1772812385962326300,5.154326171875,0.020387612283229828,-0.01565340906381607,0.02084576152265072
1772812385972027000,5.16402685546875,0.02283107116818428,-0.004963276442140341,0.010461059398949146
1772812385981727700,5.173727783203125,0.02283107116818428,0.004199695307761431,-0.004505127668380737
1772812385991428600,5.1834287109375,0.023136503994464874,0.012446369975805283,-0.013668099418282509
1772812386001129200,5.193129150390625,0.01672242395579815,0.017333287745714188,-0.017333287745714188
1772812386010830000,5.202830078125,0.0066431546583771706,0.017027854919433594,-0.017027854919433594
1772812386020531000,5.212531005859375,0.0005345066892914474,0.005421424750238657,-0.0066431546583771706
1772812386030231600,5.2222314453125,0.0011453714687377214,-0.011377356946468353,0.0006872228696011007
1772812386039932400,5.231932373046875,0.00511599238961935,-0.024205517023801804,0.0016035200096666813
1772812386049633000,5.241633056640625,0.0057268571108579636,-0.01779143698513508,-0.00603228947147727
1772812386059334000,5.251333984375,0.007254019379615784,-0.002825249684974551,-0.0191658828407526
1772812386069034500,5.261034423828125,0.006948587018996477,0.011224640533328056,-0.02802342176437378
1772812386078735400,5.2707353515625,0.00755945174023509,0.0191658828407526,-0.02893971838057041
1772812386088436200,5.280436279296875,0.005421424750238657,0.017333287745714188,-0.01763872057199478
1772812386098136800,5.29013671875,0.001450803829357028,-0.004657844081521034,-0.0066431546583771706
1772812386107837700,5.299837646484375,0.002061668550595641,-0.03214675933122635,-0.0029779658652842045
1772812386117538300,5.309538330078125,0.003894262947142124,-0.04436405375599861,-0.009697478264570236
1772812386127239200,5.3192392578125,0.010613775812089443,-0.039477135986089706,-0.02588539570569992
1772812386136940000,5.32893994140625,0.01672242395579815,-0.02237292192876339,-0.04176788032054901
1772812386146640600,5.338640625,0.020693045109510422,-0.006490438245236874,-0.050930850207805634
1772812386156341200,5.34834130859375,0.019471315667033195,0.007864884100854397,-0.04329504072666168
1772812386166042000,5.3580419921875,0.011530072428286076,0.020387612283229828,-0.020387612283229828
1772812386175743000,5.367742919921875,0.0023671009112149477,0.020387612283229828,0.010766491293907166
1772812386185443600,5.377443603515625,-0.002825249684974551,0.012140937149524689,0.04222602769732475
1772812386195144400,5.38714453125,-0.0031306820455938578,0.0005345066892914474,0.06482802331447601
1772812386204845300,5.39684521484375,0.004199695307761431,-0.011377356946468353,0.06940951198339462
1772812386214546000,5.4065458984375,0.015806125476956367,-0.01870773360133171,0.055970486253499985
1772812386224246800,5.416246826171875,0.024663666263222694,-0.016569707542657852,0.033979352563619614
1772812386233947400,5.425947509765625,0.03107774630188942,-0.007101302966475487,0.008017600513994694
1772812386243648300,5.435648193359375,0.037491824477910995,-0.008628465235233307,-0.0191658828407526
1772812386253348900,5.445348876953125,0.0423787422478199,-0.018402300775051117,-0.041157014667987823
1772812386263049700,5.4550498046875,0.04543306678533554,-0.02328922040760517,-0.05673406645655632
1772812386272750600,5.46475048828125,0.04482220485806465,-0.02909243479371071,-0.06681333482265472
1772812386282451200,5.474451171875,0.032910339534282684,-0.02542724646627903,-0.05826122686266899
1772812386292152000,5.484152099609375,0.016416991129517555,-0.021456625312566757,-0.042684175074100494
1772812386301852700,5.493852783203125,0.001450803829357028,-0.013515383005142212,-0.0243582334369421
1772812386311553500,5.503553466796875,-0.007406735327094793,-0.008323032408952713,-0.008781181648373604
1772812386321254400,5.51325439453125,-0.01718057133257389,-0.008017600513994694,0.00038179047987796366
1772812386330955000,5.522955078125,-0.02176205813884735,0.00847574882209301,0.004657844081521034
1772812386340655900,5.53265576171875,-0.0193185992538929,0.01977674663066864,0.007101302966475487
1772812386350356500,5.5423564453125,-0.02176205813884735,0.010613775812089443,0.008628465235233307
1772812386360057300,5.552057373046875,-0.022067490965127945,0.014889828860759735,0.014737112447619438
1772812386369758000,5.561758056640625,-0.0193185992538929,0.0005345066892914474,0.020540328696370125
1772812386379458800,5.571458740234375,-0.017486004158854485,-0.003741546766832471,0.02328922040760517
1772812386389159700,5.58115966796875,-0.011988221667706966,0.0017562361899763346,0.017486004158854485
1772812386398860300,5.5908603515625,-0.002825249684974551,0.012140937149524689,0.007101302966475487
1772812386408561200,5.60056103515625,0.005421424750238657,0.023441936820745468,0.0025198173243552446
1772812386418261800,5.61026171875,0.01030834298580885,0.023747367784380913,0.0031306820455938578
1772812386427962600,5.619962646484375,0.013668099418282509,0.017027854919433594,0.01259908638894558
1772812386437663200,5.629663330078125,0.01611155830323696,0.00022907429956831038,0.021456625312566757
1772812386447364000,5.639364013671875,0.020082179456949234,-0.00954476185142994,0.028176138177514076
1772812386457064700,5.649064697265625,0.02496909722685814,-0.011988221667706966,0.028176138177514076
1772812386466765600,5.658765625,0.024052800610661507,-0.016569707542657852,0.02023489587008953
1772812386476466400,5.668466552734375,0.01824958436191082,-0.01626427471637726,0.006490438245236874
1772812386486167000,5.6781669921875,0.017027854919433594,-0.007406735327094793,-0.014889828860759735
1772812386495868000,5.687867919921875,0.017027854919433594,0.0066431546583771706,-0.028634287416934967
1772812386505568800,5.69756884765625,0.015500693581998348,0.01000291109085083,-0.03627009689807892
1772812386515269400,5.707269287109375,0.013362666592001915,0.002061668550595641,-0.03871355578303337
1772812386524970200,5.71697021484375,0.012446369975805283,-0.0006872228696011007,-0.034437503665685654
1772812386534670800,5.7266708984375,0.010919207707047462,0.0029779658652842045,-0.027107125148177147
1772812386544371700,5.736371826171875,0.006337722297757864,0.003894262947142124,-0.01183550525456667
1772812386554072300,5.746072265625,0.00022907429956831038,-0.0012980876490473747,0.0022143847309052944
1772812386563773200,5.755773193359375,-0.004352411720901728,-0.0025198173243552446,0.01565340906381607
1772812386573473800,5.765473876953125,-0.010155626572668552,0.000839939049910754,0.024510949850082397
1772812386592875500,5.78487548828125,-0.014431680552661419,0.017333287745714188,0.025121813639998436
1772812386602576100,5.794576171875,-0.011682788841426373,0.025579962879419327,0.022067490965127945
1772812386612277000,5.804277099609375,-0.012293653562664986,0.030466880649328232,0.016875140368938446
1772812386621977600,5.8139775390625,-0.017486004158854485,0.0243582334369421,0.015347977168858051
1772812386631678500,5.823678466796875,-0.022983787581324577,0.011530072428286076,0.00954476185142994
1772812386641379000,5.833379150390625,-0.021456625312566757,0.0005345066892914474,-0.001450803829357028
1772812386651080000,5.843079833984375,-0.014431680552661419,-0.0025198173243552446,-0.01183550525456667
1772812386660780800,5.85278076171875,-0.008933897130191326,-0.010766491293907166,-0.027717988938093185
1772812386670481400,5.8624814453125,-0.0009926552884280682,-0.01718057133257389,-0.040546149015426636
1772812386680182300,5.872182373046875,0.008170315995812416,-0.006490438245236874,-0.046654798090457916
1772812386689883100,5.881883056640625,0.015806125476956367,-0.0031306820455938578,-0.04604393243789673
1772812386699583700,5.891583740234375,0.01183550525456667,-0.008933897130191326,-0.03474293276667595
1772812386709284600,5.90128466796875,-0.0012980876490473747,-0.006490438245236874,-0.015500693581998348
1772812386718985200,5.910985107421875,-0.013820815831422806,0.006337722297757864,0.013820815831422806
1772812386728686000,5.92068603515625,-0.02176205813884735,0.01672242395579815,0.0449749194085598
1772812386738386700,5.93038671875,-0.026343543082475662,0.01672242395579815,0.06299543380737305
1772812386748087600,5.940087646484375,-0.024205517023801804,0.009086613543331623,0.07124210149049759
1772812386757788200,5.9497880859375,-0.0193185992538929,0.001450803829357028,0.06360629200935364
1772812386767489000,5.959489013671875,-0.006185005884617567,0.009086613543331623,0.04436405375599861
1772812386777190000,5.96918994140625,0.0017562361899763346,-0.00038179047987796366,0.020540328696370125
1772812386786890500,5.978890380859375,0.0011453714687377214,0.0005345066892914474,-0.002672533504664898
1772812386796591400,5.98859130859375,-0.0022143847309052944,0.0005345066892914474,-0.02130390889942646
1772812386806292000,5.9982919921875,-0.006490438245236874,0.0029779658652842045,-0.022525638341903687
1772812386815992800,6.007992919921875,-0.012904518283903599,-0.0009926552884280682,-0.01611155830323696
1772812386825693400,6.017693359375,-0.014431680552661419,-0.004046979360282421,-0.008781181648373604
1772812386835394300,6.027394287109375,-0.008017600513994694,-0.0012980876490473747,-0.001450803829357028
1772812386845095000,6.037094970703125,-0.0025198173243552446,-0.0031306820455938578,0.0019089524867013097
1772812386854795800,6.046795654296875,-0.004963276442140341,-0.0025198173243552446,-0.00022907429956831038
1772812386864496600,6.05649658203125,-0.0077121676877141,-0.00007635809743078426,0.0009926552884280682
1772812386874197200,6.066197265625,-0.007101302966475487,-0.0022143847309052944,0.008017600513994694
1772812386883898000,6.075898193359375,-0.008933897130191326,-0.011377356946468353,0.008628465235233307
1772812386893599000,6.085598876953125,-0.011988221667706966,-0.00923932995647192,0.004657844081521034
1772812386903299600,6.095299560546875,-0.014126247726380825,-0.0012980876490473747,-0.002061668550595641
1772812386913000400,6.10500048828125,-0.014737112447619438,0.003283398225903511,-0.007864884100854397
1772812386922701000,6.114701171875,-0.015347977168858051,0.005421424750238657,-0.01030834298580885
1772812386932402000,6.12440185546875,-0.012904518283903599,0.006948587018996477,-0.010613775812089443
1772812386942102500,6.1341025390625,-0.008933897130191326,0.009086613543331623,-0.004199695307761431
1772812386951803400,6.143803466796875,-0.008017600513994694,0.006948587018996477,0.007406735327094793
1772812386961504000,6.15350390625,-0.00679587060585618,0.0011453714687377214,0.019013166427612305
1772812386971204900,6.163204833984375,-0.007101302966475487,0.0005345066892914474,0.030314164236187935
1772812386980905700,6.17290576171875,-0.008628465235233307,0.000839939049910754,0.040088001638650894
1772812386990606300,6.1826064453125,-0.010461059398949146,-0.0006872228696011007,0.04589121788740158
1772812387000307200,6.19230712890625,-0.008323032408952713,-0.0025198173243552446,0.04069886729121208
1772812387010007800,6.2020078125,-0.0006872228696011007,-0.0025198173243552446,0.02756527252495289
1772812387019708700,6.211708740234375,0.0011453714687377214,0.004199695307761431,0.014126247726380825
1772812387029409300,6.2214091796875,0.0005345066892914474,0.008170315995812416,0.004352411720901728
1772812387039110100,6.231110107421875,-0.003741546766832471,-0.0009926552884280682,-0.006948587018996477
1772812387048810800,6.240810791015625,-0.00954476185142994,-0.0025198173243552446,-0.015806125476956367
1772812387058511600,6.25051171875,-0.008933897130191326,0.003283398225903511,-0.023136503994464874
1772812387068212500,6.26021240234375,-0.003741546766832471,0.009086613543331623,-0.028634287416934967
1772812387077913000,6.2699130859375,0.0011453714687377214,0.00755945174023509,-0.02649625949561596
1772812387087614000,6.279614013671875,0.00511599238961935,-0.0058795735239982605,-0.022220205515623093
1772812387097314800,6.289314697265625,0.009086613543331623,-0.011682788841426373,-0.012446369975805283
1772812387107015400,6.299015380859375,0.008781181648373604,-0.0058795735239982605,-0.003283398225903511
1772812387116716300,6.30871630859375,-0.0006872228696011007,0.011530072428286076,0.009850194677710533
1772812387126417000,6.3184169921875,-0.012293653562664986,0.02588539570569992,0.027870705351233482
1772812387136117800,6.32811767578125,-0.02084576152265072,0.02741255611181259,0.04528035223484039
1772812387145818400,6.337818359375,-0.01870773360133171,0.011224640533328056,0.04955640435218811
1772812387155519200,6.347519287109375,-0.008323032408952713,-0.005574141163378954,0.04344775900244713
1772812387165219800,6.3572197265625,0.000839939049910754,-0.011988221667706966,0.02542724646627903
1772812387174920700,6.366920654296875,0.008170315995812416,-0.010155626572668552,-0.0035888305865228176
1772812387184621600,6.37662158203125,0.015806125476956367,-0.0012980876490473747,-0.0295505840331316
1772812387194322200,6.386322265625,0.0191658828407526,0.0017562361899763346,-0.044211339205503464
1772812387204023000,6.39602294921875,0.014584396965801716,-0.0025198173243552446,-0.03962985426187515
1772812387213723600,6.4057236328125,0.009697478264570236,-0.011682788841426373,-0.0243582334369421
1772812387223424500,6.415424560546875,0.011530072428286076,-0.016875140368938446,-0.0057268571108579636
1772812387233125000,6.425125,0.013973532244563103,-0.00923932995647192,0.012904518283903599
1772812387242826000,6.434825927734375,0.007864884100854397,-0.002825249684974551,0.02390008419752121
1772812387252526600,6.444526611328125,-0.0058795735239982605,0.005421424750238657,0.03000873140990734
1772812387262227500,6.4542275390625,-0.016875140368938446,0.015806125476956367,0.03000873140990734
1772812387271928300,6.46392822265625,-0.02084576152265072,0.015500693581998348,0.02390008419752121
1772812387281629000,6.47362890625,-0.01718057133257389,0.0066431546583771706,0.01107192412018776
1772812387291329800,6.483329833984375,-0.008017600513994694,-0.0009926552884280682,-0.0011453714687377214
1772812387301030700,6.49303076171875,-0.00038179047987796366,-0.0022143847309052944,-0.01763872057199478
1772812387310731300,6.502731201171875,0.002672533504664898,0.0035888305865228176,-0.029245151206851006
1772812387320431900,6.512431884765625,0.002672533504664898,0.00847574882209301,-0.034437503665685654
1772812387330132700,6.5221328125,-0.0009926552884280682,0.0066431546583771706,-0.03504836559295654
1772812387339833600,6.53183349609375,-0.0058795735239982605,0.006948587018996477,-0.0295505840331316
1772812387349534200,6.5415341796875,-0.0058795735239982605,0.003283398225903511,-0.022220205515623093
1772812387359235000,6.551235107421875,-0.0006872228696011007,-0.0009926552884280682,-0.015195261687040329
1772812387368935700,6.560935791015625,0.009086613543331623,0.00022907429956831038,-0.004505127668380737
1772812387378636500,6.570636474609375,0.01611155830323696,0.003283398225903511,0.010461059398949146
1772812387388337400,6.58033740234375,0.01672242395579815,0.002672533504664898,0.027259841561317444
1772812387398038000,6.5900380859375,0.014889828860759735,-0.0016035200096666813,0.04405862092971802
1772812387407739000,6.59973876953125,0.012446369975805283,-0.008017600513994694,0.0553596206009388
1772812387417439500,6.609439453125,0.0057268571108579636,-0.015958841890096664,0.051389001309871674
1772812387427140400,6.619140380859375,-0.0006872228696011007,-0.017486004158854485,0.029703300446271896
1772812387436841000,6.628841064453125,0.002672533504664898,-0.0009926552884280682,0.0006872228696011007
1772812387446541800,6.638541748046875,0.012140937149524689,0.013973532244563103,-0.026801692321896553
1772812387456242400,6.648242431640625,0.024052800610661507,0.01030834298580885,-0.048792824149131775
1772812387465943300,6.657943359375,0.03321577236056328,0.00022907429956831038,-0.05306887626647949
1772812387475644200,6.66764404296875,0.03657552972435951,-0.008017600513994694,-0.03871355578303337
1772812387485344800,6.6773447265625,0.03138317912817001,-0.01779143698513508,-0.010613775812089443
1772812387495045600,6.687045654296875,0.023747367784380913,-0.028787001967430115,0.015347977168858051
1772812387504746200,6.696746337890625,0.018555017188191414,-0.027259841561317444,0.04069886729121208
1772812387514447000,6.706447021484375,0.01183550525456667,-0.03733910992741585,0.05199986323714256
1772812387524147700,6.716147705078125,0.009392046369612217,-0.023594651371240616,0.05047270283102989
1772812387533848600,6.7258486328125,0.01030834298580885,-0.0016035200096666813,0.040088001638650894
1772812387543549200,6.735549072265625,-0.0016035200096666813,0.00847574882209301,0.030925029888749123
1772812387553250000,6.74525,-0.021151192486286163,0.025579962879419327,0.028176138177514076
1772812387562951000,6.754950927734375,-0.036422811448574066,0.017027854919433594,0.023594651371240616
1772812387572651500,6.764651611328125,-0.03917170315980911,0.00511599238961935,0.021456625312566757
1772812387582352400,6.774352294921875,-0.03672824427485466,-0.008017600513994694,0.02023489587008953
1772812387592053000,6.784052978515625,-0.03367391973733902,-0.019929463043808937,0.010461059398949146
1772812387601753900,6.79375390625,-0.025121813639998436,-0.015042545273900032,-0.002672533504664898
1772812387611454700,6.803454833984375,-0.014126247726380825,-0.01107192412018776,-0.013973532244563103
1772812387630856000,6.82285595703125,-0.007101302966475487,0.007864884100854397,-0.020387612283229828
1772812387640556800,6.832556884765625,-0.010461059398949146,0.004199695307761431,-0.017944153398275375
1772812387650257700,6.842257568359375,-0.016569707542657852,-0.004963276442140341,-0.01030834298580885
1772812387659958300,6.851958251953125,-0.02695440873503685,-0.011377356946468353,-0.009086613543331623
1772812387669659100,6.8616591796875,-0.029397867619991302,-0.020540328696370125,-0.018555017188191414
1772812387679360000,6.871360107421875,-0.02328922040760517,-0.02390008419752121,-0.0322994738817215
1772812387689060600,6.881060546875,-0.018402300775051117,-0.009850194677710533,-0.04146244749426842
1772812387698761500,6.890761474609375,-0.0193185992538929,0.00603228947147727,-0.0371863916516304
1772812387708462000,6.900462158203125,-0.02328922040760517,0.013057234697043896,-0.01672242395579815
1772812387718163000,6.910162841796875,-0.025732679292559624,0.004810560029000044,0.011682788841426373
1772812387727863600,6.919863525390625,-0.02542724646627903,-0.01259908638894558,0.03428478538990021
1772812387737564400,6.929564453125,-0.021151192486286163,-0.016875140368938446,0.04528035223484039
1772812387747265000,6.93926513671875,-0.013209951110184193,-0.005574141163378954,0.04253146052360535
1772812387756966000,6.9489658203125,-0.006490438245236874,0.014889828860759735,0.031230462715029716
1772812387766666500,6.95866650390625,-0.004657844081521034,0.028328854590654373,0.0193185992538929
1772812387776367400,6.968367431640625,-0.0025198173243552446,0.020387612283229828,0.011988221667706966
1772812387786068200,6.978068115234375,0.000839939049910754,-0.002825249684974551,0.010155626572668552
1772812387795768800,6.987768798828125,0.002672533504664898,-0.024510949850082397,0.012293653562664986
1772812387805469700,6.9974697265625,0.002061668550595641,-0.02909243479371071,0.015347977168858051
1772812387815170600,7.007170654296875,0.0005345066892914474,-0.027259841561317444,0.0058795735239982605
1772812387824871200,7.01687109375,0.0017562361899763346,-0.024816380813717842,-0.009697478264570236
1772812387834571800,7.02657177734375,0.0011453714687377214,-0.015347977168858051,-0.02588539570569992
1772812387844272600,7.036272705078125,-0.00038179047987796366,0.0011453714687377214,-0.03840812295675278
1772812387853973500,7.045973388671875,-0.006490438245236874,0.00603228947147727,-0.042073313146829605
1772812387863674000,7.055674072265625,-0.010461059398949146,0.01183550525456667,-0.030466880649328232
1772812387873375000,7.065375,-0.013820815831422806,0.01611155830323696,-0.011530072428286076
1772812387883075600,7.07507568359375,-0.01870773360133171,0.013057234697043896,0.0077121676877141
1772812387892776400,7.0847763671875,-0.02084576152265072,0.005421424750238657,0.027870705351233482
1772812387902477300,7.094477294921875,-0.014737112447619438,0.003283398225903511,0.040088001638650894
1772812387912178000,7.104177978515625,-0.008933897130191326,0.00755945174023509,0.044669486582279205
1772812387921878800,7.113878662109375,-0.007101302966475487,0.0035888305865228176,0.04130972921848297
1772812387931579400,7.123579345703125,-0.004963276442140341,0.002672533504664898,0.03245219215750694
1772812387941280000,7.133280029296875,-0.002825249684974551,0.00603228947147727,0.024510949850082397
1772812387950980900,7.14298095703125,0.0017562361899763346,0.01183550525456667,0.0193185992538929
1772812387960681700,7.152681640625,0.008170315995812416,0.0191658828407526,0.013820815831422806
1772812387970382300,7.16238232421875,0.012446369975805283,0.020082179456949234,0.011682788841426373
1772812387980083200,7.172083251953125,0.014889828860759735,0.017944153398275375,0.014126247726380825
1772812387989784000,7.1817841796875,0.015806125476956367,0.009086613543331623,0.01870773360133171
1772812387999484700,7.191484619140625,0.013057234697043896,0.003894262947142124,0.022067490965127945
1772812388009185500,7.201185546875,0.007254019379615784,0.004199695307761431,0.02390008419752121
1772812388018886100,7.21088623046875,0.0011453714687377214,0.004505127668380737,0.022983787581324577
1772812388028587000,7.2205869140625,-0.0025198173243552446,-0.006185005884617567,0.01626427471637726
1772812388038287600,7.23028759765625,-0.0022143847309052944,-0.011682788841426373,0.0012980876490473747
1772812388047988500,7.239988525390625,-0.0006872228696011007,-0.004657844081521034,-0.016416991129517555
1772812388057689000,7.249689208984375,-0.00038179047987796366,0.00603228947147727,-0.030772313475608826
1772812388067390000,7.259389892578125,0.0005345066892914474,0.009392046369612217,-0.03840812295675278
1772812388077090600,7.269090576171875,0.00022907429956831038,0.009392046369612217,-0.0423787422478199
1772812388086791400,7.27879150390625,0.002672533504664898,0.013668099418282509,-0.0371863916516304
1772812388096492300,7.2884921875,0.00022907429956831038,0.012751801870763302,-0.02496909722685814
1772812388106193000,7.29819287109375,-0.0058795735239982605,0.006948587018996477,-0.007254019379615784
1772812388115893800,7.307893798828125,-0.004657844081521034,0.004505127668380737,0.013820815831422806
1772812388125594600,7.3175947265625,0.00022907429956831038,-0.0025198173243552446,0.02909243479371071
1772812388135295200,7.327295166015625,0.00022907429956831038,-0.00038179047987796366,0.03886627033352852
1772812388154696700,7.34669677734375,-0.002825249684974551,0.004199695307761431,0.03428478538990021
1772812388164397300,7.356397216796875,-0.004352411720901728,-0.00923932995647192,0.013820815831422806
1772812388174098200,7.36609814453125,-0.004657844081521034,-0.01779143698513508,-0.012446369975805283
1772812388183799000,7.375799072265625,-0.004963276442140341,-0.014737112447619438,-0.03657552972435951
1772812388193499600,7.385499755859375,-0.0009926552884280682,-0.004963276442140341,-0.053985174745321274
1772812388203200500,7.395200439453125,0.004199695307761431,0.002061668550595641,-0.057955797761678696
1772812388212901000,7.404901123046875,0.01183550525456667,0.000839939049910754,-0.050930850207805634
1772812388222602000,7.41460205078125,0.0191658828407526,0.00022907429956831038,-0.029245151206851006
1772812388232302800,7.424302734375,0.021914774551987648,-0.0058795735239982605,-0.004810560029000044
1772812388242003500,7.43400341796875,0.0191658828407526,-0.00679587060585618,0.02084576152265072
1772812388251704000,7.4437041015625,0.013362666592001915,-0.004352411720901728,0.0397825688123703
1772812388261405000,7.453405029296875,0.00603228947147727,-0.004657844081521034,0.04711294546723366
1772812388271105800,7.463105712890625,-0.00038179047987796366,0.00022907429956831038,0.05108356848359108
1772812388280806400,7.472806396484375,-0.0012980876490473747,0.007254019379615784,0.046807512640953064
1772812388290507300,7.48250732421875,0.0005345066892914474,0.01000291109085083,0.033979352563619614
1772812388300207900,7.492207763671875,-0.0012980876490473747,0.003283398225903511,0.021456625312566757
1772812388309908700,7.50190869140625,-0.004657844081521034,-0.006185005884617567,0.005574141163378954
1772812388319609600,7.511609619140625,-0.006490438245236874,0.0035888305865228176,-0.0066431546583771706
1772812388329310200,7.521310302734375,-0.008017600513994694,0.021914774551987648,-0.01763872057199478
1772812388339011000,7.531010986328125,-0.011682788841426373,0.02893971838057041,-0.021914774551987648
1772812388348711700,7.540711669921875,-0.014126247726380825,0.013973532244563103,-0.01824958436191082
1772812388358412500,7.55041259765625,-0.01565340906381607,-0.011377356946468353,-0.012140937149524689
1772812388368113200,7.560113037109375,-0.013209951110184193,-0.02176205813884735,-0.004810560029000044
1772812388377814000,7.56981396484375,-0.008628465235233307,-0.022067490965127945,0.0019089524867013097
1772812388387514600,7.5795146484375,-0.010461059398949146,-0.0193185992538929,0.0006872228696011007
1772812388397215500,7.589215576171875,-0.01565340906381607,-0.004657844081521034,-0.0017562361899763346
1772812388406916400,7.598916259765625,-0.02023489587008953,0.01030834298580885,-0.004505127668380737
1772812388416617000,7.608616943359375,-0.02848157100379467,0.020998476073145866,-0.00847574882209301
1772812388426317800,7.61831787109375,-0.033979352563619614,0.020387612283229828,-0.00511599238961935
1772812388436018400,7.628018310546875,-0.033979352563619614,0.00847574882209301,0.0031306820455938578
1772812388445719300,7.63771923828125,-0.02909243479371071,-0.005574141163378954,0.008628465235233307
1772812388455420000,7.647419921875,-0.02023489587008953,-0.01107192412018776,0.011988221667706966
1772812388465120800,7.657120849609375,-0.011377356946468353,-0.008933897130191326,0.00923932995647192
1772812388474821400,7.6668212890625,-0.004657844081521034,-0.011377356946468353,-0.00511599238961935
1772812388484522200,7.676522216796875,0.00022907429956831038,-0.004352411720901728,-0.018555017188191414
1772812388494222800,7.686222900390625,0.004199695307761431,0.013668099418282509,-0.024663666263222694
1772812388503923700,7.695923828125,0.005421424750238657,0.022220205515623093,-0.02130390889942646
1772812388513624600,7.70562451171875,0.009697478264570236,0.009086613543331623,-0.009392046369612217
1772812388523325200,7.7153251953125,0.01763872057199478,-0.005574141163378954,0.006490438245236874
1772812388533026000,7.725026123046875,0.024052800610661507,-0.009850194677710533,0.021456625312566757
1772812388542726700,7.7347265625,0.02588539570569992,-0.015347977168858051,0.028787001967430115
1772812388552427500,7.744427490234375,0.021914774551987648,-0.019624030217528343,0.026343543082475662
1772812388562128100,7.754128173828125,0.01977674663066864,-0.0077121676877141,0.0193185992538929
1772812388571829000,7.7638291015625,0.016416991129517555,0.006337722297757864,0.010461059398949146
1772812388581529600,7.773529541015625,0.012140937149524689,0.004505127668380737,0.004352411720901728
1772812388591230500,7.78323046875,0.014889828860759735,-0.004963276442140341,-0.0005345066892914474
1772812388600931300,7.792931396484375,0.014889828860759735,-0.01718057133257389,-0.0029779658652842045
1772812388610632000,7.8026318359375,0.0057268571108579636,-0.019624030217528343,-0.008781181648373604
1772812388620332800,7.812332763671875,-0.0006872228696011007,-0.010766491293907166,-0.016416991129517555
1772812388630033400,7.822033447265625,-0.0009926552884280682,0.004505127668380737,-0.01977674663066864
1772812388639734300,7.831734375,-0.0012980876490473747,0.011224640533328056,-0.015195261687040329
1772812388649435100,7.84143505859375,-0.005574141163378954,0.0035888305865228176,-0.01000291109085083
1772812388659135700,7.8511357421875,-0.01107192412018776,0.002672533504664898,-0.003283398225903511
1772812388668836400,7.86083642578125,-0.02023489587008953,0.01183550525456667,0.0022143847309052944
1772812388678537200,7.870537109375,-0.03275762498378754,0.018555017188191414,0.007101302966475487
1772812388688238000,7.880238037109375,-0.037949975579977036,0.019471315667033195,0.010155626572668552
1772812388697938700,7.889938720703125,-0.03061959706246853,0.003894262947142124,0.007101302966475487
1772812388707639600,7.8996396484375,-0.016569707542657852,-0.012293653562664986,0.0009926552884280682
1772812388717340200,7.909340087890625,-0.0016035200096666813,-0.02176205813884735,-0.0066431546583771706
1772812388727041000,7.919041015625,0.010613775812089443,-0.02237292192876339,-0.017944153398275375
1772812388736741600,7.92874169921875,0.013362666592001915,-0.006185005884617567,-0.021609341725707054
1772812388746442500,7.9384423828125,0.00603228947147727,0.01000291109085083,-0.016416991129517555
1772812388756143400,7.948143310546875,-0.005268708802759647,0.023747367784380913,-0.002672533504664898
1772812388765844000,7.957843994140625,-0.009850194677710533,0.027107125148177147,0.01259908638894558
1772812388775544800,7.967544921875,-0.010461059398949146,0.01824958436191082,0.024816380813717842
1772812388785245400,7.977245361328125,-0.004657844081521034,0.00755945174023509,0.029703300446271896
1772812388794946300,7.9869462890625,0.0066431546583771706,-0.008323032408952713,0.022678354755043983
1772812388804647000,7.99664697265625,0.021609341725707054,-0.018402300775051117,0.0077121676877141
1772812388814347800,8.00634765625,0.03321577236056328,-0.016569707542657852,-0.013057234697043896
1772812388824048400,8.01604833984375,0.03627009689807892,-0.00954476185142994,-0.02802342176437378
1772812388833749200,8.025749267578124,0.028634287416934967,-0.00038179047987796366,-0.03840812295675278
1772812388843450000,8.0354501953125,0.019471315667033195,0.011530072428286076,-0.03871355578303337
1772812388853150700,8.045150634765625,0.01183550525456667,0.014584396965801716,-0.032910339534282684
1772812388862851600,8.0548515625,0.007864884100854397,0.00603228947147727,-0.02283107116818428
1772812388872552200,8.06455224609375,0.007254019379615784,-0.007101302966475487,-0.013057234697043896
1772812388882253000,8.074253173828126,0.010919207707047462,-0.006185005884617567,-0.003283398225903511
1772812388891953700,8.08395361328125,0.012446369975805283,0.003894262947142124,0.004046979360282421
1772812388901654500,8.093654541015624,0.01030834298580885,0.010613775812089443,0.0077121676877141
1772812388911355100,8.103355224609375,0.00603228947147727,0.01183550525456667,0.011988221667706966
1772812388921056000,8.113055908203124,0.009697478264570236,0.0035888305865228176,0.00923932995647192
1772812388930756600,8.122756591796875,0.01824958436191082,-0.007406735327094793,0.0012980876490473747
1772812388940457500,8.13245751953125,0.02588539570569992,-0.010766491293907166,-0.012446369975805283
1772812388950158300,8.142158447265626,0.0295505840331316,-0.0031306820455938578,-0.027107125148177147
1772812388959859000,8.15185888671875,0.03168861195445061,0.01000291109085083,-0.033826638013124466
1772812388969559800,8.161559814453126,0.03260490670800209,0.017027854919433594,-0.03107774630188942
1772812388979260400,8.171260498046875,0.030772313475608826,0.009697478264570236,-0.026801692321896553
1772812388988961300,8.180961181640624,0.02802342176437378,-0.0031306820455938578,-0.013057234697043896
1772812388998662000,8.190661865234375,0.026190826669335365,-0.012904518283903599,0.00038179047987796366
1772812389008362800,8.20036279296875,0.024052800610661507,-0.01565340906381607,0.009850194677710533
1772812389018063400,8.2100634765625,0.01977674663066864,-0.002825249684974551,0.013820815831422806
1772812389027764200,8.21976416015625,0.011224640533328056,0.010613775812089443,0.013515383005142212
1772812389037465000,8.229465087890626,-0.0009926552884280682,0.020082179456949234,0.013820815831422806
1772812389047165700,8.239165771484375,-0.015347977168858051,0.022525638341903687,0.014126247726380825
1772812389056866600,8.248866455078126,-0.02695440873503685,0.01611155830323696,0.008628465235233307
1772812389066567200,8.258567138671875,-0.031841326504945755,0.01030834298580885,-0.000839939049910754
1772812389076268000,8.26826806640625,-0.02909243479371071,0.00847574882209301,-0.013362666592001915
1772812389085968600,8.27796875,-0.023594651371240616,0.014584396965801716,-0.0243582334369421
1772812389095669500,8.28766943359375,-0.01718057133257389,0.01763872057199478,-0.030466880649328232
1772812389105370000,8.2973701171875,-0.01259908638894558,0.012751801870763302,-0.030466880649328232
1772812389115071000,8.307071044921875,-0.010461059398949146,0.007254019379615784,-0.02283107116818428
1772812389124771600,8.316771484375,-0.008628465235233307,-0.0009926552884280682,-0.014278964139521122
1772812389134472400,8.326472412109375,-0.004963276442140341,-0.007406735327094793,-0.009392046369612217
1772812389144173300,8.33617333984375,-0.00038179047987796366,-0.00679587060585618,-0.008781181648373604
1772812389153874000,8.3458740234375,-0.00007635809743078426,0.0066431546583771706,-0.008170315995812416
1772812389163574800,8.35557470703125,-0.008933897130191326,0.024663666263222694,-0.007254019379615784
1772812389173275400,8.365275390625,-0.021456625312566757,0.026801692321896553,-0.00511599238961935
1772812389182976300,8.374976318359375,-0.026038112118840218,0.013362666592001915,-0.0005345066892914474
1772812389192676900,8.3846767578125,-0.01718057133257389,0.0029779658652842045,-0.00022907429956831038
1772812389202377700,8.394377685546875,-0.004657844081521034,-0.005268708802759647,0.00038179047987796366
1772812389212078300,8.404078369140626,0.004505127668380737,-0.013209951110184193,0.0016035200096666813
1772812389221779200,8.413779296875,0.012140937149524689,-0.018096869811415672,0.0016035200096666813
1772812389231479800,8.423479736328124,0.014584396965801716,-0.01259908638894558,0.004963276442140341
1772812389241180700,8.4331806640625,0.009697478264570236,-0.00679587060585618,0.008933897130191326
1772812389250881500,8.442881591796874,0.007254019379615784,0.0057268571108579636,0.015958841890096664
1772812389260582100,8.45258203125,0.01000291109085083,0.020693045109510422,0.026648975908756256
1772812389270283000,8.462282958984375,0.01611155830323696,0.016416991129517555,0.031841326504945755
1772812389279983600,8.471983642578126,0.02283107116818428,0.0011453714687377214,0.036422811448574066
1772812389289684500,8.4816845703125,0.023136503994464874,-0.015042545273900032,0.03825540840625763
1772812389299385300,8.49138525390625,0.016416991129517555,-0.02176205813884735,0.028787001967430115
1772812389309086000,8.5010859375,0.006337722297757864,-0.01870773360133171,0.019929463043808937
1772812389318786600,8.51078662109375,-0.0025198173243552446,-0.01259908638894558,-0.001450803829357028
1772812389328487400,8.5204873046875,-0.004657844081521034,-0.007101302966475487,-0.02130390889942646
1772812389338188000,8.53018798828125,-0.0031306820455938578,-0.004046979360282421,-0.03871355578303337
1772812389347889000,8.539888916015625,0.002061668550595641,0.003283398225903511,-0.05001455545425415
1772812389357589800,8.54958984375,0.00511599238961935,0.0066431546583771706,-0.04940368980169296
1772812389367290400,8.559290283203126,0.00022907429956831038,-0.0025198173243552446,-0.03993528336286545
1772812389376991200,8.5689912109375,-0.010155626572668552,-0.006490438245236874,-0.023136503994464874
1772812389386691800,8.57869189453125,-0.02023489587008953,-0.007406735327094793,-0.004505127668380737
1772812389396392700,8.588392822265625,-0.024816380813717842,-0.008933897130191326,0.006490438245236874
1772812389406093600,8.598093505859374,-0.01870773360133171,-0.00923932995647192,0.010461059398949146
1772812389415794200,8.607794189453125,-0.005574141163378954,-0.008933897130191326,0.010155626572668552
1772812389425495000,8.6174951171875,0.0057268571108579636,-0.015347977168858051,-0.0005345066892914474
1772812389435195600,8.627195556640626,0.014278964139521122,-0.011988221667706966,-0.013057234697043896
1772812389444896300,8.636896240234375,0.017333287745714188,-0.0031306820455938578,-0.023747367784380913
1772812389454597000,8.64659716796875,0.014584396965801716,0.00511599238961935,-0.020082179456949234
1772812389464298000,8.656298095703125,0.0066431546583771706,0.0023671009112149477,-0.007254019379615784
1772812389473998600,8.66599853515625,0.004810560029000044,-0.004963276442140341,0.011377356946468353
1772812389483699500,8.675699462890625,0.00847574882209301,-0.010461059398949146,0.02390008419752121
1772812389493400000,8.685400146484374,0.013973532244563103,-0.015042545273900032,0.026038112118840218
1772812389503101000,8.695100830078125,0.01977674663066864,-0.015958841890096664,0.01626427471637726
1772812389512801800,8.7048017578125,0.02283107116818428,-0.012904518283903599,0.0016035200096666813
1772812389522502400,8.71450244140625,0.022525638341903687,-0.00038179047987796366,-0.014278964139521122
1772812389532203300,8.724203369140625,0.017944153398275375,0.01030834298580885,-0.017333287745714188
1772812389541904000,8.73390380859375,0.007864884100854397,0.006948587018996477,-0.01183550525456667
1772812389551604500,8.7436044921875,-0.0009926552884280682,-0.003741546766832471,-0.004199695307761431
1772812389561305300,8.753305419921874,-0.007101302966475487,-0.013209951110184193,0.0022143847309052944
1772812389571006200,8.763006103515625,-0.011377356946468353,-0.019929463043808937,0.004352411720901728
1772812389580706800,8.772706787109374,-0.016569707542657852,-0.015958841890096664,-0.007254019379615784
1772812389590407700,8.78240771484375,-0.020540328696370125,-0.00038179047987796366,-0.022220205515623093
1772812389600108300,8.7921083984375,-0.021456625312566757,0.016416991129517555,-0.029856016859412193
1772812389609809200,8.80180908203125,-0.026038112118840218,0.01763872057199478,-0.027107125148177147
1772812389619510000,8.811510009765625,-0.033368486911058426,0.012446369975805283,-0.020387612283229828
1772812389629210600,8.821210693359374,-0.03581194952130318,0.007254019379615784,-0.009697478264570236
1772812389638911500,8.830911376953125,-0.03367391973733902,0.001450803829357028,-0.001450803829357028
1772812389648612000,8.840612060546874,-0.026038112118840218,-0.0006872228696011007,-0.000839939049910754
1772812389658312700,8.850312744140625,-0.014737112447619438,-0.004963276442140341,-0.00603228947147727
1772812389668013600,8.860013671875,-0.009850194677710533,-0.004657844081521034,-0.005421424750238657
1772812389677714400,8.86971435546875,-0.013209951110184193,-0.0077121676877141,-0.009697478264570236
1772812389687415000,8.8794150390625,-0.02023489587008953,0.000839939049910754,-0.01030834298580885
1772812389697116000,8.889115966796876,-0.02756527252495289,0.0191658828407526,-0.00755945174023509
1772812389706816500,8.89881640625,-0.036422811448574066,0.0057268571108579636,-0.011530072428286076
1772812389716517400,8.908517333984374,-0.024510949850082397,0.016416991129517555,-0.001450803829357028
1772812389726218000,8.918218017578125,-0.01259908638894558,-0.011377356946468353,-0.0005345066892914474
1772812389735918800,8.9279189453125,-0.0022143847309052944,-0.015958841890096664,-0.00022907429956831038
1772812389745619700,8.93761962890625,0.010919207707047462,-0.011377356946468353,-0.004505127668380737
1772812389755320300,8.9473203125,0.010613775812089443,-0.007101302966475487,-0.004810560029000044
1772812389765021200,8.957021240234376,0.005421424750238657,0.003894262947142124,-0.001450803829357028
1772812389774721800,8.9667216796875,0.0011453714687377214,0.009392046369612217,0.007406735327094793
1772812389784422700,8.976422607421876,-0.0006872228696011007,0.008170315995812416,0.019929463043808937
1772812389794123300,8.986123291015625,0.0035888305865228176,-0.007406735327094793,0.030314164236187935
1772812389803824000,8.99582421875,0.011224640533328056,-0.02328922040760517,0.02848157100379467
1772812389813524700,9.005524658203125,0.020387612283229828,-0.026648975908756256,0.018402300775051117
1772812389823225600,9.0152255859375,0.023136503994464874,-0.02695440873503685,-0.00603228947147727
1772812389832926200,9.02492626953125,0.025579962879419327,-0.02695440873503685,-0.0322994738817215
1772812389842627000,9.034626953125,0.02283107116818428,-0.027870705351233482,-0.05367974191904068
1772812389852328000,9.044327880859376,0.016416991129517555,-0.026343543082475662,-0.06467530876398087
1772812389862028500,9.054028564453125,0.009697478264570236,-0.02023489587008953,-0.06192641705274582
1772812389871729400,9.0637294921875,0.0005345066892914474,-0.02848157100379467,-0.05673406645655632
1772812389881430000,9.073429931640625,-0.011988221667706966,-0.03917170315980911,-0.04787652567028999
1772812389891130600,9.083130615234374,-0.026648975908756256,-0.03306305781006813,-0.036880962550640106
1772812389900831500,9.09283154296875,-0.0501672700047493,-0.06879864633083344,-0.03168861195445061
1772812389910532400,9.102532470703125,-0.06940951198339462,-0.070631243288517,-0.020693045109510422
1772812389920233000,9.11223291015625,-0.07399099320173264,-0.060551971197128296,-0.0191658828407526
1772812389929933800,9.121933837890625,-0.06849320977926254,-0.0034361144062131643,-0.017027854919433594
1772812389939634400,9.131634521484376,-0.0553596206009388,0.02283107116818428,-0.022525638341903687
1772812389949335300,9.141335205078125,-0.04130972921848297,0.0243582334369421,-0.017944153398275375
1772812389959036200,9.1510361328125,-0.03214675933122635,0.019471315667033195,-0.006948587018996477
1772812389968736800,9.16073681640625,-0.026343543082475662,-0.0012980876490473747,0.004046979360282421
1772812389978437600,9.170437744140624,-0.019624030217528343,-0.024816380813717842,0.008323032408952713
1772812389988138200,9.18013818359375,-0.009850194677710533,-0.036422811448574066,0.007101302966475487
1772812389997838800,9.1898388671875,0.002061668550595641,-0.05108356848359108,-0.010613775812089443
1772812390007539700,9.199539794921876,0.017027854919433594,-0.05169443041086197,-0.033826638013124466
1772812390017240600,9.209240478515625,0.027107125148177147,-0.025732679292559624,-0.044211339205503464
1772812390026941200,9.218941162109376,0.0295505840331316,-0.011377356946468353,-0.046654798090457916
1772812390036642000,9.22864208984375,0.02893971838057041,-0.015347977168858051,-0.042684175074100494
1772812390046342700,9.2383427734375,0.032910339534282684,-0.01626427471637726,-0.03504836559295654
1772812390056043500,9.24804345703125,0.036880962550640106,-0.01259908638894558,-0.018860450014472008
1772812390065744100,9.257744140625,0.033826638013124466,-0.007101302966475487,-0.003283398225903511
1772812390075445000,9.267445068359375,0.021914774551987648,-0.0077121676877141,0.00954476185142994
1772812390085145900,9.277145751953125,0.005421424750238657,-0.008628465235233307,0.02390008419752121
1772812390094846500,9.286846435546876,-0.00954476185142994,-0.011377356946468353,0.03153589367866516
1772812390104547300,9.29654736328125,-0.013820815831422806,-0.012904518283903599,0.029397867619991302
1772812390114248000,9.306248046875,-0.00679587060585618,-0.012293653562664986,0.02023489587008953
1772812390123948500,9.315948486328125,-0.004046979360282421,-0.004657844081521034,0.010461059398949146
1772812390133649400,9.3256494140625,-0.0077121676877141,0.013057234697043896,0.0031306820455938578
1772812390143350300,9.335350341796875,-0.016875140368938446,0.0322994738817215,0.00007635809743078426
1772812390153051000,9.34505078125,-0.026038112118840218,0.03565923124551773,0.008628465235233307
1772812390162751700,9.354751708984375,-0.03000873140990734,0.030161447823047638,0.025732679292559624
1772812390172452400,9.364452392578125,-0.03061959706246853,0.015500693581998348,0.036422811448574066
1772812390182153200,9.3741533203125,-0.03061959706246853,0.004810560029000044,0.03886627033352852
1772812390191853800,9.383853759765625,-0.03520108386874199,-0.008323032408952713,0.02695440873503685
1772812390201554700,9.3935546875,-0.03764454275369644,-0.013820815831422806,0.0034361144062131643
1772812390211255600,9.403255615234375,-0.03581194952130318,-0.007406735327094793,-0.02741255611181259
1772812390220956200,9.4129560546875,-0.03245219215750694,-0.00038179047987796366,-0.05429060757160187
1772812390230656800,9.42265673828125,-0.03000873140990734,0.00022907429956831038,-0.06650790572166443
1772812390240357600,9.432357666015625,-0.030314164236187935,-0.0058795735239982605,-0.06467530876398087
1772812390250058200,9.442058349609376,-0.026038112118840218,-0.00954476185142994,-0.05367974191904068
1772812390259759000,9.451759033203125,-0.021456625312566757,-0.005268708802759647,-0.03565923124551773
1772812390269460000,9.4614599609375,-0.022067490965127945,0.007254019379615784,-0.013973532244563103
1772812390279160600,9.47116064453125,-0.02084576152265072,0.012140937149524689,0.004352411720901728
1772812390288861400,9.480861328125,-0.015958841890096664,0.010613775812089443,0.018096869811415672
1772812390298562000,9.49056201171875,-0.010155626572668552,0.004199695307761431,0.02695440873503685
1772812390308263000,9.500262939453124,-0.007101302966475487,-0.0031306820455938578,0.030925029888749123
1772812390317963800,9.5099638671875,-0.007101302966475487,-0.008628465235233307,0.024816380813717842
1772812390327664400,9.519664306640625,-0.0031306820455938578,-0.015042545273900032,0.012293653562664986
1772812390337365200,9.529365234375,0.00511599238961935,-0.022678354755043983,-0.004505127668380737
1772812390347065900,9.53906591796875,0.018555017188191414,-0.026038112118840218,-0.020693045109510422
1772812390366467300,9.55846728515625,0.0191658828407526,-0.025121813639998436,-0.02588539570569992
1772812390376168000,9.56816796875,0.002061668550595641,-0.0193185992538929,-0.020082179456949234
1772812390385868800,9.577868896484375,-0.015958841890096664,-0.016569707542657852,-0.014278964139521122
1772812390395569700,9.587569580078124,-0.031230462715029716,-0.010766491293907166,-0.005421424750238657
1772812390405270300,9.597270263671875,-0.04405862092971802,-0.008323032408952713,0.0009926552884280682
1772812390414971100,9.60697119140625,-0.050778135657310486,0.0029779658652842045,-0.000839939049910754
1772812390424671700,9.616671630859376,-0.05352702736854553,-0.005268708802759647,-0.012446369975805283
1772812390434372600,9.62637255859375,-0.05933023989200592,-0.010461059398949146,-0.022525638341903687
1772812390444073500,9.636073486328126,-0.07002037763595581,-0.023594651371240616,-0.03810269013047218
1772812390463474700,9.655474609375,-0.06727148592472076,0.05123628303408623,-0.05306887626647949
1772812390473175600,9.665175537109375,-0.057497646659612656,0.09521854668855667,-0.04146244749426842
1772812390482876200,9.674876220703124,-0.054443322122097015,0.1037706509232521,-0.026801692321896553
1772812390492577000,9.684576904296875,-0.04802924394607544,0.08513928204774857,-0.0066431546583771706
1772812390502277600,9.694277587890625,-0.03214675933122635,0.04696023091673851,0.011682788841426373
1772812390511978500,9.703978515625,-0.01107192412018776,0.0017562361899763346,0.031230462715029716
1772812390521679400,9.713679443359375,0.004505127668380737,-0.028787001967430115,0.04130972921848297
1772812390531380000,9.7233798828125,0.012140937149524689,-0.037033677101135254,0.039477135986089706
1772812390541080800,9.733080810546875,0.013362666592001915,-0.023594651371240616,0.0345902182161808
1772812390550781400,9.742781494140624,0.012751801870763302,-0.0016035200096666813,0.02023489587008953
1772812390560482300,9.752482421875,0.013057234697043896,0.010919207707047462,0.0022143847309052944
1772812390570183000,9.762182861328125,0.01611155830323696,0.013668099418282509,-0.00755945174023509
1772812390579883800,9.7718837890625,0.0191658828407526,0.017027854919433594,-0.01000291109085083
1772812390589584400,9.78158447265625,0.020387612283229828,0.003283398225903511,-0.005421424750238657
1772812390599285200,9.79128515625,0.016416991129517555,-0.0031306820455938578,0.008933897130191326
1772812390608985900,9.80098583984375,0.009086613543331623,-0.005574141163378954,0.026343543082475662
1772812390618686700,9.810686767578124,0.00022907429956831038,-0.008323032408952713,0.033368486911058426
1772812390628387300,9.82038720703125,0.0017562361899763346,0.006337722297757864,0.0397825688123703
1772812390638088200,9.830088134765624,0.004505127668380737,0.018555017188191414,0.04283689334988594
1772812390647789000,9.8397890625,0.0017562361899763346,0.01763872057199478,0.0449749194085598
1772812390657489700,9.84948974609375,-0.00007635809743078426,0.016416991129517555,0.05047270283102989
1772812390667190500,9.8591904296875,-0.0006872228696011007,0.006948587018996477,0.04650207981467247
1772812390676891100,9.86889111328125,0.002672533504664898,0.006337722297757864,0.04130972921848297
1772812390686592000,9.878592041015626,0.0011453714687377214,0.009392046369612217,0.03367391973733902
1772812390696292600,9.888292724609375,-0.005574141163378954,0.013973532244563103,0.026648975908756256
1772812390705993500,9.897993408203124,-0.010155626572668552,0.020998476073145866,0.014126247726380825
1772812390715694000,9.907694091796875,-0.00954476185142994,0.017027854919433594,-0.0011453714687377214
1772812390725395000,9.91739501953125,-0.011682788841426373,-0.0025198173243552446,-0.017027854919433594
1772812390735095600,9.927095458984375,-0.008933897130191326,-0.027870705351233482,-0.03107774630188942
1772812390744796400,9.93679638671875,0.004199695307761431,-0.036422811448574066,-0.043600473552942276
1772812390754497000,9.9464970703125,0.014278964139521122,-0.036422811448574066,-0.05215258151292801
1772812390764198000,9.956197998046875,0.013057234697043896,-0.026038112118840218,-0.05917752534151077
1772812390773898800,9.965898681640626,0.004810560029000044,-0.004963276442140341,-0.05154171586036682
1772812390783599400,9.975599365234375,-0.008017600513994694,0.008781181648373604,-0.03138317912817001
1772812390793300200,9.98530029296875,-0.021456625312566757,0.012140937149524689,-0.004810560029000044
1772812390803000800,9.995000732421875,-0.031841326504945755,0.011224640533328056,0.02390008419752121
1772812390812701700,10.00470166015625,-0.0397825688123703,0.01030834298580885,0.047723811119794846
1772812390822402300,10.01440234375,-0.04283689334988594,0.013362666592001915,0.06207913160324097
1772812390832103200,10.024103271484375,-0.03825540840625763,0.01611155830323696,0.059635672718286514
1772812390841803800,10.0338037109375,-0.02909243479371071,0.021914774551987648,0.043142326176166534
1772812390851504600,10.043504638671875,-0.015958841890096664,0.027107125148177147,0.018096869811415672
1772812390861205200,10.053205322265624,-0.010766491293907166,0.03627009689807892,-0.006337722297757864
1772812390870906000,10.062906005859375,-0.02176205813884735,0.03504836559295654,-0.018860450014472008
1772812390880606700,10.072606689453124,-0.030925029888749123,0.03352120518684387,-0.03138317912817001
1772812390890307600,10.0823076171875,-0.01779143698513508,0.034437503665685654,-0.03779725730419159
1772812390900008400,10.092008544921875,-0.005268708802759647,0.04085158184170723,-0.04451677203178406
1772812390909709000,10.101708984375,0.00603228947147727,0.036880962550640106,-0.048792824149131775
1772812390919410000,10.111409912109375,0.015500693581998348,0.03260490670800209,-0.046654798090457916
1772812390929110500,10.121110595703126,0.0191658828407526,0.024052800610661507,-0.03657552972435951
1772812390938811400,10.130811279296875,0.021609341725707054,0.013668099418282509,-0.01977674663066864
1772812390948512000,10.140511962890624,0.025274530053138733,-0.01259908638894558,-0.0029779658652842045
1772812390958212600,10.150212646484375,0.01763872057199478,-0.03245219215750694,0.01565340906381607
1772812390967913500,10.15991357421875,0.006948587018996477,-0.03825540840625763,0.04711294546723366
1772812390977614300,10.1696142578125,0.004810560029000044,-0.033368486911058426,0.07521272450685501
1772812390987315000,10.17931494140625,0.012446369975805283,-0.02084576152265072,0.09292780607938766
1772812390997015800,10.189015869140626,0.018860450014472008,-0.01718057133257389,0.09995274990797043
1772812391006716400,10.19871630859375,0.021914774551987648,-0.022678354755043983,0.08895718306303024
1772812391016417300,10.208417236328126,0.023136503994464874,-0.017486004158854485,0.06391172856092453
1772812391026118000,10.218117919921875,0.0191658828407526,-0.013515383005142212,0.022678354755043983
1772812391035818800,10.22781884765625,0.017333287745714188,-0.003741546766832471,-0.02893971838057041
1772812391045519600,10.23751953125,0.023747367784380913,0.011530072428286076,-0.08055779337882996
1772812391055220200,10.24722021484375,0.030772313475608826,0.021609341725707054,-0.12331832945346832
1772812391064920800,10.2569208984375,0.033826638013124466,0.03504836559295654,-0.1453094631433487
1772812391074621700,10.26662158203125,0.024663666263222694,0.03474293276667595,-0.1398116797208786
1772812391084322300,10.276322265625,0.001450803829357028,0.012140937149524689,-0.11018473654985428
