time,seconds_elapsed,z,y,x
1772812441684144000,0.10014404296875,0,0,0
1772812441693844700,0.1098447265625,0.03308868408203125,-0.008728891611099243,-0.00033402442932128906
1772812441713246200,0.12924609375,0.1533527374267578,-0.029316723346710205,-0.003984004259109497
1772812441722946800,0.13894677734375,0.20420169830322266,0.01292535662651062,-0.04881341755390167
1772812441732647400,0.1486474609375,0.1981210708618164,0.004265248775482178,-0.06971568614244461
1772812441742348000,0.15834814453125,0.22002220153808594,-0.044367849826812744,-0.11595894396305084
1772812441752048600,0.168048583984375,0.17250728607177734,-0.030009865760803223,-0.18383333086967468
1772812441761749200,0.177749267578125,0.05211830139160156,-0.02429819107055664,-0.11604732275009155
1772812441771450000,0.1874501953125,0.06823444366455078,-0.05310872197151184,-0.0370291993021965
1772812441781150700,0.197150634765625,-0.008900642395019531,-0.08847218751907349,0.04457515478134155
1772812441790851300,0.206851318359375,-0.014992713928222656,-0.11497923731803894,0.11035247892141342
1772812441800552000,0.216552001953125,-0.02625274658203125,-0.07619971036911011,0.013311468064785004
1772812441810252500,0.22625244140625,-0.08575820922851562,-0.03201475739479065,-0.05575084686279297
1772812441819953200,0.235953125,-0.13723278045654297,0.010634690523147583,-0.10572437196969986
1772812441829654000,0.245654052734375,-0.1669750213623047,0.09623503684997559,-0.10693532973527908
1772812441839354600,0.255354736328125,-0.1752939224243164,0.09347251057624817,-0.06791787594556808
1772812441849055200,0.26505517578125,-0.21422672271728516,0.034163594245910645,0.03870803117752075
1772812441858755800,0.274755859375,-0.19733715057373047,0.0034824907779693604,0.0927247703075409
1772812441868456400,0.28445654296875,-0.21818828582763672,0.006714612245559692,0.1344037652015686
1772812441878157000,0.294156982421875,-0.19295024871826172,-0.015163213014602661,0.1194741353392601
1772812441887857700,0.303857666015625,-0.16691875457763672,0.007021814584732056,0.08287561684846878
1772812441897558500,0.31355859375,-0.13430500030517578,0.04904717206954956,0.06880295276641846
1772812441907259100,0.323259033203125,-0.05624580383300781,0.05059358477592468,0.06808169186115265
1772812441916959700,0.332959716796875,0.035773277282714844,0.016933739185333252,0.059379443526268005
1772812441926660400,0.342660400390625,0.12077713012695312,0.024340718984603882,0.07873432338237762
1772812441936361000,0.35236083984375,0.15777587890625,0.03613564372062683,0.09342946112155914
1772812441946061800,0.362061767578125,0.15432167053222656,0.04478833079338074,0.08963532745838165
1772812441955762400,0.371762451171875,0.13492107391357422,0.017450988292694092,0.1001105010509491
1772812441965463000,0.381463134765625,0.06884956359863281,0.026754677295684814,0.08036486804485321
1772812441975163600,0.39116357421875,-0.035553932189941406,0.004487335681915283,0.09392201900482178
1772812441984864300,0.4008642578125,-0.09496688842773438,0.011971920728683472,0.0726257860660553
1772812441994564900,0.41056494140625,-0.1584186553955078,0.05330324172973633,0.08110727369785309
1772812442004265500,0.420265380859375,-0.11554622650146484,-0.0072956085205078125,0.017911121249198914
1772812442013966300,0.42996630859375,-0.20058536529541016,-0.10037991404533386,-0.08274351060390472
1772812442023667000,0.4396669921875,-0.25072288513183594,-0.06840276718139648,-0.1301260143518448
1772812442033367600,0.449367431640625,-0.2704610824584961,0.013459324836730957,-0.1607348620891571
1772812442043068200,0.459068115234375,-0.21988868713378906,0.018335580825805664,-0.13443244993686676
1772812442052768800,0.468768798828125,-0.15674209594726562,-0.06365665793418884,-0.056136369705200195
1772812442062469600,0.4784697265625,-0.0637979507446289,-0.07780519127845764,-0.013066671788692474
1772812442072170200,0.488170166015625,0.04659748077392578,-0.04941698908805847,0.023452624678611755
1772812442081870800,0.497870849609375,0.11690711975097656,-0.007869124412536621,0.06427565217018127
1772812442091571500,0.507571533203125,0.18085479736328125,0.007987350225448608,0.10386322438716888
1772812442101272000,0.51727197265625,0.19072437286376953,0.027293145656585693,0.12896034121513367
1772812442110972700,0.52697265625,0.18288326263427734,0.08156436681747437,0.1231483519077301
1772812442120673300,0.53667333984375,0.18577098846435547,0.1124311089515686,0.11108937859535217
1772812442130374000,0.546373779296875,0.11370086669921875,0.08473914861679077,0.08398696780204773
1772812442140074800,0.55607470703125,0.08536911010742188,0.06610983610153198,0.06229571998119354
1772812442149775400,0.565775390625,0.028367042541503906,0.08118447661399841,0.051012784242630005
1772812442159476000,0.57547607421875,-0.05091094970703125,-0.006599485874176025,0.037006452679634094
1772812442169176600,0.585176513671875,-0.10633563995361328,-0.053109705448150635,0.036637768149375916
1772812442178877400,0.59487744140625,-0.13370323181152344,-0.04946449398994446,-0.007735684514045715
1772812442188578000,0.604578125,-0.13239765167236328,-0.047472864389419556,-0.01347053050994873
1772812442198278700,0.614278564453125,-0.11119651794433594,-0.043317824602127075,-0.02562589943408966
1772812442207979300,0.623979248046875,-0.10569190979003906,-0.056095510721206665,0.021260619163513184
1772812442217680000,0.633679931640625,-0.11206531524658203,-0.05603015422821045,0.07208910584449768
1772812442227380500,0.64338037109375,-0.13007354736328125,-0.0483170747756958,0.07888203859329224
1772812442237081000,0.6530810546875,-0.14069843292236328,-0.009020328521728516,0.05942621827125549
1772812442246781700,0.66278173828125,-0.111114501953125,0.07238948345184326,0.030626773834228516
1772812442256482600,0.672482666015625,-0.03728675842285156,0.1206611692905426,-0.01700425148010254
1772812442266183200,0.68218310546875,-0.02232646942138672,0.07538488507270813,-0.027343615889549255
1772812442275883800,0.6918837890625,0.04765033721923828,0.02461385726928711,-0.012033343315124512
1772812442285584400,0.70158447265625,0.049315452575683594,-0.007734447717666626,0.018645569682121277
1772812442295285000,0.711284912109375,0.09090995788574219,-0.05603256821632385,0.01977391541004181
1772812442304985900,0.72098583984375,0.12351703643798828,-0.07696837186813354,-0.03334566950798035
1772812442314686500,0.7306865234375,0.05669593811035156,-0.06940695643424988,-0.052488699555397034
1772812442324387000,0.740386962890625,0.055663108825683594,-0.06246301531791687,-0.041480302810668945
1772812442334087700,0.750087646484375,0.0016908645629882812,-0.010916262865066528,-0.015624091029167175
1772812442343788300,0.759788330078125,0.000392913818359375,0.012908726930618286,0.008589029312133789
1772812442353489000,0.769489013671875,-0.01263427734375,0.024955958127975464,0.062143802642822266
1772812442363189500,0.779189453125,-0.03720378875732422,0.002983659505844116,0.07752113044261932
1772812442372890400,0.788890380859375,-0.033095359802246094,0.028960585594177246,0.10287927091121674
1772812442382591000,0.798591064453125,-0.01726245880126953,0.05595368146896362,0.09057816863059998
1772812442392291600,0.80829150390625,-0.047560691833496094,0.03451353311538696,0.05118840932846069
1772812442401992200,0.8179921875,-0.05024147033691406,0.02653414011001587,0.03647914528846741
1772812442411692800,0.82769287109375,-0.06110191345214844,0.06445831060409546,0.0557737797498703
1772812442421393700,0.8373935546875,-0.0658864974975586,0.016440242528915405,0.06857950985431671
1772812442431094300,0.84709423828125,-0.028223037719726562,-0.017905503511428833,0.04373528063297272
1772812442440795000,0.856794921875,0.011122703552246094,-0.0069466233253479,0.04925975203514099
1772812442450495500,0.86649560546875,0.022716522216796875,0.002885580062866211,0.04486425220966339
1772812442460196000,0.876196044921875,0.02584362030029297,-0.017912626266479492,0.012960359454154968
1772812442469896700,0.885896728515625,-0.006358146667480469,-0.013598531484603882,-0.04631361365318298
1772812442479597600,0.89559765625,-0.008575439453125,0.03834956884384155,-0.08241841197013855
1772812442489298200,0.905298095703125,-0.021346092224121094,0.03349423408508301,-0.07900053262710571
1772812442498998800,0.914998779296875,0.011964797973632812,-0.04066210985183716,-0.08066683262586594
1772812442508699400,0.924699462890625,0.044693946838378906,-0.06804460287094116,-0.04757286608219147
1772812442518400000,0.93439990234375,0.0638885498046875,-0.03937488794326782,-0.020701944828033447
1772812442528100600,0.9441005859375,0.06978511810302734,-0.02278873324394226,-0.044190481305122375
1772812442537801200,0.95380126953125,0.023805618286132812,-0.05292460322380066,-0.05159956216812134
1772812442547502000,0.963502197265625,-0.016692161560058594,-0.047281503677368164,-0.04286910593509674
1772812442557202700,0.97320263671875,-0.040009498596191406,-0.030706286430358887,-0.053871870040893555
1772812442566903300,0.9829033203125,-0.08759117126464844,-0.04887545108795166,-0.052481427788734436
1772812442576604000,0.99260400390625,-0.06375694274902344,-0.049245625734329224,-0.02583104372024536
1772812442586304500,1.002304443359375,-0.10852813720703125,-0.01934114098548889,0.030680418014526367
1772812442596005400,1.01200537109375,-0.07251739501953125,-0.0057836174964904785,0.02355189621448517
1772812442605706000,1.0217060546875,-0.09120941162109375,0.006703317165374756,0.05414000153541565
1772812442615406600,1.031406494140625,-0.08485126495361328,0.02203652262687683,0.0690760612487793
1772812442625107200,1.041107177734375,-0.0868215560913086,0.017366081476211548,0.06381240487098694
1772812442634807800,1.050807861328125,-0.07345771789550781,0.0480324923992157,0.05584254860877991
1772812442644508400,1.06050830078125,-0.027382850646972656,0.05442315340042114,0.058431923389434814
1772812442654209000,1.070208984375,-0.0033025741577148438,0.04822614789009094,0.0782516747713089
1772812442663910000,1.079909912109375,0.026192665100097656,-0.005995571613311768,0.09839999675750732
1772812442673610500,1.089610595703125,0.059874534606933594,-0.00939682126045227,0.06508268415927887
1772812442683311000,1.09931103515625,0.0718088150024414,0.022356480360031128,0.007591933012008667
1772812442693011700,1.10901171875,0.03413867950439453,0.06194549798965454,-0.058427125215530396
1772812442702712300,1.11871240234375,0.019510269165039062,0.046532392501831055,-0.0440443754196167
1772812442712413200,1.1284130859375,-0.008969306945800781,0.018983006477355957,-0.055563151836395264
1772812442722113800,1.13811376953125,-0.0216522216796875,-0.01196107268333435,-0.046205177903175354
1772812442731814400,1.147814453125,-0.0035409927368164062,-0.04325142502784729,-0.010036230087280273
1772812442741515000,1.157514892578125,-0.009289741516113281,-0.0578635036945343,-0.006677970290184021
1772812442751215600,1.167215576171875,0.03795051574707031,-0.06739887595176697,-0.02707485854625702
1772812442760916200,1.176916259765625,0.046669960021972656,-0.02197381854057312,0.02010740339756012
1772812442770616800,1.186616943359375,0.030485153198242188,-0.024721741676330566,0.033542126417160034
1772812442780317400,1.1963173828125,0.00634002685546875,-0.014164566993713379,0.017320722341537476
1772812442790018300,1.206018310546875,-0.05734729766845703,0.054490506649017334,-0.03048788011074066
1772812442799719000,1.215718994140625,-0.13988494873046875,0.10034766793251038,-0.0018838495016098022
1772812442809419500,1.22541943359375,-0.15974140167236328,0.08715340495109558,-0.0084037184715271
1772812442819120000,1.2351201171875,-0.17444324493408203,0.08166942000389099,-0.024419233202934265
1772812442828820700,1.24482080078125,-0.13117694854736328,0.07348203659057617,-0.047373756766319275
1772812442838521600,1.254521484375,-0.045121192932128906,0.0418248176574707,-0.0018117725849151611
1772812442848222200,1.26422216796875,0.07470703125,-0.02898058295249939,0.044650524854660034
1772812442857922800,1.2739228515625,0.19243621826171875,-0.06605726480484009,0.06156794726848602
1772812442867623400,1.28362353515625,0.21277904510498047,-0.07222163677215576,0.043655142188072205
1772812442877324000,1.293323974609375,0.17736434936523438,-0.05435293912887573,0.05076879262924194
1772812442887024600,1.303024658203125,0.14013099670410156,-0.04219275712966919,0.02703128755092621
1772812442906425900,1.32242578125,0.02994823455810547,-0.026974767446517944,0.00631299614906311
1772812442916126700,1.332126708984375,-0.035366058349609375,0.0384734570980072,-0.005318343639373779
1772812442925827300,1.341827392578125,-0.10187911987304688,0.07218164205551147,-0.025393784046173096
1772812442935528000,1.35152783203125,-0.11309146881103516,0.049301475286483765,0.017540112137794495
1772812442945228500,1.361228515625,-0.087615966796875,0.02420058846473694,0.07114887237548828
1772812442954929400,1.370929443359375,-0.04374980926513672,-0.012377649545669556,0.09690399467945099
1772812442964630000,1.380630126953125,-0.008861541748046875,0.0027519166469573975,0.03520597517490387
1772812442974330600,1.39033056640625,-0.021577835083007812,0.048161327838897705,-0.0001891404390335083
1772812442984031200,1.40003125,-0.02347278594970703,0.08289462327957153,-0.03320913016796112
1772812442993731800,1.40973193359375,-0.053600311279296875,0.058606237173080444,0.011941403150558472
1772812443003432400,1.419432373046875,0.016753196716308594,0.0005681514739990234,0.04086875915527344
1772812443013133000,1.429133056640625,0.05176353454589844,-0.021098732948303223,0.04094886779785156
1772812443022834000,1.438833984375,0.0838003158569336,0.0012395679950714111,0.0307607501745224
1772812443032534500,1.448534423828125,0.05878448486328125,0.012832850217819214,0.006603926420211792
1772812443042235100,1.458235107421875,0.025902748107910156,-0.0036967694759368896,-0.014606744050979614
1772812443051935700,1.467935791015625,-0.006421089172363281,-0.026226282119750977,-0.035694777965545654
1772812443061636400,1.47763623046875,-0.054617881774902344,-0.013740718364715576,-0.09325617551803589
1772812443071337000,1.4873369140625,-0.11252593994140625,0.004535675048828125,-0.10567636787891388
1772812443081037800,1.497037841796875,-0.07649993896484375,-0.009286642074584961,-0.04338465631008148
1772812443090738400,1.506738525390625,-0.03284931182861328,-0.04948824644088745,0.026533275842666626
1772812443100439000,1.51643896484375,0.06296539306640625,-0.07447689771652222,0.04990635812282562
1772812443110139600,1.5261396484375,0.0971364974975586,-0.056715697050094604,0.0287511944770813
1772812443119840300,1.53584033203125,0.11776256561279297,0.012648016214370728,0.01170659065246582
1772812443129540900,1.545540771484375,0.058045387268066406,0.05819779634475708,0.010697707533836365
1772812443139241700,1.55524169921875,-0.017108917236328125,0.02845919132232666,0.004997819662094116
1772812443148942300,1.5649423828125,-0.06863880157470703,0.0002636909484863281,0.022266194224357605
1772812443158643000,1.574642822265625,-0.07696056365966797,-0.012784749269485474,0.08675506711006165
1772812443168343600,1.584343505859375,-0.04044914245605469,-0.011706769466400146,0.07367286086082458
1772812443178044200,1.594044189453125,-0.004561424255371094,0.0003980696201324463,0.023374319076538086
1772812443187744800,1.603744873046875,-0.03281116485595703,-0.010648727416992188,0.006922110915184021
1772812443197445400,1.6134453125,-0.021765708923339844,0.012323379516601562,0.016004279255867004
1772812443207146000,1.62314599609375,-0.055602073669433594,-0.009713798761367798,0.025899291038513184
1772812443216846800,1.632846923828125,-0.0911855697631836,-0.021181732416152954,-0.003315761685371399
1772812443226547500,1.64254736328125,-0.12377452850341797,0.008677393198013306,-0.022314757108688354
1772812443236248000,1.652248046875,-0.107513427734375,0.025435149669647217,-0.051384761929512024
1772812443245948700,1.66194873046875,-0.06678104400634766,0.03347814083099365,-0.04410448670387268
1772812443255649500,1.6716494140625,-0.034958839416503906,0.025152117013931274,-0.028289809823036194
1772812443265350100,1.68135009765625,0.02455902099609375,-0.0008536577224731445,-0.012628033757209778
1772812443275050800,1.69105078125,0.05012321472167969,0.017820656299591064,0.013289079070091248
1772812443284751400,1.70075146484375,0.05640411376953125,0.002584129571914673,0.03522655367851257
1772812443294452000,1.710451904296875,0.021338462829589844,-0.02067786455154419,0.042928680777549744
1772812443304152600,1.720152587890625,-0.014356613159179688,-0.010428637266159058,0.06984391808509827
1772812443313853200,1.729853271484375,-0.015333175659179688,0.015709519386291504,0.07261767983436584
1772812443323553800,1.7395537109375,-0.045680999755859375,0.006526529788970947,0.08098819851875305
1772812443333254400,1.74925439453125,-0.059017181396484375,0.013682186603546143,0.08386662602424622
1772812443342955300,1.758955322265625,-0.04737091064453125,0.016154855489730835,0.03899826109409332
1772812443352656000,1.76865576171875,-0.01941394805908203,0.03619232773780823,-0.00978042185306549
1772812443362356500,1.7783564453125,0.05394268035888672,0.03818437457084656,-0.06292635202407837
1772812443372057000,1.78805712890625,0.11895751953125,0.03067871928215027,-0.09875935316085815
1772812443381758000,1.797758056640625,0.12162113189697266,-0.005731403827667236,-0.1132979616522789
1772812443391458600,1.80745849609375,0.09711551666259766,-0.04090559482574463,-0.09095528721809387
1772812443401159200,1.8171591796875,0.06474971771240234,-0.0412767231464386,-0.06538410484790802
1772812443410859800,1.82685986328125,-0.017658233642578125,-0.019262850284576416,-0.047473758459091187
1772812443420560400,1.836560302734375,-0.0692291259765625,-0.03169563412666321,-0.025975346565246582
1772812443430261000,1.846260986328125,-0.08577919006347656,-0.04488927125930786,-0.005696147680282593
1772812443439961600,1.855961669921875,-0.08789348602294922,-0.04734128713607788,0.017262056469917297
1772812443449662500,1.865662353515625,-0.03579902648925781,-0.019741743803024292,-0.04400564730167389
1772812443459363000,1.875363037109375,-0.0033807754516601562,0.012140244245529175,-0.04252809286117554
1772812443469063700,1.885063720703125,0.02258777618408203,0.03367030620574951,-0.009011581540107727
1772812443478764300,1.894764404296875,0.012808799743652344,0.005003809928894043,0.015708163380622864
1772812443488465000,1.90446484375,0.003185272216796875,-0.009335130453109741,0.026727735996246338
1772812443498165500,1.91416552734375,-0.005106925964355469,0.03997069597244263,0.07165302336215973
1772812443507866000,1.9238662109375,-0.020292282104492188,0.05477610230445862,0.09324008226394653
1772812443517567000,1.93356689453125,-0.031681060791015625,0.06607559323310852,0.07555341720581055
1772812443527267600,1.943267578125,-0.05108642578125,0.09180402755737305,0.05087912082672119
1772812443536968200,1.95296826171875,-0.026594161987304688,0.12050244212150574,0.041239380836486816
1772812443546668800,1.962668701171875,-0.03779125213623047,0.09301957488059998,0.03298644721508026
1772812443556369400,1.972369384765625,-0.0052738189697265625,0.031978726387023926,0.029971644282341003
1772812443566070300,1.9820703125,0.045510292053222656,-0.004923701286315918,-0.00022515654563903809
1772812443575771000,1.99177099609375,0.08127689361572266,-0.029317259788513184,-0.02997589111328125
1772812443585471500,2.001471435546875,0.08458614349365234,-0.052756309509277344,-0.047136127948760986
1772812443595172000,2.011172119140625,0.12543010711669922,-0.07368525862693787,-0.06122975796461105
1772812443604872700,2.020872802734375,0.09613037109375,-0.0824139416217804,-0.09995096921920776
1772812443614573300,2.0305732421875,0.0625905990600586,-0.051458656787872314,-0.11329350620508194
1772812443624274000,2.04027392578125,0.028464317321777344,-0.020685046911239624,-0.10241061449050903
1772812443633974500,2.049974609375,-0.00972747802734375,-0.00006654858589172363,-0.10721457749605179
1772812443643675400,2.05967529296875,-0.057806968688964844,0.006103605031967163,-0.08281314373016357
1772812443653376000,2.0693759765625,-0.08504867553710938,0.0025994479656219482,0.002022191882133484
1772812443663076600,2.07907666015625,-0.07888221740722656,0.009406208992004395,0.06818188726902008
1772812443672777200,2.088777099609375,-0.04811382293701172,0.021188884973526,0.08131082355976105
1772812443682478000,2.09847802734375,-0.0002269744873046875,0.007831662893295288,0.08853557705879211
1772812443692178700,2.1081787109375,0.03862762451171875,0.023967117071151733,0.057624489068984985
1772812443701879300,2.11787939453125,0.06505584716796875,0.07568994164466858,0.03340485692024231
1772812443711580000,2.127579833984375,0.04985332489013672,0.07640326023101807,0.023639217019081116
1772812443721280500,2.137280517578125,0.03960895538330078,0.053224027156829834,0.03433313965797424
1772812443730981000,2.146981201171875,-0.026932716369628906,0.029552757740020752,0.0702565610408783
1772812443740681700,2.156681640625,-0.026497840881347656,0.00640559196472168,0.10898049175739288
1772812443750382300,2.16638232421875,-0.010802268981933594,-0.04009813070297241,0.08316704630851746
1772812443760083000,2.1760830078125,0.014031410217285156,-0.054352760314941406,0.02482450008392334
1772812443769783800,2.18578369140625,0.03727531433105469,-0.005949079990386963,-0.0089033842086792
1772812443779484400,2.195484375,0.03423023223876953,-0.01523292064666748,-0.020939797163009644
1772812443789185000,2.20518505859375,0.06063365936279297,-0.04138529300689697,-0.056948766112327576
1772812443798885600,2.2148857421875,0.02892780303955078,-0.03718692064285278,-0.043522849678993225
1772812443808586200,2.224586181640625,-0.0010652542114257812,-0.0036414265632629395,-0.04126352071762085
1772812443818287000,2.234287109375,-0.03171730041503906,0.009940147399902344,-0.011359304189682007
1772812443827987700,2.24398779296875,-0.05713939666748047,-0.008935987949371338,0.030919447541236877
1772812443837688300,2.253688232421875,-0.035080909729003906,-0.008455157279968262,0.06133183836936951
1772812443847389000,2.263388916015625,0.026605606079101562,-0.0011116266250610352,0.08278559148311615
1772812443857089500,2.273089599609375,0.047226905822753906,-0.010193288326263428,0.08921217918395996
1772812443866790100,2.2827900390625,0.013376235961914062,-0.02449217438697815,0.0556342750787735
1772812443876490800,2.29249072265625,-0.019880294799804688,0.012238174676895142,-0.005507081747055054
1772812443886191600,2.302191650390625,-0.08310699462890625,0.05303394794464111,-0.04369308054447174
1772812443895892200,2.311892333984375,-0.10283374786376953,0.031675755977630615,-0.07635843008756638
1772812443905592800,2.3215927734375,-0.10805225372314453,0.028915077447891235,-0.07081201672554016
1772812443915293400,2.33129345703125,-0.07903480529785156,-0.012766391038894653,-0.05626758933067322
1772812443924994000,2.340994140625,-0.024619102478027344,-0.048006534576416016,-0.0432957261800766
1772812443934694700,2.350694580078125,0.051215171813964844,-0.045919954776763916,-0.02777799963951111
1772812443944395300,2.360395263671875,0.0904388427734375,-0.08522966504096985,0.010240256786346436
1772812443954096000,2.37009619140625,0.09363174438476562,-0.10085028409957886,-0.012178406119346619
1772812443963796700,2.379796630859375,0.09433841705322266,-0.08818274736404419,-0.00431901216506958
1772812443973497300,2.389497314453125,0.09258460998535156,-0.0762762725353241,0.014712855219841003
1772812443983198000,2.399197998046875,0.09434795379638672,-0.047832190990448,0.027395054697990417
1772812443992898600,2.408898681640625,0.03961181640625,-0.01298472285270691,0.034878864884376526
1772812444002599400,2.418599365234375,-0.01890087127685547,0.03579598665237427,0.018850326538085938
1772812444012300000,2.428300048828125,-0.06580924987792969,0.05408567190170288,0.0410546213388443
1772812444022000600,2.438000732421875,-0.09656715393066406,0.065447598695755,0.05220629274845123
1772812444031701200,2.447701171875,-0.12084674835205078,0.08534267544746399,0.0382750928401947
1772812444041401900,2.45740185546875,-0.12347030639648438,0.07592597603797913,0.03985321521759033
1772812444051102500,2.4671025390625,-0.12950611114501953,0.04337140917778015,0.04584398865699768
1772812444060803000,2.476802978515625,-0.08716773986816406,0.0558222234249115,0.013108089566230774
1772812444070503700,2.486503662109375,-0.07965755462646484,0.014059841632843018,0.027336522936820984
1772812444080204500,2.49620458984375,-0.026393890380859375,-0.03312161564826965,0.005793169140815735
1772812444089905200,2.5059052734375,0.027113914489746094,-0.05341970920562744,-0.01894676685333252
1772812444099605800,2.515605712890625,0.06319808959960938,-0.07008251547813416,-0.036482855677604675
1772812444109306400,2.525306396484375,0.08801651000976562,-0.07525137066841125,-0.044706106185913086
1772812444119007000,2.535007080078125,0.11237716674804688,-0.06020054221153259,-0.053063347935676575
1772812444128707600,2.54470751953125,0.09979534149169922,-0.019466131925582886,-0.05357745289802551
1772812444138408400,2.554408447265625,0.07329654693603516,-0.019489377737045288,-0.03857418894767761
1772812444148109000,2.564109130859375,0.03903770446777344,0.0034439265727996826,-0.06517551839351654
1772812444157809700,2.5738095703125,-0.03225231170654297,0.025870859622955322,-0.061713993549346924
1772812444167510300,2.58351025390625,-0.06936836242675781,-0.0014990568161010742,-0.0424128919839859
1772812444177211000,2.5932109375,-0.08465003967285156,-0.026191294193267822,-0.03349146246910095
1772812444186911500,2.602911376953125,-0.036126136779785156,-0.030106693506240845,-0.016660213470458984
1772812444196612400,2.6126123046875,-0.00020122528076171875,-0.008664160966873169,-0.010825768113136292
1772812444206313000,2.62231298828125,0.006865501403808594,-0.00004553794860839844,-0.019643142819404602
1772812444216013600,2.632013671875,0.025559425354003906,-0.011043518781661987,-0.020752742886543274
1772812444225714200,2.641714111328125,-0.026660919189453125,-0.01269984245300293,-0.002817988395690918
1772812444235414800,2.651414794921875,-0.06388568878173828,0.0024803578853607178,0.03394891321659088
1772812444245115400,2.661115478515625,-0.09927940368652344,-0.023182541131973267,0.031031131744384766
1772812444254816000,2.67081591796875,-0.07288169860839844,-0.04685080051422119,0.0031296908855438232
1772812444264516600,2.6805166015625,-0.05160713195800781,-0.009755343198776245,-0.0057069361209869385
1772812444274217500,2.690217529296875,-0.03183937072753906,0.04001310467720032,-0.013646721839904785
1772812444283918000,2.69991796875,-0.00180816650390625,0.0654580295085907,-0.034462347626686096
1772812444293618700,2.70961865234375,0.0006771087646484375,0.050759345293045044,-0.012641504406929016
1772812444303319300,2.7193193359375,0.0031299591064453125,0.05779087543487549,0.0009417086839675903
1772812444313020000,2.72902001953125,0.0008268356323242188,0.033018261194229126,0.012578979134559631
1772812444322720800,2.738720703125,0.00676727294921875,-0.015194475650787354,0.026046156883239746
1772812444332421400,2.74842138671875,0.025519371032714844,-0.02541622519493103,0.05734403431415558
1772812444342122000,2.7581220703125,0.06510162353515625,0.0014972984790802002,0.012847483158111572
1772812444351822600,2.767822509765625,0.0992746353149414,0.00224420428276062,0.00997576117515564
1772812444361523200,2.777523193359375,0.09754276275634766,0.006839662790298462,-0.002332165837287903
1772812444371223800,2.787223876953125,0.07346534729003906,0.010935544967651367,0.01742038130760193
1772812444380924400,2.79692431640625,0.041530609130859375,-0.003170579671859741,0.01092064380645752
1772812444390625000,2.806625,0.011317253112792969,-0.009994328022003174,0.03681837022304535
1772812444400326000,2.816325927734375,-0.02893352508544922,-0.0030673742294311523,-0.0007231682538986206
1772812444410026500,2.826026611328125,-0.06843280792236328,0.04421532154083252,-0.04247558116912842
1772812444419727000,2.83572705078125,-0.09307384490966797,0.060805708169937134,-0.06426411122083664
1772812444429427700,2.845427734375,-0.07372093200683594,0.05135703086853027,-0.07812124490737915
1772812444439128300,2.85512841796875,-0.009989738464355469,0.03166323900222778,-0.052116215229034424
1772812444448829000,2.864828857421875,0.037314414978027344,-0.020624518394470215,-0.011622428894042969
1772812444458529800,2.87452978515625,0.11080265045166016,-0.039856672286987305,0.04892921447753906
1772812444468230400,2.88423046875,0.13474178314208984,-0.05755189061164856,0.05653059482574463
1772812444477931000,2.893930908203125,0.1005868911743164,-0.03535115718841553,0.05069439113140106
1772812444487631600,2.903631591796875,0.05053424835205078,0.007593870162963867,0.04709737002849579
1772812444497332200,2.913332275390625,-0.031599998474121094,0.008206188678741455,0.04059629142284393
1772812444507033000,2.923033203125,-0.0628824234008789,-0.0024880170822143555,0.03115876019001007
1772812444516733700,2.932733642578125,-0.05124187469482422,0.021308988332748413,0.027491495013237
1772812444526434300,2.942434326171875,-0.04804039001464844,0.05100509524345398,0.005372539162635803
1772812444536135000,2.952135009765625,0.028076171875,0.033405452966690063,0.009952440857887268
1772812444545835500,2.96183544921875,0.06998157501220703,0.022609949111938477,0.013071537017822266
1772812444555536100,2.9715361328125,0.048806190490722656,-0.00410124659538269,0.03227709233760834
1772812444565236700,2.98123681640625,0.011500358581542969,-0.010628700256347656,0.04996971786022186
1772812444574937300,2.990937255859375,-0.015783309936523438,-0.009913325309753418,0.048108235001564026
1772812444584638000,3.000637939453125,-0.02380847930908203,-0.024540483951568604,0.07892909646034241
1772812444594338800,3.0103388671875,-0.009370803833007812,-0.05238550901412964,0.045681118965148926
1772812444604039400,3.020039306640625,-0.02105426788330078,-0.018878817558288574,0.013385146856307983
1772812444613740000,3.029739990234375,-0.012521743774414062,0.007099419832229614,0.0007019490003585815
1772812444623440600,3.039440673828125,-0.02645397186279297,0.006074041128158569,-0.013270094990730286
1772812444633141200,3.049141357421875,-0.030702590942382812,-0.003515958786010742,-0.029341936111450195
1772812444642841900,3.058841796875,-0.05249500274658203,0.01026451587677002,0.004653036594390869
1772812444652542700,3.068542724609375,-0.05859851837158203,0.005926668643951416,0.016436800360679626
1772812444662243300,3.078243408203125,-0.021088600158691406,-0.025154024362564087,0.048265352845191956
1772812444671944000,3.08794384765625,0.028692245483398438,-0.055427759885787964,0.062176331877708435
1772812444681644500,3.09764453125,0.09640693664550781,-0.0727849006652832,0.00885319709777832
1772812444691345200,3.10734521484375,0.09473323822021484,-0.052188336849212646,-0.06289303302764893
1772812444701045800,3.117045654296875,0.06836128234863281,-0.02545952796936035,-0.08201725780963898
1772812444710746600,3.12674658203125,0.02828693389892578,-0.015717804431915283,-0.04912234842777252
1772812444720447200,3.136447265625,0.03710460662841797,-0.029691994190216064,-0.05857934057712555
1772812444730147800,3.14614794921875,0.00226593017578125,-0.009033411741256714,-0.05060279369354248
1772812444739848400,3.155848388671875,-0.03428936004638672,0.03799501061439514,-0.04946793615818024
1772812444749549000,3.165549072265625,-0.07842254638671875,0.060561299324035645,-0.028334766626358032
1772812444759249700,3.175249755859375,-0.10413169860839844,0.01922452449798584,0.019037604331970215
1772812444768950300,3.1849501953125,-0.08704471588134766,-0.05353948473930359,0.07986059784889221
1772812444778651000,3.19465087890625,-0.03732776641845703,-0.07009106874465942,0.09670817852020264
1772812444788351500,3.2043515625,0.029180526733398438,-0.06035467982292175,0.023938387632369995
1772812444798052400,3.21405224609375,0.049872398376464844,-0.019737273454666138,-0.05869261920452118
1772812444807753000,3.2237529296875,0.01727294921875,-0.010821491479873657,-0.06537559628486633
1772812444817453600,3.23345361328125,-0.02302265167236328,-0.07955482602119446,-0.0597454309463501
1772812444827154200,3.243154296875,-0.024999618530273438,-0.10789024829864502,-0.029565170407295227
1772812444836855000,3.25285498046875,0.020089149475097656,-0.09241628646850586,-0.00840643048286438
1772812444846555600,3.2625556640625,0.06674957275390625,-0.07564076781272888,-0.04208621382713318
1772812444856256300,3.27225634765625,0.05731773376464844,-0.03741326928138733,-0.06638257205486298
1772812444865956900,3.281956787109375,0.03159141540527344,0.016510576009750366,-0.05506673455238342
1772812444875657500,3.291657470703125,-0.018408775329589844,0.05207061767578125,-0.06483176350593567
1772812444885358000,3.301358154296875,-0.09578227996826172,0.07604500651359558,-0.012788519263267517
1772812444895058700,3.31105859375,-0.07067584991455078,0.055644869804382324,0.038216009736061096
1772812444904759300,3.32075927734375,-0.10245990753173828,0.05022066831588745,0.12968112528324127
1772812444914460200,3.330460205078125,-0.05604362487792969,0.004078209400177002,0.15352725982666016
1772812444924160800,3.340160888671875,-0.0303802490234375,0.03647574782371521,0.10558034479618073
1772812444933861400,3.349861328125,0.02667713165283203,0.07250276207923889,0.04645806550979614
1772812444943562000,3.35956201171875,0.008708000183105469,0.07699179649353027,-0.031749263405799866
1772812444953262600,3.3692626953125,0.000492095947265625,0.04743105173110962,-0.06182597577571869
1772812444962963200,3.378963134765625,0.013564109802246094,0.0044908225536346436,-0.05766528844833374
1772812444972663800,3.388663818359375,0.07578849792480469,-0.0511803925037384,-0.014924675226211548
1772812444982364400,3.398364501953125,0.10041427612304688,-0.09374049305915833,-0.024682477116584778
1772812444992065300,3.408065185546875,0.15984630584716797,-0.11312821507453918,-0.03937715291976929
1772812445001766000,3.417765869140625,0.12293624877929688,-0.06593263149261475,-0.10290266573429108
1772812445011466500,3.427466552734375,0.050141334533691406,-0.027669906616210938,-0.1313304901123047
1772812445021167000,3.4371669921875,-0.044938087463378906,0.0033435821533203125,-0.1550031155347824
1772812445030867700,3.44686767578125,-0.114837646484375,0.03432106971740723,-0.08580304682254791
1772812445040568600,3.456568603515625,-0.16466236114501953,0.03752580285072327,-0.043990641832351685
1772812445050269200,3.466269287109375,-0.16888141632080078,0.03298380970954895,0.00010451674461364746
1772812445059969800,3.4759697265625,-0.1364908218383789,0.04530656337738037,0.00600181519985199
1772812445069670400,3.48567041015625,-0.07872486114501953,0.051072150468826294,0.043679580092430115
1772812445079371000,3.49537109375,-0.01018524169921875,0.03263825178146362,0.0667349249124527
1772812445089071600,3.505071533203125,0.06304454803466797,0.010953783988952637,0.09017375111579895
1772812445098772200,3.514772216796875,0.10793781280517578,0.015342801809310913,0.09636902809143066
1772812445108473000,3.52447314453125,0.10967063903808594,0.026894837617874146,0.07589125633239746
1772812445118173700,3.534173583984375,0.09132957458496094,0.018632888793945312,0.0691368579864502
1772812445127874300,3.543874267578125,0.07444190979003906,0.006381332874298096,0.03293490409851074
1772812445137575000,3.553574951171875,0.029621124267578125,0.021570205688476562,-0.013771027326583862
1772812445147275500,3.563275634765625,-0.043839454650878906,0.040560513734817505,-0.05971705913543701
1772812445156976000,3.57297607421875,-0.08662223815917969,0.04121550917625427,-0.05453553795814514
1772812445166676700,3.5826767578125,-0.11804771423339844,0.04395070672035217,-0.05939827859401703
1772812445176377300,3.59237744140625,-0.12300491333007812,0.03596144914627075,-0.04701782763004303
1772812445186078200,3.602078125,-0.1384115219116211,0.05279994010925293,-0.021947458386421204
1772812445195778800,3.61177880859375,-0.09824180603027344,0.0488545298576355,0.023258671164512634
1772812445205479400,3.6214794921875,-0.04226875305175781,0.011123239994049072,0.07532384991645813
1772812445215180000,3.631179931640625,0.056270599365234375,0.010158807039260864,0.10028719902038574
1772812445224880600,3.640880615234375,0.1413421630859375,0.00019288063049316406,0.10009448230266571
1772812445234581500,3.65058154296875,0.18138885498046875,-0.02285134792327881,0.06607766449451447
1772812445244282000,3.6602822265625,0.2324361801147461,-0.01340290904045105,-0.0041227787733078
1772812445253982700,3.669982666015625,0.21198177337646484,0.011907428503036499,-0.056428998708724976
1772812445263683300,3.679683349609375,0.14829444885253906,0.009716004133224487,-0.0779554694890976
1772812445273384000,3.689384033203125,0.0715341567993164,-0.013968497514724731,-0.07093128561973572
1772812445283084500,3.69908447265625,0.012529373168945312,-0.045400530099868774,-0.05926826596260071
1772812445292785200,3.70878515625,-0.034870147705078125,-0.02515202760696411,-0.031580597162246704
1772812445302485800,3.71848583984375,-0.0908355712890625,-0.006691277027130127,-0.025019288063049316
1772812445312186600,3.7281865234375,-0.1246328353881836,-0.019031107425689697,-0.014850497245788574
1772812445321887200,3.73788720703125,-0.1484384536743164,0.015711426734924316,0.022624090313911438
1772812445331587800,3.747587890625,-0.11065292358398438,-0.00020620226860046387,0.04344990849494934
1772812445341288400,3.757288330078125,-0.07347869873046875,-0.0027823150157928467,0.007994681596755981
1772812445350989000,3.766989013671875,-0.041599273681640625,0.02774640917778015,-0.003475770354270935
1772812445360689700,3.776689697265625,-0.046695709228515625,0.09212425351142883,-0.009716048836708069
1772812445370390300,3.786390380859375,-0.056392669677734375,0.08283403515815735,0.021781757473945618
1772812445380091000,3.7960908203125,-0.043567657470703125,0.026882290840148926,0.06712397933006287
1772812445389791700,3.805791748046875,0.0031337738037109375,0.011647909879684448,0.11010788381099701
1772812445399492400,3.815492431640625,0.025493621826171875,-0.014255225658416748,0.11804379522800446
1772812445409193000,3.82519287109375,0.06390666961669922,-0.018172264099121094,0.10614506900310516
1772812445418893600,3.8348935546875,0.04398155212402344,-0.017186671495437622,0.04845602810382843
1772812445428594200,3.84459423828125,0.023209571838378906,-0.017672032117843628,0.0418194979429245
1772812445438295000,3.854294921875,-0.011327743530273438,-0.028711587190628052,0.03747102618217468
1772812445447995600,3.86399560546875,-0.028766632080078125,-0.03281080722808838,0.004440143704414368
1772812445457696300,3.8736962890625,-0.032927513122558594,-0.007586807012557983,-0.019719958305358887
1772812445467396900,3.88339697265625,-0.04402732849121094,0.03362056612968445,-0.03959555923938751
1772812445477097500,3.893097412109375,-0.010204315185546875,0.05365443229675293,-0.0731472596526146
1772812445486798000,3.902798095703125,0.025424957275390625,0.053592950105667114,-0.07104240357875824
1772812445496498700,3.912498779296875,0.045121192932128906,0.05042576789855957,-0.04501961171627045
1772812445506199300,3.92219921875,0.09145832061767578,0.005523324012756348,0.005265563726425171
1772812445515900200,3.931900146484375,0.11926460266113281,-0.056298404932022095,0.03902183473110199
1772812445525600800,3.941600830078125,0.0947713851928711,-0.11169692873954773,0.03162193298339844
1772812445535301400,3.95130126953125,0.0730142593383789,-0.09634849429130554,-0.004482150077819824
1772812445545002000,3.961001953125,-0.0059871673583984375,-0.04396745562553406,-0.06454519927501678
1772812445554702600,3.97070263671875,-0.07538127899169922,-0.02751097083091736,-0.08293955028057098
1772812445564403200,3.9804033203125,-0.11178112030029297,-0.029606103897094727,-0.05799663066864014
1772812445574103800,3.990103759765625,-0.122802734375,-0.03839346766471863,-0.028378158807754517
1772812445583804400,3.999804443359375,-0.10419368743896484,-0.021794259548187256,0.026224881410598755
1772812445593505300,4.00950537109375,-0.0693979263305664,-0.018312424421310425,0.05172431468963623
1772812445603206000,4.019205810546875,-0.031655311584472656,-0.007201969623565674,0.06043083965778351
1772812445612906500,4.028906494140625,0.026617050170898438,0.034799665212631226,0.08235146105289459
1772812445622607000,4.038607177734375,0.01683807373046875,0.0639854371547699,0.07592608034610748
1772812445632307700,4.0483076171875,0.007216453552246094,0.07788640260696411,0.10866612195968628
1772812445642008600,4.058008544921875,0.0048046112060546875,0.0804242491722107,0.11686235666275024
1772812445651709200,4.067709228515625,0.021239280700683594,0.0736818015575409,0.11552433669567108
1772812445661409800,4.077409912109375,0.07384681701660156,0.065405935049057,0.05658122897148132
1772812445671110400,4.0871103515625,0.08790302276611328,0.05632936954498291,0.02714484930038452
1772812445680811000,4.09681103515625,0.09110069274902344,0.028573065996170044,-0.014685377478599548
1772812445690511600,4.10651171875,0.0871572494506836,-0.004412025213241577,-0.06606554985046387
1772812445700212200,4.116212158203125,0.08559131622314453,-0.03309190273284912,-0.07328517735004425
1772812445709913000,4.1259130859375,0.08165264129638672,-0.06655308604240417,-0.07012011110782623
1772812445719613700,4.13561376953125,0.036563873291015625,-0.08323338627815247,-0.05868372321128845
1772812445729314300,4.145314208984375,0.016925811767578125,-0.07618474960327148,-0.05313488841056824
1772812445739015000,4.155014892578125,0.0035314559936523438,-0.045487821102142334,-0.07341119647026062
1772812445748715500,4.164715576171875,-0.053119659423828125,-0.007808297872543335,-0.08398549258708954
1772812445758416100,4.174416015625,-0.0923147201538086,0.0004367530345916748,-0.0725758820772171
1772812445768116700,4.18411669921875,-0.11788082122802734,0.009261935949325562,-0.034278690814971924
1772812445777817300,4.1938173828125,-0.1194620132446289,0.009237796068191528,-0.009389489889144897
1772812445787518000,4.20351806640625,-0.12334537506103516,0.03216484189033508,-0.008240729570388794
1772812445797218800,4.21321875,-0.09069156646728516,0.022190570831298828,0.04076254367828369
1772812445806919400,4.22291943359375,-0.051535606384277344,0.00886160135269165,0.09314356744289398
1772812445816620000,4.2326201171875,-0.028337478637695312,-0.010442584753036499,0.10446998476982117
1772812445826320600,4.242320556640625,0.020392417907714844,-0.004375338554382324,0.09238271415233612
1772812445836021200,4.252021240234375,0.02478313446044922,-0.0005411505699157715,0.0620306134223938
1772812445845722000,4.26172216796875,0.043193817138671875,0.011612296104431152,0.044088467955589294
1772812445855422700,4.271422607421875,0.06482124328613281,-0.012848854064941406,0.023316457867622375
1772812445865123300,4.281123291015625,0.08606147766113281,-0.00811082124710083,-0.004304349422454834
1772812445874824000,4.290823974609375,0.08101558685302734,0.01768779754638672,-0.027089178562164307
1772812445884524500,4.300524658203125,0.0924692153930664,0.0014993846416473389,0.021593675017356873
1772812445894225200,4.31022509765625,0.050754547119140625,-0.001386493444442749,-0.0029950588941574097
1772812445903925800,4.31992578125,-0.012602806091308594,-0.01014399528503418,-0.011314928531646729
1772812445913626600,4.329626708984375,-0.06545639038085938,0.011809706687927246,0.002485916018486023
1772812445923327200,4.3393271484375,-0.11502742767333984,-0.010647416114807129,0.012929126620292664
1772812445933027800,4.34902783203125,-0.12137413024902344,-0.024195700883865356,-0.01586318016052246
1772812445942728400,4.358728515625,-0.0722646713256836,0.007047772407531738,-0.03624725341796875
1772812445952429000,4.368428955078125,-0.03923988342285156,0.0297776460647583,-0.05237486958503723
1772812445962129700,4.378129638671875,-0.017351150512695312,0.01646450161933899,-0.018555715680122375
1772812445971830300,4.387830322265625,-0.0028848648071289062,-0.01812472939491272,0.009406551718711853
1772812445981531000,4.39753076171875,-0.012202262878417969,-0.015912920236587524,0.013417482376098633
1772812445991231500,4.4072314453125,0.0033397674560546875,-0.0064432621002197266,0.00612349808216095
1772812446000932400,4.416932373046875,0.02567768096923828,-0.009849756956100464,-0.016848266124725342
1772812446010633000,4.426633056640625,0.07702827453613281,-0.01251673698425293,-0.0874699130654335
1772812446020333600,4.43633349609375,0.1239938735961914,-0.01071825623512268,-0.13756702840328217
1772812446030034200,4.4460341796875,0.12312602996826172,0.0047751665115356445,-0.1726842075586319
1772812446039734800,4.45573486328125,0.1246023178100586,0.002765864133834839,-0.15379294753074646
1772812446049435400,4.465435302734375,0.14010047912597656,-0.03729432821273804,-0.09765103459358215
1772812446059136000,4.475135986328125,0.1411457061767578,-0.07918116450309753,-0.041822388768196106
1772812446068836900,4.4848369140625,0.1114950180053711,-0.07473808526992798,-0.022137567400932312
1772812446078537500,4.494537353515625,0.0693368911743164,-0.04780381917953491,-0.0065482258796691895
1772812446088238000,4.504238037109375,0.032586097717285156,-0.03683808445930481,-0.042000263929367065
1772812446097938700,4.513938720703125,-0.03292083740234375,-0.010049372911453247,-0.05610416829586029
1772812446107639300,4.523639404296875,-0.11725521087646484,0.0308876633644104,-0.04553353786468506
1772812446117340200,4.533340087890625,-0.15892696380615234,0.04691672325134277,-0.030807092785835266
1772812446127040800,4.543040771484375,-0.16218948364257812,0.03815782070159912,-0.014285236597061157
1772812446136741400,4.552741455078125,-0.13948631286621094,0.01503533124923706,0.02681763470172882
1772812446146442000,4.56244189453125,-0.10658073425292969,-0.01149672269821167,0.0635424256324768
1772812446156142600,4.572142578125,-0.0824441909790039,-0.02947521209716797,0.045757099986076355
1772812446165843200,4.58184326171875,-0.04926109313964844,-0.007992386817932129,-0.0009620934724807739
1772812446175543800,4.591543701171875,-0.046011924743652344,0.036316514015197754,-0.00545145571231842
1772812446185244400,4.601244384765625,-0.049861907958984375,0.025421440601348877,-0.006535172462463379
1772812446194945000,4.610945068359375,-0.02068042755126953,0.03564426302909851,-0.0045360177755355835
1772812446204646000,4.62064599609375,0.012728691101074219,0.031163454055786133,0.011581480503082275
1772812446214346500,4.630346435546875,0.05964183807373047,-0.002165079116821289,0.05572040379047394
1772812446224047000,4.640047119140625,0.14568328857421875,-0.023014992475509644,0.045899152755737305
1772812446233747700,4.649747802734375,0.1843118667602539,-0.01333203911781311,0.03156334161758423
1772812446243448300,4.6594482421875,0.15870380401611328,-0.0033540427684783936,0.008387655019760132
1772812446253149000,4.66914892578125,0.08527374267578125,0.011807382106781006,0.000510483980178833
1772812446262849500,4.678849609375,0.017798423767089844,0.030706286430358887,-0.017921239137649536
1772812446272550100,4.688550048828125,-0.07202434539794922,0.039288729429244995,-0.016332462430000305
1772812446282250800,4.698250732421875,-0.13205623626708984,0.03921589255332947,0.011251673102378845
1772812446291951600,4.70795166015625,-0.1404266357421875,0.05406296253204346,0.02836969494819641
1772812446301652200,4.71765234375,-0.11212825775146484,0.04396095871925354,0.04122959077358246
1772812446311352800,4.727352783203125,-0.08075904846191406,0.01542094349861145,0.05360184609889984
1772812446321053400,4.737053466796875,-0.03225994110107422,0.007151901721954346,0.045245587825775146
1772812446330754000,4.746754150390625,0.013050079345703125,-0.01715230941772461,0.03181137144565582
1772812446340455000,4.756454833984375,0.08226394653320312,-0.0035254359245300293,0.007627040147781372
1772812446350155500,4.766155517578125,0.08789920806884766,-0.02823638916015625,0.016878023743629456
1772812446359856000,4.775856201171875,0.10282421112060547,-0.053592562675476074,-0.013545528054237366
1772812446369556700,4.785556640625,0.07629203796386719,-0.024864166975021362,-0.01231054961681366
1772812446379257300,4.79525732421875,0.012549400329589844,0.015296906232833862,0.009481757879257202
1772812446388958000,4.8049580078125,-0.004227638244628906,0.020061373710632324,-0.03365306556224823
1772812446398658800,4.814658935546875,-0.055975914001464844,-0.0024865567684173584,-0.04557383060455322
1772812446408359400,4.824359375,-0.053862571716308594,0.011676222085952759,-0.05090548098087311
1772812446418060000,4.83406005859375,-0.052918434143066406,0.02403596043586731,-0.05191108584403992
1772812446427760600,4.8437607421875,-0.00728607177734375,-0.01072278618812561,-0.014874860644340515
1772812446437461200,4.853461181640625,0.029314041137695312,-0.03475102782249451,0.04366041719913483
1772812446447161900,4.863161865234375,0.042893409729003906,-0.037113338708877563,0.06888112425804138
1772812446456862500,4.872862548828125,0.04563140869140625,-0.009815752506256104,0.055289313197135925
1772812446466563000,4.88256298828125,0.030670166015625,0.045624375343322754,0.025369778275489807
1772812446476263700,4.892263671875,-0.04873371124267578,0.04361438751220703,0.02468244731426239
1772812446485964500,4.901964599609375,-0.10442256927490234,0.007267296314239502,0.05810084939002991
1772812446495665200,4.9116650390625,-0.13913440704345703,0.008305758237838745,0.07861338555812836
1772812446505365800,4.92136572265625,-0.12145709991455078,0.026300370693206787,0.06214699149131775
1772812446515066400,4.93106640625,-0.08520221710205078,0.0338645875453949,0.04925541579723358
1772812446524767000,4.94076708984375,-0.01659393310546875,0.056029438972473145,0.004061505198478699
1772812446534467600,4.950467529296875,0.048519134521484375,0.04686170816421509,-0.05404376983642578
1772812446544168200,4.960168212890625,0.10075950622558594,0.022502213716506958,-0.06421099603176117
1772812446553868800,4.969868896484375,0.11443424224853516,0.0028593838214874268,-0.01623573899269104
1772812446563569700,4.979569580078125,0.07722949981689453,-0.04846420884132385,0.027544692158699036
1772812446573270300,4.989270263671875,0.06530570983886719,-0.08820059895515442,0.03536100685596466
1772812446582971000,4.998970947265625,0.06649971008300781,-0.06546834111213684,0.023059681057929993
1772812446592671500,5.00867138671875,0.03237438201904297,-0.04300117492675781,0.004359006881713867
1772812446602372000,5.0183720703125,0.03646659851074219,-0.0006170272827148438,-0.02644568681716919
1772812446612072700,5.02807275390625,-0.012416839599609375,0.0347142219543457,-0.0016909986734390259
1772812446621773600,5.037773681640625,-0.012223243713378906,0.04555121064186096,-0.02990873157978058
1772812446631474200,5.04747412109375,-0.0826425552368164,0.051597923040390015,0.011677190661430359
1772812446641174800,5.0571748046875,-0.05890369415283203,0.05238887667655945,0.016691237688064575
1772812446650875400,5.06687548828125,-0.10142993927001953,0.038144588470458984,0.035661518573760986
1772812446660576000,5.076575927734375,-0.11499214172363281,0.012504547834396362,0.053701892495155334
1772812446670276600,5.086276611328125,-0.0894613265991211,0.0006464719772338867,0.017261311411857605
1772812446679977200,5.095977294921875,-0.08668708801269531,0.012798398733139038,0.0022082477807998657
1772812446689678000,5.105677978515625,-0.031011581420898438,0.023804664611816406,0.018177509307861328
1772812446699378700,5.115378662109375,0.02963733673095703,0.012672096490859985,0.011501878499984741
1772812446709079300,5.125079345703125,0.09278202056884766,0.02163955569267273,0.004580944776535034
1772812446718780000,5.13477978515625,0.11599349975585938,0.02504408359527588,0.04240916669368744
1772812446728480500,5.14448046875,0.14936065673828125,0.02262645959854126,0.05392962694168091
1772812446738181000,5.15418115234375,0.16564559936523438,0.009523630142211914,0.031008079648017883
1772812446747881700,5.1638818359375,0.134552001953125,-0.010491818189620972,-0.0128517746925354
1772812446757582300,5.173582275390625,0.07570075988769531,-0.009978115558624268,-0.027667000889778137
1772812446767283000,5.183282958984375,0.031945228576660156,-0.0025168955326080322,-0.0423286110162735
1772812446776983800,5.19298388671875,-0.03457927703857422,-0.030968427658081055,-0.034417763352394104
1772812446786684400,5.202684326171875,-0.07053184509277344,-0.04831337928771973,-0.030250966548919678
1772812446796385000,5.212385009765625,-0.11996650695800781,-0.033704906702041626,-0.03637562692165375
1772812446806085600,5.222085693359375,-0.12266063690185547,-0.05245840549468994,-0.049189209938049316
1772812446815786200,5.2317861328125,-0.11823177337646484,-0.05281534790992737,-0.03479322791099548
1772812446825486800,5.24148681640625,-0.10091209411621094,-0.0671897828578949,-0.03796829283237457
1772812446835187500,5.2511875,-0.05445671081542969,-0.03098011016845703,-0.03620615601539612
1772812446844888000,5.26088818359375,-0.05701160430908203,-0.02612823247909546,-0.00533728301525116
1772812446854589000,5.2705888671875,-0.05363941192626953,-0.019120454788208008,0.030667349696159363
1772812446864289500,5.28028955078125,-0.024440765380859375,0.02652806043624878,0.058825716376304626
1772812446873990100,5.289990234375,-0.02512645721435547,0.0600644052028656,0.0761600136756897
1772812446883690800,5.299690673828125,-0.00698089599609375,0.04877394437789917,0.11761350929737091
1772812446893391400,5.309391357421875,-0.025603294372558594,0.048635512590408325,0.12005351483821869
1772812446903092000,5.319092041015625,-0.01919841766357422,0.019350826740264893,0.08017824590206146
1772812446912792800,5.328792724609375,-0.029325485229492188,0.031078845262527466,0.062363073229789734
1772812446922493400,5.338493408203125,0.005451202392578125,0.03239122033119202,-0.00389920175075531
1772812446932194000,5.348194091796875,-0.020318984985351562,0.022239118814468384,-0.03450822830200195
1772812446941894700,5.357894775390625,0.03788566589355469,0.01683419942855835,-0.06537537276744843
1772812446951595300,5.36759521484375,0.06331634521484375,0.020289957523345947,-0.043436795473098755
1772812446961296000,5.3772958984375,0.12001419067382812,-0.02555432915687561,0.03579521179199219
1772812446970996700,5.386996826171875,0.13567066192626953,-0.0800454318523407,0.09785327315330505
1772812446980697300,5.396697265625,0.14156627655029297,-0.06507250666618347,0.06791482865810394
1772812446990398000,5.40639794921875,0.13318634033203125,0.0017753839492797852,0.04053811728954315
1772812447000098600,5.4160986328125,0.13082504272460938,0.0799124538898468,-0.030597195029258728
1772812447009799200,5.425799072265625,0.08144092559814453,0.05373251438140869,-0.07329823076725006
1772812447019499800,5.435499755859375,0.011716842651367188,0.01252204179763794,-0.0467018187046051
1772812447029200400,5.445200439453125,-0.0556182861328125,-0.0048968493938446045,-0.027135193347930908
1772812447038901000,5.45490087890625,-0.1041259765625,-0.020714163780212402,-0.017428845167160034
1772812447048601600,5.4646015625,-0.1470499038696289,-0.03894868493080139,-0.03302963078022003
1772812447058302500,5.474302490234375,-0.1386127471923828,-0.05956205725669861,-0.09060665965080261
1772812447068003000,5.484003173828125,-0.09498310089111328,-0.043166130781173706,-0.13445381820201874
1772812447077703700,5.49370361328125,-0.04969024658203125,-0.03365567326545715,-0.14518654346466064
1772812447087404300,5.503404296875,0.028959274291992188,-0.07133734226226807,-0.176470085978508
1772812447097105000,5.51310498046875,0.0897836685180664,-0.10341089963912964,-0.1316736936569214
1772812447106805500,5.522805419921875,0.1271533966064453,-0.10785293579101562,-0.07078228890895844
1772812447116506000,5.532506103515625,0.1390981674194336,-0.12006038427352905,-0.028218448162078857
1772812447126206700,5.542206787109375,0.11195659637451172,-0.08956050872802734,0.006154656410217285
1772812447135907300,5.5519072265625,0.07348251342773438,-0.012544631958007812,0.027879983186721802
1772812447145608200,5.561608154296875,0.023896217346191406,0.013270914554595947,0.05595862865447998
1772812447165009400,5.581009521484375,-0.05061817169189453,0.06680697202682495,0.07475852966308594
1772812447174710000,5.5907099609375,-0.04861164093017578,0.07521095871925354,0.06962414085865021
1772812447184410600,5.60041064453125,-0.04309368133544922,0.06602233648300171,0.06307944655418396
1772812447194111200,5.610111328125,-0.03883934020996094,0.08063417673110962,0.04488790035247803
1772812447203811800,5.619811767578125,-0.04287528991699219,0.04679286479949951,0.05813568830490112
1772812447213512400,5.629512451171875,-0.048005104064941406,0.024173617362976074,0.04703766107559204
1772812447223213300,5.63921337890625,-0.054221153259277344,-0.00018343329429626465,0.061224132776260376
1772812447232914000,5.648913818359375,-0.04504966735839844,-0.0028332769870758057,0.06282472610473633
1772812447242614500,5.658614501953125,-0.012495994567871094,-0.024332880973815918,0.022885054349899292
1772812447252315100,5.668315185546875,0.005413055419921875,-0.014965742826461792,-0.0301702618598938
1772812447262015700,5.678015625,-0.0028533935546875,0.011807262897491455,-0.0920967310667038
1772812447271716400,5.68771630859375,0.010218620300292969,0.016269445419311523,-0.10376827418804169
1772812447281417200,5.697417236328125,0.004242897033691406,-0.012034446001052856,-0.09202747046947479
1772812447291117800,5.707117919921875,0.014811515808105469,-0.061120182275772095,-0.05250146985054016
1772812447300818400,5.716818359375,0.031053543090820312,-0.10158771276473999,-0.013114869594573975
1772812447310519000,5.72651904296875,0.07170867919921875,-0.11143830418586731,0.004168570041656494
1772812447320219600,5.7362197265625,0.09752082824707031,-0.11263227462768555,-0.004487901926040649
1772812447329920300,5.745920166015625,0.09697532653808594,-0.06663620471954346,-0.02720765769481659
1772812447339620900,5.755620849609375,0.10584735870361328,-0.0031262636184692383,-0.07522711157798767
1772812447349321700,5.76532177734375,0.05223560333251953,0.026380568742752075,-0.11601796746253967
1772812447359022300,5.775022216796875,0.017183303833007812,0.04990285634994507,-0.08452111482620239
1772812447368723000,5.784722900390625,-0.027869224548339844,-0.0007439255714416504,-0.02595125138759613
1772812447378423600,5.794423583984375,-0.045093536376953125,-0.008987963199615479,0.010408028960227966
1772812447388124200,5.804124267578125,-0.05846881866455078,-0.003767848014831543,0.02083708345890045
1772812447397824800,5.81382470703125,-0.10335826873779297,0.03019171953201294,0.001614987850189209
1772812447407525400,5.823525390625,-0.11334991455078125,0.027971863746643066,0.010096713900566101
1772812447417226000,5.83322607421875,-0.09021472930908203,0.01706141233444214,0.03183954954147339
1772812447426926600,5.842926513671875,-0.036887168884277344,0.010188817977905273,0.07897758483886719
1772812447436627500,5.85262744140625,0.02374553680419922,-0.0005428791046142578,0.12037421762943268
1772812447446328000,5.862328125,0.055113792419433594,-0.009293675422668457,0.10906542837619781
1772812447456028700,5.872028564453125,0.07300186157226562,0.04939836263656616,0.05448080599308014
1772812447465729300,5.881729248046875,0.05529499053955078,0.05369061231613159,0.02001500129699707
1772812447475430000,5.891429931640625,0.010811805725097656,0.027038902044296265,0.03909178078174591
1772812447485130500,5.901130615234375,-0.04352378845214844,0.002056419849395752,0.04052846133708954
1772812447494831000,5.9108310546875,-0.04751396179199219,-0.03727412223815918,0.01931685209274292
1772812447504531700,5.92053173828125,-0.043163299560546875,-0.03400546312332153,-0.016944900155067444
1772812447514232300,5.930232421875,-0.009450912475585938,-0.025476723909378052,-0.01828932762145996
1772812447523933200,5.93993310546875,0.02134990692138672,-0.009737670421600342,-0.00860731303691864
1772812447533633800,5.9496337890625,0.03515338897705078,-0.005993247032165527,-0.0255710631608963
1772812447543334400,5.95933447265625,0.027536392211914062,-0.01183706521987915,-0.013649538159370422
1772812447553035000,5.969034912109375,0.03177356719970703,0.0053730309009552,0.01977679133415222
1772812447562735600,5.978735595703125,0.0017957687377929688,-0.009002476930618286,0.021883979439735413
1772812447572436200,5.988436279296875,-0.012402534484863281,-0.01687183976173401,-0.007621586322784424
1772812447582136800,5.99813671875,-0.06281757354736328,0.018694043159484863,-0.02247236669063568
1772812447591837700,6.007837646484375,-0.12293148040771484,0.024878323078155518,-0.010868176817893982
1772812447601538300,6.017538330078125,-0.18782615661621094,0.022318869829177856,0.013016879558563232
1772812447611239000,6.027239013671875,-0.2162189483642578,0.04618394374847412,0.008368521928787231
1772812447620939500,6.036939453125,-0.21695995330810547,0.05738314986228943,-0.021180614829063416
1772812447630640000,6.04664013671875,-0.13762855529785156,0.04685103893280029,-0.003961443901062012
1772812447640340700,6.0563408203125,-0.009041786193847656,0.02587735652923584,0.001917228102684021
1772812447650041600,6.06604150390625,0.13493919372558594,-0.02995353937149048,0.00453224778175354
1772812447659742200,6.0757421875,0.20577049255371094,-0.07533761858940125,0.008190080523490906
1772812447669442800,6.08544287109375,0.2635221481323242,-0.0728573203086853,-0.009684398770332336
1772812447679143400,6.095143310546875,0.26136302947998047,-0.08518332242965698,-0.02701626718044281
1772812447688844000,6.104843994140625,0.19446277618408203,-0.11065167188644409,-0.0501590371131897
1772812447698544600,6.114544677734375,0.10985279083251953,-0.09327727556228638,-0.07972809672355652
1772812447708245200,6.124245361328125,0.033771514892578125,-0.056881844997406006,-0.11147099733352661
1772812447717945900,6.13394580078125,-0.03036785125732422,0.007052004337310791,-0.13811548054218292
1772812447727646700,6.143646728515625,-0.06276321411132812,0.06756457686424255,-0.1338004320859909
1772812447737347300,6.153347412109375,-0.035742759704589844,0.1025649905204773,-0.06886248290538788
1772812447747048000,6.1630478515625,-0.015064239501953125,0.11456900835037231,-0.01640528440475464
1772812447756748500,6.17274853515625,0.027566909790039062,0.09300079941749573,0.05422946810722351
1772812447766449200,6.18244921875,0.06236839294433594,0.05319133400917053,0.10053972899913788
1772812447776149800,6.192149658203125,0.03654289245605469,0.047557681798934937,0.12208396196365356
1772812447785850400,6.201850341796875,-0.01120758056640625,0.05675607919692993,0.10568413138389587
1772812447795551000,6.211551025390625,-0.07814407348632812,0.052134692668914795,0.07809928059577942
1772812447805251800,6.221251953125,-0.11567878723144531,0.05257168412208557,0.0705752968788147
1772812447814952400,6.230952392578125,-0.13249969482421875,0.04709014296531677,0.07229079306125641
1772812447824653000,6.240653076171875,-0.09486579895019531,0.045952171087265015,0.0683666318655014
1772812447834353700,6.250353759765625,-0.0672903060913086,0.04169902205467224,0.08497297763824463
1772812447844054300,6.26005419921875,0.0021495819091796875,-0.02547326683998108,0.09424473345279694
1772812447853755000,6.2697548828125,0.04802894592285156,-0.04719260334968567,0.057568520307540894
1772812447863455500,6.27945556640625,0.08014774322509766,-0.025669634342193604,0.03196766972541809
1772812447873156000,6.289156005859375,0.054045677185058594,-0.04340052604675293,0.0022982805967330933
1772812447882856700,6.298856689453125,0.014262199401855469,-0.017409145832061768,-0.04352365434169769
1772812447892557600,6.3085576171875,-0.027181625366210938,-0.0014237761497497559,-0.08076703548431396
1772812447902258200,6.318258056640625,-0.045533180236816406,0.008733272552490234,-0.10940501093864441
1772812447911958800,6.327958740234375,-0.04706859588623047,-0.0027175843715667725,-0.0984424352645874
1772812447921659400,6.337659423828125,-0.0062007904052734375,-0.02890723943710327,-0.0738915205001831
1772812447931360000,6.347360107421875,0.012801170349121094,-0.010326296091079712,-0.07130110263824463
1772812447941060600,6.357060546875,0.04555225372314453,-0.00948554277420044,-0.07563571631908417
1772812447950761200,6.36676123046875,0.054177284240722656,-0.014373600482940674,-0.06331898272037506
1772812447960461800,6.3764619140625,0.06146430969238281,-0.011586487293243408,-0.0470462292432785
1772812447970162400,6.386162353515625,0.03920173645019531,-0.0022663474082946777,-0.03488053381443024
1772812447979863300,6.39586328125,0.022006988525390625,0.004517674446105957,-0.012044981122016907
1772812447989564000,6.40556396484375,-0.005486488342285156,0.0112992525100708,0.030545875430107117
1772812447999264500,6.415264404296875,-0.0042591094970703125,-0.009996145963668823,0.047099679708480835
1772812448008965000,6.424965087890625,-0.008938789367675781,0.012556254863739014,0.06000038981437683
1772812448018665700,6.434665771484375,-0.0359039306640625,0.03587260842323303,0.089535653591156
1772812448028366300,6.444366455078125,-0.043575286865234375,0.029910773038864136,0.09636178612709045
1772812448038067200,6.454067138671875,-0.05110645294189453,0.0341058075428009,0.10506017506122589
1772812448047767800,6.463767822265625,-0.06084156036376953,0.041346192359924316,0.09773243963718414
1772812448057468400,6.473468505859375,-0.05508708953857422,0.025417983531951904,0.06886865198612213
1772812448067169000,6.4831689453125,-0.04115486145019531,-0.0001869797706604004,0.03663395345211029
1772812448076869600,6.49286962890625,-0.02867412567138672,0.007207006216049194,0.06259514391422272
1772812448086570200,6.5025703125,0.00705718994140625,-0.046643197536468506,0.08882588148117065
1772812448096270800,6.512270751953125,0.05391216278076172,-0.08232724666595459,0.041583746671676636
1772812448105971500,6.521971435546875,0.08232307434082031,-0.03267788887023926,-0.0042107850313186646
1772812448115672300,6.53167236328125,0.029088973999023438,0.004306912422180176,-0.04011431336402893
1772812448125373000,6.541373046875,-0.032657623291015625,0.008075922727584839,-0.0799495279788971
1772812448135073500,6.551073486328125,-0.07685661315917969,0.01403123140335083,-0.08019068837165833
1772812448144774100,6.560774169921875,-0.09793376922607422,0.0080033540725708,-0.03252874314785004
1772812448154474800,6.570474853515625,-0.09042167663574219,-0.042162805795669556,0.032805994153022766
1772812448164175400,6.58017529296875,-0.03007984161376953,-0.043112218379974365,0.046213969588279724
1772812448173876000,6.5898759765625,0.005741119384765625,-0.012268930673599243,0.03168271481990814
1772812448183576800,6.599576904296875,0.03155994415283203,0.02043887972831726,0.011279195547103882
1772812448193277400,6.60927734375,0.05106925964355469,0.0656425952911377,-0.013374149799346924
1772812448202978000,6.61897802734375,0.07259941101074219,0.08647164702415466,-0.06927993893623352
1772812448212678700,6.6286787109375,0.07491207122802734,0.0685875415802002,-0.04424571990966797
1772812448222379300,6.638379150390625,0.08302021026611328,0.03586852550506592,-0.012503862380981445
1772812448232080000,6.648079833984375,0.07801246643066406,-0.010310053825378418,0.01346096396446228
1772812448241780500,6.657780517578125,0.03187751770019531,-0.06723469495773315,0.026845723390579224
1772812448251481000,6.667481201171875,0.0029802322387695312,-0.06339377164840698,0.026813149452209473
1772812448261181700,6.677181640625,-0.030103683471679688,-0.02708721160888672,0.017341315746307373
1772812448270882600,6.686882568359375,-0.0755300521850586,0.003987014293670654,0.0014392882585525513
1772812448280583200,6.696583251953125,-0.09192848205566406,0.01215904951095581,0.013649895787239075
1772812448290283800,6.70628369140625,-0.05978965759277344,0.010575026273727417,0.024022668600082397
1772812448299984400,6.715984375,-0.03054046630859375,0.027949005365371704,0.05326199531555176
1772812448309685000,6.72568505859375,0.004097938537597656,0.009360820055007935,0.0698031485080719
1772812448319385600,6.735385498046875,0.03812694549560547,0.01142778992652893,0.057473644614219666
1772812448329086200,6.745086181640625,0.05391120910644531,0.030163496732711792,0.054204925894737244
1772812448338786800,6.754786865234375,0.056468963623046875,0.05487731099128723,0.028065070509910583
1772812448348487400,6.7644873046875,0.0330963134765625,0.06004032492637634,0.014927834272384644
1772812448358188300,6.774188232421875,0.01483917236328125,0.05962657928466797,-0.006290793418884277
1772812448367889000,6.783888916015625,-0.004268646240234375,0.04353439807891846,0.01703883707523346
1772812448377589500,6.793589599609375,-0.04068946838378906,0.016987532377243042,-0.0010540783405303955
1772812448387290000,6.8032900390625,-0.02120208740234375,-0.01681271195411682,-0.013316735625267029
1772812448396990700,6.81299072265625,0.0038537979125976562,-0.02510419487953186,-0.05834883451461792
1772812448406691300,6.82269140625,0.024946212768554688,-0.01842254400253296,-0.08981560170650482
1772812448416392000,6.832391845703125,0.03038501739501953,0.003931939601898193,-0.09943771362304688
1772812448426092500,6.842092529296875,0.04867267608642578,-0.010185033082962036,-0.11283254623413086
1772812448435793200,6.851793212890625,-0.015686988830566406,-0.019546151161193848,-0.09276634454727173
1772812448445494000,6.861493896484375,-0.0330657958984375,-0.007224619388580322,-0.07573533058166504
1772812448455194600,6.871194580078125,-0.04191017150878906,0.0007555484771728516,-0.04900330305099487
1772812448464895200,6.880895263671875,-0.03533744812011719,-0.006500542163848877,0.015353500843048096
1772812448474595800,6.890595947265625,0.013444900512695312,-0.013849705457687378,0.06564956903457642
1772812448484296400,6.90029638671875,0.05549430847167969,0.008785456418991089,0.05288730561733246
1772812448493997000,6.9099970703125,0.0885915756225586,0.04438519477844238,0.033697277307510376
1772812448503697700,6.91969775390625,0.08230113983154297,0.06349760293960571,0.02472671866416931
1772812448513398300,6.929398193359375,0.054940223693847656,0.058513373136520386,0.015466436743736267
1772812448523099100,6.93909912109375,0.006877899169921875,0.0611015260219574,0.0016660988330841064
1772812448532799700,6.9487998046875,-0.020372390747070312,0.025389909744262695,-0.0007488280534744263
1772812448542500400,6.958500244140625,-0.043616294860839844,0.0015982091426849365,0.011474937200546265
1772812448552201000,6.968200927734375,-0.04293346405029297,-0.023845672607421875,0.004798471927642822
1772812448561901600,6.977901611328125,-0.05281829833984375,-0.018975555896759033,0.007184147834777832
1772812448571602200,6.987602294921875,-0.04839611053466797,-0.013898789882659912,-0.022821232676506042
1772812448581302800,6.997302734375,-0.05815601348876953,-0.04399678111076355,-0.04640476405620575
1772812448591003400,7.00700341796875,-0.06305313110351562,-0.0699906051158905,-0.06799009442329407
1772812448600704300,7.016704345703125,-0.04434394836425781,-0.03309518098831177,-0.05477885901927948
1772812448610404900,7.02640478515625,-0.018891334533691406,-0.007453411817550659,-0.028749212622642517
1772812448620105500,7.03610546875,-0.0021142959594726562,-0.020346909761428833,-0.029192253947257996
1772812448629806000,7.04580615234375,0.030859947204589844,-0.0026972293853759766,-0.006958231329917908
1772812448639506700,7.055506591796875,0.060947418212890625,0.04513701796531677,-0.02599392831325531
1772812448649207300,7.065207275390625,0.03052806854248047,0.04041492938995361,-0.035034745931625366
1772812448658908000,7.074907958984375,0.0029621124267578125,0.02207830548286438,-0.02164478600025177
1772812448668608800,7.08460888671875,-0.0076770782470703125,0.021083801984786987,0.026913493871688843
1772812448678309400,7.094309326171875,0.014824867248535156,0.05243101716041565,0.033586978912353516
1772812448688010000,7.104010009765625,0.0180816650390625,0.029675781726837158,0.049288734793663025
1772812448697710600,7.113710693359375,0.01887226104736328,-0.008973658084869385,0.10784317553043365
1772812448707411200,7.1234111328125,0.06666946411132812,-0.018976926803588867,0.10209085047245026
1772812448717111800,7.13311181640625,0.08775806427001953,-0.04677894711494446,0.017159372568130493
1772812448726812400,7.1428125,0.013185501098632812,-0.06171983480453491,-0.045499444007873535
1772812448736513300,7.15251318359375,-0.07657241821289062,-0.027109891176223755,-0.08343538641929626
1772812448746214000,7.1622138671875,-0.10005855560302734,0.018098533153533936,-0.1263270527124405
1772812448755914500,7.17191455078125,-0.11954784393310547,0.04913395643234253,-0.1471775621175766
1772812448765615000,7.181614990234375,-0.09983539581298828,0.02548721432685852,-0.1220310851931572
1772812448785016300,7.201016357421875,0.015748977661132812,-0.011751145124435425,0.011437952518463135
1772812448794717000,7.210717041015625,0.08729267120361328,-0.04122161865234375,0.07347448170185089
1772812448804417500,7.22041748046875,0.07405567169189453,-0.10053819417953491,0.05666150152683258
1772812448814118400,7.230118408203125,0.06333065032958984,-0.04083532094955444,0.05311313271522522
1772812448823819000,7.239819091796875,0.09982585906982422,0.040902137756347656,0.031829044222831726
1772812448833519600,7.24951953125,0.07922840118408203,0.09488099813461304,0.03531508147716522
1772812448843220200,7.25922021484375,0.037796974182128906,0.059507906436920166,0.0630134791135788
1772812448852920800,7.2689208984375,0.05000782012939453,0.06571623682975769,0.059958264231681824
1772812448862621400,7.278621337890625,-0.0050506591796875,0.09778252243995667,0.043391838669776917
1772812448882022700,7.298022705078125,0.0001220703125,0.023341894149780273,0.03404875099658966
1772812448891723300,7.30772314453125,-0.04234600067138672,-0.010387182235717773,0.026566773653030396
1772812448901424000,7.317424072265625,0.0029544830322265625,-0.03153291344642639,0.036388516426086426
1772812448911124700,7.327124755859375,0.05337047576904297,0.0025472044944763184,0.005770087242126465
1772812448920825300,7.336825439453125,0.0899801254272461,0.005625486373901367,-0.035668373107910156
1772812448930526000,7.34652587890625,0.10123729705810547,-0.02208852767944336,-0.0608174204826355
1772812448940226600,7.3562265625,0.07582664489746094,-0.007803827524185181,-0.06322215497493744
1772812448949927200,7.36592724609375,0.019097328186035156,-0.005201071500778198,-0.07540237903594971
1772812448959627800,7.375627685546875,-0.05195808410644531,0.008819580078125,-0.09014721214771271
1772812448969328400,7.385328369140625,-0.11355209350585938,0.004710644483566284,-0.08129560947418213
1772812448979029000,7.395029052734375,-0.08936023712158203,0.016681432723999023,-0.08460657298564911
1772812448988729900,7.404729736328125,-0.08202075958251953,0.00971493124961853,-0.04193583130836487
1772812448998430500,7.414430419921875,-0.08188247680664062,-0.03162214159965515,-0.010253936052322388
1772812449008131000,7.424131103515625,-0.05940437316894531,-0.04463276267051697,0.049539461731910706
1772812449017831700,7.433831787109375,-0.005522727966308594,-0.014075219631195068,0.015218168497085571
1772812449027532300,7.4435322265625,-0.026656150817871094,0.054995208978652954,0.029037833213806152
1772812449037233000,7.45323291015625,-0.06387996673583984,0.06648674607276917,0.06384691596031189
1772812449046933500,7.46293359375,-0.0780954360961914,0.0898226797580719,0.08182285726070404
1772812449056634000,7.472634033203125,-0.06969738006591797,0.08411839604377747,0.08565375208854675
1772812449066334700,7.482334716796875,-0.039048194885253906,0.07677251100540161,0.061608731746673584
1772812449076035600,7.49203564453125,-0.04537391662597656,0.06139269471168518,0.05293262004852295
1772812449085736200,7.501736083984375,-0.022180557250976562,0.010994046926498413,0.05499555170536041
1772812449095436800,7.511436767578125,-0.02054882049560547,-0.01286056637763977,0.05293634533882141
1772812449105137400,7.521137451171875,-0.016592979431152344,-0.010891914367675781,0.03234986960887909
1772812449114838000,7.530838134765625,-0.0409393310546875,-0.03531983494758606,-0.020733654499053955
1772812449124538600,7.54053857421875,-0.07075881958007812,-0.04096543788909912,-0.04707914590835571
1772812449134239200,7.5502392578125,-0.07182598114013672,-0.03954112529754639,-0.04380732774734497
1772812449143939800,7.55993994140625,-0.08343887329101562,-0.07676246762275696,-0.03658246994018555
1772812449153640400,7.569640380859375,-0.07015514373779297,-0.06035900115966797,-0.02562054991722107
1772812449163341300,7.57934130859375,-0.052379608154296875,-0.07002663612365723,-0.021927878260612488
1772812449173042000,7.5890419921875,0.07567882537841797,-0.04784664511680603,-0.036736875772476196
1772812449182742500,7.598742431640625,0.08626270294189453,-0.01109209656715393,-0.020037978887557983
1772812449192443100,7.608443115234375,0.1613311767578125,-0.0051422119140625,-0.02532234787940979
1772812449202143700,7.618143798828125,0.17158222198486328,0.0574568510055542,-0.013948708772659302
1772812449211844400,7.62784423828125,0.15576839447021484,0.07712012529373169,-0.00015892088413238525
1772812449221545000,7.637544921875,0.1131591796875,0.09623515605926514,0.043660059571266174
1772812449231245600,7.64724560546875,0.03010272979736328,0.053640216588974,0.1054413914680481
1772812449240946200,7.6569462890625,-0.03507709503173828,0.06873184442520142,0.13069432973861694
1772812449250647000,7.66664697265625,-0.06499958038330078,0.093263179063797,0.11689475178718567
1772812449260347600,7.67634765625,-0.11321258544921875,0.10084429383277893,0.11786727607250214
1772812449270048300,7.68604833984375,-0.0841217041015625,0.07279220223426819,0.0854998379945755
1772812449279748900,7.695748779296875,-0.01081085205078125,0.06453761458396912,0.06914022564888
1772812449289449500,7.705449462890625,0.05418968200683594,0.014947772026062012,0.09978148341178894
1772812449308850700,7.7248505859375,0.03380298614501953,-0.06705901026725769,0.028506502509117126
