time,seconds_elapsed,z,y,x
1772812220682732500,0.090732666015625,-0.026038112118840218,0.00603228947147727,-0.08323032408952713
1772812220692433200,0.10043310546875,-0.019624030217528343,-0.014126247726380825,-0.08933897316455841
1772812220702133500,0.110133544921875,-0.004657844081521034,-0.025121813639998436,-0.09850194305181503
1772812220711834000,0.119834228515625,0.005421424750238657,-0.031841326504945755,-0.10797034949064255
1772812220721534700,0.12953466796875,0.005421424750238657,-0.024205517023801804,-0.10430516302585602
1772812220731235300,0.1392353515625,-0.0025198173243552446,-0.01565340906381607,-0.10094540566205978
1772812220740936000,0.14893603515625,-0.011682788841426373,-0.0058795735239982605,-0.08567378669977188
1772812220750636500,0.158636474609375,-0.014431680552661419,-0.005574141163378954,-0.07070759683847427
1772812220760337200,0.168337158203125,-0.00679587060585618,-0.007406735327094793,-0.05940660089254379
1772812220770037800,0.178037841796875,0.001450803829357028,-0.0031306820455938578,-0.05238165333867073
1772812220779738400,0.18773828125,0.000839939049910754,0.004199695307761431,-0.043829549103975296
1772812220789439000,0.19743896484375,-0.004046979360282421,0.013057234697043896,-0.034666575491428375
1772812220799139600,0.2071396484375,-0.002825249684974551,0.01000291109085083,-0.024281874299049377
1772812220808840200,0.216840087890625,-0.0031306820455938578,-0.00007635809743078426,-0.014202605932950974
1772812220818540800,0.226540771484375,-0.009850194677710533,-0.0025198173243552446,-0.010842849500477314
1772812220828241400,0.236241455078125,-0.025732679292559624,0.010919207707047462,-0.008399390615522861
1772812220837942000,0.24594189453125,-0.04283689334988594,0.023747367784380913,-0.0154243353754282
1772812220847642600,0.255642578125,-0.052916161715984344,0.0322994738817215,-0.023365577682852745
1772812220857343200,0.26534326171875,-0.05047270283102989,0.023441936820745468,-0.03649916872382164
1772812220867043800,0.2750439453125,-0.03733910992741585,0.015806125476956367,-0.03711003437638283
1772812220876744400,0.284744384765625,-0.02176205813884735,0.0035888305865228176,-0.028557928279042244
1772812220886445000,0.294445068359375,-0.011988221667706966,-0.010155626572668552,-0.01695149764418602
1772812220896145700,0.304145751953125,-0.00923932995647192,-0.0193185992538929,-0.0062613640911877155
1772812220905846300,0.31384619140625,-0.004963276442140341,-0.018096869811415672,0.0001527161948615685
1772812220915547000,0.323546875,-0.0025198173243552446,-0.00954476185142994,0.005345067009329796
1772812220925247500,0.33324755859375,-0.005268708802759647,-0.011682788841426373,0.008704823441803455
1772812220934948000,0.342947998046875,-0.010155626572668552,-0.008933897130191326,0.01206457894295454
1772812220944648700,0.352648681640625,-0.015347977168858051,-0.0019089524867013097,0.016340631991624832
1772812220954349300,0.362349365234375,-0.02390008419752121,0.0011453714687377214,0.015729768201708794
1772812220964050000,0.3720498046875,-0.03275762498378754,0.002061668550595641,0.01206457894295454
1772812220973750500,0.38175048828125,-0.03550651669502258,0.0066431546583771706,0.004123337101191282
1772812220983451100,0.391451171875,-0.03367391973733902,0.004199695307761431,-0.01359174121171236
1772812220993151700,0.40115185546875,-0.026343543082475662,-0.011682788841426373,-0.0383317656815052
1772812221002852400,0.410852294921875,-0.013515383005142212,-0.023594651371240616,-0.06246092543005943
1772812221012553000,0.420552978515625,-0.005574141163378954,-0.026343543082475662,-0.07773254066705704
1772812221022253600,0.430253662109375,-0.006490438245236874,-0.026343543082475662,-0.08536835014820099
1772812221031954200,0.4399541015625,-0.008323032408952713,-0.02023489587008953,-0.08323032408952713
1772812221041654800,0.44965478515625,-0.007406735327094793,-0.013515383005142212,-0.07620538026094437
1772812221051355400,0.45935546875,-0.008017600513994694,-0.006490438245236874,-0.064598947763443
1772812221061055700,0.4690556640625,-0.00923932995647192,-0.00038179047987796366,-0.04780016839504242
1772812221070756600,0.478756591796875,-0.008323032408952713,0.00511599238961935,-0.027030766010284424
1772812221080457200,0.488457275390625,-0.004657844081521034,0.0029779658652842045,-0.008093958720564842
1772812221090157800,0.49815771484375,-0.0009926552884280682,-0.0012980876490473747,0.009010255336761475
1772812221099858200,0.507858154296875,0.0005345066892914474,-0.0077121676877141,0.017867794260382652
1772812221109558800,0.517558837890625,-0.0006872228696011007,-0.008323032408952713,0.020922118797898293
1772812221119259400,0.52725927734375,-0.002825249684974551,-0.003741546766832471,0.016035201027989388
1772812221128960300,0.536960205078125,-0.005574141163378954,-0.008323032408952713,-0.0019853105768561363
1772812221138660900,0.546660888671875,-0.0058795735239982605,-0.011682788841426373,-0.017867794260382652
1772812221148361200,0.556361328125,-0.005268708802759647,-0.011988221667706966,-0.02977965772151947
1772812221158061800,0.566061767578125,-0.005574141163378954,-0.015347977168858051,-0.03405570983886719
1772812221167762400,0.575762451171875,-0.005574141163378954,-0.01565340906381607,-0.02825249545276165
1772812221177463000,0.585463134765625,-0.00679587060585618,-0.00679587060585618,-0.017562363296747208
1772812221187163600,0.59516357421875,-0.01259908638894558,-0.002825249684974551,-0.0032070400193333626
1772812221196864300,0.6048642578125,-0.017486004158854485,-0.0019089524867013097,0.009621120058000088
1772812221206564900,0.61456494140625,-0.01626427471637726,0.00603228947147727,0.022449281066656113
1772812221216265500,0.624265380859375,-0.012904518283903599,0.013973532244563103,0.036193739622831345
1772812221225966000,0.633966064453125,-0.008933897130191326,0.008781181648373604,0.049021899700164795
1772812221235666700,0.643666748046875,-0.004657844081521034,-0.004046979360282421,0.053603384643793106
1772812221245367300,0.6533671875,0.002672533504664898,-0.008628465235233307,0.04993819445371628
1772812221255068000,0.66306787109375,0.009697478264570236,-0.00954476185142994,0.03894263133406639
1772812221264768500,0.6727685546875,0.0191658828407526,-0.0193185992538929,0.018784092739224434
1772812221274469000,0.68246923828125,0.03138317912817001,-0.02909243479371071,-0.0025961752980947495
1772812221284169700,0.692169677734375,0.043600473552942276,-0.02542724646627903,-0.016340631991624832
1772812221293870300,0.701870361328125,0.04482220485806465,-0.018096869811415672,-0.017867794260382652
1772812221303571000,0.711571044921875,0.03260490670800209,-0.015042545273900032,-0.011148282326757908
1772812221313271600,0.721271484375,0.016416991129517555,-0.010766491293907166,-0.002290742937475443
1772812221322972200,0.73097216796875,0.005421424750238657,0.0017562361899763346,0.010537417605519295
1772812221332672800,0.7406728515625,-0.0019089524867013097,0.00603228947147727,0.008704823441803455
1772812221342373400,0.750373291015625,-0.004657844081521034,0.007254019379615784,0.0102319847792387
1772812221352074000,0.760073974609375,-0.0058795735239982605,0.017027854919433594,0.009315688163042068
1772812221361774600,0.769774658203125,-0.007406735327094793,0.023747367784380913,0.014202605932950974
1772812221371475200,0.77947509765625,-0.011988221667706966,0.021914774551987648,0.020922118797898293
1772812221381175800,0.78917578125,-0.01259908638894558,0.012446369975805283,0.018784092739224434
1772812221390876400,0.79887646484375,-0.008017600513994694,0.003283398225903511,0.0038179049734026194
1772812221400577000,0.808576904296875,0.000839939049910754,0.002672533504664898,-0.01206457894295454
1772812221410277600,0.818277587890625,0.01000291109085083,-0.004657844081521034,-0.030085090547800064
1772812221419978200,0.827978271484375,0.017944153398275375,-0.008628465235233307,-0.04169152304530144
1772812221429678800,0.837678955078125,0.023747367784380913,-0.010155626572668552,-0.04932733252644539
1772812221439379500,0.84737939453125,0.023441936820745468,-0.008017600513994694,-0.049021899700164795
1772812221449080000,0.857080078125,0.017333287745714188,-0.002825249684974551,-0.04016435891389847
1772812221458780700,0.86678076171875,0.014278964139521122,-0.00038179047987796366,-0.02306014485657215
1772812221468481300,0.876481201171875,0.009392046369612217,-0.008323032408952713,-0.009926552884280682
1772812221478182000,0.886181884765625,0.0035888305865228176,-0.0031306820455938578,0.007483093533664942
1772812221487882500,0.895882568359375,-0.0031306820455938578,0.007864884100854397,0.02519817277789116
1772812221497583000,0.9055830078125,-0.008933897130191326,0.009697478264570236,0.03711003437638283
1772812221507283700,0.91528369140625,-0.00923932995647192,0.00755945174023509,0.046883873641490936
1772812221516984300,0.924984375,-0.0016035200096666813,0.002061668550595641,0.049021899700164795
1772812221526685000,0.934684814453125,0.007254019379615784,-0.006185005884617567,0.040775224566459656
1772812221536385500,0.944385498046875,0.013973532244563103,-0.00923932995647192,0.01908952370285988
1772812221546086100,0.954086181640625,0.015195261687040329,-0.008323032408952713,-0.004428769461810589
1772812221555786800,0.963786865234375,0.012751801870763302,-0.0022143847309052944,-0.019700389355421066
1772812221565487000,0.973487060546875,0.00755945174023509,0.009697478264570236,-0.02458730712532997
1772812221575188000,0.98318798828125,0.0005345066892914474,0.01183550525456667,-0.021227551624178886
1772812221584888600,0.992888671875,-0.003741546766832471,0.01030834298580885,-0.011148282326757908
1772812221594589200,1.002589111328125,-0.0012980876490473747,0.009392046369612217,-0.0013744457392022014
1772812221604289800,1.012289794921875,0.0017562361899763346,0.009392046369612217,0.008093958720564842
1772812221613990100,1.021990234375,0.00511599238961935,0.004199695307761431,0.011148282326757908
1772812221623690800,1.031690673828125,0.008170315995812416,0.004199695307761431,0.0154243353754282
1772812221633391600,1.0413916015625,0.011224640533328056,0.005421424750238657,0.018173227086663246
1772812221643092200,1.05109228515625,0.011224640533328056,0.00847574882209301,0.020922118797898293
1772812221652792800,1.060792724609375,0.007254019379615784,0.013057234697043896,0.019394956529140472
1772812221662493200,1.0704931640625,0.005421424750238657,0.0191658828407526,0.0154243353754282
1772812221672193800,1.08019384765625,0.00603228947147727,0.024052800610661507,0.006872228812426329
1772812221681894400,1.089894287109375,0.009392046369612217,0.021609341725707054,-0.005650499369949102
1772812221691595300,1.09959521484375,0.015195261687040329,0.018860450014472008,-0.013897174037992954
1772812221701295900,1.1092958984375,0.017944153398275375,0.017333287745714188,-0.0206166859716177
1772812221710996200,1.118996337890625,0.017333287745714188,0.01977674663066864,-0.023365577682852745
1772812221730397400,1.1383974609375,0.009697478264570236,0.015195261687040329,-0.046883873641490936
1772812221740098000,1.14809814453125,0.012751801870763302,0.015195261687040329,-0.05696314200758934
1772812221749798700,1.157798583984375,0.023136503994464874,0.012751801870763302,-0.05787943676114082
1772812221759499300,1.167499267578125,0.03321577236056328,-0.004657844081521034,-0.052687086164951324
1772812221769199900,1.177199951171875,0.041157014667987823,-0.012904518283903599,-0.0435241162776947
1772812221778900500,1.186900390625,0.0475710928440094,-0.0016035200096666813,-0.027947064489126205
1772812221788601000,1.19660107421875,0.042684175074100494,0.013973532244563103,-0.002290742937475443
1772812221798301700,1.2063017578125,0.0319940410554409,0.017333287745714188,0.023365577682852745
1772812221808002300,1.216002197265625,0.024052800610661507,0.013362666592001915,0.0435241162776947
1772812221817703000,1.225702880859375,0.02496909722685814,0.011530072428286076,0.053603384643793106
1772812221827403500,1.235403564453125,0.02802342176437378,0.00847574882209301,0.05146535858511925
1772812221846804700,1.2548046875,0.036880962550640106,-0.00679587060585618,0.0062613640911877155
1772812221856505300,1.26450537109375,0.042684175074100494,-0.0025198173243552446,-0.0154243353754282
1772812221866206000,1.2742060546875,0.04512763395905495,-0.006185005884617567,-0.03191768378019333
1772812221875906600,1.283906494140625,0.04909825697541237,-0.011682788841426373,-0.04260781779885292
1772812221885607200,1.293607177734375,0.05123628303408623,-0.012293653562664986,-0.05146535858511925
1772812221895307800,1.303307861328125,0.04024071618914604,-0.007101302966475487,-0.052076224237680435
1772812221905008400,1.31300830078125,0.025579962879419327,-0.0019089524867013097,-0.04535670951008797
1772812221914709000,1.322708984375,0.01611155830323696,0.0005345066892914474,-0.034666575491428375
1772812221924409600,1.33240966796875,0.007864884100854397,0.004199695307761431,-0.016646064817905426
1772812221934110200,1.342110107421875,-0.0031306820455938578,-0.0006872228696011007,0.007483093533664942
1772812221943810800,1.351810791015625,-0.019929463043808937,-0.021456625312566757,0.03649916872382164
1772812221953511400,1.361511474609375,-0.011377356946468353,-0.02023489587008953,0.047494735568761826
1772812221963212000,1.3712119140625,-0.0077121676877141,-0.003741546766832471,0.04657844081521034
1772812221972912600,1.38091259765625,-0.01718057133257389,0.0029779658652842045,0.03741546720266342
1772812221982613200,1.39061328125,-0.02542724646627903,0.007254019379615784,0.03558287397027016
1772812221992313900,1.40031396484375,-0.02909243479371071,-0.008628465235233307,0.02916879393160343
1772812222002014500,1.410014404296875,-0.025121813639998436,-0.021151192486286163,0.010537417605519295
1772812222011715000,1.419715087890625,-0.02176205813884735,-0.00923932995647192,-0.0019853105768561363
1772812222021415700,1.429415771484375,-0.026343543082475662,-0.005268708802759647,-0.009926552884280682
1772812222031116300,1.4391162109375,-0.034895651042461395,-0.01626427471637726,-0.01908952370285988
1772812222040817000,1.44881689453125,-0.04039343446493149,-0.014126247726380825,-0.022754713892936707
1772812222050517500,1.458517578125,-0.04558578506112099,-0.004963276442140341,-0.022754713892936707
1772812222060218000,1.468218017578125,-0.054443322122097015,0.004505127668380737,-0.011453714221715927
1772812222069918700,1.477918701171875,-0.06666062027215958,-0.0016035200096666813,0.0038179049734026194
1772812222079619300,1.487619384765625,-0.0755181610584259,-0.010461059398949146,0.01359174121171236
1772812222089320000,1.49731982421875,-0.07276926934719086,-0.0006872228696011007,0.02153298258781433
1772812222099020500,1.5070205078125,-0.06940951198339462,0.015195261687040329,0.0334448479115963
1772812222108721200,1.51672119140625,-0.06879864633083344,0.011224640533328056,0.04657844081521034
1772812222118421800,1.526421875,-0.06696604937314987,0.00022907429956831038,0.051159925758838654
1772812222128122400,1.536122314453125,-0.05810851231217384,-0.003741546766832471,0.04230238497257233
1772812222137823000,1.545822998046875,-0.04741837829351425,-0.00038179047987796366,0.023365577682852745
1772812222147523600,1.555523681640625,-0.038560837507247925,-0.00679587060585618,-0.0062613640911877155
1772812222157224200,1.56522412109375,-0.02848157100379467,-0.012293653562664986,-0.023365577682852745
1772812222166924800,1.5749248046875,-0.01779143698513508,-0.0058795735239982605,-0.02153298258781433
1772812222176625400,1.58462548828125,-0.013515383005142212,-0.010155626572668552,-0.011148282326757908
1772812222186326000,1.594325927734375,-0.015042545273900032,-0.016875140368938446,-0.001679878099821508
1772812222196026400,1.6040263671875,-0.012293653562664986,-0.012904518283903599,0.0019853105768561363
1772812222205727200,1.613727294921875,-0.010155626572668552,-0.002825249684974551,0.0001527161948615685
1772812222215427800,1.623427734375,-0.015347977168858051,-0.00038179047987796366,-0.002901607658714056
1772812222225128400,1.63312841796875,-0.023594651371240616,-0.006490438245236874,-0.007788525894284248
1772812222234829000,1.6428291015625,-0.02237292192876339,0.007864884100854397,0.001679878099821508
1772812222244529400,1.652529296875,-0.02237292192876339,0.021914774551987648,0.024281874299049377
1772812222254230000,1.66222998046875,-0.029703300446271896,0.014889828860759735,0.046883873641490936
1772812222263931000,1.671930908203125,-0.037033677101135254,-0.0006872228696011007,0.05818486958742142
1772812222273631500,1.681631591796875,-0.031841326504945755,-0.004657844081521034,0.05849030241370201
1772812222283332000,1.69133203125,-0.024205517023801804,-0.00038179047987796366,0.04841103404760361
1772812222293032400,1.701032470703125,-0.02023489587008953,-0.008628465235233307,0.029474224895238876
1772812222302733000,1.710733154296875,-0.019624030217528343,-0.015958841890096664,0.012675444595515728
1772812222312433700,1.72043359375,-0.018096869811415672,-0.01626427471637726,-0.005650499369949102
1772812222322134500,1.730134521484375,-0.017486004158854485,0.0005345066892914474,-0.013897174037992954
1772812222331835100,1.739835205078125,-0.021456625312566757,0.006337722297757864,-0.011759147047996521
1772812222341535700,1.74953564453125,-0.02084576152265072,-0.004963276442140341,-0.006566796451807022
1772812222351236000,1.759236083984375,-0.017486004158854485,-0.008017600513994694,-0.0010690133785828948
1772812222360936700,1.768936767578125,-0.018402300775051117,0.004199695307761431,0.005039634648710489
1772812222370637300,1.77863720703125,-0.02542724646627903,0.014889828860759735,0.01695149764418602
1772812222380338200,1.788338134765625,-0.026648975908756256,0.013973532244563103,0.03222311660647392
1772812222390038800,1.798038818359375,-0.02237292192876339,0.006337722297757864,0.05024362727999687
1772812222399739100,1.8077392578125,-0.021456625312566757,0.004199695307761431,0.06520981341600418
1772812222409439700,1.817439697265625,-0.025121813639998436,0.006948587018996477,0.06887500733137131
1772812222419140400,1.827140380859375,-0.03000873140990734,0.003283398225903511,0.05971203371882439
1772812222428841000,1.836841064453125,-0.030314164236187935,0.0017562361899763346,0.039248060435056686
1772812222438541800,1.846541748046875,-0.029397867619991302,0.015500693581998348,0.017256930470466614
1772812222448242200,1.8562421875,-0.026648975908756256,0.0191658828407526,-0.0019853105768561363
1772812222457942800,1.86594287109375,-0.015347977168858051,0.002672533504664898,-0.012980876490473747
1772812222467643400,1.875643310546875,-0.0012980876490473747,-0.02023489587008953,-0.027336198836565018
1772812222477344000,1.885343994140625,0.00755945174023509,-0.01870773360133171,-0.03375028073787689
1772812222487044600,1.895044677734375,0.009697478264570236,0.00022907429956831038,-0.027947064489126205
1772812222496745200,1.9047451171875,0.00511599238961935,-0.0016035200096666813,-0.014202605932950974
1772812222506445800,1.91444580078125,-0.00038179047987796366,-0.017486004158854485,-0.004123337101191282
1772812222516146400,1.924146484375,0.0011453714687377214,-0.008628465235233307,0.004734201822429895
1772812222525847000,1.933846923828125,0.0011453714687377214,0.012140937149524689,0.016340631991624832
1772812222535547600,1.943547607421875,-0.010766491293907166,0.01672242395579815,0.03497200831770897
1772812222545248300,1.953248291015625,-0.02848157100379467,0.011224640533328056,0.057268574833869934
1772812222554948900,1.962948974609375,-0.031841326504945755,0.017333287745714188,0.07376192510128021
1772812222564649500,1.9726494140625,-0.021151192486286163,0.021914774551987648,0.07620538026094437
1772812222574350000,1.98235009765625,-0.012904518283903599,0.013057234697043896,0.06979130208492279
1772812222584050700,1.99205078125,-0.011682788841426373,-0.00923932995647192,0.049632761627435684
1772812222593751300,2.001751220703125,-0.0019089524867013097,-0.011682788841426373,0.02000582218170166
1772812222603452000,2.011451904296875,0.00847574882209301,0.006948587018996477,-0.001679878099821508
1772812222613152500,2.021152587890625,0.008170315995812416,0.006948587018996477,-0.009926552884280682
1772812222622853000,2.03085302734375,0.000839939049910754,-0.008323032408952713,-0.015729768201708794
1772812222632553700,2.0405537109375,-0.002825249684974551,-0.028176138177514076,-0.03711003437638283
1772812222642254300,2.05025439453125,0.002061668550595641,-0.02390008419752121,-0.06704241037368774
1772812222651955000,2.059954833984375,0.01672242395579815,0.008170315995812416,-0.07681624591350555
1772812222661655600,2.069655517578125,0.020387612283229828,0.025579962879419327,-0.0487164668738842
1772812222671356200,2.079356201171875,0.006948587018996477,0.015806125476956367,0.007788525894284248
1772812222681056800,2.089056884765625,-0.0077121676877141,-0.008323032408952713,0.06001746281981468
1772812222690757400,2.09875732421875,-0.008933897130191326,-0.015958841890096664,0.08567378669977188
1772812222700458000,2.1084580078125,-0.00038179047987796366,-0.00038179047987796366,0.08109229803085327
1772812222710158600,2.11815869140625,0.00511599238961935,0.00755945174023509,0.05940660089254379
1772812222719859200,2.127859130859375,0.007254019379615784,-0.004657844081521034,0.03375028073787689
1772812222729559800,2.137559814453125,0.010613775812089443,-0.015958841890096664,0.0154243353754282
1772812222739260400,2.147260498046875,0.011530072428286076,-0.014431680552661419,0.004734201822429895
1772812222748961000,2.1569609375,0.008170315995812416,-0.0006872228696011007,0.00045814859913662076
1772812222758661600,2.16666162109375,0.0005345066892914474,0.006948587018996477,0.0001527161948615685
1772812222768362200,2.1763623046875,-0.008933897130191326,0.004505127668380737,-0.0010690133785828948
1772812222778062800,2.186062744140625,-0.013209951110184193,-0.0012980876490473747,-0.005039634648710489
1772812222787763500,2.195763427734375,-0.014126247726380825,-0.0025198173243552446,-0.020311253145337105
1772812222797464000,2.205464111328125,-0.011988221667706966,0.0029779658652842045,-0.03741546720266342
1772812222807164700,2.21516455078125,-0.011682788841426373,0.008781181648373604,-0.04718930274248123
1772812222816865300,2.224865234375,-0.012293653562664986,0.013057234697043896,-0.043829549103975296
1772812222826566000,2.23456591796875,-0.012293653562664986,0.00755945174023509,-0.031612250953912735
1772812222836266500,2.2442666015625,-0.008017600513994694,-0.0006872228696011007,-0.02367101050913334
1772812222845967000,2.253967041015625,0.0011453714687377214,0.0023671009112149477,-0.016340631991624832
1772812222865368300,2.273368408203125,0.007254019379615784,-0.014126247726380825,-0.005345067009329796
1772812222875069000,2.28306884765625,0.007254019379615784,-0.026648975908756256,-0.009315688163042068
1772812222884769500,2.29276953125,0.015195261687040329,-0.015347977168858051,-0.01206457894295454
1772812222894470100,2.30247021484375,0.02130390889942646,0.00511599238961935,-0.0010690133785828948
1772812222904170800,2.312170654296875,0.01611155830323696,-0.00038179047987796366,0.02367101050913334
1772812222913871400,2.321871337890625,0.004199695307761431,-0.02084576152265072,0.046883873641490936
1772812222923572000,2.331572021484375,-0.0025198173243552446,-0.015958841890096664,0.05513054504990578
1772812222933272600,2.3412724609375,-0.01107192412018776,-0.0006872228696011007,0.04780016839504242
1772812222942973200,2.35097314453125,-0.025121813639998436,0.005421424750238657,0.02672533318400383
1772812222952673800,2.360673828125,-0.03306305781006813,0.011530072428286076,0.009926552884280682
1772812222962374400,2.37037451171875,-0.027870705351233482,0.022220205515623093,-0.002901607658714056
1772812222972075000,2.380074951171875,-0.018402300775051117,0.015806125476956367,-0.01206457894295454
1772812222981775600,2.389775634765625,-0.010766491293907166,-0.0009926552884280682,-0.009926552884280682
1772812222991476200,2.399476318359375,-0.0009926552884280682,-0.013515383005142212,-0.006566796451807022
1772812223001176600,2.409176513671875,0.012140937149524689,-0.01870773360133171,-0.011453714221715927
1772812223010877400,2.41887744140625,0.020387612283229828,-0.026343543082475662,-0.029474224895238876
1772812223020578000,2.428578125,0.02283107116818428,-0.021456625312566757,-0.04260781779885292
1772812223030278700,2.438278564453125,0.018555017188191414,-0.004657844081521034,-0.04505127668380737
1772812223039979300,2.447979248046875,0.007864884100854397,0.0011453714687377214,-0.033139415085315704
1772812223049679600,2.4576796875,-0.005574141163378954,-0.0012980876490473747,-0.020311253145337105
1772812223059380200,2.467380126953125,-0.009850194677710533,0.00022907429956831038,-0.012675444595515728
1772812223069081000,2.4770810546875,-0.008017600513994694,0.015500693581998348,-0.0032070400193333626
1772812223078781700,2.48678173828125,-0.010155626572668552,0.023747367784380913,0.012980876490473747
1772812223088482300,2.496482421875,-0.019624030217528343,0.013973532244563103,0.031612250953912735
1772812223098183000,2.506182861328125,-0.025121813639998436,-0.0022143847309052944,0.04016435891389847
1772812223107883300,2.51588330078125,-0.019624030217528343,-0.00679587060585618,0.037720900028944016
1772812223117584000,2.525583984375,-0.011377356946468353,0.0005345066892914474,0.030695954337716103
1772812223127284700,2.53528466796875,-0.00954476185142994,-0.004046979360282421,0.022449281066656113
1772812223136985300,2.5449853515625,-0.006490438245236874,-0.015347977168858051,0.008399390615522861
1772812223146686000,2.55468603515625,-0.0006872228696011007,-0.008017600513994694,-0.0019853105768561363
1772812223156386300,2.56438623046875,-0.0012980876490473747,0.002061668550595641,-0.008399390615522861
1772812223166087000,2.5740869140625,-0.007406735327094793,-0.004657844081521034,-0.014202605932950974
1772812223175787500,2.58378759765625,-0.005574141163378954,-0.014431680552661419,-0.02367101050913334
1772812223185488400,2.59348828125,-0.00007635809743078426,-0.008017600513994694,-0.03527744114398956
1772812223195189000,2.60318896484375,0.0005345066892914474,0.012751801870763302,-0.036193739622831345
1772812223204889300,2.612889404296875,-0.006185005884617567,0.01824958436191082,-0.024892739951610565
1772812223214590000,2.62258984375,-0.012904518283903599,0.00603228947147727,-0.012675444595515728
1772812223224290600,2.63229052734375,-0.012904518283903599,-0.002825249684974551,-0.0062613640911877155
1772812223233991200,2.6419912109375,-0.008017600513994694,-0.0019089524867013097,-0.009315688163042068
1772812223243692000,2.651692138671875,-0.004352411720901728,-0.00038179047987796366,-0.012675444595515728
1772812223253392600,2.661392578125,-0.005574141163378954,-0.004657844081521034,-0.011759147047996521
1772812223263093000,2.671093017578125,-0.004963276442140341,-0.00038179047987796366,-0.0032070400193333626
1772812223272793600,2.680793701171875,-0.006490438245236874,0.004505127668380737,0.012370011769235134
1772812223282494200,2.690494140625,-0.008933897130191326,0.001450803829357028,0.026419902220368385
1772812223292194800,2.70019482421875,-0.015347977168858051,-0.006185005884617567,0.033139415085315704
1772812223301895700,2.709895751953125,-0.02023489587008953,-0.0025198173243552446,0.034666575491428375
1772812223311596000,2.719595947265625,-0.01718057133257389,0.006337722297757864,0.04046979174017906
1772812223321296600,2.729296630859375,-0.012293653562664986,0.00022907429956831038,0.04474584385752678
1772812223330997200,2.738997314453125,-0.010155626572668552,-0.00954476185142994,0.04260781779885292
1772812223340697900,2.74869775390625,-0.00679587060585618,-0.0019089524867013097,0.039858926087617874
1772812223350398500,2.7583984375,-0.004963276442140341,0.00603228947147727,0.03130681812763214
1772812223360099000,2.76809912109375,-0.003741546766832471,0.009086613543331623,0.028863361105322838
1772812223369799700,2.777799560546875,-0.0009926552884280682,-0.0034361144062131643,0.023976443335413933
1772812223379500300,2.787500244140625,0.003283398225903511,-0.018402300775051117,0.013286309316754341
1772812223389201000,2.797200927734375,0.0057268571108579636,-0.018096869811415672,-0.006872228812426329
1772812223398901500,2.806901611328125,0.004810560029000044,-0.00679587060585618,-0.024281874299049377
1772812223408602000,2.81660205078125,0.002672533504664898,0.000839939049910754,-0.028863361105322838
1772812223418302700,2.826302734375,0.0005345066892914474,-0.0016035200096666813,-0.02153298258781433
1772812223428003300,2.83600341796875,-0.004352411720901728,-0.005268708802759647,-0.009010255336761475
1772812223437704000,2.845703857421875,-0.014737112447619438,0.000839939049910754,-0.002901607658714056
1772812223447404500,2.855404541015625,-0.02390008419752121,0.0057268571108579636,-0.005039634648710489
1772812223457105200,2.865105224609375,-0.02756527252495289,0.012140937149524689,-0.016646064817905426
1772812223466805800,2.8748056640625,-0.024510949850082397,0.01611155830323696,-0.02916879393160343
1772812223476506400,2.88450634765625,-0.014431680552661419,0.00847574882209301,-0.02916879393160343
1772812223486207000,2.89420703125,-0.0025198173243552446,-0.0034361144062131643,-0.019394956529140472
1772812223495907600,2.903907470703125,0.004810560029000044,-0.010766491293907166,0.0001527161948615685
1772812223505608200,2.913608154296875,0.008781181648373604,-0.011682788841426373,0.020311253145337105
1772812223515308800,2.923308837890625,0.01000291109085083,-0.003741546766832471,0.03436114266514778
1772812223525009400,2.933009521484375,0.00755945174023509,0.00511599238961935,0.041386090219020844
1772812223534710000,2.9427099609375,0.004810560029000044,0.007254019379615784,0.04474584385752678
1772812223544410600,2.95241064453125,0.001450803829357028,0.0017562361899763346,0.03711003437638283
1772812223554111200,2.962111328125,0.002061668550595641,0.003283398225903511,0.023365577682852745
1772812223563811800,2.971811767578125,0.0023671009112149477,0.013057234697043896,0.007483093533664942
1772812223573512400,2.981512451171875,0.00022907429956831038,0.007254019379615784,-0.011148282326757908
1772812223583213000,2.991213134765625,0.000839939049910754,-0.008017600513994694,-0.030390523374080658
1772812223592913700,3.00091357421875,0.00511599238961935,-0.01107192412018776,-0.05146535858511925
1772812223602614300,3.0106142578125,0.006948587018996477,-0.0012980876490473747,-0.06154462695121765
1772812223612315000,3.02031494140625,0.004505127668380737,0.009086613543331623,-0.05696314200758934
1772812223622015500,3.030015380859375,-0.0012980876490473747,0.008781181648373604,-0.03955349326133728
1772812223631716000,3.039716064453125,-0.0077121676877141,-0.0012980876490473747,-0.022754713892936707
1772812223641416700,3.049416748046875,-0.007101302966475487,0.00022907429956831038,-0.007788525894284248
1772812223651117300,3.059117431640625,-0.0058795735239982605,0.014889828860759735,0.007177661173045635
1772812223660818000,3.06881787109375,-0.008017600513994694,0.01611155830323696,0.0206166859716177
1772812223670518500,3.0785185546875,-0.00679587060585618,0.008170315995812416,0.031612250953912735
1772812223680219100,3.08821923828125,0.0029779658652842045,0.005421424750238657,0.03741546720266342
1772812223689919700,3.097919677734375,0.013057234697043896,0.0017562361899763346,0.03130681812763214
1772812223699620400,3.107620361328125,0.021609341725707054,-0.004046979360282421,0.0206166859716177
1772812223709321000,3.117321044921875,0.03352120518684387,-0.002825249684974551,0.016340631991624832
1772812223719021600,3.127021484375,0.03779725730419159,-0.006185005884617567,0.016035201027989388
1772812223728722200,3.13672216796875,0.033826638013124466,-0.015347977168858051,0.0154243353754282
1772812223738422800,3.1464228515625,0.030466880649328232,-0.0193185992538929,0.0010690133785828948
1772812223748123400,3.156123291015625,0.027717988938093185,-0.010766491293907166,-0.0206166859716177
1772812223757824000,3.165823974609375,0.020693045109510422,0.004810560029000044,-0.03894263133406639
1772812223767524600,3.175524658203125,0.009392046369612217,0.012140937149524689,-0.04932733252644539
1772812223777225200,3.18522509765625,-0.0016035200096666813,0.01672242395579815,-0.04016435891389847
1772812223786925800,3.19492578125,-0.006490438245236874,0.01977674663066864,-0.02458730712532997
1772812223796626400,3.20462646484375,-0.006490438245236874,0.020082179456949234,-0.010537417605519295
1772812223806327000,3.2143271484375,-0.004046979360282421,0.01763872057199478,-0.0025961752980947495
1772812223816027600,3.224027587890625,-0.00007635809743078426,0.007254019379615784,-0.0001527161948615685
1772812223825728300,3.233728271484375,0.006337722297757864,-0.003741546766832471,-0.006566796451807022
1772812223835428900,3.243428955078125,0.012140937149524689,0.00022907429956831038,-0.011453714221715927
1772812223845129500,3.25312939453125,0.012751801870763302,0.009086613543331623,-0.006566796451807022
1772812223854830000,3.262830078125,0.009086613543331623,0.00511599238961935,0.0007635809597559273
1772812223864530700,3.27253076171875,0.00847574882209301,-0.011377356946468353,0.0038179049734026194
1772812223874231300,3.282231201171875,0.013668099418282509,-0.01779143698513508,-0.0010690133785828948
1772812223883932000,3.291931884765625,0.015806125476956367,-0.010461059398949146,-0.008093958720564842
1772812223893632500,3.301632568359375,0.01030834298580885,0.0011453714687377214,-0.0001527161948615685
1772812223903333000,3.3113330078125,0.0017562361899763346,0.002672533504664898,0.019700389355421066
1772812223913033700,3.32103369140625,-0.006185005884617567,0.002061668550595641,0.03558287397027016
1772812223922734300,3.330734375,-0.005574141163378954,0.010919207707047462,0.046883873641490936
1772812223932435000,3.34043505859375,-0.00038179047987796366,0.015806125476956367,0.04657844081521034
1772812223942135600,3.350135498046875,-0.00007635809743078426,0.012446369975805283,0.04016435891389847
1772812223951836200,3.359836181640625,-0.0034361144062131643,0.0035888305865228176,0.02458730712532997
1772812223961536800,3.369536865234375,-0.00679587060585618,0.001450803829357028,0.004123337101191282
1772812223971237400,3.3792373046875,-0.006490438245236874,0.000839939049910754,-0.02672533318400383
1772812223980938000,3.38893798828125,-0.0012980876490473747,0.001450803829357028,-0.056657709181308746
1772812223990638600,3.398638671875,0.004810560029000044,0.002672533504664898,-0.07406735420227051
1772812224000339200,3.408339111328125,0.009086613543331623,-0.004657844081521034,-0.07651081681251526
1772812224010039800,3.418039794921875,0.013057234697043896,-0.019624030217528343,-0.07070759683847427
1772812224019740400,3.427740478515625,0.013057234697043896,-0.024205517023801804,-0.06368265300989151
1772812224029441000,3.43744091796875,0.013057234697043896,-0.012293653562664986,-0.05238165333867073
1772812224039141400,3.447141357421875,0.01000291109085083,0.0035888305865228176,-0.030085090547800064
1772812224048842200,3.45684228515625,0.005421424750238657,0.004505127668380737,0.0001527161948615685
1772812224058542800,3.46654296875,0.002672533504664898,-0.004657844081521034,0.026419902220368385
1772812224068243500,3.476243408203125,0.002672533504664898,0.001450803829357028,0.04321868345141411
1772812224077944000,3.485944091796875,0.0005345066892914474,0.014584396965801716,0.04657844081521034
1772812224087644700,3.495644775390625,-0.007101302966475487,0.01763872057199478,0.0487164668738842
1772812224097345000,3.505344970703125,-0.014431680552661419,0.013057234697043896,0.045967575162649155
1772812224107046000,3.5150458984375,-0.013820815831422806,0.009086613543331623,0.03405570983886719
1772812224116746500,3.52474658203125,-0.010766491293907166,0.008781181648373604,0.012370011769235134
1772812224126447000,3.534447021484375,-0.008017600513994694,0.0023671009112149477,-0.011759147047996521
1772812224136147700,3.544147705078125,-0.0034361144062131643,-0.008628465235233307,-0.040775224566459656
1772812224145848000,3.55384814453125,0.0011453714687377214,-0.01259908638894558,-0.064598947763443
1772812224155548700,3.563548583984375,0.003894262947142124,-0.014431680552661419,-0.08139773458242416
1772812224165249500,3.57324951171875,0.0035888305865228176,-0.012904518283903599,-0.08597921580076218
1772812224174950100,3.5829501953125,0.0017562361899763346,-0.011988221667706966,-0.07742711156606674
1772812224184650800,3.592650634765625,0.0011453714687377214,-0.013820815831422806,-0.06582067906856537
1772812224194351400,3.602351318359375,0.00022907429956831038,-0.00038179047987796366,-0.04841103404760361
1772812224204051700,3.6120517578125,0.0035888305865228176,0.014278964139521122,-0.019394956529140472
1772812224213752300,3.62175244140625,0.0023671009112149477,0.011530072428286076,0.01359174121171236
1772812224223453000,3.631452880859375,-0.0025198173243552446,-0.0019089524867013097,0.040775224566459656
1772812224233153800,3.64115380859375,-0.0031306820455938578,-0.0016035200096666813,0.055741410702466965
1772812224242854400,3.6508544921875,0.0011453714687377214,0.0057268571108579636,0.064598947763443
1772812224252555000,3.660554931640625,0.002061668550595641,0.0066431546583771706,0.06673697382211685
1772812224262255400,3.67025537109375,0.003283398225903511,0.0017562361899763346,0.05696314200758934
1772812224271956000,3.6799560546875,0.007254019379615784,0.002672533504664898,0.03527744114398956
1772812224281656600,3.689656494140625,0.01000291109085083,0.0035888305865228176,0.008704823441803455
1772812224291357400,3.699357421875,0.012446369975805283,-0.0022143847309052944,-0.01695149764418602
1772812224301058000,3.70905810546875,0.012446369975805283,-0.007406735327094793,-0.03711003437638283
1772812224310758400,3.71875830078125,0.013973532244563103,-0.008628465235233307,-0.05635227635502815
1772812224320459000,3.728458984375,0.013973532244563103,-0.00954476185142994,-0.06765327602624893
1772812224330159600,3.73815966796875,0.011224640533328056,-0.007101302966475487,-0.06734783947467804
1772812224339860200,3.747860107421875,0.004505127668380737,-0.005268708802759647,-0.05757400393486023
1772812224349561000,3.75756103515625,-0.0022143847309052944,-0.004963276442140341,-0.04321868345141411
1772812224359261400,3.767261474609375,-0.007101302966475487,0.003894262947142124,-0.025503603741526604
1772812224368962000,3.776962158203125,-0.012293653562664986,0.014584396965801716,-0.002901607658714056
1772812224378662700,3.78666259765625,-0.01779143698513508,0.010919207707047462,0.016340631991624832
1772812224388363300,3.79636328125,-0.015958841890096664,0.0029779658652842045,0.028863361105322838
1772812224398063900,3.80606396484375,-0.005574141163378954,-0.0006872228696011007,0.03558287397027016
1772812224407764700,3.8157646484375,0.0005345066892914474,0.000839939049910754,0.036804601550102234
1772812224417465000,3.825465087890625,0.001450803829357028,0.0011453714687377214,0.034666575491428375
1772812224427165700,3.835165771484375,0.002672533504664898,-0.00007635809743078426,0.030085090547800064
1772812224436866300,3.8448662109375,0.007254019379615784,0.00022907429956831038,0.02458730712532997
1772812224446567000,3.85456689453125,0.010919207707047462,-0.002825249684974551,0.019394956529140472
1772812224456267500,3.864267578125,0.007864884100854397,-0.008017600513994694,0.011453714221715927
1772812224465968000,3.873968017578125,-0.0016035200096666813,-0.01107192412018776,-0.002901607658714056
1772812224475668700,3.883668701171875,-0.010155626572668552,-0.01107192412018776,-0.025809036567807198
1772812224485369300,3.893369384765625,-0.015042545273900032,-0.004352411720901728,-0.05329795181751251
1772812224495070000,3.903070068359375,-0.017486004158854485,0.004810560029000044,-0.07528908550739288
1772812224514471200,3.92247119140625,-0.022983787581324577,0.000839939049910754,-0.06307178735733032
1772812224524171800,3.932171875,-0.019624030217528343,-0.0058795735239982605,-0.04505127668380737
1772812224533872400,3.941872314453125,-0.014737112447619438,0.001450803829357028,-0.021838415414094925
1772812224543573000,3.951572998046875,-0.014737112447619438,0.009086613543331623,0.004428769461810589
1772812224553273600,3.961273681640625,-0.02023489587008953,0.007254019379615784,0.029474224895238876
1772812224562974200,3.97097412109375,-0.022067490965127945,0.0011453714687377214,0.04413498193025589
1772812224572674800,3.9806748046875,-0.01718057133257389,0.0057268571108579636,0.053603384643793106
1772812224582375400,3.99037548828125,-0.01626427471637726,0.00755945174023509,0.06123919412493706
1772812224592076000,4.000075927734375,-0.018096869811415672,0.00022907429956831038,0.06276635825634003
1772812224601776600,4.009776611328125,-0.014737112447619438,-0.0009926552884280682,0.05818486958742142
1772812224611477200,4.019477294921875,-0.005268708802759647,0.0029779658652842045,0.03955349326133728
1772812224621177900,4.029177734375,0.001450803829357028,0.001450803829357028,0.020311253145337105
1772812224630878500,4.03887841796875,0.003283398225903511,-0.00954476185142994,-0.0001527161948615685
1772812224640579000,4.0485791015625,0.003283398225903511,-0.015958841890096664,-0.016340631991624832
1772812224650279700,4.05827978515625,0.0023671009112149477,-0.009850194677710533,-0.025503603741526604
1772812224659980300,4.067980224609375,-0.0031306820455938578,-0.004657844081521034,-0.0334448479115963
1772812224669681000,4.077680908203125,-0.00954476185142994,-0.0006872228696011007,-0.03497200831770897
1772812224679381500,4.087381591796875,-0.01626427471637726,0.00511599238961935,-0.029474224895238876
1772812224689082000,4.09708203125,-0.018402300775051117,0.00603228947147727,-0.022449281066656113
1772812224698782700,4.10678271484375,-0.018402300775051117,0.002672533504664898,-0.017867794260382652
1772812224708483300,4.1164833984375,-0.02023489587008953,0.00603228947147727,-0.01695149764418602
1772812224718184000,4.126183837890625,-0.019624030217528343,0.010919207707047462,-0.015729768201708794
1772812224727884500,4.135884521484375,-0.014431680552661419,0.01000291109085083,-0.011453714221715927
1772812224737585200,4.145585205078125,-0.004963276442140341,0.006948587018996477,0.0001527161948615685
1772812224747285800,4.15528564453125,0.002672533504664898,-0.0025198173243552446,0.008399390615522861
1772812224756986400,4.164986328125,0.003283398225903511,-0.010766491293907166,0.008093958720564842
1772812224766687000,4.17468701171875,-0.0012980876490473747,-0.003741546766832471,0.010842849500477314
1772812224776387600,4.1843876953125,-0.005574141163378954,0.010613775812089443,0.02000582218170166
1772812224786088200,4.194088134765625,-0.008323032408952713,0.013973532244563103,0.03405570983886719
1772812224795788800,4.203788818359375,-0.008628465235233307,0.006337722297757864,0.04718930274248123
1772812224805489400,4.213489501953125,-0.0077121676877141,-0.004657844081521034,0.04780016839504242
1772812224815190000,4.22318994140625,-0.004352411720901728,-0.006490438245236874,0.0383317656815052
1772812224824890600,4.232890625,0.000839939049910754,-0.0019089524867013097,0.01908952370285988
1772812224834591200,4.24259130859375,0.00603228947147727,-0.00007635809743078426,0.002901607658714056
1772812224844291800,4.252291748046875,0.004810560029000044,-0.0034361144062131643,-0.006566796451807022
1772812224853992400,4.261992431640625,-0.0006872228696011007,-0.011377356946468353,-0.01206457894295454
1772812224863693000,4.271693115234375,-0.0022143847309052944,-0.0058795735239982605,-0.016646064817905426
1772812224873393700,4.2813935546875,-0.00007635809743078426,0.001450803829357028,-0.020922118797898293
1772812224883094300,4.29109423828125,-0.002825249684974551,0.004810560029000044,-0.022754713892936707
1772812224892795000,4.300794921875,-0.008628465235233307,0.002061668550595641,-0.02519817277789116
1772812224902495500,4.31049560546875,-0.008933897130191326,-0.0058795735239982605,-0.03191768378019333
1772812224912196000,4.320196044921875,-0.006185005884617567,-0.00679587060585618,-0.03252854943275452
1772812224921896700,4.329896728515625,-0.004963276442140341,-0.004046979360282421,-0.02977965772151947
1772812224931597300,4.339597412109375,-0.006185005884617567,-0.0016035200096666813,-0.019394956529140472
1772812224941298000,4.3492978515625,-0.005268708802759647,-0.004963276442140341,-0.00045814859913662076
1772812224950998500,4.35899853515625,-0.0025198173243552446,-0.00679587060585618,0.02000582218170166
1772812224960699100,4.36869921875,-0.004046979360282421,-0.0058795735239982605,0.04046979174017906
1772812224970399700,4.378399658203125,-0.01259908638894558,-0.0034361144062131643,0.05299251899123192
1772812224980100400,4.388100341796875,-0.02237292192876339,-0.002825249684974551,0.04810560122132301
1772812224989801000,4.397801025390625,-0.03061959706246853,0.0057268571108579636,0.029474224895238876
1772812224999501600,4.40750146484375,-0.033979352563619614,0.01672242395579815,0.005955931730568409
1772812225009202200,4.4172021484375,-0.03153589367866516,0.017027854919433594,-0.0154243353754282
1772812225018902800,4.42690283203125,-0.022067490965127945,0.0035888305865228176,-0.036193739622831345
1772812225028603400,4.436603271484375,-0.004963276442140341,-0.004046979360282421,-0.045967575162649155
1772812225038304000,4.446303955078125,0.010613775812089443,-0.013209951110184193,-0.05146535858511925
1772812225048004600,4.456004638671875,0.018555017188191414,-0.025732679292559624,-0.05604684352874756
1772812225057705200,4.465705322265625,0.024663666263222694,-0.029703300446271896,-0.05940660089254379
1772812225067405800,4.47540576171875,0.022220205515623093,-0.03153589367866516,-0.05849030241370201
1772812225077106400,4.4851064453125,0.011530072428286076,-0.02909243479371071,-0.04993819445371628
1772812225086807000,4.49480712890625,-0.008933897130191326,-0.014431680552661419,-0.03283398225903511
1772812225096507600,4.504507568359375,-0.029397867619991302,0.00847574882209301,-0.0062613640911877155
1772812225106208300,4.514208251953125,-0.04650207981467247,0.023136503994464874,0.031612250953912735
1772812225115908900,4.523908935546875,-0.054443322122097015,0.024663666263222694,0.06856957077980042
1772812225125609500,4.533609375,-0.0550541877746582,0.020387612283229828,0.09086613357067108
1772812225135310000,4.54331005859375,-0.04894553869962692,0.016416991129517555,0.09208786487579346
1772812225145010700,4.5530107421875,-0.04192059487104416,0.007864884100854397,0.07620538026094437
1772812225154711300,4.562711181640625,-0.03245219215750694,0.00022907429956831038,0.049021899700164795
1772812225164412000,4.572411865234375,-0.019929463043808937,-0.0022143847309052944,0.017256930470466614
1772812225174112500,4.582112548828125,-0.008628465235233307,-0.0019089524867013097,-0.009315688163042068
1772812225183813000,4.591813232421875,0.000839939049910754,-0.01107192412018776,-0.03497200831770897
1772812225193513700,4.601513671875,0.01030834298580885,-0.019013166427612305,-0.05513054504990578
1772812225203214300,4.61121435546875,0.015806125476956367,-0.02084576152265072,-0.07131846249103546
1772812225212915000,4.6209150390625,0.017027854919433594,-0.023594651371240616,-0.08200860023498535
1772812225222615600,4.630615478515625,0.015806125476956367,-0.02176205813884735,-0.0792597085237503
1772812225232316200,4.640316162109375,0.014584396965801716,-0.01626427471637726,-0.064598947763443
1772812225242016800,4.650016845703125,0.012751801870763302,-0.011682788841426373,-0.04413498193025589
1772812225251717400,4.65971728515625,0.009392046369612217,-0.005574141163378954,-0.01908952370285988
1772812225261418000,4.66941796875,0.0066431546583771706,0.00603228947147727,0.005345067009329796
1772812225271118600,4.67911865234375,0.0005345066892914474,0.013362666592001915,0.029474224895238876
1772812225280819200,4.688819091796875,-0.005574141163378954,0.00847574882209301,0.04657844081521034
1772812225290519800,4.698519775390625,-0.01107192412018776,0.004505127668380737,0.05513054504990578
1772812225300220400,4.708220458984375,-0.012293653562664986,0.0066431546583771706,0.05451968312263489
1772812225309921000,4.717921142578125,-0.00954476185142994,0.00603228947147727,0.04505127668380737
1772812225319621600,4.72762158203125,-0.004657844081521034,0.0017562361899763346,0.02825249545276165
1772812225329322200,4.737322265625,-0.0034361144062131643,0.0017562361899763346,0.005039634648710489
1772812225339022800,4.74702294921875,-0.004046979360282421,0.004199695307761431,-0.0206166859716177
1772812225348723500,4.756723388671875,-0.007406735327094793,0.006337722297757864,-0.0386371985077858
1772812225358424000,4.766424072265625,-0.010155626572668552,0.00603228947147727,-0.04780016839504242
1772812225368124700,4.776124755859375,-0.008628465235233307,0.00603228947147727,-0.0487164668738842
1772812225377825300,4.7858251953125,-0.006185005884617567,0.0023671009112149477,-0.04169152304530144
1772812225387526000,4.79552587890625,-0.008017600513994694,-0.005268708802759647,-0.03130681812763214
1772812225397226500,4.8052265625,-0.00923932995647192,-0.004963276442140341,-0.017867794260382652
1772812225406927000,4.814927001953125,-0.004046979360282421,0.0011453714687377214,-0.0010690133785828948
1772812225416627700,4.824627685546875,-0.004657844081521034,0.001450803829357028,0.01359174121171236
1772812225426328300,4.834328369140625,-0.00679587060585618,-0.0009926552884280682,0.019700389355421066
1772812225436029000,4.84402880859375,-0.004963276442140341,0.004505127668380737,0.023365577682852745
1772812225445729500,4.8537294921875,0.0011453714687377214,0.013362666592001915,0.03130681812763214
1772812225455430100,4.86343017578125,0.005421424750238657,0.01000291109085083,0.036804601550102234
1772812225465130800,4.873130859375,0.006337722297757864,0.0029779658652842045,0.041386090219020844
1772812225474831400,4.882831298828125,0.004505127668380737,0.002672533504664898,0.04046979174017906
1772812225484532000,4.892531982421875,-0.0031306820455938578,0.0011453714687377214,0.028863361105322838
1772812225494232600,4.902232666015625,-0.01259908638894558,0.00511599238961935,0.008704823441803455
1772812225503933200,4.91193310546875,-0.01870773360133171,0.014889828860759735,-0.010842849500477314
1772812225513633800,4.9216337890625,-0.018402300775051117,0.013973532244563103,-0.02000582218170166
1772812225523334400,4.93133447265625,-0.012904518283903599,-0.0009926552884280682,-0.023976443335413933
1772812225533035000,4.941034912109375,-0.004963276442140341,-0.010766491293907166,-0.017867794260382652
1772812225542735600,4.950735595703125,0.0011453714687377214,-0.01107192412018776,-0.008399390615522861
1772812225552436200,4.960436279296875,0.0023671009112149477,-0.008933897130191326,0.00045814859913662076
1772812225562136800,4.97013671875,0.000839939049910754,-0.00923932995647192,0.004123337101191282
1772812225571837400,4.97983740234375,0.00022907429956831038,-0.005268708802759647,0.004734201822429895
1772812225581538000,4.9895380859375,-0.0016035200096666813,-0.0009926552884280682,0.009621120058000088
1772812225591238700,4.99923876953125,-0.006185005884617567,-0.0006872228696011007,0.013897174037992954
1772812225600939300,5.008939208984375,-0.00954476185142994,0.004505127668380737,0.021227551624178886
1772812225610640000,5.018639892578125,-0.013209951110184193,0.004505127668380737,0.026419902220368385
1772812225620340200,5.02834033203125,-0.01718057133257389,-0.0009926552884280682,0.02672533318400383
1772812225630041000,5.038041015625,-0.01626427471637726,0.0011453714687377214,0.02367101050913334
1772812225639741700,5.04774169921875,-0.015347977168858051,0.004199695307761431,0.023976443335413933
1772812225649442300,5.0574423828125,-0.01718057133257389,-0.0016035200096666813,0.0206166859716177
1772812225659143000,5.067142822265625,-0.018402300775051117,-0.007406735327094793,0.014202605932950974
1772812225668843500,5.076843505859375,-0.015958841890096664,-0.01259908638894558,-0.003512472379952669
1772812225678544000,5.0865439453125,-0.010461059398949146,-0.015347977168858051,-0.028557928279042244
1772812225688244700,5.09624462890625,-0.0058795735239982605,-0.015958841890096664,-0.06307178735733032
1772812225697945300,5.1059453125,-0.0009926552884280682,-0.0016035200096666813,-0.09117157012224197
1772812225707646000,5.11564599609375,-0.00007635809743078426,0.01977674663066864,-0.09392046183347702
1772812225717346600,5.1253466796875,-0.007406735327094793,0.012751801870763302,-0.0746782198548317
1772812225727047200,5.135047119140625,-0.00923932995647192,0.0029779658652842045,-0.03649916872382164
1772812225736747500,5.14474755859375,-0.009850194677710533,0.003894262947142124,0.002901607658714056
1772812225746448400,5.154448486328125,-0.013820815831422806,0.009086613543331623,0.03527744114398956
1772812225756149000,5.16414892578125,-0.016875140368938446,0.019471315667033195,0.06795870512723923
1772812225765849600,5.173849609375,-0.015042545273900032,0.02283107116818428,0.09636391699314117
1772812225775550200,5.18355029296875,-0.01107192412018776,0.012140937149524689,0.11621702462434769
1772812225785250800,5.193250732421875,-0.007406735327094793,-0.004963276442140341,0.11927134543657303
1772812225794951200,5.202951171875,-0.004046979360282421,-0.012904518283903599,0.1055268943309784
1772812225804652000,5.212652099609375,-0.0016035200096666813,-0.011682788841426373,0.07345648854970932
1772812225814352600,5.2223525390625,0.002061668550595641,-0.00923932995647192,0.030695954337716103
1772812225824053200,5.23205322265625,0.007254019379615784,-0.00679587060585618,-0.008093958720564842
1772812225833753900,5.24175390625,0.010613775812089443,-0.00923932995647192,-0.04474584385752678
1772812225843454500,5.251454345703125,0.01030834298580885,-0.011682788841426373,-0.07101303339004517
1772812225853154800,5.26115478515625,0.006948587018996477,-0.012293653562664986,-0.08903354406356812
1772812225862855700,5.270855712890625,0.002672533504664898,-0.00954476185142994,-0.09758564829826355
1772812225872556300,5.280556396484375,-0.002825249684974551,-0.004963276442140341,-0.09330959618091583
1772812225882257000,5.2902568359375,-0.004963276442140341,0.0017562361899763346,-0.0792597085237503
1772812225891957500,5.29995751953125,-0.004963276442140341,0.013057234697043896,-0.05299251899123192
1772812225901657900,5.309657958984375,-0.007406735327094793,0.019471315667033195,-0.016340631991624832
1772812225911358500,5.3193583984375,-0.01107192412018776,0.013668099418282509,0.022754713892936707
1772812225921059000,5.32905908203125,-0.012293653562664986,0.005421424750238657,0.05696314200758934
1772812225930760000,5.338760009765625,-0.010155626572668552,-0.00007635809743078426,0.0746782198548317
1772812225940460500,5.34846044921875,-0.006490438245236874,0.0005345066892914474,0.07681624591350555
1772812225950161200,5.3581611328125,-0.0009926552884280682,0.0066431546583771706,0.06887500733137131
1772812225959861500,5.367861572265625,0.006948587018996477,0.00511599238961935,0.05543597787618637
1772812225969562000,5.37756201171875,0.015806125476956367,-0.005574141163378954,0.03955349326133728
1772812225979262700,5.3872626953125,0.017944153398275375,-0.015042545273900032,0.018173227086663246
1772812225988963600,5.396963623046875,0.012446369975805283,-0.010461059398949146,-0.0013744457392022014
1772812225998664200,5.406664306640625,-0.0009926552884280682,0.00022907429956831038,-0.028557928279042244
1772812226008364800,5.41636474609375,-0.012293653562664986,0.010613775812089443,-0.05177079141139984
1772812226018065200,5.426065185546875,-0.013515383005142212,0.014278964139521122,-0.06643154472112656
1772812226027765800,5.435765869140625,-0.00923932995647192,0.010613775812089443,-0.07009673118591309
1772812226037466400,5.44546630859375,-0.00038179047987796366,0.0011453714687377214,-0.061850059777498245
1772812226047167200,5.455167236328125,0.009697478264570236,-0.005574141163378954,-0.04841103404760361
1772812226056867800,5.464867919921875,0.015500693581998348,-0.00679587060585618,-0.0334448479115963
1772812226066568400,5.474568359375,0.01824958436191082,-0.004352411720901728,-0.02367101050913334
1772812226076268800,5.484268798828125,0.018555017188191414,-0.0022143847309052944,-0.014813470654189587
1772812226085969400,5.493969482421875,0.016416991129517555,-0.004352411720901728,-0.004734201822429895
1772812226095670000,5.503669921875,0.013668099418282509,-0.004657844081521034,0.006872228812426329
1772812226105371000,5.513370849609375,0.011224640533328056,-0.0012980876490473747,0.02214384824037552
1772812226115071500,5.523071533203125,0.00847574882209301,-0.002825249684974551,0.0334448479115963
1772812226124772000,5.532772216796875,0.007254019379615784,-0.0019089524867013097,0.041386090219020844
1772812226134472400,5.542472412109375,0.008170315995812416,0.004810560029000044,0.046883873641490936
1772812226144173000,5.552173095703125,0.01000291109085083,0.0029779658652842045,0.04505127668380737
1772812226153873700,5.561873779296875,0.01030834298580885,-0.004657844081521034,0.034666575491428375
1772812226163574500,5.571574462890625,0.009697478264570236,-0.0077121676877141,0.022754713892936707
1772812226173275100,5.581275146484375,0.005421424750238657,-0.004657844081521034,0.010537417605519295
1772812226182975700,5.590975830078125,-0.0009926552884280682,-0.00007635809743078426,-0.004428769461810589
1772812226192676000,5.600676025390625,-0.00007635809743078426,0.004505127668380737,-0.019700389355421066
1772812226202376700,5.610376708984375,0.006948587018996477,0.004810560029000044,-0.02764163166284561
1772812226212077300,5.620077392578125,0.013973532244563103,-0.0031306820455938578,-0.031001387163996696
1772812226221778200,5.629778076171875,0.02283107116818428,-0.00679587060585618,-0.03130681812763214
1772812226231478800,5.639478759765625,0.027717988938093185,-0.00923932995647192,-0.026419902220368385
1772812226241179400,5.649179443359375,0.02649625949561596,-0.01107192412018776,-0.01695149764418602
1772812226250879700,5.658879638671875,0.020998476073145866,-0.00923932995647192,-0.009010255336761475
1772812226260580400,5.668580322265625,0.012446369975805283,0.0005345066892914474,-0.0010690133785828948
1772812226270281000,5.678281005859375,0.0017562361899763346,0.004505127668380737,-0.0032070400193333626
1772812226279981800,5.68798193359375,-0.009850194677710533,0.0057268571108579636,-0.008093958720564842
1772812226289682400,5.697682373046875,-0.013820815831422806,0.015500693581998348,-0.008704823441803455
1772812226299382800,5.7073828125,-0.013820815831422806,0.023747367784380913,0.001679878099821508
1772812226309083400,5.71708349609375,-0.017486004158854485,0.01824958436191082,0.016035201027989388
1772812226318784000,5.726783935546875,-0.021151192486286163,0.013973532244563103,0.03436114266514778
1772812226328484600,5.736484619140625,-0.01870773360133171,0.014889828860759735,0.04535670951008797
1772812226338185500,5.746185546875,-0.010766491293907166,0.012751801870763302,0.04199695214629173
1772812226347886000,5.755885986328125,-0.0016035200096666813,0.006948587018996477,0.0334448479115963
1772812226357586700,5.765586669921875,0.00755945174023509,-0.005268708802759647,0.023976443335413933
1772812226367287000,5.775287109375,0.018860450014472008,-0.015347977168858051,0.01359174121171236
1772812226376987600,5.784987548828125,0.027107125148177147,-0.018096869811415672,0.005650499369949102
1772812226386688300,5.794688232421875,0.02588539570569992,-0.016875140368938446,-0.005955931730568409
1772812226396388900,5.804388916015625,0.018555017188191414,-0.010155626572668552,-0.017867794260382652
1772812226406089700,5.81408984375,0.009697478264570236,0.00022907429956831038,-0.025503603741526604
1772812226415790000,5.8237900390625,0.002061668550595641,0.005421424750238657,-0.027947064489126205
1772812226425490700,5.83349072265625,-0.0006872228696011007,-0.003741546766832471,-0.027336198836565018
1772812226435191300,5.84319140625,-0.0034361144062131643,-0.004657844081521034,-0.016646064817905426
1772812226444892000,5.852891845703125,-0.0077121676877141,-0.0012980876490473747,-0.007483093533664942
1772812226454592500,5.862592529296875,-0.012293653562664986,-0.00007635809743078426,0.00045814859913662076
1772812226464293400,5.87229345703125,-0.014737112447619438,0.0023671009112149477,0.0038179049734026194
1772812226473993700,5.88199365234375,-0.010155626572668552,0.007864884100854397,0.009926552884280682
1772812226483694300,5.8916943359375,-0.004963276442140341,0.005421424750238657,0.011759147047996521
1772812226493395000,5.90139501953125,-0.004657844081521034,0.0029779658652842045,0.010537417605519295
1772812226503095600,5.911095458984375,-0.011988221667706966,-0.0009926552884280682,-0.0019853105768561363
1772812226512796200,5.920796142578125,-0.017486004158854485,0.00511599238961935,-0.011759147047996521
1772812226522497000,5.9304970703125,-0.01626427471637726,0.012446369975805283,-0.023976443335413933
1772812226532197400,5.940197265625,-0.011682788841426373,0.013668099418282509,-0.028863361105322838
1772812226541898000,5.94989794921875,-0.004352411720901728,0.009392046369612217,-0.02825249545276165
1772812226551598600,5.9595986328125,0.003894262947142124,-0.0016035200096666813,-0.023365577682852745
1772812226561299200,5.96929931640625,0.01030834298580885,-0.011377356946468353,-0.02153298258781433
1772812226570999800,5.978999755859375,0.012446369975805283,-0.01718057133257389,-0.02306014485657215
1772812226580700700,5.98870068359375,0.009086613543331623,-0.015347977168858051,-0.027947064489126205
1772812226590401000,5.998401123046875,0.00511599238961935,-0.012293653562664986,-0.03711003437638283
1772812226600101600,6.0081015625,0.001450803829357028,-0.0022143847309052944,-0.03558287397027016
1772812226609802200,6.01780224609375,-0.0022143847309052944,0.01030834298580885,-0.02672533318400383
1772812226619502800,6.0275029296875,-0.0025198173243552446,0.013362666592001915,-0.008704823441803455
1772812226629203500,6.037203369140625,-0.002825249684974551,0.004810560029000044,0.005955931730568409
1772812226638904300,6.046904296875,-0.0034361144062131643,-0.002825249684974551,0.01359174121171236
1772812226648604700,6.056604736328125,-0.006490438245236874,-0.00038179047987796366,0.014508038759231567
1772812226658305300,6.06630517578125,-0.00954476185142994,0.002061668550595641,0.014508038759231567
1772812226668006000,6.076005859375,-0.011377356946468353,0.002672533504664898,0.01695149764418602
1772812226677706500,6.08570654296875,-0.010461059398949146,0.0011453714687377214,0.014202605932950974
1772812226687407000,6.095406982421875,-0.011377356946468353,0.0017562361899763346,0.008093958720564842
1772812226697108000,6.10510791015625,-0.00954476185142994,-0.00038179047987796366,-0.0038179049734026194
1772812226706808300,6.114808349609375,-0.0019089524867013097,0.0035888305865228176,-0.013897174037992954
1772812226716509000,6.124509033203125,0.006337722297757864,0.002672533504664898,-0.01695149764418602
1772812226726209500,6.13420947265625,0.01000291109085083,-0.009850194677710533,-0.02000582218170166
1772812226735910100,6.14391015625,0.008170315995812416,-0.015958841890096664,-0.023976443335413933
1772812226745610800,6.15361083984375,0.004505127668380737,-0.004046979360282421,-0.026419902220368385
1772812226755311600,6.1633115234375,-0.00007635809743078426,0.01000291109085083,-0.02519817277789116
1772812226765012000,6.173011962890625,-0.004963276442140341,0.009392046369612217,-0.020311253145337105
1772812226774712600,6.182712646484375,-0.004352411720901728,0.0011453714687377214,-0.017867794260382652
1772812226784413200,6.1924130859375,0.002672533504664898,0.0017562361899763346,-0.014202605932950974
1772812226794113800,6.20211376953125,0.007254019379615784,0.008170315995812416,-0.008093958720564842
1772812226803814400,6.211814453125,0.006337722297757864,0.008170315995812416,0.002290742937475443
1772812226813515300,6.221515380859375,0.004810560029000044,0.0011453714687377214,0.01359174121171236
1772812226823215600,6.231215576171875,0.00511599238961935,-0.00007635809743078426,0.015729768201708794
1772812226832916200,6.240916259765625,0.007864884100854397,0.00847574882209301,0.01511890348047018
1772812226842616800,6.250616943359375,0.004505127668380737,0.015195261687040329,0.014508038759231567
1772812226852317400,6.2603173828125,-0.0012980876490473747,0.01183550525456667,0.015729768201708794
1772812226862018000,6.27001806640625,-0.006185005884617567,0.004810560029000044,0.01359174121171236
1772812226871718700,6.27971875,-0.005268708802759647,0.0029779658652842045,0.0019853105768561363
1772812226881419300,6.289419189453125,-0.0031306820455938578,0.00847574882209301,-0.014813470654189587
1772812226891119900,6.299119873046875,-0.0022143847309052944,0.008170315995812416,-0.027336198836565018
1772812226900820500,6.308820556640625,0.0017562361899763346,0.004505127668380737,-0.029474224895238876
1772812226910521000,6.31852099609375,0.00755945174023509,0.0005345066892914474,-0.026419902220368385
1772812226920221700,6.3282216796875,0.011224640533328056,0.0005345066892914474,-0.019394956529140472
1772812226929922300,6.33792236328125,0.009086613543331623,0.002672533504664898,-0.0102319847792387
1772812226939623000,6.347622802734375,0.007254019379615784,0.0057268571108579636,0.001679878099821508
1772812226949323500,6.357323486328125,0.008170315995812416,0.006337722297757864,0.010842849500477314
1772812226959024000,6.367024169921875,0.006948587018996477,0.006337722297757864,0.016035201027989388
1772812226968724700,6.376724853515625,0.0017562361899763346,0.004505127668380737,0.012980876490473747
1772812226978425300,6.38642529296875,-0.0022143847309052944,0.004199695307761431,0.009621120058000088
1772812226988126000,6.3961259765625,-0.003741546766832471,0.007254019379615784,0.006566796451807022
1772812226997826600,6.40582666015625,-0.0012980876490473747,0.013668099418282509,0.009621120058000088
1772812227007527200,6.415527099609375,-0.007406735327094793,0.013362666592001915,0.01359174121171236
1772812227017227800,6.425227783203125,-0.01779143698513508,0.00847574882209301,0.009315688163042068
1772812227026928400,6.434928466796875,-0.02237292192876339,0.00847574882209301,-0.005039634648710489
1772812227036629000,6.44462890625,-0.017486004158854485,0.007254019379615784,-0.024281874299049377
1772812227046329600,6.45432958984375,-0.008628465235233307,0.003283398225903511,-0.04169152304530144
1772812227056030200,6.4640302734375,0.00022907429956831038,-0.004046979360282421,-0.04657844081521034
1772812227065730800,6.473730712890625,0.003894262947142124,-0.00954476185142994,-0.0334448479115963
1772812227075431400,6.483431396484375,0.001450803829357028,-0.013515383005142212,-0.012370011769235134
1772812227085132000,6.493132080078125,-0.0006872228696011007,-0.005574141163378954,0.011148282326757908
1772812227094832600,6.50283251953125,-0.0016035200096666813,0.007254019379615784,0.029474224895238876
1772812227104533200,6.512533203125,-0.008933897130191326,0.009086613543331623,0.04627300798892975
1772812227114233900,6.52223388671875,-0.015347977168858051,0.011224640533328056,0.058795735239982605
1772812227123934500,6.5319345703125,-0.0193185992538929,0.013668099418282509,0.06246092543005943
1772812227133635000,6.541635009765625,-0.021151192486286163,0.012140937149524689,0.05818486958742142
1772812227143335700,6.551335693359375,-0.018402300775051117,0.004810560029000044,0.04535670951008797
1772812227153036300,6.561036376953125,-0.01107192412018776,-0.003741546766832471,0.02825249545276165
1772812227162737000,6.57073681640625,-0.004046979360282421,-0.00923932995647192,0.009621120058000088
1772812227172437500,6.5804375,0.0005345066892914474,-0.008933897130191326,-0.0038179049734026194
1772812227182138000,6.59013818359375,0.004505127668380737,-0.008323032408952713,-0.007177661173045635
1772812227191838700,6.599838623046875,-0.0006872228696011007,-0.009850194677710533,0.0025961752980947495
1772812227201539300,6.609539306640625,-0.011377356946468353,-0.008628465235233307,0.009926552884280682
1772812227211240000,6.619239990234375,-0.0193185992538929,-0.00007635809743078426,0.012370011769235134
1772812227220940500,6.6289404296875,-0.02328922040760517,0.0057268571108579636,0.007788525894284248
1772812227230641200,6.63864111328125,-0.02084576152265072,0.0029779658652842045,-0.00045814859913662076
1772812227240341800,6.648341796875,-0.011988221667706966,-0.0025198173243552446,-0.008704823441803455
1772812227250042400,6.65804248046875,-0.0025198173243552446,-0.009850194677710533,-0.01359174121171236
1772812227259743000,6.667742919921875,0.00022907429956831038,-0.017486004158854485,-0.017867794260382652
1772812227269443600,6.677443603515625,0.0017562361899763346,-0.011988221667706966,-0.014202605932950974
1772812227279144200,6.687144287109375,0.003283398225903511,-0.006185005884617567,-0.009315688163042068
1772812227288844800,6.6968447265625,0.009697478264570236,-0.0025198173243552446,0.005650499369949102
1772812227298545400,6.70654541015625,0.013668099418282509,-0.011377356946468353,0.02153298258781433
1772812227308246000,6.71624609375,0.012140937149524689,-0.018402300775051117,0.03711003437638283
1772812227317946600,6.725946533203125,0.00755945174023509,-0.017486004158854485,0.043829549103975296
1772812227327647200,6.735647216796875,0.002672533504664898,-0.011377356946468353,0.04657844081521034
1772812227337347800,6.745347900390625,-0.0034361144062131643,-0.008323032408952713,0.04108065739274025
1772812227347048400,6.75504833984375,-0.0077121676877141,-0.004046979360282421,0.030390523374080658
1772812227356749000,6.7647490234375,-0.007406735327094793,0.0005345066892914474,0.0154243353754282
1772812227366449700,6.77444970703125,-0.0034361144062131643,-0.007101302966475487,-0.00045814859913662076
1772812227376150300,6.784150390625,0.000839939049910754,-0.011682788841426373,-0.009010255336761475
1772812227385851000,6.793850830078125,0.003283398225903511,-0.004963276442140341,-0.009010255336761475
1772812227395551500,6.803551513671875,-0.0006872228696011007,-0.009850194677710533,-0.0032070400193333626
1772812227405252000,6.813252197265625,-0.0025198173243552446,-0.01626427471637726,0.0013744457392022014
1772812227414952700,6.82295263671875,0.00022907429956831038,-0.012293653562664986,0.005650499369949102
1772812227424653300,6.8326533203125,0.0017562361899763346,-0.013209951110184193,0.005955931730568409
1772812227434354000,6.84235400390625,-0.0006872228696011007,-0.019013166427612305,0.0062613640911877155
1772812227444054500,6.852054443359375,-0.0025198173243552446,-0.015347977168858051,0.009010255336761475
1772812227453755100,6.861755126953125,-0.008323032408952713,-0.00923932995647192,0.012675444595515728
1772812227463455700,6.871455810546875,-0.01626427471637726,-0.008323032408952713,0.016646064817905426
1772812227473156400,6.88115625,-0.02023489587008953,-0.004657844081521034,0.022449281066656113
1772812227482857000,6.89085693359375,-0.01779143698513508,-0.0016035200096666813,0.02825249545276165
1772812227492557600,6.9005576171875,-0.013515383005142212,-0.002825249684974551,0.03497200831770897
1772812227502258200,6.910258056640625,-0.008933897130191326,-0.007406735327094793,0.039248060435056686
1772812227511958800,6.919958740234375,-0.005268708802759647,-0.014737112447619438,0.03649916872382164
1772812227521659400,6.929659423828125,-0.00679587060585618,-0.01565340906381607,0.02306014485657215
1772812227531360000,6.939360107421875,-0.01626427471637726,-0.00954476185142994,0.002290742937475443
1772812227541060600,6.949060546875,-0.024816380813717842,0.005421424750238657,-0.020922118797898293
1772812227550761200,6.95876123046875,-0.024205517023801804,0.012446369975805283,-0.039248060435056686
1772812227560461800,6.9684619140625,-0.015958841890096664,0.001450803829357028,-0.04993819445371628
1772812227570162400,6.978162353515625,-0.0034361144062131643,-0.010766491293907166,-0.050549060106277466
1772812227579863000,6.987863037109375,0.00847574882209301,-0.01626427471637726,-0.04230238497257233
1772812227589563600,6.997563720703125,0.014278964139521122,-0.015347977168858051,-0.027030766010284424
1772812227599264300,7.00726416015625,0.014584396965801716,-0.015042545273900032,-0.011759147047996521
1772812227608964900,7.01696484375,0.008781181648373604,-0.01107192412018776,0.00045814859913662076
1772812227618665500,7.02666552734375,0.002061668550595641,-0.0006872228696011007,0.010842849500477314
1772812227628366000,7.036365966796875,-0.0012980876490473747,0.003894262947142124,0.020311253145337105
1772812227638066700,7.046066650390625,-0.004352411720901728,-0.0006872228696011007,0.027030766010284424
1772812227647767300,7.055767333984375,-0.008323032408952713,-0.004657844081521034,0.028863361105322838
1772812227657468000,7.065468017578125,-0.013515383005142212,-0.0006872228696011007,0.02672533318400383
1772812227667168500,7.07516845703125,-0.01779143698513508,0.0005345066892914474,0.023365577682852745
1772812227676869000,7.084869140625,-0.02023489587008953,0.0029779658652842045,0.022754713892936707
1772812227686569700,7.09456982421875,-0.01779143698513508,0.0057268571108579636,0.02611446939408779
1772812227696270300,7.104270263671875,-0.015347977168858051,-0.0006872228696011007,0.02916879393160343
1772812227705971000,7.113970947265625,-0.013820815831422806,-0.0019089524867013097,0.030695954337716103
1772812227715671600,7.123671630859375,-0.012904518283903599,0.003283398225903511,0.031612250953912735
1772812227725372200,7.1333720703125,-0.01259908638894558,0.000839939049910754,0.026419902220368385
1772812227735072800,7.14307275390625,-0.011988221667706966,-0.0031306820455938578,0.02000582218170166
1772812227744773400,7.1527734375,-0.008323032408952713,-0.0009926552884280682,0.014202605932950974
1772812227754474000,7.162473876953125,-0.005574141163378954,-0.004046979360282421,0.006566796451807022
1772812227764174600,7.172174560546875,-0.0025198173243552446,-0.007406735327094793,-0.00045814859913662076
1772812227773875200,7.181875244140625,0.0011453714687377214,-0.009850194677710533,-0.0102319847792387
1772812227783575800,7.191575927734375,0.002061668550595641,-0.0077121676877141,-0.020922118797898293
1772812227793276400,7.2012763671875,-0.00007635809743078426,-0.0025198173243552446,-0.03191768378019333
1772812227802977000,7.21097705078125,-0.00007635809743078426,0.00022907429956831038,-0.03711003437638283
1772812227812677600,7.220677734375,-0.0058795735239982605,-0.0009926552884280682,-0.03894263133406639
1772812227822378200,7.230378173828125,-0.010461059398949146,0.0029779658652842045,-0.03649916872382164
1772812227832078800,7.240078857421875,-0.01259908638894558,0.011224640533328056,-0.022449281066656113
1772812227841779500,7.249779541015625,-0.02084576152265072,0.004199695307761431,-0.007788525894284248
1772812227851480000,7.25947998046875,-0.022983787581324577,0.004810560029000044,0.0062613640911877155
1772812227861180700,7.2691806640625,-0.02542724646627903,0.013973532244563103,0.018173227086663246
1772812227880582000,7.288581787109375,-0.03306305781006813,0.021914774551987648,0.03649916872382164
1772812227890282500,7.298282470703125,-0.030314164236187935,0.016416991129517555,0.03955349326133728
1772812227909683700,7.31768359375,-0.0193185992538929,-0.00038179047987796366,0.033139415085315704
1772812227919384300,7.32738427734375,-0.010155626572668552,-0.0012980876490473747,0.024281874299049377
1772812227929085000,7.3370849609375,-0.0019089524867013097,-0.005268708802759647,0.012675444595515728
1772812227938785500,7.34678564453125,0.0035888305865228176,-0.0031306820455938578,0.005345067009329796
1772812227948486100,7.356486083984375,0.007864884100854397,-0.0022143847309052944,-0.0025961752980947495
1772812227958186800,7.366186767578125,0.00755945174023509,-0.0077121676877141,-0.012675444595515728
1772812227967887400,7.375887451171875,0.009392046369612217,-0.011682788841426373,-0.02458730712532997
1772812227977588000,7.385587890625,0.010919207707047462,-0.010155626572668552,-0.034666575491428375
1772812227987288600,7.39528857421875,0.00603228947147727,-0.006185005884617567,-0.040775224566459656
1772812227996989200,7.4049892578125,-0.004046979360282421,0.003894262947142124,-0.03802633285522461
1772812228006689800,7.414689697265625,-0.009850194677710533,0.017333287745714188,-0.022449281066656113
1772812228016390400,7.424390380859375,-0.012904518283903599,0.020387612283229828,-0.0007635809597559273
1772812228026091000,7.434091064453125,-0.018096869811415672,0.015500693581998348,0.0206166859716177
1772812228035791600,7.44379150390625,-0.024816380813717842,0.011530072428286076,0.03527744114398956
1772812228045492200,7.4534921875,-0.03153589367866516,0.00847574882209301,0.0334448479115963
1772812228055192800,7.46319287109375,-0.03520108386874199,0.01030834298580885,0.016340631991624832
1772812228064893400,7.4728935546875,-0.03611737862229347,0.012140937149524689,-0.003512472379952669
1772812228074594000,7.482593994140625,-0.030925029888749123,0.00847574882209301,-0.023976443335413933
1772812228084294700,7.492294677734375,-0.0193185992538929,-0.0025198173243552446,-0.03527744114398956
1772812228093995300,7.501995361328125,-0.004046979360282421,-0.01259908638894558,-0.03405570983886719
1772812228103696000,7.51169580078125,0.0057268571108579636,-0.010766491293907166,-0.0206166859716177
1772812228113396500,7.521396484375,0.007254019379615784,-0.005268708802759647,-0.0010690133785828948
1772812228123097000,7.53109716796875,0.0023671009112149477,-0.00007635809743078426,0.02000582218170166
1772812228132797700,7.540797607421875,-0.006490438245236874,0.004505127668380737,0.03527744114398956
1772812228142498300,7.550498291015625,-0.008323032408952713,0.008781181648373604,0.04474584385752678
1772812228152199000,7.560198974609375,-0.006490438245236874,0.01183550525456667,0.04932733252644539
1772812228161899500,7.5698994140625,-0.004657844081521034,0.00603228947147727,0.047494735568761826
1772812228171600100,7.57960009765625,-0.004352411720901728,0.003894262947142124,0.03955349326133728
1772812228181301000,7.589301025390625,-0.006490438245236874,0.006948587018996477,0.02519817277789116
1772812228191001300,7.59900146484375,-0.00954476185142994,0.009086613543331623,0.010537417605519295
1772812228200702000,7.608701904296875,-0.011988221667706966,0.009086613543331623,0.002901607658714056
1772812228210402600,7.618402587890625,-0.014126247726380825,0.009086613543331623,-0.0025961752980947495
1772812228220103200,7.628103271484375,-0.016875140368938446,0.003894262947142124,-0.0062613640911877155
1772812228229803800,7.6378037109375,-0.017486004158854485,0.0029779658652842045,-0.008704823441803455
1772812228239504400,7.64750439453125,-0.017486004158854485,0.007864884100854397,-0.010842849500477314
1772812228249205000,7.657205078125,-0.019624030217528343,0.009392046369612217,-0.010842849500477314
1772812228258905600,7.666905517578125,-0.015958841890096664,0.0057268571108579636,-0.012370011769235134
1772812228268606200,7.676606201171875,-0.005574141163378954,-0.00007635809743078426,-0.01359174121171236
1772812228278306800,7.686306884765625,0.00511599238961935,-0.00679587060585618,-0.010537417605519295
1772812228288007400,7.69600732421875,0.011530072428286076,-0.009850194677710533,-0.006872228812426329
1772812228297708000,7.7057080078125,0.012751801870763302,-0.0012980876490473747,0.0013744457392022014
1772812228307408600,7.71540869140625,0.009697478264570236,0.01183550525456667,0.0154243353754282
1772812228317109200,7.725109130859375,0.0017562361899763346,0.012446369975805283,0.03191768378019333
1772812228326809900,7.734809814453125,-0.0006872228696011007,0.007254019379615784,0.04016435891389847
1772812228336510500,7.744510498046875,0.0023671009112149477,0.006337722297757864,0.03436114266514778
1772812228346211000,7.754211181640625,0.00847574882209301,0.003283398225903511,0.01908952370285988
1772812228355911700,7.76391162109375,0.015806125476956367,0.0005345066892914474,0.00045814859913662076
1772812228365612300,7.7736123046875,0.021609341725707054,0.000839939049910754,-0.0154243353754282
1772812228375313000,7.78331298828125,0.023441936820745468,0.00022907429956831038,-0.0206166859716177
1772812228385013500,7.793013427734375,0.020693045109510422,0.000839939049910754,-0.02153298258781433
1772812228394714000,7.802714111328125,0.01824958436191082,0.0005345066892914474,-0.01908952370285988
1772812228404414700,7.812414794921875,0.019471315667033195,-0.00679587060585618,-0.01847865991294384
1772812228414115300,7.822115234375,0.023136503994464874,-0.011682788841426373,-0.01847865991294384
1772812228423816200,7.831816162109375,0.025274530053138733,-0.011988221667706966,-0.019700389355421066
1772812228433516500,7.8415166015625,0.02130390889942646,-0.008933897130191326,-0.014508038759231567
1772812228443217200,7.851217041015625,0.012751801870763302,-0.007101302966475487,-0.0062613640911877155
1772812228452917800,7.860917724609375,0.006337722297757864,-0.0034361144062131643,0.004734201822429895
1772812228462618400,7.870618408203125,0.0035888305865228176,0.000839939049910754,0.016035201027989388
1772812228472319000,7.880319091796875,0.0057268571108579636,0.00603228947147727,0.023976443335413933
1772812228482019800,7.890019775390625,0.012446369975805283,-0.0034361144062131643,0.02367101050913334
1772812228491720200,7.89972021484375,0.018555017188191414,-0.011682788841426373,0.02153298258781433
1772812228501420800,7.9094208984375,0.023747367784380913,-0.014431680552661419,0.014202605932950974
1772812228511121400,7.919121337890625,0.021609341725707054,-0.014737112447619438,0.004428769461810589
1772812228520822000,7.928822021484375,0.020387612283229828,-0.015042545273900032,-0.002290742937475443
1772812228530522600,7.938522705078125,0.027107125148177147,-0.010766491293907166,-0.005955931730568409
1772812228540223500,7.948223388671875,0.03107774630188942,-0.00679587060585618,-0.00045814859913662076
1772812228549923800,7.957923828125,0.020998476073145866,-0.0019089524867013097,0.01206457894295454
1772812228559624400,7.96762451171875,-0.00007635809743078426,0.0029779658652842045,0.025503603741526604
1772812228569325000,7.977324951171875,-0.02176205813884735,0.008170315995812416,0.028557928279042244
1772812228579025700,7.987025634765625,-0.033368486911058426,0.015500693581998348,0.022449281066656113
1772812228588726300,7.996726318359375,-0.03581194952130318,0.015806125476956367,0.0102319847792387
1772812228598427100,8.00642724609375,-0.02542724646627903,0.008781181648373604,0.0025961752980947495
1772812228608127700,8.016127685546875,-0.008017600513994694,0.0029779658652842045,0.007177661173045635
1772812228627528700,8.03552880859375,0.004199695307761431,-0.005268708802759647,0.03802633285522461
1772812228637229300,8.045229248046875,0.0057268571108579636,-0.008628465235233307,0.04566214233636856
1772812228646930000,8.054929931640626,0.007254019379615784,-0.005574141163378954,0.04321868345141411
1772812228656630800,8.064630859375,0.009392046369612217,0.000839939049910754,0.03375028073787689
1772812228666331400,8.074331298828126,0.011530072428286076,0.008781181648373604,0.027030766010284424
1772812228676031700,8.08403173828125,0.013057234697043896,0.008781181648373604,0.0206166859716177
1772812228685732400,8.093732421875,0.014584396965801716,0.014278964139521122,0.018784092739224434
1772812228695433000,8.103432861328125,0.012140937149524689,0.020693045109510422,0.017867794260382652
1772812228705133600,8.113133544921874,0.010919207707047462,0.020998476073145866,0.009315688163042068
1772812228714834400,8.12283447265625,0.013057234697043896,0.020693045109510422,-0.005955931730568409
1772812228724535000,8.13253515625,0.019471315667033195,0.01611155830323696,-0.027336198836565018
1772812228734235600,8.142235595703125,0.028634287416934967,0.013668099418282509,-0.04535670951008797
1772812228743936000,8.15193603515625,0.037491824477910995,0.010919207707047462,-0.04718930274248123
1772812228753636600,8.16163671875,0.04146244749426842,-0.0012980876490473747,-0.04505127668380737
1772812228763337200,8.171337158203125,0.043600473552942276,-0.0031306820455938578,-0.03436114266514778
1772812228773037800,8.181037841796876,0.03871355578303337,0.00847574882209301,-0.021838415414094925
1772812228782738700,8.19073876953125,0.029856016859412193,0.020387612283229828,-0.008399390615522861
1772812228792439300,8.200439208984376,0.020387612283229828,0.020998476073145866,0.0025961752980947495
1772812228802140000,8.210139892578125,0.01763872057199478,0.01824958436191082,0.012675444595515728
1772812228811840300,8.21984033203125,0.020693045109510422,0.014278964139521122,0.019700389355421066
1772812228821540900,8.229540771484375,0.02893971838057041,0.005421424750238657,0.02367101050913334
1772812228831241500,8.239241455078124,0.03962985426187515,-0.00679587060585618,0.023365577682852745
1772812228840942300,8.2489423828125,0.048792824149131775,-0.010766491293907166,0.02214384824037552
1772812228850643000,8.258642822265625,0.05062541738152504,-0.014737112447619438,0.014202605932950974
1772812228860343600,8.268343505859375,0.046654798090457916,-0.014737112447619438,0.0007635809597559273
1772812228870044000,8.2780439453125,0.04024071618914604,-0.011377356946468353,-0.01847865991294384
1772812228879744500,8.28774462890625,0.03627009689807892,-0.0077121676877141,-0.0386371985077858
1772812228889445000,8.297445068359375,0.039018988609313965,-0.007406735327094793,-0.05451968312263489
1772812228899146000,8.30714599609375,0.043600473552942276,-0.010766491293907166,-0.06520981341600418
1772812228908846600,8.3168466796875,0.044211339205503464,-0.015042545273900032,-0.06643154472112656
1772812228918547200,8.326547119140624,0.04085158184170723,-0.01107192412018776,-0.0591011680662632
1772812228928247600,8.33624755859375,0.03504836559295654,-0.005574141163378954,-0.046883873641490936
1772812228937948200,8.3459482421875,0.02893971838057041,-0.00679587060585618,-0.03588830679655075
1772812228947648800,8.355648681640625,0.023136503994464874,-0.00679587060585618,-0.026419902220368385
1772812228957349600,8.365349609375,0.014889828860759735,0.003894262947142124,-0.021227551624178886
1772812228967050200,8.37505029296875,0.009697478264570236,0.023747367784380913,-0.01359174121171236
1772812228976750800,8.384750732421875,0.0035888305865228176,0.013973532244563103,-0.0010690133785828948
1772812228986451200,8.394451171875,-0.00038179047987796366,-0.012293653562664986,0.008093958720564842
1772812228996151800,8.40415185546875,0.004810560029000044,-0.015958841890096664,0.016340631991624832
1772812229005852400,8.413852294921876,0.013057234697043896,-0.009850194677710533,0.02214384824037552
1772812229015553300,8.42355322265625,0.017333287745714188,-0.010155626572668552,0.024281874299049377
1772812229025254000,8.43325390625,0.01611155830323696,-0.015958841890096664,0.026419902220368385
1772812229034954500,8.44295458984375,0.011530072428286076,-0.014126247726380825,0.030085090547800064
1772812229044655000,8.452655029296874,0.009086613543331623,-0.010461059398949146,0.02764163166284561
1772812229054355500,8.46235546875,0.009697478264570236,-0.004352411720901728,0.02764163166284561
1772812229064056000,8.47205615234375,0.004810560029000044,-0.00038179047987796366,0.022449281066656113
1772812229073757000,8.4817568359375,-0.004963276442140341,0.0011453714687377214,0.015729768201708794
1772812229083457500,8.49145751953125,-0.015958841890096664,-0.00038179047987796366,0.0019853105768561363
1772812229093158100,8.501158203125,-0.02328922040760517,-0.00007635809743078426,-0.016340631991624832
1772812229102858800,8.510858642578125,-0.022983787581324577,0.00603228947147727,-0.036193739622831345
1772812229112559000,8.52055908203125,-0.013820815831422806,0.009697478264570236,-0.04321868345141411
1772812229122259700,8.530259765625,-0.0009926552884280682,-0.002825249684974551,-0.0383317656815052
1772812229131960600,8.539960693359374,0.009392046369612217,-0.014737112447619438,-0.023976443335413933
1772812229141661200,8.5496611328125,0.016416991129517555,-0.015042545273900032,-0.011148282326757908
1772812229151361800,8.55936181640625,0.015195261687040329,-0.008933897130191326,0.0010690133785828948
1772812229161062400,8.5690625,0.01183550525456667,-0.007101302966475487,0.007483093533664942
1772812229170763000,8.578762939453124,0.015195261687040329,-0.0077121676877141,0.007483093533664942
1772812229180463400,8.58846337890625,0.018555017188191414,-0.008933897130191326,0.009315688163042068
1772812229190164000,8.5981640625,0.0191658828407526,-0.008933897130191326,0.010537417605519295
1772812229199864800,8.60786474609375,0.017027854919433594,-0.009850194677710533,0.011453714221715927
1772812229209565400,8.6175654296875,0.013973532244563103,-0.004657844081521034,0.009315688163042068
1772812229219266000,8.62726611328125,0.009086613543331623,0.007864884100854397,0.009010255336761475
1772812229228966700,8.636966552734375,-0.0012980876490473747,0.011224640533328056,0.005955931730568409
1772812229238667000,8.6466669921875,-0.00954476185142994,0.007864884100854397,-0.005345067009329796
1772812229248367600,8.65636767578125,-0.010461059398949146,0.00511599238961935,-0.01908952370285988
1772812229258068500,8.666068359375,-0.008017600513994694,-0.00007635809743078426,-0.03283398225903511
1772812229267769000,8.67576904296875,-0.007406735327094793,-0.0034361144062131643,-0.04535670951008797
1772812229277469700,8.6854697265625,-0.008323032408952713,0.0035888305865228176,-0.04780016839504242
1772812229287170300,8.69517041015625,-0.008628465235233307,0.011224640533328056,-0.03894263133406639
1772812229296871000,8.704870849609375,-0.008933897130191326,0.012446369975805283,-0.02519817277789116
1772812229306571300,8.7145712890625,-0.009850194677710533,0.01183550525456667,-0.014508038759231567
1772812229316272000,8.724272216796875,-0.007406735327094793,0.01030834298580885,-0.009621120058000088
1772812229325972700,8.73397265625,-0.002825249684974551,0.0191658828407526,-0.012675444595515728
1772812229335673300,8.74367333984375,-0.00679587060585618,0.021609341725707054,-0.009926552884280682
1772812229345374000,8.7533740234375,-0.0193185992538929,0.023747367784380913,0.009315688163042068
1772812229355074600,8.763074462890625,-0.03520108386874199,0.026801692321896553,0.03130681812763214
1772812229364775200,8.772775146484374,-0.0397825688123703,0.03352120518684387,0.0487164668738842
1772812229374475800,8.782475830078125,-0.04558578506112099,0.036880962550640106,0.07742711156606674
1772812229384176400,8.79217626953125,-0.04741837829351425,0.033826638013124466,0.09728021919727325
1772812229393877000,8.801876953125,-0.031841326504945755,0.04390590637922287,0.11468986421823502
1772812229403577600,8.81157763671875,-0.012293653562664986,0.05001455545425415,0.10980294644832611
1772812229413278200,8.8212783203125,-0.004657844081521034,0.040546149015426636,0.1104138121008873
1772812229422978800,8.830978759765625,-0.01107192412018776,0.023747367784380913,0.10461059212684631
1772812229432679400,8.840679443359376,-0.010766491293907166,0.020998476073145866,0.0896444097161293
1772812229442380000,8.850380126953125,-0.005574141163378954,0.020693045109510422,0.061850059777498245
1772812229452080600,8.86008056640625,-0.004046979360282421,0.010613775812089443,0.03711003437638283
1772812229461781200,8.86978125,0.001450803829357028,-0.0006872228696011007,0.01206457894295454
1772812229471481900,8.87948193359375,0.011530072428286076,0.0005345066892914474,-0.007483093533664942
1772812229481182500,8.889182373046875,0.01763872057199478,0.013668099418282509,-0.011148282326757908
1772812229490883000,8.898883056640624,0.01824958436191082,0.026801692321896553,-0.007177661173045635
1772812229500583700,8.908583740234375,0.009392046369612217,0.03168861195445061,0.0062613640911877155
1772812229510284300,8.9182841796875,-0.011377356946468353,0.029245151206851006,0.024281874299049377
1772812229519985000,8.92798486328125,-0.021151192486286163,0.0243582334369421,0.04657844081521034
1772812229529685500,8.937685546875,-0.019929463043808937,0.013057234697043896,0.056657709181308746
1772812229539386000,8.94738623046875,-0.014126247726380825,0.006948587018996477,0.04780016839504242
1772812229549086700,8.957086669921875,-0.00954476185142994,0.014584396965801716,0.03283398225903511
1772812229558787300,8.966787353515626,-0.005268708802759647,0.016416991129517555,0.014508038759231567
1772812229568488000,8.976488037109375,0.0005345066892914474,0.007254019379615784,0.001679878099821508
1772812229578188500,8.9861884765625,0.008781181648373604,-0.007406735327094793,-0.007483093533664942
1772812229587889200,8.99588916015625,0.008781181648373604,-0.015958841890096664,-0.0206166859716177
1772812229597589800,9.00558984375,0.002672533504664898,-0.018402300775051117,-0.04474584385752678
1772812229607290400,9.015290283203125,0.000839939049910754,-0.015958841890096664,-0.07406735420227051
1772812229616991000,9.024990966796874,-0.0012980876490473747,-0.01107192412018776,-0.09330959618091583
1772812229626691600,9.034691650390625,-0.0031306820455938578,0.007864884100854397,-0.08292489498853683
1772812229636392200,9.04439208984375,-0.00679587060585618,0.020082179456949234,-0.05696314200758934
1772812229646092800,9.0540927734375,-0.014737112447619438,0.017333287745714188,-0.017256930470466614
1772812229655793400,9.06379345703125,-0.019013166427612305,0.012446369975805283,0.027030766010284424
1772812229665494000,9.073493896484376,-0.014737112447619438,0.007864884100854397,0.05818486958742142
1772812229675194600,9.083194580078125,-0.00923932995647192,-0.0022143847309052944,0.06734783947467804
1772812229684895200,9.092895263671876,-0.0077121676877141,-0.0025198173243552446,0.06368265300989151
1772812229694595800,9.102595947265625,-0.011682788841426373,-0.003741546766832471,0.0487164668738842
1772812229704296400,9.11229638671875,-0.013515383005142212,-0.0058795735239982605,0.03375028073787689
1772812229713997000,9.1219970703125,-0.011377356946468353,0.00022907429956831038,0.019700389355421066
1772812229723697700,9.13169775390625,-0.00954476185142994,0.005421424750238657,0.005345067009329796
1772812229733398300,9.141398193359375,-0.010766491293907166,0.008170315995812416,-0.004428769461810589
1772812229743099000,9.151098876953125,-0.00923932995647192,0.00755945174023509,-0.013286309316754341
1772812229752799500,9.160799560546875,-0.007406735327094793,0.0029779658652842045,-0.026419902220368385
1772812229762500000,9.1705,-0.011682788841426373,-0.0025198173243552446,-0.04199695214629173
1772812229772200700,9.18020068359375,-0.019929463043808937,0.002061668550595641,-0.05299251899123192
1772812229781901300,9.1899013671875,-0.027259841561317444,0.017333287745714188,-0.05543597787618637
1772812229791602000,9.199601806640626,-0.03367391973733902,0.033826638013124466,-0.05513054504990578
1772812229801302500,9.209302490234375,-0.028176138177514076,0.03504836559295654,-0.036193739622831345
1772812229811003100,9.219003173828124,-0.024510949850082397,0.030772313475608826,-0.0019853105768561363
1772812229820703700,9.228703857421875,-0.019013166427612305,0.01183550525456667,0.027947064489126205
1772812229830404400,9.238404296875,-0.014737112447619438,-0.007406735327094793,0.04474584385752678
1772812229840105000,9.24810498046875,-0.00923932995647192,-0.010461059398949146,0.05024362727999687
1772812229849805600,9.2578056640625,-0.0019089524867013097,0.0005345066892914474,0.04321868345141411
1772812229859506200,9.267506103515625,0.010613775812089443,0.006337722297757864,0.04016435891389847
1772812229869206800,9.277206787109375,0.017333287745714188,-0.00038179047987796366,0.05513054504990578
1772812229878907400,9.286907470703126,0.016416991129517555,-0.00954476185142994,0.07040216773748398
1772812229888608000,9.29660791015625,0.01000291109085083,-0.016875140368938446,0.07864884287118912
1772812229898308600,9.30630859375,0.0017562361899763346,-0.0058795735239982605,0.07315105944871902
1772812229908009200,9.31600927734375,0.00022907429956831038,0.019471315667033195,0.060933761298656464
1772812229917709800,9.325709716796876,-0.0012980876490473747,0.023441936820745468,0.052076224237680435
1772812229927410400,9.335410400390625,-0.0009926552884280682,0.013057234697043896,0.03649916872382164
1772812229937111000,9.345111083984374,0.004199695307761431,0.00603228947147727,0.016035201027989388
1772812229946811600,9.354811767578125,0.01000291109085083,0.010919207707047462,-0.006872228812426329
1772812229956512300,9.36451220703125,0.012751801870763302,0.01763872057199478,-0.022754713892936707
1772812229966212900,9.374212890625,0.012140937149524689,0.0017562361899763346,-0.03405570983886719
1772812229975913500,9.38391357421875,0.016416991129517555,0.0035888305865228176,-0.03955349326133728
1772812229985614000,9.393614013671876,0.024663666263222694,0.0035888305865228176,-0.04627300798892975
1772812229995314700,9.403314697265625,0.02130390889942646,-0.009850194677710533,-0.04841103404760361
1772812230005015300,9.413015380859376,0.020693045109510422,-0.005268708802759647,-0.0487164668738842
1772812230014716000,9.4227158203125,0.019471315667033195,0.004810560029000044,-0.03802633285522461
1772812230024416500,9.43241650390625,0.012446369975805283,0.007864884100854397,-0.0206166859716177
1772812230034117000,9.4421171875,0.012140937149524689,0.01183550525456667,0.0038179049734026194
1772812230043817700,9.451817626953124,0.00847574882209301,0.00603228947147727,0.01847865991294384
1772812230053518300,9.461518310546875,0.0029779658652842045,0.0011453714687377214,0.02306014485657215
1772812230063219000,9.471218994140624,0.0029779658652842045,0.009086613543331623,0.02000582218170166
1772812230072919600,9.48091943359375,0.009086613543331623,0.013668099418282509,0.008093958720564842
1772812230082620200,9.4906201171875,0.020082179456949234,0.00755945174023509,-0.0032070400193333626
1772812230092320800,9.50032080078125,0.028634287416934967,-0.004352411720901728,-0.0102319847792387
1772812230102021400,9.510021484375,0.029856016859412193,-0.010155626572668552,-0.021838415414094925
1772812230111722000,9.519721923828126,0.024052800610661507,-0.01107192412018776,-0.03497200831770897
1772812230121422600,9.529422607421875,0.015195261687040329,-0.014431680552661419,-0.04993819445371628
1772812230131123200,9.539123291015626,0.012140937149524689,-0.0034361144062131643,-0.060933761298656464
1772812230140823800,9.54882373046875,0.00847574882209301,0.002061668550595641,-0.06673697382211685
1772812230150524400,9.5585244140625,0.009086613543331623,0.007254019379615784,-0.057268574833869934
1772812230160225000,9.56822509765625,0.01030834298580885,0.00755945174023509,-0.03741546720266342
1772812230169925600,9.577925537109374,0.013973532244563103,0.011224640533328056,-0.007177661173045635
1772812230179626200,9.587626220703125,0.013668099418282509,0.009086613543331623,0.020922118797898293
1772812230189326800,9.597326904296875,0.010919207707047462,-0.0006872228696011007,0.0383317656815052
1772812230199027500,9.60702734375,0.013973532244563103,0.004199695307761431,0.04199695214629173
1772812230208728000,9.61672802734375,0.012751801870763302,0.0029779658652842045,0.033139415085315704
1772812230218428700,9.6264287109375,0.006948587018996477,-0.011682788841426373,0.02000582218170166
1772812230228129300,9.63612939453125,0.01030834298580885,-0.012293653562664986,0.004123337101191282
1772812230237830000,9.645829833984376,0.012751801870763302,-0.006490438245236874,-0.009926552884280682
1772812230247530500,9.655530517578125,0.012751801870763302,-0.0025198173243552446,-0.0206166859716177
1772812230257231000,9.665231201171874,0.013973532244563103,0.000839939049910754,-0.027947064489126205
1772812230266931700,9.674931640625,0.010613775812089443,-0.00038179047987796366,-0.02672533318400383
1772812230276632300,9.68463232421875,0.0029779658652842045,-0.007101302966475487,-0.028557928279042244
1772812230286333000,9.6943330078125,-0.004657844081521034,-0.005574141163378954,-0.022754713892936707
1772812230296033500,9.704033447265624,-0.011682788841426373,-0.0031306820455938578,-0.019700389355421066
1772812230305734100,9.713734130859375,-0.014126247726380825,0.0023671009112149477,-0.013897174037992954
1772812230315434800,9.723434814453125,-0.008933897130191326,0.008170315995812416,-0.006872228812426329
1772812230325135400,9.73313525390625,-0.007101302966475487,0.007864884100854397,0.003512472379952669
1772812230334836000,9.7428359375,-0.004352411720901728,0.0057268571108579636,0.01511890348047018
1772812230344536600,9.75253662109375,-0.0025198173243552446,0.0017562361899763346,0.02672533318400383
1772812230354237200,9.7622373046875,0.00022907429956831038,-0.005268708802759647,0.033139415085315704
1772812230363937800,9.771937744140626,0.002061668550595641,-0.011377356946468353,0.02916879393160343
1772812230373638400,9.781638427734375,0.003283398225903511,-0.014126247726380825,0.01695149764418602
1772812230383339000,9.791339111328124,0.004199695307761431,-0.00954476185142994,0.005650499369949102
1772812230393039600,9.80103955078125,0.003894262947142124,-0.0022143847309052944,0.0007635809597559273
1772812230402740200,9.810740234375,-0.00007635809743078426,0.006337722297757864,0.0025961752980947495
1772812230412440800,9.82044091796875,-0.006490438245236874,0.010919207707047462,0.009010255336761475
1772812230422141400,9.830141357421875,-0.011377356946468353,0.013057234697043896,0.013897174037992954
1772812230431842000,9.839842041015626,-0.012904518283903599,0.014889828860759735,0.013286309316754341
1772812230441542700,9.849542724609375,-0.014431680552661419,0.014278964139521122,0.010537417605519295
1772812230460944000,9.86894384765625,-0.005268708802759647,0.014584396965801716,-0.001679878099821508
1772812230470644500,9.87864453125,0.0023671009112149477,0.001450803829357028,-0.005955931730568409
1772812230480345000,9.888344970703125,0.004810560029000044,-0.010461059398949146,-0.009315688163042068
1772812230490045700,9.898045654296874,0.00511599238961935,-0.0006872228696011007,-0.0102319847792387
1772812230499746300,9.907746337890625,0.00022907429956831038,0.011530072428286076,-0.009621120058000088
1772812230509447000,9.917447021484374,-0.008628465235233307,0.012446369975805283,-0.007177661173045635
1772812230519147500,9.9271474609375,-0.013515383005142212,0.008170315995812416,-0.0062613640911877155
1772812230528848100,9.93684814453125,-0.010461059398949146,0.006948587018996477,-0.006566796451807022
1772812230538548700,9.946548828125,-0.0077121676877141,0.003894262947142124,-0.009926552884280682
1772812230548249300,9.956249267578125,-0.00007635809743078426,-0.004963276442140341,-0.010537417605519295
1772812230557950000,9.965949951171876,0.00603228947147727,-0.015958841890096664,-0.010842849500477314
1772812230567650600,9.975650634765625,0.009392046369612217,-0.014737112447619438,-0.008704823441803455
1772812230577351200,9.98535107421875,0.00511599238961935,-0.0019089524867013097,-0.005650499369949102
1772812230587052000,9.995052001953125,-0.0012980876490473747,0.0066431546583771706,0.002290742937475443
1772812230596752400,10.00475244140625,-0.004963276442140341,-0.0034361144062131643,0.010842849500477314
1772812230606453000,10.014452880859375,0.00022907429956831038,-0.012293653562664986,0.007177661173045635
1772812230616153600,10.024153564453124,0.0029779658652842045,-0.00007635809743078426,-0.005039634648710489
1772812230625854200,10.033854248046875,-0.005268708802759647,-0.003741546766832471,-0.02458730712532997
1772812230635554800,10.043554931640625,-0.014126247726380825,-0.004963276442140341,-0.04260781779885292
1772812230645255700,10.053255615234375,-0.016569707542657852,-0.00923932995647192,-0.06368265300989151
1772812230654956300,10.062956298828125,-0.012904518283903599,-0.007406735327094793,-0.0798705667257309
1772812230664656600,10.07265673828125,-0.00954476185142994,-0.010766491293907166,-0.08017600327730179
1772812230674357200,10.082357177734375,-0.006185005884617567,-0.007101302966475487,-0.06490438431501389
1772812230684057900,10.092057861328126,-0.0012980876490473747,-0.0022143847309052944,-0.03558287397027016
