time,seconds_elapsed,z,y,x
1772812232477671000,0.0836708984375,0.023747367784380913,-0.011988221667706966,-0.052076224237680435
1772812232497072000,0.103072021484375,0.01030834298580885,-0.012904518283903599,-0.07254019379615784
1772812232506772700,0.112772705078125,0.008170315995812416,-0.024816380813717842,-0.06765327602624893
1772812232516473300,0.122473388671875,0.009086613543331623,-0.025732679292559624,-0.060933761298656464
1772812232526174000,0.132174072265625,0.007864884100854397,-0.02848157100379467,-0.06551524996757507
1772812232535874600,0.14187451171875,0.013668099418282509,-0.02328922040760517,-0.06368265300989151
1772812232545575200,0.1515751953125,0.021914774551987648,-0.03306305781006813,-0.06795870512723923
1772812232555275800,0.16127587890625,0.02588539570569992,-0.03611737862229347,-0.06734783947467804
1772812232564976400,0.170976318359375,0.01977674663066864,-0.03214675933122635,-0.06123919412493706
1772812232574677000,0.180677001953125,0.006337722297757864,-0.022678354755043983,-0.04657844081521034
1772812232584377600,0.190377685546875,0.0017562361899763346,-0.021151192486286163,-0.031612250953912735
1772812232594078200,0.200078125,0.009086613543331623,-0.02542724646627903,-0.030085090547800064
1772812232603778800,0.20977880859375,0.017333287745714188,-0.03061959706246853,-0.031612250953912735
1772812232613479400,0.2194794921875,0.022525638341903687,-0.02237292192876339,-0.028863361105322838
1772812232623180000,0.229179931640625,0.0243582334369421,-0.00679587060585618,-0.014813470654189587
1772812232632880600,0.238880615234375,0.020693045109510422,-0.005574141163378954,0.0032070400193333626
1772812232642581200,0.248581298828125,0.010613775812089443,-0.007101302966475487,0.017256930470466614
1772812232652281900,0.25828173828125,0.003283398225903511,0.002672533504664898,0.02764163166284561
1772812232661982500,0.267982421875,-0.004352411720901728,0.022220205515623093,0.04474584385752678
1772812232671683000,0.27768310546875,-0.0058795735239982605,0.0319940410554409,0.060322895646095276
1772812232681383700,0.2873837890625,-0.0016035200096666813,0.020082179456949234,0.07070759683847427
1772812232691084300,0.297084228515625,0.003894262947142124,0.0017562361899763346,0.06368265300989151
1772812232700785200,0.30678515625,0.0066431546583771706,-0.0034361144062131643,0.04016435891389847
1772812232710485800,0.31648583984375,0.004505127668380737,0.0066431546583771706,0.011148282326757908
1772812232720186000,0.32618603515625,-0.004352411720901728,0.0191658828407526,-0.0025961752980947495
1772812232729886700,0.33588671875,-0.009850194677710533,0.01977674663066864,-0.0032070400193333626
1772812232739587300,0.34558740234375,-0.00923932995647192,0.008781181648373604,-0.0025961752980947495
1772812232749288000,0.355287841796875,-0.0025198173243552446,-0.0058795735239982605,-0.008093958720564842
1772812232758988800,0.36498876953125,0.012140937149524689,-0.01107192412018776,-0.02306014485657215
1772812232768689400,0.374689453125,0.02649625949561596,-0.005574141163378954,-0.03955349326133728
1772812232778390000,0.38439013671875,0.029245151206851006,-0.010766491293907166,-0.04780016839504242
1772812232788090600,0.394090576171875,0.02802342176437378,-0.018096869811415672,-0.0539088174700737
1772812232797791000,0.403791015625,0.027717988938093185,-0.013515383005142212,-0.05329795181751251
1772812232807491600,0.41349169921875,0.030161447823047638,-0.0009926552884280682,-0.042913250625133514
1772812232817192400,0.4231923828125,0.025579962879419327,0.017027854919433594,-0.018173227086663246
1772812232826893000,0.43289306640625,0.00847574882209301,0.021609341725707054,0.012675444595515728
1772812232836593700,0.44259375,-0.0077121676877141,0.01977674663066864,0.044440411031246185
1772812232846294300,0.452294189453125,-0.011988221667706966,0.01977674663066864,0.06520981341600418
1772812232855995000,0.461994873046875,-0.004963276442140341,0.013973532244563103,0.06612611562013626
1772812232865695500,0.471695556640625,0.0029779658652842045,0.004810560029000044,0.05177079141139984
1772812232875396000,0.48139599609375,0.01183550525456667,-0.003741546766832471,0.02611446939408779
1772812232885096700,0.4910966796875,0.013362666592001915,-0.00923932995647192,-0.002901607658714056
1772812232894797300,0.50079736328125,0.007864884100854397,-0.0058795735239982605,-0.022754713892936707
1772812232904498000,0.510497802734375,0.004810560029000044,-0.0022143847309052944,-0.03894263133406639
1772812232914198500,0.520198486328125,0.006337722297757864,0.000839939049910754,-0.04932733252644539
1772812232923899100,0.529899169921875,0.004505127668380737,-0.0016035200096666813,-0.05146535858511925
1772812232933599700,0.539599853515625,-0.0025198173243552446,-0.008323032408952713,-0.04474584385752678
1772812232943300400,0.54930029296875,-0.00679587060585618,-0.008323032408952713,-0.027947064489126205
1772812232953001000,0.5590009765625,-0.008017600513994694,-0.00038179047987796366,-0.007177661173045635
1772812232962701600,0.56870166015625,-0.01107192412018776,0.010613775812089443,0.017256930470466614
1772812232972402200,0.578402099609375,-0.01107192412018776,0.012751801870763302,0.039248060435056686
1772812232982102800,0.588102783203125,-0.005574141163378954,0.006948587018996477,0.05299251899123192
1772812232991803400,0.597803466796875,0.004505127668380737,-0.004963276442140341,0.049632761627435684
1772812233001504000,0.60750390625,0.011530072428286076,-0.01565340906381607,0.03222311660647392
1772812233011204600,0.61720458984375,0.017027854919433594,-0.02542724646627903,-0.0010690133785828948
1772812233020905200,0.6269052734375,0.026190826669335365,-0.025732679292559624,-0.03588830679655075
1772812233030605800,0.636605712890625,0.030772313475608826,-0.026038112118840218,-0.064598947763443
1772812233040306400,0.646306396484375,0.02496909722685814,-0.026648975908756256,-0.0850629210472107
1772812233050007000,0.656007080078125,0.015195261687040329,-0.01870773360133171,-0.08628465235233307
1772812233059707600,0.665707763671875,0.001450803829357028,-0.006490438245236874,-0.0746782198548317
1772812233069408300,0.675408203125,-0.012293653562664986,-0.00007635809743078426,-0.060322895646095276
1772812233079108900,0.68510888671875,-0.01779143698513508,0.00603228947147727,-0.04230238497257233
1772812233088809500,0.6948095703125,-0.020540328696370125,0.007864884100854397,-0.02764163166284561
1772812233098510000,0.704510009765625,-0.025732679292559624,0.004199695307761431,-0.012675444595515728
1772812233108210700,0.714210693359375,-0.02909243479371071,0.003894262947142124,0.003512472379952669
1772812233117911300,0.723911376953125,-0.02909243479371071,0.006337722297757864,0.018784092739224434
1772812233127612000,0.73361181640625,-0.026038112118840218,0.0066431546583771706,0.03252854943275452
1772812233137312500,0.7433125,-0.024816380813717842,-0.004046979360282421,0.040775224566459656
1772812233147013000,0.75301318359375,-0.019929463043808937,-0.014431680552661419,0.041386090219020844
1772812233156713700,0.762713623046875,-0.01107192412018776,-0.019013166427612305,0.030085090547800064
1772812233166414300,0.772414306640625,-0.005574141163378954,-0.01779143698513508,0.010537417605519295
1772812233176115000,0.782114990234375,-0.0025198173243552446,-0.01565340906381607,-0.011453714221715927
1772812233185815600,0.791815673828125,0.00022907429956831038,-0.015958841890096664,-0.030695954337716103
1772812233195516200,0.80151611328125,0.004505127668380737,-0.016569707542657852,-0.039248060435056686
1772812233205216800,0.811216796875,0.008781181648373604,-0.023594651371240616,-0.042913250625133514
1772812233214917400,0.82091748046875,0.003283398225903511,-0.022678354755043983,-0.0386371985077858
1772812233224618000,0.830617919921875,-0.006185005884617567,-0.015042545273900032,-0.03130681812763214
1772812233234318600,0.840318603515625,-0.02084576152265072,-0.00038179047987796366,-0.02367101050913334
1772812233244019200,0.850019287109375,-0.03245219215750694,0.009697478264570236,-0.015729768201708794
1772812233253719800,0.8597197265625,-0.039477135986089706,0.012140937149524689,-0.009621120058000088
1772812233263420700,0.869420654296875,-0.03672824427485466,0.010613775812089443,-0.0010690133785828948
1772812233273121000,0.87912109375,-0.024205517023801804,0.0011453714687377214,0.011453714221715927
1772812233282821600,0.888821533203125,-0.008628465235233307,-0.012293653562664986,0.021227551624178886
1772812233292522200,0.898522216796875,0.004199695307761431,-0.017486004158854485,0.033139415085315704
1772812233302222800,0.908222900390625,0.01183550525456667,-0.011988221667706966,0.04199695214629173
1772812233311923500,0.91792333984375,0.016416991129517555,-0.004046979360282421,0.04627300798892975
1772812233321624300,0.927624267578125,0.020693045109510422,-0.003741546766832471,0.042913250625133514
1772812233331325000,0.937324951171875,0.02283107116818428,-0.014126247726380825,0.03497200831770897
1772812233341025500,0.947025634765625,0.02283107116818428,-0.02084576152265072,0.02000582218170166
1772812233350726000,0.956725830078125,0.020998476073145866,-0.021456625312566757,0.0025961752980947495
1772812233360426500,0.966426513671875,0.016416991129517555,-0.021456625312566757,-0.0154243353754282
1772812233370127000,0.976127197265625,0.012751801870763302,-0.014431680552661419,-0.02977965772151947
1772812233379828000,0.985827880859375,0.011224640533328056,-0.003741546766832471,-0.03558287397027016
1772812233389528600,0.995528564453125,0.005421424750238657,0.0017562361899763346,-0.036804601550102234
1772812233399229200,1.005229248046875,-0.0019089524867013097,0.0066431546583771706,-0.029474224895238876
1772812233408929800,1.0149296875,-0.008017600513994694,0.01030834298580885,-0.021838415414094925
1772812233418630400,1.02463037109375,-0.014431680552661419,0.00847574882209301,-0.019394956529140472
1772812233428330800,1.034330810546875,-0.01565340906381607,0.007254019379615784,-0.020311253145337105
1772812233438031600,1.044031494140625,-0.0077121676877141,0.00603228947147727,-0.0206166859716177
1772812233447732200,1.053732177734375,0.0023671009112149477,-0.0025198173243552446,-0.021227551624178886
1772812233457432800,1.063432861328125,0.01183550525456667,-0.011377356946468353,-0.014508038759231567
1772812233467133400,1.073133544921875,0.016416991129517555,-0.013209951110184193,-0.004734201822429895
1772812233476834000,1.082833984375,0.015500693581998348,-0.011377356946468353,0.008399390615522861
1772812233486534700,1.09253466796875,0.010919207707047462,-0.011988221667706966,0.02367101050913334
1772812233496235300,1.1022353515625,0.00603228947147727,-0.007101302966475487,0.03558287397027016
1772812233505936000,1.111935791015625,0.000839939049910754,-0.0012980876490473747,0.0435241162776947
1772812233515636500,1.121636474609375,-0.0022143847309052944,0.0023671009112149477,0.04260781779885292
1772812233525337000,1.131337158203125,-0.002825249684974551,-0.002825249684974551,0.027336198836565018
1772812233535037700,1.14103759765625,-0.0025198173243552446,-0.006490438245236874,0.008399390615522861
1772812233544738300,1.15073828125,-0.003741546766832471,-0.005268708802759647,-0.012370011769235134
1772812233554439000,1.16043896484375,-0.008933897130191326,-0.006490438245236874,-0.030085090547800064
1772812233564139500,1.170139404296875,-0.014431680552661419,-0.0019089524867013097,-0.042913250625133514
1772812233573840100,1.179840087890625,-0.01870773360133171,0.007254019379615784,-0.04321868345141411
1772812233583540700,1.189540771484375,-0.022983787581324577,0.001450803829357028,-0.04230238497257233
1772812233593241300,1.199241455078125,-0.02084576152265072,-0.008323032408952713,-0.03649916872382164
1772812233602942000,1.20894189453125,-0.015347977168858051,-0.011988221667706966,-0.030695954337716103
1772812233612642600,1.218642578125,-0.011682788841426373,-0.012904518283903599,-0.023976443335413933
1772812233622343200,1.22834326171875,-0.011682788841426373,-0.004963276442140341,-0.01511890348047018
1772812233632043800,1.238043701171875,-0.013820815831422806,0.0035888305865228176,-0.0062613640911877155
1772812233641744400,1.247744384765625,-0.012904518283903599,0.0035888305865228176,0.004428769461810589
1772812233651445000,1.257445068359375,-0.00954476185142994,-0.0006872228696011007,0.007177661173045635
1772812233661145600,1.2671455078125,-0.0025198173243552446,-0.008933897130191326,-0.00045814859913662076
1772812233670846200,1.27684619140625,0.00755945174023509,-0.019929463043808937,-0.022449281066656113
1772812233680546800,1.286546875,0.01672242395579815,-0.02756527252495289,-0.04810560122132301
1772812233690247400,1.296247314453125,0.021609341725707054,-0.024510949850082397,-0.06765327602624893
1772812233699948000,1.305947998046875,0.01611155830323696,-0.01718057133257389,-0.08017600327730179
1772812233709648600,1.315648681640625,0.008170315995812416,-0.010461059398949146,-0.07773254066705704
1772812233719349200,1.325349365234375,-0.0006872228696011007,-0.003741546766832471,-0.055741410702466965
1772812233729049900,1.3350498046875,-0.00954476185142994,-0.010155626572668552,-0.026419902220368385
1772812233738750500,1.34475048828125,-0.017486004158854485,-0.015347977168858051,0.003512472379952669
1772812233748451000,1.354451171875,-0.02237292192876339,-0.011377356946468353,0.02672533318400383
1772812233758151700,1.364151611328125,-0.03275762498378754,-0.007101302966475487,0.039248060435056686
1772812233767852300,1.373852294921875,-0.04558578506112099,0.0005345066892914474,0.04535670951008797
1772812233777553000,1.383552978515625,-0.05199986323714256,0.013668099418282509,0.04993819445371628
1772812233787253500,1.39325341796875,-0.046807512640953064,0.021914774551987648,0.058795735239982605
1772812233796954000,1.4029541015625,-0.03825540840625763,0.013362666592001915,0.07345648854970932
1772812233806654700,1.41265478515625,-0.027259841561317444,-0.004963276442140341,0.08261945843696594
1772812233816355300,1.422355224609375,-0.011682788841426373,-0.019929463043808937,0.08353576064109802
1772812233826056200,1.43205615234375,0.0057268571108579636,-0.02695440873503685,0.06704241037368774
1772812233835756800,1.4417568359375,0.017944153398275375,-0.031841326504945755,0.04199695214629173
1772812233845457200,1.45145703125,0.024052800610661507,-0.034895651042461395,0.018784092739224434
1772812233855157800,1.46115771484375,0.018555017188191414,-0.031841326504945755,0.003512472379952669
1772812233864858400,1.4708583984375,0.0035888305865228176,-0.016875140368938446,-0.0062613640911877155
1772812233874559000,1.48055908203125,-0.014126247726380825,0.00022907429956831038,-0.004428769461810589
1772812233884259800,1.490259765625,-0.028787001967430115,0.00603228947147727,-0.00045814859913662076
1772812233893960400,1.49996044921875,-0.036422811448574066,0.0005345066892914474,0.001679878099821508
1772812233903661000,1.5096611328125,-0.03825540840625763,-0.005268708802759647,-0.002290742937475443
1772812233913361700,1.519361572265625,-0.03672824427485466,-0.004657844081521034,-0.006566796451807022
1772812233923062300,1.529062255859375,-0.03061959706246853,-0.006185005884617567,-0.013897174037992954
1772812233932762600,1.5387626953125,-0.022067490965127945,-0.0016035200096666813,-0.01359174121171236
1772812233942463500,1.54846337890625,-0.014431680552661419,0.003283398225903511,-0.008093958720564842
1772812233952164000,1.5581640625,-0.012293653562664986,0.002061668550595641,0.0019853105768561363
1772812233961864700,1.56786474609375,-0.00923932995647192,-0.005574141163378954,0.006566796451807022
1772812233971565300,1.5775654296875,-0.00038179047987796366,-0.012293653562664986,0.0038179049734026194
1772812233981266000,1.587265869140625,0.011224640533328056,-0.020540328696370125,-0.01206457894295454
1772812233990966500,1.596966552734375,0.022220205515623093,-0.021151192486286163,-0.02764163166284561
1772812234000667100,1.606667236328125,0.030161447823047638,-0.015347977168858051,-0.03955349326133728
1772812234010367700,1.61636767578125,0.029856016859412193,-0.008628465235233307,-0.04016435891389847
1772812234020068400,1.626068359375,0.028328854590654373,-0.008017600513994694,-0.033139415085315704
1772812234029769000,1.63576904296875,0.023747367784380913,-0.008323032408952713,-0.022754713892936707
1772812234039469600,1.645469482421875,0.017333287745714188,-0.010461059398949146,-0.014813470654189587
1772812234049170200,1.655170166015625,0.013668099418282509,-0.007101302966475487,-0.010537417605519295
1772812234058870800,1.664870849609375,0.01030834298580885,-0.0025198173243552446,-0.012675444595515728
1772812234068571400,1.6745712890625,0.006337722297757864,0.0017562361899763346,-0.013897174037992954
1772812234078272000,1.68427197265625,0.004199695307761431,0.003283398225903511,-0.01847865991294384
1772812234087972600,1.69397265625,0.00511599238961935,0.003283398225903511,-0.02000582218170166
1772812234097673200,1.703673095703125,0.00511599238961935,0.004505127668380737,-0.017562363296747208
1772812234107373800,1.713373779296875,0.002061668550595641,0.00022907429956831038,-0.012980876490473747
1772812234117074400,1.723074462890625,-0.0006872228696011007,-0.004963276442140341,-0.01206457894295454
1772812234126775000,1.732775146484375,-0.006490438245236874,-0.003741546766832471,-0.013897174037992954
1772812234136475600,1.7424755859375,-0.011682788841426373,-0.0012980876490473747,-0.016035201027989388
1772812234146176300,1.75217626953125,-0.012904518283903599,-0.0019089524867013097,-0.02306014485657215
1772812234155876900,1.761876953125,-0.00679587060585618,-0.0016035200096666813,-0.02672533318400383
1772812234165577500,1.771577392578125,-0.0019089524867013097,-0.003741546766832471,-0.02825249545276165
1772812234175278000,1.781278076171875,-0.0012980876490473747,-0.002825249684974551,-0.019700389355421066
1772812234184978700,1.790978759765625,-0.00007635809743078426,-0.007406735327094793,-0.0102319847792387
1772812234194679300,1.80067919921875,0.003283398225903511,-0.014737112447619438,-0.003512472379952669
1772812234204380000,1.8103798828125,0.0029779658652842045,-0.008933897130191326,0.0025961752980947495
1772812234214080500,1.82008056640625,0.0005345066892914474,0.0023671009112149477,0.006872228812426329
1772812234223781000,1.829781005859375,-0.0016035200096666813,0.0057268571108579636,0.010842849500477314
1772812234233481700,1.839481689453125,-0.0022143847309052944,0.003894262947142124,0.012370011769235134
1772812234243182300,1.849182373046875,-0.0012980876490473747,-0.00007635809743078426,0.01206457894295454
1772812234252883000,1.858883056640625,-0.00007635809743078426,0.006948587018996477,0.013286309316754341
1772812234262583600,1.86858349609375,-0.002825249684974551,0.012751801870763302,0.011759147047996521
1772812234272284200,1.8782841796875,-0.008323032408952713,0.008170315995812416,0.004123337101191282
1772812234281984800,1.88798486328125,-0.011682788841426373,-0.00038179047987796366,-0.01695149764418602
1772812234291685400,1.897685302734375,-0.00679587060585618,-0.0016035200096666813,-0.044440411031246185
1772812234301386000,1.907385986328125,0.0029779658652842045,0.001450803829357028,-0.07192932814359665
1772812234311086600,1.917086669921875,0.009697478264570236,-0.004046979360282421,-0.08781181275844574
1772812234320787200,1.926787109375,0.013668099418282509,-0.011682788841426373,-0.09239330142736435
1772812234330488000,1.936488037109375,0.01824958436191082,-0.016569707542657852,-0.08872810751199722
1772812234340188700,1.946188720703125,0.020387612283229828,-0.010766491293907166,-0.07162389904260635
1772812234349889300,1.95588916015625,0.015806125476956367,-0.003741546766832471,-0.04780016839504242
1772812234359589600,1.965589599609375,0.00847574882209301,0.008170315995812416,-0.015729768201708794
1772812234369290200,1.975290283203125,0.000839939049910754,0.012446369975805283,0.012980876490473747
1772812234378990800,1.984990966796875,-0.0009926552884280682,0.012751801870763302,0.03283398225903511
1772812234388691700,1.994691650390625,0.0005345066892914474,0.01977674663066864,0.04566214233636856
1772812234398392300,2.004392333984375,0.0035888305865228176,0.02283107116818428,0.05787943676114082
1772812234408093000,2.014093017578125,0.00603228947147727,0.015500693581998348,0.06551524996757507
1772812234417793500,2.02379345703125,0.011224640533328056,0.0057268571108579636,0.06520981341600418
1772812234427494100,2.033494140625,0.015500693581998348,-0.008323032408952713,0.04993819445371628
1772812234437194800,2.04319482421875,0.021609341725707054,-0.019929463043808937,0.018784092739224434
1772812234446895400,2.052895263671875,0.02649625949561596,-0.016875140368938446,-0.012675444595515728
1772812234456596000,2.062595947265625,0.025579962879419327,-0.008017600513994694,-0.03405570983886719
1772812234466296600,2.072296630859375,0.019471315667033195,-0.011377356946468353,-0.04841103404760361
1772812234475997200,2.0819970703125,0.013057234697043896,-0.012293653562664986,-0.057268574833869934
1772812234485697800,2.09169775390625,0.008170315995812416,-0.007406735327094793,-0.06643154472112656
1772812234495398400,2.1013984375,-0.00038179047987796366,-0.0025198173243552446,-0.07223475724458694
1772812234505099000,2.11109912109375,-0.008933897130191326,0.004505127668380737,-0.07162389904260635
1772812234514799600,2.120799560546875,-0.00923932995647192,0.015806125476956367,-0.0539088174700737
1772812234524500200,2.130500244140625,-0.0077121676877141,0.018860450014472008,-0.027030766010284424
1772812234534200800,2.140200927734375,-0.0058795735239982605,0.014278964139521122,0.002290742937475443
1772812234543901400,2.1499013671875,-0.0025198173243552446,0.007864884100854397,0.02458730712532997
1772812234553602000,2.15960205078125,0.00022907429956831038,0.0017562361899763346,0.03283398225903511
1772812234563302700,2.169302734375,0.002672533504664898,-0.0019089524867013097,0.030695954337716103
1772812234573003300,2.179003173828125,0.004199695307761431,0.001450803829357028,0.02214384824037552
1772812234582703900,2.188703857421875,0.006948587018996477,0.0011453714687377214,0.014813470654189587
1772812234592404500,2.198404541015625,0.008781181648373604,-0.011988221667706966,0.003512472379952669
1772812234602105000,2.20810498046875,0.014889828860759735,-0.022983787581324577,-0.0102319847792387
1772812234611805700,2.2178056640625,0.024663666263222694,-0.024510949850082397,-0.02764163166284561
1772812234621506300,2.22750634765625,0.034437503665685654,-0.02848157100379467,-0.0435241162776947
1772812234631207000,2.23720703125,0.03932442143559456,-0.03214675933122635,-0.051159925758838654
1772812234640907500,2.246907470703125,0.03810269013047218,-0.023594651371240616,-0.04657844081521034
1772812234650608000,2.256608154296875,0.026801692321896553,-0.01565340906381607,-0.02916879393160343
1772812234660308700,2.266308837890625,0.01183550525456667,-0.01107192412018776,-0.009315688163042068
1772812234670009300,2.27600927734375,0.00022907429956831038,0.002672533504664898,0.012675444595515728
1772812234679710000,2.2857099609375,-0.00954476185142994,0.01977674663066864,0.029474224895238876
1772812234689410600,2.29541064453125,-0.01870773360133171,0.02496909722685814,0.0383317656815052
1772812234699111200,2.305111083984375,-0.021151192486286163,0.023441936820745468,0.04321868345141411
1772812234708811800,2.314811767578125,-0.01718057133257389,0.017944153398275375,0.03894263133406639
1772812234718512400,2.324512451171875,-0.01565340906381607,0.011530072428286076,0.027030766010284424
1772812234728213000,2.334212890625,-0.014126247726380825,0.009697478264570236,0.010842849500477314
1772812234737913600,2.34391357421875,-0.008628465235233307,0.0035888305865228176,-0.007483093533664942
1772812234747614200,2.3536142578125,0.0005345066892914474,-0.002825249684974551,-0.02611446939408779
1772812234757314800,2.363314697265625,0.014584396965801716,-0.011682788841426373,-0.040775224566459656
1772812234767015700,2.373015625,0.023136503994464874,-0.009850194677710533,-0.046883873641490936
1772812234776716300,2.38271630859375,0.017027854919433594,-0.005574141163378954,-0.047494735568761826
1772812234786416600,2.392416748046875,0.0035888305865228176,-0.008933897130191326,-0.05604684352874756
1772812234796117200,2.4021171875,-0.007101302966475487,-0.00923932995647192,-0.06612611562013626
1772812234805817900,2.41181787109375,-0.012293653562664986,-0.0009926552884280682,-0.07376192510128021
1772812234815518500,2.4215185546875,-0.017486004158854485,0.016416991129517555,-0.05451968312263489
1772812234825219000,2.431218994140625,-0.022983787581324577,0.020082179456949234,-0.018784092739224434
1772812234834920000,2.440919921875,-0.022678354755043983,0.009392046369612217,0.02519817277789116
1772812234844620500,2.45062060546875,-0.01626427471637726,0.0011453714687377214,0.05696314200758934
1772812234854321200,2.460321044921875,-0.00679587060585618,0.000839939049910754,0.07040216773748398
1772812234864021800,2.470021728515625,-0.0031306820455938578,0.000839939049910754,0.0694858655333519
1772812234873722400,2.479722412109375,-0.0009926552884280682,-0.00038179047987796366,0.05940660089254379
1772812234883422700,2.489422607421875,-0.00038179047987796366,0.0023671009112149477,0.04535670951008797
1772812234893123600,2.49912353515625,-0.00007635809743078426,0.0005345066892914474,0.027947064489126205
1772812234902824200,2.50882421875,0.0011453714687377214,0.000839939049910754,0.011148282326757908
1772812234912524800,2.51852490234375,0.002672533504664898,0.000839939049910754,-0.002290742937475443
1772812234922225400,2.528225341796875,0.000839939049910754,-0.006490438245236874,-0.018784092739224434
1772812234931926000,2.537926025390625,-0.00007635809743078426,-0.0025198173243552446,-0.030085090547800064
1772812234941626600,2.547626708984375,-0.004657844081521034,0.003283398225903511,-0.03252854943275452
1772812234951327200,2.5573271484375,-0.013515383005142212,-0.004046979360282421,-0.02458730712532997
1772812234961027800,2.56702783203125,-0.020540328696370125,-0.008933897130191326,-0.016340631991624832
1772812234970728400,2.576728515625,-0.02023489587008953,-0.008628465235233307,-0.0102319847792387
1772812234980429000,2.586428955078125,-0.022678354755043983,-0.00954476185142994,-0.012370011769235134
1772812234990129700,2.596129638671875,-0.024816380813717842,-0.004046979360282421,-0.015729768201708794
1772812234999830300,2.605830322265625,-0.02237292192876339,0.004505127668380737,-0.0154243353754282
1772812235009531000,2.61553076171875,-0.01870773360133171,0.007254019379615784,-0.011148282326757908
1772812235019231500,2.6252314453125,-0.014737112447619438,0.00755945174023509,0.004734201822429895
1772812235028932000,2.63493212890625,-0.012293653562664986,0.0017562361899763346,0.020922118797898293
1772812235038632700,2.6446328125,-0.00679587060585618,-0.0034361144062131643,0.02764163166284561
1772812235048333300,2.654333251953125,0.0005345066892914474,-0.007406735327094793,0.02306014485657215
1772812235058034000,2.664033935546875,0.007254019379615784,-0.013820815831422806,0.01206457894295454
1772812235067734500,2.673734619140625,0.012140937149524689,-0.015042545273900032,0.0001527161948615685
1772812235077435100,2.68343505859375,0.013057234697043896,-0.012293653562664986,-0.008704823441803455
1772812235087135700,2.6931357421875,0.01030834298580885,-0.00954476185142994,-0.0154243353754282
1772812235096836400,2.70283642578125,0.004810560029000044,-0.011377356946468353,-0.025503603741526604
1772812235106537000,2.712536865234375,0.002672533504664898,-0.005268708802759647,-0.039248060435056686
1772812235116237600,2.722237548828125,0.002061668550595641,0.002672533504664898,-0.054214250296354294
1772812235125938200,2.731938232421875,-0.00007635809743078426,0.0023671009112149477,-0.06307178735733032
1772812235135638800,2.741638671875,-0.0077121676877141,-0.006185005884617567,-0.06673697382211685
1772812235145339400,2.75133935546875,-0.01565340906381607,-0.006490438245236874,-0.06368265300989151
1772812235155040000,2.7610400390625,-0.016875140368938446,0.004810560029000044,-0.050549060106277466
1772812235164740600,2.77074072265625,-0.01718057133257389,0.011224640533328056,-0.026419902220368385
1772812235174441200,2.780441162109375,-0.01779143698513508,0.00603228947147727,0.004734201822429895
1772812235184141800,2.790141845703125,-0.018096869811415672,0.0029779658652842045,0.03649916872382164
1772812235193842400,2.799842529296875,-0.015347977168858051,0.003894262947142124,0.055741410702466965
1772812235203543000,2.80954296875,-0.010461059398949146,0.0029779658652842045,0.06490438431501389
1772812235213244000,2.819243896484375,-0.004657844081521034,0.004810560029000044,0.07101303339004517
1772812235222944500,2.828944580078125,-0.003741546766832471,0.007864884100854397,0.07681624591350555
1772812235232644900,2.838644775390625,-0.008017600513994694,0.006948587018996477,0.08353576064109802
1772812235242345500,2.848345458984375,-0.01259908638894558,0.002061668550595641,0.08200860023498535
1772812235252046000,2.858046142578125,-0.014431680552661419,-0.00007635809743078426,0.07223475724458694
1772812235261746700,2.86774658203125,-0.01259908638894558,0.0017562361899763346,0.05543597787618637
1772812235271447600,2.877447509765625,-0.010155626572668552,-0.0009926552884280682,0.031001387163996696
1772812235281148200,2.887148193359375,-0.01107192412018776,-0.007101302966475487,-0.0025961752980947495
1772812235290848800,2.896848876953125,-0.013515383005142212,-0.006185005884617567,-0.03405570983886719
1772812235300549400,2.90654931640625,-0.014737112447619438,0.0057268571108579636,-0.05604684352874756
1772812235310250000,2.91625,-0.02023489587008953,0.004810560029000044,-0.07101303339004517
1772812235319950300,2.925950439453125,-0.019013166427612305,-0.005268708802759647,-0.07528908550739288
1772812235329651200,2.935651123046875,-0.007406735327094793,-0.0077121676877141,-0.06887500733137131
1772812235339351800,2.945351806640625,0.001450803829357028,-0.00679587060585618,-0.05482511222362518
1772812235349052400,2.955052490234375,0.002061668550595641,-0.0058795735239982605,-0.02916879393160343
1772812235358753000,2.9647529296875,-0.0058795735239982605,-0.002825249684974551,0.005955931730568409
1772812235368453600,2.97445361328125,-0.01259908638894558,0.002672533504664898,0.04169152304530144
1772812235378154200,2.984154296875,-0.017486004158854485,0.003283398225903511,0.06765327602624893
1772812235387854800,2.993854736328125,-0.019624030217528343,0.003283398225903511,0.08109229803085327
1772812235397555500,3.003555419921875,-0.01718057133257389,0.000839939049910754,0.07864884287118912
1772812235407256000,3.013256103515625,-0.013515383005142212,-0.0012980876490473747,0.064598947763443
1772812235416956700,3.022956787109375,-0.010155626572668552,-0.0031306820455938578,0.04718930274248123
1772812235426657300,3.0326572265625,-0.00923932995647192,0.0011453714687377214,0.027336198836565018
1772812235436358000,3.04235791015625,-0.00923932995647192,0.001450803829357028,0.009621120058000088
1772812235446058500,3.05205859375,-0.00954476185142994,-0.00007635809743078426,-0.005650499369949102
1772812235455759000,3.061759033203125,-0.009850194677710533,-0.00007635809743078426,-0.016340631991624832
1772812235465459700,3.071459716796875,-0.010766491293907166,-0.0031306820455938578,-0.025809036567807198
1772812235475160300,3.081160400390625,-0.010766491293907166,-0.006185005884617567,-0.03527744114398956
1772812235484861000,3.09086083984375,-0.00679587060585618,-0.008017600513994694,-0.04260781779885292
1772812235494561500,3.1005615234375,-0.005574141163378954,-0.00679587060585618,-0.04505127668380737
1772812235504262100,3.11026220703125,-0.0012980876490473747,-0.008933897130191326,-0.04535670951008797
1772812235513962800,3.119962646484375,0.003283398225903511,-0.004963276442140341,-0.03588830679655075
1772812235523663400,3.129663330078125,0.002672533504664898,-0.006185005884617567,-0.0206166859716177
1772812235533364000,3.139364013671875,0.005421424750238657,-0.010461059398949146,-0.003512472379952669
1772812235543064600,3.149064697265625,0.008781181648373604,-0.010461059398949146,0.010537417605519295
1772812235552765200,3.15876513671875,0.010613775812089443,-0.007406735327094793,0.01847865991294384
1772812235562465800,3.1684658203125,0.00603228947147727,-0.003741546766832471,0.02672533318400383
1772812235572166400,3.17816650390625,-0.0009926552884280682,0.000839939049910754,0.03802633285522461
1772812235581867000,3.187866943359375,-0.010766491293907166,-0.00038179047987796366,0.04199695214629173
1772812235591567600,3.197567626953125,-0.018402300775051117,0.00022907429956831038,0.0435241162776947
1772812235601268200,3.207268310546875,-0.022067490965127945,0.007864884100854397,0.03588830679655075
1772812235610968800,3.21696875,-0.024510949850082397,0.014584396965801716,0.030085090547800064
1772812235620669400,3.22666943359375,-0.02390008419752121,0.013057234697043896,0.02214384824037552
1772812235630370000,3.2363701171875,-0.020540328696370125,0.007254019379615784,0.012675444595515728
1772812235640070700,3.246070556640625,-0.015347977168858051,0.001450803829357028,0.0007635809597559273
1772812235649771300,3.255771240234375,-0.008323032408952713,-0.0025198173243552446,-0.01511890348047018
1772812235659472100,3.26547216796875,-0.0025198173243552446,-0.007101302966475487,-0.027030766010284424
1772812235669172500,3.27517236328125,0.0011453714687377214,-0.01259908638894558,-0.0386371985077858
1772812235678873000,3.284873046875,0.003894262947142124,-0.015347977168858051,-0.045967575162649155
1772812235688573700,3.29457373046875,0.006948587018996477,-0.011377356946468353,-0.04566214233636856
1772812235698274300,3.3042744140625,0.0066431546583771706,-0.007406735327094793,-0.03741546720266342
1772812235707975000,3.313974853515625,0.007864884100854397,-0.011377356946468353,-0.02519817277789116
1772812235717675800,3.32367578125,0.009392046369612217,-0.01565340906381607,-0.012675444595515728
1772812235727376400,3.33337646484375,0.010919207707047462,-0.015347977168858051,-0.0010690133785828948
1772812235737077000,3.343076904296875,0.014889828860759735,-0.019013166427612305,0.010537417605519295
1772812235746777600,3.352777587890625,0.01672242395579815,-0.02176205813884735,0.02153298258781433
1772812235756478000,3.36247802734375,0.018860450014472008,-0.022983787581324577,0.02977965772151947
1772812235766178600,3.372178466796875,0.019471315667033195,-0.02542724646627903,0.03894263133406639
1772812235775879400,3.38187939453125,0.009697478264570236,-0.028176138177514076,0.04199695214629173
1772812235785580000,3.391580078125,-0.0025198173243552446,-0.01870773360133171,0.03955349326133728
1772812235795280600,3.40128076171875,-0.014431680552661419,-0.006185005884617567,0.0334448479115963
1772812235804981200,3.410981201171875,-0.022678354755043983,-0.00954476185142994,0.018173227086663246
1772812235814681900,3.420681884765625,-0.02084576152265072,-0.010766491293907166,0.0032070400193333626
1772812235824382500,3.430382568359375,-0.010766491293907166,-0.008933897130191326,-0.010537417605519295
1772812235834083000,3.4400830078125,0.0011453714687377214,-0.01718057133257389,-0.02000582218170166
1772812235843783700,3.44978369140625,0.012751801870763302,-0.02328922040760517,-0.024281874299049377
1772812235853484300,3.459484375,0.020998476073145866,-0.0193185992538929,-0.023976443335413933
1772812235863185000,3.469184814453125,0.02130390889942646,-0.016569707542657852,-0.023365577682852745
1772812235872885500,3.478885498046875,0.018555017188191414,-0.015958841890096664,-0.024892739951610565
1772812235882586000,3.488586181640625,0.015195261687040329,-0.009850194677710533,-0.023976443335413933
1772812235892286700,3.49828662109375,0.012446369975805283,0.0017562361899763346,-0.017562363296747208
1772812235901987300,3.5079873046875,0.00755945174023509,-0.0019089524867013097,-0.005955931730568409
1772812235911688000,3.51768798828125,0.0011453714687377214,-0.01626427471637726,0.004123337101191282
1772812235921388500,3.527388427734375,-0.0009926552884280682,-0.01565340906381607,0.008093958720564842
1772812235931089200,3.537089111328125,-0.0016035200096666813,-0.007101302966475487,0.006872228812426329
1772812235940789800,3.546789794921875,-0.0034361144062131643,-0.0022143847309052944,0.001679878099821508
1772812235950490400,3.556490478515625,-0.0034361144062131643,-0.00038179047987796366,-0.0032070400193333626
1772812235960191000,3.56619091796875,-0.002825249684974551,-0.0022143847309052944,-0.0032070400193333626
1772812235969891600,3.5758916015625,0.0005345066892914474,-0.005574141163378954,-0.0010690133785828948
1772812235979592200,3.58559228515625,0.002672533504664898,-0.005574141163378954,0.004123337101191282
1772812235989292800,3.595292724609375,0.001450803829357028,-0.006490438245236874,0.008704823441803455
1772812235998993400,3.604993408203125,-0.00038179047987796366,-0.0031306820455938578,0.009926552884280682
1772812236008694000,3.614694091796875,0.0011453714687377214,0.000839939049910754,0.008704823441803455
1772812236018394600,3.62439453125,0.005421424750238657,0.0005345066892914474,0.004428769461810589
1772812236028095200,3.63409521484375,0.010919207707047462,-0.004963276442140341,-0.0019853105768561363
1772812236037795800,3.6437958984375,0.02130390889942646,-0.013820815831422806,-0.01359174121171236
1772812236047496400,3.653496337890625,0.033826638013124466,-0.02084576152265072,-0.02825249545276165
1772812236057197000,3.663197021484375,0.04085158184170723,-0.015958841890096664,-0.03405570983886719
1772812236066897700,3.672897705078125,0.04024071618914604,-0.005574141163378954,-0.028557928279042244
1772812236076598300,3.682598388671875,0.03413207083940506,-0.00007635809743078426,-0.017562363296747208
1772812236086299000,3.692298828125,0.02649625949561596,-0.0006872228696011007,-0.007483093533664942
1772812236095999500,3.70199951171875,0.017027854919433594,0.0066431546583771706,-0.00045814859913662076
1772812236105700400,3.711700439453125,0.01030834298580885,0.009086613543331623,0.0010690133785828948
1772812236115400700,3.721400634765625,0.0057268571108579636,0.0023671009112149477,-0.002290742937475443
1772812236125101300,3.731101318359375,0.0023671009112149477,-0.004657844081521034,-0.009315688163042068
1772812236134802000,3.740802001953125,0.002672533504664898,-0.004657844081521034,-0.012980876490473747
1772812236144502500,3.75050244140625,-0.0012980876490473747,-0.0009926552884280682,-0.013286309316754341
1772812236154203100,3.760203125,-0.0016035200096666813,0.004505127668380737,-0.001679878099821508
1772812236163904000,3.769904052734375,-0.0025198173243552446,0.002672533504664898,0.009926552884280682
1772812236173604600,3.7796044921875,-0.004352411720901728,0.001450803829357028,0.017562363296747208
1772812236183305200,3.78930517578125,-0.005268708802759647,0.002061668550595641,0.01359174121171236
1772812236193005800,3.799005859375,-0.005574141163378954,0.004199695307761431,0.002290742937475443
1772812236202706200,3.8087060546875,-0.0034361144062131643,0.003283398225903511,-0.009926552884280682
1772812236212406800,3.81840673828125,0.002061668550595641,-0.00038179047987796366,-0.020311253145337105
1772812236222107600,3.828107666015625,0.014584396965801716,-0.007101302966475487,-0.02611446939408779
1772812236231808300,3.837808349609375,0.02802342176437378,-0.014431680552661419,-0.02153298258781433
1772812236241508900,3.8475087890625,0.03627009689807892,-0.02237292192876339,-0.016646064817905426
1772812236251209500,3.85720947265625,0.03504836559295654,-0.02328922040760517,-0.011453714221715927
1772812236260910000,3.86691015625,0.02802342176437378,-0.011988221667706966,-0.007483093533664942
1772812236270610700,3.876610595703125,0.020998476073145866,-0.0016035200096666813,-0.00045814859913662076
1772812236280311300,3.886311279296875,0.015500693581998348,0.004505127668380737,0.004428769461810589
1772812236290012000,3.896011962890625,0.009086613543331623,0.0066431546583771706,0.008704823441803455
1772812236299712500,3.90571240234375,-0.0031306820455938578,0.012751801870763302,0.014813470654189587
1772812236309413000,3.9154130859375,-0.019013166427612305,0.014584396965801716,0.017256930470466614
1772812236319113700,3.92511376953125,-0.02756527252495289,0.013668099418282509,0.007483093533664942
1772812236328814300,3.934814453125,-0.022678354755043983,0.02649625949561596,-0.002290742937475443
1772812236338515000,3.944514892578125,-0.010766491293907166,0.024663666263222694,-0.013286309316754341
1772812236348215600,3.954215576171875,0.00511599238961935,0.00603228947147727,-0.01847865991294384
1772812236357916200,3.963916259765625,0.02130390889942646,-0.010766491293907166,-0.019700389355421066
1772812236367616800,3.97361669921875,0.030466880649328232,-0.01565340906381607,-0.02000582218170166
1772812236377317400,3.9833173828125,0.03168861195445061,-0.014737112447619438,-0.022449281066656113
1772812236387018000,3.99301806640625,0.027107125148177147,-0.008628465235233307,-0.02000582218170166
1772812236396718600,4.002718505859375,0.023441936820745468,-0.003741546766832471,-0.012675444595515728
1772812236406419200,4.012419189453125,0.0191658828407526,0.003894262947142124,-0.0001527161948615685
1772812236416119800,4.022119873046875,0.010613775812089443,0.005421424750238657,0.01359174121171236
1772812236425820400,4.0318203125,0.00511599238961935,0.00511599238961935,0.02153298258781433
1772812236435521000,4.04152099609375,0.001450803829357028,0.00755945174023509,0.02214384824037552
1772812236445221600,4.0512216796875,0.00022907429956831038,0.011530072428286076,0.016035201027989388
1772812236454922200,4.060922119140625,0.0017562361899763346,0.010613775812089443,0.002901607658714056
1772812236464622800,4.070622802734375,0.00603228947147727,0.0066431546583771706,-0.011453714221715927
1772812236474323500,4.080323486328125,0.009392046369612217,0.002672533504664898,-0.02519817277789116
1772812236484024000,4.090024169921875,0.009697478264570236,0.00022907429956831038,-0.03588830679655075
1772812236493724700,4.099724609375,0.00511599238961935,0.003894262947142124,-0.03894263133406639
1772812236503425300,4.10942529296875,-0.002825249684974551,0.008781181648373604,-0.03405570983886719
1772812236513126000,4.1191259765625,-0.008323032408952713,0.015806125476956367,-0.020922118797898293
1772812236522826500,4.128826416015625,-0.01107192412018776,0.01824958436191082,-0.004123337101191282
1772812236532527000,4.138527099609375,-0.008017600513994694,0.013668099418282509,0.01206457894295454
1772812236542228000,4.14822802734375,-0.004657844081521034,0.00511599238961935,0.02977965772151947
1772812236551928300,4.15792822265625,-0.0019089524867013097,0.004199695307761431,0.04260781779885292
1772812236561629000,4.16762890625,-0.0019089524867013097,0.004199695307761431,0.05513054504990578
1772812236571329500,4.17732958984375,-0.0006872228696011007,-0.004963276442140341,0.05635227635502815
1772812236581030100,4.187030029296875,0.004810560029000044,-0.007101302966475487,0.045967575162649155
1772812236590730800,4.196730712890625,0.01030834298580885,-0.0058795735239982605,0.02825249545276165
1772812236600431600,4.206431640625,0.01611155830323696,-0.006185005884617567,0.0062613640911877155
1772812236610132200,4.21613232421875,0.017944153398275375,-0.008017600513994694,-0.017256930470466614
1772812236619832800,4.225832763671875,0.015195261687040329,-0.004046979360282421,-0.030695954337716103
1772812236629533400,4.235533447265625,0.01030834298580885,0.000839939049910754,-0.0386371985077858
1772812236639234000,4.245234130859375,0.004810560029000044,-0.0025198173243552446,-0.04016435891389847
1772812236648934400,4.254934326171875,0.0029779658652842045,-0.0016035200096666813,-0.031612250953912735
1772812236658635300,4.26463525390625,0.000839939049910754,0.00022907429956831038,-0.02000582218170166
1772812236668335900,4.2743359375,-0.0019089524867013097,-0.0034361144062131643,-0.013897174037992954
1772812236678036500,4.284036376953125,-0.0009926552884280682,0.003894262947142124,-0.0038179049734026194
1772812236687737000,4.293737060546875,-0.00007635809743078426,0.01000291109085083,0.005650499369949102
1772812236697437700,4.303437744140625,-0.003741546766832471,0.0035888305865228176,0.016646064817905426
1772812236707138300,4.31313818359375,-0.0016035200096666813,0.000839939049910754,0.02825249545276165
1772812236716839000,4.3228388671875,0.000839939049910754,0.002672533504664898,0.036804601550102234
1772812236726539500,4.33253955078125,0.003283398225903511,0.002672533504664898,0.03558287397027016
1772812236736240000,4.342240234375,0.007254019379615784,0.0023671009112149477,0.03497200831770897
1772812236745940700,4.351940673828125,0.009392046369612217,-0.006490438245236874,0.025503603741526604
1772812236755641300,4.361641357421875,0.011530072428286076,-0.013209951110184193,0.006872228812426329
1772812236765342000,4.371342041015625,0.015806125476956367,-0.0025198173243552446,-0.007177661173045635
1772812236775042600,4.38104248046875,0.013973532244563103,0.003894262947142124,-0.013286309316754341
1772812236784743200,4.3907431640625,0.00603228947147727,-0.0058795735239982605,-0.016646064817905426
1772812236794443800,4.40044384765625,0.0023671009112149477,-0.008933897130191326,-0.022754713892936707
1772812236804144400,4.410144287109375,0.009697478264570236,0.004810560029000044,-0.028863361105322838
1772812236813845000,4.419844970703125,0.01030834298580885,0.013668099418282509,-0.030085090547800064
1772812236823545600,4.429545654296875,-0.00007635809743078426,0.013973532244563103,-0.02153298258781433
1772812236833246200,4.43924609375,-0.012904518283903599,0.007254019379615784,-0.014813470654189587
1772812236842946800,4.44894677734375,-0.021456625312566757,0.009392046369612217,-0.011148282326757908
1772812236852647400,4.4586474609375,-0.02390008419752121,0.02649625949561596,-0.011759147047996521
1772812236862348000,4.46834814453125,-0.025121813639998436,0.02802342176437378,-0.013897174037992954
1772812236872048600,4.478048583984375,-0.02176205813884735,0.012751801870763302,-0.0206166859716177
1772812236881749200,4.487749267578125,-0.008933897130191326,0.00511599238961935,-0.02306014485657215
1772812236891449900,4.497449951171875,0.0017562361899763346,0.003283398225903511,-0.02306014485657215
1772812236901150500,4.507150390625,0.013057234697043896,0.00847574882209301,-0.017256930470466614
1772812236910851000,4.51685107421875,0.022525638341903687,0.003283398225903511,-0.012370011769235134
1772812236920551700,4.5265517578125,0.027107125148177147,-0.006490438245236874,-0.008093958720564842
1772812236930252300,4.536252197265625,0.02893971838057041,-0.011988221667706966,-0.007483093533664942
1772812236939953000,4.545952880859375,0.02741255611181259,-0.008017600513994694,-0.009621120058000088
1772812236949653500,4.555653564453125,0.026801692321896553,0.00603228947147727,-0.007483093533664942
1772812236959354000,4.56535400390625,0.023441936820745468,0.01611155830323696,0.00045814859913662076
1772812236969054700,4.5750546875,0.013362666592001915,0.007864884100854397,0.005650499369949102
1772812236978755300,4.58475537109375,0.004810560029000044,-0.0016035200096666813,0.002901607658714056
1772812236988456000,4.5944560546875,-0.0016035200096666813,0.00511599238961935,-0.003512472379952669
1772812236998156500,4.604156494140625,-0.00923932995647192,0.013973532244563103,-0.009926552884280682
1772812237007857200,4.613857177734375,-0.015958841890096664,0.012446369975805283,-0.016340631991624832
1772812237017557800,4.623557861328125,-0.018402300775051117,0.007864884100854397,-0.016035201027989388
1772812237027258400,4.63325830078125,-0.016569707542657852,0.007254019379615784,-0.012675444595515728
1772812237036959000,4.642958984375,-0.013820815831422806,0.00847574882209301,-0.008399390615522861
1772812237046659800,4.652659912109375,-0.011988221667706966,0.0066431546583771706,-0.0038179049734026194
1772812237056360400,4.6623603515625,-0.008628465235233307,-0.0025198173243552446,-0.007177661173045635
1772812237066061000,4.67206103515625,0.00022907429956831038,-0.007101302966475487,-0.011453714221715927
1772812237075761700,4.68176171875,0.009086613543331623,0.007864884100854397,-0.0019853105768561363
1772812237085462000,4.6914619140625,0.010919207707047462,0.013362666592001915,0.016035201027989388
1772812237095162600,4.70116259765625,0.007864884100854397,0.0005345066892914474,0.036193739622831345
1772812237104863500,4.710863525390625,0.014278964139521122,-0.01259908638894558,0.04230238497257233
1772812237114564000,4.720564208984375,0.022525638341903687,-0.011988221667706966,0.03497200831770897
1772812237124264700,4.7302646484375,0.024052800610661507,-0.009850194677710533,0.0206166859716177
1772812237133965300,4.73996533203125,0.022220205515623093,-0.008628465235233307,0.008093958720564842
1772812237143666000,4.749666015625,0.01611155830323696,-0.0009926552884280682,0.004123337101191282
1772812237153366500,4.759366455078125,0.00755945174023509,0.002672533504664898,0.005345067009329796
1772812237163067100,4.769067138671875,-0.0006872228696011007,-0.0058795735239982605,0.0010690133785828948
1772812237172767700,4.778767822265625,0.0011453714687377214,-0.008323032408952713,-0.012370011769235134
1772812237182468400,4.78846826171875,0.009086613543331623,-0.005268708802759647,-0.02977965772151947
1772812237192169000,4.7981689453125,0.01183550525456667,-0.0031306820455938578,-0.04505127668380737
1772812237201869600,4.80786962890625,0.010613775812089443,-0.004046979360282421,-0.050549060106277466
1772812237211570200,4.817570068359375,0.004810560029000044,-0.002825249684974551,-0.04505127668380737
1772812237221270800,4.827270751953125,-0.004352411720901728,0.003894262947142124,-0.03252854943275452
1772812237230971400,4.836971435546875,-0.014737112447619438,0.018860450014472008,-0.01511890348047018
1772812237240672000,4.846672119140625,-0.02176205813884735,0.020998476073145866,0.0010690133785828948
1772812237250372600,4.85637255859375,-0.02176205813884735,0.009086613543331623,0.012675444595515728
1772812237260073200,4.8660732421875,-0.014431680552661419,0.0035888305865228176,0.016646064817905426
1772812237269773800,4.87577392578125,-0.007406735327094793,0.0057268571108579636,0.01695149764418602
1772812237279474400,4.885474365234375,-0.0019089524867013097,0.0035888305865228176,0.01511890348047018
1772812237289175000,4.895175048828125,0.006948587018996477,-0.0009926552884280682,0.017256930470466614
1772812237298875600,4.904875732421875,0.015806125476956367,-0.0034361144062131643,0.02519817277789116
1772812237308576300,4.914576171875,0.020387612283229828,-0.012293653562664986,0.03130681812763214
1772812237318276900,4.92427685546875,0.01977674663066864,-0.017486004158854485,0.0334448479115963
1772812237327977500,4.9339775390625,0.01611155830323696,-0.011682788841426373,0.027336198836565018
1772812237337678000,4.943677978515625,0.009697478264570236,-0.00038179047987796366,0.014202605932950974
1772812237347378700,4.953378662109375,0.0011453714687377214,0.00755945174023509,0.005955931730568409
1772812237357079300,4.963079345703125,-0.004046979360282421,0.012446369975805283,-0.00045814859913662076
1772812237366780000,4.97277978515625,-0.008933897130191326,0.014889828860759735,-0.002901607658714056
1772812237376480500,4.98248046875,-0.016569707542657852,0.014889828860759735,-0.009315688163042068
1772812237386181000,4.99218115234375,-0.02390008419752121,0.012751801870763302,-0.017562363296747208
1772812237395881700,5.0018818359375,-0.027870705351233482,0.01183550525456667,-0.028557928279042244
1772812237405582300,5.011582275390625,-0.02328922040760517,0.013362666592001915,-0.03405570983886719
1772812237415283000,5.021282958984375,-0.013820815831422806,0.007254019379615784,-0.03375028073787689
1772812237424983600,5.030983642578125,-0.0022143847309052944,0.00511599238961935,-0.021838415414094925
1772812237434684400,5.040684326171875,0.00511599238961935,0.002061668550595641,-0.007483093533664942
1772812237444384800,5.050384765625,0.01030834298580885,-0.0025198173243552446,0.007788525894284248
1772812237454085400,5.06008544921875,0.015500693581998348,-0.005268708802759647,0.014813470654189587
1772812237463786000,5.069785888671875,0.017333287745714188,-0.0025198173243552446,0.0206166859716177
1772812237473486600,5.079486572265625,0.013362666592001915,-0.003741546766832471,0.02000582218170166
1772812237483187200,5.089187255859375,0.010919207707047462,0.000839939049910754,0.022449281066656113
1772812237492888000,5.09888818359375,0.00603228947147727,0.011224640533328056,0.02825249545276165
1772812237502588700,5.108588623046875,0.00022907429956831038,0.012446369975805283,0.029474224895238876
1772812237512289300,5.118289306640625,-0.005268708802759647,0.011530072428286076,0.030085090547800064
1772812237521990000,5.127989990234375,-0.008933897130191326,0.007864884100854397,0.01908952370285988
1772812237531690200,5.137690185546875,-0.011377356946468353,0.0035888305865228176,-0.0013744457392022014
1772812237541390800,5.147390869140625,-0.013515383005142212,0.003283398225903511,-0.021227551624178886
1772812237551091700,5.157091796875,-0.012904518283903599,0.0066431546583771706,-0.03130681812763214
1772812237560792300,5.166792236328125,-0.013820815831422806,0.010613775812089443,-0.03527744114398956
1772812237570493000,5.176492919921875,-0.015347977168858051,0.007254019379615784,-0.033139415085315704
1772812237580193500,5.186193603515625,-0.014431680552661419,0.0029779658652842045,-0.01908952370285988
1772812237589894100,5.19589404296875,-0.008323032408952713,0.0029779658652842045,-0.003512472379952669
1772812237599594800,5.2055947265625,-0.004352411720901728,0.0017562361899763346,0.016035201027989388
1772812237609295400,5.21529541015625,-0.004046979360282421,0.0011453714687377214,0.03405570983886719
1772812237618996000,5.224995849609375,-0.0025198173243552446,-0.0009926552884280682,0.04932733252644539
1772812237628696600,5.234696533203125,-0.0006872228696011007,-0.00007635809743078426,0.05604684352874756
1772812237638397200,5.244397216796875,0.00022907429956831038,-0.0016035200096666813,0.055741410702466965
1772812237648097800,5.254097900390625,0.0029779658652842045,-0.008628465235233307,0.04780016839504242
1772812237657798400,5.26379833984375,0.006948587018996477,-0.010766491293907166,0.036804601550102234
1772812237667499000,5.2734990234375,0.00847574882209301,-0.004352411720901728,0.025809036567807198
1772812237677199600,5.28319970703125,0.00511599238961935,-0.002825249684974551,0.014508038759231567
1772812237686900200,5.292900146484375,-0.00038179047987796366,0.0023671009112149477,0.007483093533664942
1772812237696600800,5.302600830078125,-0.006185005884617567,0.0066431546583771706,0.002290742937475443
1772812237706301400,5.312301513671875,-0.00954476185142994,0.008170315995812416,-0.0013744457392022014
1772812237716002000,5.322001953125,-0.008933897130191326,0.008170315995812416,-0.0025961752980947495
1772812237725702700,5.33170263671875,-0.006185005884617567,0.005421424750238657,0.00045814859913662076
1772812237735403300,5.3414033203125,-0.00007635809743078426,-0.0009926552884280682,0.0032070400193333626
1772812237745104000,5.351103759765625,0.00755945174023509,-0.006185005884617567,0.006566796451807022
1772812237754804500,5.360804443359375,0.013362666592001915,-0.0058795735239982605,0.005039634648710489
1772812237764505000,5.370505126953125,0.012140937149524689,-0.00954476185142994,0.0019853105768561363
1772812237774205700,5.380205810546875,0.011530072428286076,-0.015347977168858051,-0.001679878099821508
1772812237783906300,5.38990625,0.015195261687040329,-0.016569707542657852,-0.003512472379952669
1772812237793607000,5.39960693359375,0.018555017188191414,-0.019624030217528343,-0.002901607658714056
1772812237803307500,5.4093076171875,0.0191658828407526,-0.02328922040760517,0.0013744457392022014
1772812237813008100,5.419008056640625,0.017333287745714188,-0.02084576152265072,0.005345067009329796
1772812237822708700,5.428708740234375,0.014889828860759735,-0.016875140368938446,0.011759147047996521
1772812237832409300,5.438409423828125,0.010919207707047462,-0.011682788841426373,0.020922118797898293
1772812237842110000,5.44810986328125,0.013057234697043896,-0.02023489587008953,0.03283398225903511
1772812237851810600,5.457810546875,0.01183550525456667,-0.022678354755043983,0.05024362727999687
1772812237861511000,5.467510986328125,0.00603228947147727,-0.0012980876490473747,0.07101303339004517
1772812237871211500,5.47721142578125,-0.0022143847309052944,0.015500693581998348,0.09147699922323227
1772812237880912100,5.486912109375,-0.006185005884617567,0.012751801870763302,0.1101083755493164
1772812237890612700,5.49661279296875,0.004199695307761431,-0.013209951110184193,0.12018764764070511
1772812237900313300,5.506313232421875,0.013973532244563103,-0.03275762498378754,0.11346813291311264
1772812237910014000,5.516013916015625,0.016416991129517555,-0.024510949850082397,0.09147699922323227
1772812237919714600,5.525714599609375,0.009086613543331623,-0.00679587060585618,0.06001746281981468
1772812237929415200,5.535415283203125,-0.0012980876490473747,-0.0019089524867013097,0.022449281066656113
1772812237939115800,5.54511572265625,-0.002825249684974551,-0.012904518283903599,-0.010842849500477314
1772812237948816400,5.55481640625,-0.02023489587008953,-0.049861837178468704,-0.019394956529140472
1772812237958517000,5.56451708984375,0.0017562361899763346,-0.052916161715984344,-0.02306014485657215
1772812237968217600,5.574217529296875,0.02130390889942646,-0.01779143698513508,-0.036804601550102234
1772812237977918200,5.583918212890625,0.015806125476956367,-0.002825249684974551,-0.05146535858511925
1772812237987618800,5.593618896484375,0.0057268571108579636,0.010919207707047462,-0.0334448479115963
1772812237997319400,5.6033193359375,0.0017562361899763346,-0.004657844081521034,0.004123337101191282
1772812238007020000,5.61302001953125,0.0029779658652842045,-0.015347977168858051,0.03497200831770897
1772812238016720600,5.622720703125,-0.0025198173243552446,-0.013515383005142212,0.049021899700164795
1772812238026421200,5.632421142578125,-0.006490438245236874,0.0011453714687377214,0.06001746281981468
1772812238036121900,5.642121826171875,-0.0077121676877141,0.013057234697043896,0.06979130208492279
1772812238045822500,5.651822509765625,-0.00954476185142994,-0.0034361144062131643,0.06887500733137131
1772812238055523000,5.661523193359375,-0.008017600513994694,-0.012904518283903599,0.060933761298656464
1772812238065223700,5.6712236328125,-0.0025198173243552446,-0.011988221667706966,0.04413498193025589
1772812238074924300,5.68092431640625,-0.0009926552884280682,-0.01259908638894558,0.02214384824037552
1772812238084625000,5.690625,-0.002825249684974551,-0.02023489587008953,-0.004734201822429895
1772812238094325500,5.700325439453125,-0.005574141163378954,-0.02176205813884735,-0.028863361105322838
1772812238104026000,5.710026123046875,-0.008628465235233307,-0.01259908638894558,-0.04474584385752678
1772812238113726700,5.719726806640625,-0.013209951110184193,0.000839939049910754,-0.05451968312263489
1772812238123427600,5.729427490234375,-0.01870773360133171,-0.003741546766832471,-0.06368265300989151
1772812238133128200,5.739128173828125,-0.019929463043808937,-0.004963276442140341,-0.06276635825634003
1772812238142828800,5.748828857421875,-0.014126247726380825,0.001450803829357028,-0.05482511222362518
1772812238152529400,5.758529296875,-0.0077121676877141,-0.0022143847309052944,-0.04566214233636856
1772812238162229800,5.768229736328125,0.00022907429956831038,-0.005268708802759647,-0.03527744114398956
1772812238171930400,5.777930419921875,0.0023671009112149477,-0.00954476185142994,-0.019700389355421066
1772812238181631000,5.787630859375,-0.00007635809743078426,-0.011682788841426373,-0.008093958720564842
1772812238191331800,5.797331787109375,0.0011453714687377214,-0.009850194677710533,-0.0013744457392022014
1772812238201032400,5.807032470703125,0.00603228947147727,-0.0058795735239982605,0.008093958720564842
1772812238210733000,5.816733154296875,0.008781181648373604,-0.004352411720901728,0.02153298258781433
1772812238220433700,5.82643359375,0.004505127668380737,-0.00679587060585618,0.03497200831770897
1772812238230134300,5.83613427734375,-0.0016035200096666813,-0.003741546766832471,0.052687086164951324
1772812238239835000,5.8458349609375,-0.010766491293907166,0.000839939049910754,0.061850059777498245
1772812238249535500,5.855535400390625,-0.024510949850082397,0.009697478264570236,0.0639880821108818
1772812238259236000,5.865236083984375,-0.027870705351233482,0.023747367784380913,0.06673697382211685
1772812238268936700,5.874936767578125,-0.023594651371240616,0.029245151206851006,0.06856957077980042
1772812238278637300,5.88463720703125,-0.02176205813884735,0.01824958436191082,0.07070759683847427
1772812238288338000,5.894337890625,-0.018096869811415672,0.00603228947147727,0.0746782198548317
1772812238298038500,5.90403857421875,-0.00954476185142994,0.017944153398275375,0.07376192510128021
1772812238307739100,5.9137392578125,-0.004657844081521034,0.01611155830323696,0.06887500733137131
1772812238317439700,5.923439697265625,-0.00679587060585618,0.002672533504664898,0.06368265300989151
1772812238327140400,5.933140380859375,-0.004046979360282421,-0.0058795735239982605,0.0539088174700737
1772812238336841000,5.942841064453125,0.000839939049910754,-0.0019089524867013097,0.03436114266514778
1772812238346541600,5.95254150390625,0.00022907429956831038,0.019471315667033195,0.009010255336761475
1772812238356242200,5.9622421875,-0.007101302966475487,0.033826638013124466,-0.005039634648710489
1772812238365942800,5.97194287109375,-0.024205517023801804,0.037491824477910995,-0.001679878099821508
1772812238375643400,5.981643310546875,-0.033979352563619614,0.036880962550640106,0.008399390615522861
1772812238385344000,5.991343994140625,-0.02848157100379467,0.026801692321896553,0.02000582218170166
1772812238395044600,6.001044677734375,-0.023594651371240616,0.015500693581998348,0.025809036567807198
1772812238404745200,6.0107451171875,-0.02328922040760517,0.015806125476956367,0.025809036567807198
1772812238414445800,6.02044580078125,-0.024205517023801804,0.023136503994464874,0.023365577682852745
1772812238424146400,6.030146484375,-0.025732679292559624,0.02130390889942646,0.030695954337716103
1772812238433847000,6.039846923828125,-0.024205517023801804,0.013057234697043896,0.0383317656815052
1772812238443547600,6.049547607421875,-0.02084576152265072,0.002061668550595641,0.04108065739274025
1772812238453248300,6.059248291015625,-0.02756527252495289,-0.004657844081521034,0.03588830679655075
1772812238462948900,6.068948974609375,-0.04253146052360535,0.0035888305865228176,0.028557928279042244
1772812238472649500,6.0786494140625,-0.05780307948589325,0.013973532244563103,0.0102319847792387
1772812238482350000,6.08835009765625,-0.06177370250225067,0.029245151206851006,-0.007483093533664942
1772812238492050700,6.09805078125,-0.05230529606342316,0.0423787422478199,-0.02367101050913334
1772812238501751300,6.107751220703125,-0.040088001638650894,0.03413207083940506,-0.02367101050913334
1772812238511452200,6.1174521484375,-0.03306305781006813,0.018860450014472008,-0.011148282326757908
1772812238521152800,6.12715283203125,-0.024205517023801804,0.012751801870763302,0.0032070400193333626
1772812238530853000,6.13685302734375,-0.017486004158854485,0.00511599238961935,0.016035201027989388
1772812238540553700,6.1465537109375,-0.01565340906381607,0.000839939049910754,0.023365577682852745
1772812238550254300,6.15625439453125,-0.018402300775051117,0.00755945174023509,0.030695954337716103
1772812238559955000,6.165954833984375,-0.02390008419752121,0.013973532244563103,0.037720900028944016
1772812238569655800,6.17565576171875,-0.03061959706246853,0.010613775812089443,0.04199695214629173
1772812238579356400,6.1853564453125,-0.03245219215750694,0.013057234697043896,0.04230238497257233
1772812238589057000,6.19505712890625,-0.0345902182161808,0.01977674663066864,0.04260781779885292
1772812238598757600,6.204757568359375,-0.04069886729121208,0.02802342176437378,0.04260781779885292
1772812238608458200,6.214458251953125,-0.04436405375599861,0.024663666263222694,0.04474584385752678
1772812238618158600,6.22415869140625,-0.0449749194085598,0.011224640533328056,0.04108065739274025
1772812238627859500,6.233859375,-0.04069886729121208,0.003283398225903511,0.031612250953912735
1772812238637560000,6.24356005859375,-0.037033677101135254,0.002061668550595641,0.014813470654189587
1772812238647260700,6.2532607421875,-0.03245219215750694,0.0023671009112149477,-0.0019853105768561363
1772812238656961300,6.262961181640625,-0.026343543082475662,0.004199695307761431,-0.014508038759231567
1772812238666662000,6.272661865234375,-0.02237292192876339,0.00022907429956831038,-0.025809036567807198
1772812238676362500,6.282362548828125,-0.015958841890096664,-0.004352411720901728,-0.03955349326133728
1772812238686063000,6.29206298828125,-0.004657844081521034,-0.006490438245236874,-0.05604684352874756
1772812238695763700,6.301763671875,0.0066431546583771706,-0.009850194677710533,-0.07162389904260635
1772812238705464300,6.31146435546875,0.015500693581998348,-0.00007635809743078426,-0.07559451460838318
1772812238715165000,6.3211650390625,0.015500693581998348,0.009697478264570236,-0.06643154472112656
1772812238724865500,6.330865478515625,0.0066431546583771706,0.008781181648373604,-0.043829549103975296
1772812238734566100,6.340566162109375,0.001450803829357028,0.0011453714687377214,-0.018784092739224434
1772812238744266800,6.350266845703125,0.004199695307761431,-0.00038179047987796366,-0.002901607658714056
1772812238753967400,6.35996728515625,0.007864884100854397,-0.002825249684974551,0.007788525894284248
1772812238763668000,6.36966796875,0.011224640533328056,-0.005574141163378954,0.0102319847792387
1772812238773368600,6.37936865234375,0.01183550525456667,-0.0025198173243552446,0.015729768201708794
1772812238783069200,6.389069091796875,0.00603228947147727,-0.004657844081521034,0.018173227086663246
1772812238792769800,6.398769775390625,-0.0034361144062131643,-0.007101302966475487,0.016035201027989388
1772812238802470400,6.408470458984375,-0.01107192412018776,-0.0012980876490473747,0.0102319847792387
1772812238812171000,6.4181708984375,-0.016569707542657852,0.013362666592001915,0.003512472379952669
1772812238821871600,6.42787158203125,-0.019929463043808937,0.013362666592001915,0.0001527161948615685
1772812238831572200,6.437572265625,-0.019013166427612305,0.011224640533328056,0.005955931730568409
1772812238841272800,6.44727294921875,-0.015042545273900032,0.004505127668380737,0.009926552884280682
1772812238850973400,6.456973388671875,-0.012293653562664986,0.0017562361899763346,0.010537417605519295
1772812238860674000,6.466674072265625,-0.00954476185142994,0.00603228947147727,0.009621120058000088
1772812238870374700,6.476374755859375,-0.007101302966475487,0.002061668550595641,0.005039634648710489
1772812238880075300,6.4860751953125,-0.0012980876490473747,-0.00679587060585618,-0.002290742937475443
1772812238889775900,6.49577587890625,0.00755945174023509,-0.002825249684974551,-0.0062613640911877155
1772812238899476500,6.5054765625,0.012751801870763302,-0.005574141163378954,-0.009010255336761475
1772812238909177000,6.515177001953125,0.01672242395579815,-0.008628465235233307,-0.007483093533664942
1772812238918877700,6.524877685546875,0.018555017188191414,-0.005268708802759647,0.00045814859913662076
1772812238928578300,6.534578369140625,0.014584396965801716,-0.004963276442140341,0.008093958720564842
1772812238938279000,6.54427880859375,0.011224640533328056,-0.0012980876490473747,0.011759147047996521
1772812238947979500,6.5539794921875,0.010613775812089443,0.0005345066892914474,0.0154243353754282
1772812238957680400,6.563680419921875,0.010613775812089443,-0.015347977168858051,0.013897174037992954
1772812238967381000,6.573381103515625,0.01763872057199478,-0.019013166427612305,0.008093958720564842
1772812238977081300,6.583081298828125,0.023441936820745468,-0.010461059398949146,-0.0007635809597559273
1772812238986782000,6.592781982421875,0.0191658828407526,-0.006490438245236874,-0.006566796451807022
1772812238996482600,6.602482666015625,0.01000291109085083,0.000839939049910754,-0.006566796451807022
1772812239006183200,6.61218310546875,0.0023671009112149477,0.002061668550595641,-0.005955931730568409
1772812239015884000,6.621884033203125,0.0011453714687377214,-0.004352411720901728,-0.009926552884280682
1772812239025584600,6.631584716796875,0.0035888305865228176,-0.0009926552884280682,-0.009621120058000088
1772812239035285200,6.64128515625,-0.00007635809743078426,0.005421424750238657,-0.005955931730568409
1772812239044985900,6.65098583984375,-0.008017600513994694,0.0017562361899763346,-0.005955931730568409
1772812239054686500,6.6606865234375,-0.010461059398949146,0.003894262947142124,-0.008093958720564842
1772812239064387000,6.670386962890625,-0.0058795735239982605,0.01000291109085083,-0.014202605932950974
1772812239074087700,6.680087646484375,0.0011453714687377214,0.00847574882209301,-0.016035201027989388
1772812239083788300,6.689788330078125,0.015806125476956367,0.0029779658652842045,-0.006566796451807022
1772812239093489000,6.699489013671875,0.030161447823047638,-0.008628465235233307,0.008399390615522861
1772812239103189500,6.709189453125,0.037491824477910995,-0.0193185992538929,0.01847865991294384
1772812239112890000,6.71889013671875,0.03962985426187515,-0.017486004158854485,0.02000582218170166
1772812239122590700,6.7285908203125,0.04146244749426842,-0.008017600513994694,0.017256930470466614
1772812239132291300,6.738291259765625,0.035964664071798325,-0.0025198173243552446,0.016035201027989388
1772812239141992000,6.747991943359375,0.02588539570569992,-0.0009926552884280682,0.011453714221715927
1772812239151692500,6.757692626953125,0.018555017188191414,0.0005345066892914474,0.0032070400193333626
1772812239161393200,6.76739306640625,0.013973532244563103,0.006337722297757864,-0.007483093533664942
1772812239171093800,6.77709375,0.0057268571108579636,0.013362666592001915,-0.017562363296747208
1772812239180794400,6.78679443359375,-0.0022143847309052944,0.017944153398275375,-0.02611446939408779
1772812239190495000,6.796494873046875,-0.003741546766832471,0.020082179456949234,-0.030695954337716103
1772812239200195600,6.806195556640625,-0.002825249684974551,0.015806125476956367,-0.03191768378019333
1772812239209896200,6.815896240234375,-0.0016035200096666813,0.003894262947142124,-0.030085090547800064
1772812239219596800,6.8255966796875,0.0005345066892914474,-0.004352411720901728,-0.02764163166284561
1772812239229297400,6.83529736328125,-0.0009926552884280682,-0.0019089524867013097,-0.025503603741526604
1772812239238998000,6.844998046875,-0.005268708802759647,0.0035888305865228176,-0.019700389355421066
1772812239248698600,6.85469873046875,-0.008017600513994694,0.01030834298580885,-0.012980876490473747
1772812239258399200,6.864399169921875,-0.00679587060585618,0.009392046369612217,-0.002901607658714056
1772812239268099800,6.874099853515625,0.000839939049910754,0.006337722297757864,0.007177661173045635
1772812239277800400,6.883800537109375,0.00755945174023509,0.008170315995812416,0.021227551624178886
1772812239287501000,6.8935009765625,0.010919207707047462,0.004199695307761431,0.03375028073787689
1772812239297201700,6.90320166015625,0.011530072428286076,-0.0022143847309052944,0.04230238497257233
1772812239306902300,6.91290234375,0.010919207707047462,-0.0058795735239982605,0.04169152304530144
1772812239316603000,6.922602783203125,0.01030834298580885,-0.00679587060585618,0.036804601550102234
1772812239326303500,6.932303466796875,0.009086613543331623,-0.004963276442140341,0.02825249545276165
1772812239336004400,6.94200439453125,0.006948587018996477,-0.005268708802759647,0.023365577682852745
1772812239345704700,6.95170458984375,0.0017562361899763346,-0.0058795735239982605,0.019394956529140472
1772812239355405300,6.9614052734375,-0.002825249684974551,-0.0034361144062131643,0.014813470654189587
1772812239365106000,6.97110595703125,-0.007101302966475487,0.004505127668380737,0.010537417605519295
1772812239374806500,6.980806640625,-0.012904518283903599,0.007254019379615784,0.006566796451807022
1772812239384507100,6.990507080078125,-0.014126247726380825,-0.0019089524867013097,0.0019853105768561363
1772812239394208000,7.0002080078125,-0.008628465235233307,-0.008323032408952713,-0.007483093533664942
1772812239403908600,7.00990869140625,-0.0022143847309052944,-0.010461059398949146,-0.02214384824037552
1772812239413609200,7.019609130859375,0.003283398225903511,-0.006185005884617567,-0.03405570983886719
1772812239423309800,7.029309814453125,0.007254019379615784,0.0035888305865228176,-0.03558287397027016
1772812239433010200,7.03901025390625,0.007864884100854397,0.003894262947142124,-0.02764163166284561
1772812239442710800,7.048710693359375,0.005421424750238657,0.0011453714687377214,-0.014813470654189587
1772812239452411600,7.05841162109375,0.00022907429956831038,0.0011453714687377214,-0.0025961752980947495
1772812239462112300,7.0681123046875,-0.005268708802759647,-0.00038179047987796366,0.005650499369949102
1772812239471812900,7.077812744140625,-0.004046979360282421,-0.002825249684974551,0.004734201822429895
1772812239481513500,7.087513427734375,0.000839939049910754,-0.0022143847309052944,0.004428769461810589
1772812239491214000,7.097214111328125,0.004505127668380737,-0.004352411720901728,-0.0013744457392022014
1772812239500914700,7.106914794921875,0.00511599238961935,-0.0022143847309052944,0.0007635809597559273
1772812239510615300,7.116615234375,0.00511599238961935,-0.0006872228696011007,0.004428769461810589
1772812239520316000,7.12631591796875,0.006337722297757864,-0.0006872228696011007,0.007177661173045635
1772812239530016500,7.1360166015625,0.00511599238961935,-0.0012980876490473747,0.008093958720564842
1772812239539717000,7.145717041015625,0.0023671009112149477,-0.003741546766832471,0.006872228812426329
1772812239549417700,7.155417724609375,-0.00007635809743078426,-0.0022143847309052944,0.005039634648710489
1772812239559118300,7.165118408203125,0.00022907429956831038,0.0005345066892914474,-0.0019853105768561363
1772812239568819000,7.17481884765625,-0.0034361144062131643,0.00511599238961935,-0.005650499369949102
1772812239578519600,7.18451953125,-0.00679587060585618,0.009086613543331623,-0.006566796451807022
1772812239588220200,7.19422021484375,-0.005268708802759647,0.01030834298580885,-0.0013744457392022014
1772812239597920800,7.203920654296875,-0.004046979360282421,0.000839939049910754,-0.0025961752980947495
1772812239607621400,7.213621337890625,-0.0034361144062131643,-0.002825249684974551,-0.008093958720564842
1772812239617322000,7.223322021484375,-0.0019089524867013097,0.0066431546583771706,-0.010842849500477314
1772812239627022600,7.233022705078125,-0.003741546766832471,0.012140937149524689,-0.005650499369949102
1772812239636723200,7.24272314453125,-0.006490438245236874,0.0057268571108579636,-0.0001527161948615685
1772812239646423800,7.252423828125,-0.01107192412018776,0.006337722297757864,-0.0010690133785828948
1772812239656124400,7.26212451171875,-0.015958841890096664,0.01824958436191082,0.0010690133785828948
1772812239665825000,7.271824951171875,-0.01870773360133171,0.017333287745714188,-0.006566796451807022
1772812239675525600,7.281525634765625,-0.014737112447619438,0.013362666592001915,-0.01511890348047018
1772812239685226200,7.291226318359375,-0.0019089524867013097,0.014584396965801716,-0.012980876490473747
1772812239694926800,7.3009267578125,0.011530072428286076,0.0057268571108579636,-0.003512472379952669
1772812239704627500,7.31062744140625,0.023441936820745468,-0.003741546766832471,0.018784092739224434
1772812239714328000,7.320328125,0.02588539570569992,-0.008323032408952713,0.040775224566459656
1772812239724028700,7.330028564453125,0.020387612283229828,-0.010461059398949146,0.047494735568761826
1772812239733729300,7.339729248046875,0.012751801870763302,-0.008628465235233307,0.036193739622831345
1772812239743430000,7.349429931640625,0.008170315995812416,-0.00007635809743078426,0.02000582218170166
1772812239753130500,7.359130615234375,0.0066431546583771706,0.0057268571108579636,0.00045814859913662076
1772812239762831000,7.3688310546875,0.004810560029000044,0.01030834298580885,-0.010842849500477314
1772812239772531700,7.37853173828125,0.0011453714687377214,0.010613775812089443,-0.0154243353754282
1772812239782232600,7.388232666015625,-0.0012980876490473747,0.01183550525456667,-0.01206457894295454
1772812239791933200,7.39793310546875,-0.0022143847309052944,0.013057234697043896,-0.011759147047996521
1772812239801633800,7.4076337890625,-0.0016035200096666813,0.006337722297757864,-0.016035201027989388
1772812239811334100,7.417334228515625,0.002061668550595641,0.0029779658652842045,-0.023976443335413933
1772812239821034800,7.42703466796875,0.00603228947147727,0.0005345066892914474,-0.031001387163996696
1772812239830735400,7.4367353515625,0.00603228947147727,-0.0058795735239982605,-0.03894263133406639
1772812239840436200,7.446436279296875,0.009392046369612217,-0.004963276442140341,-0.04169152304530144
1772812239850136800,7.45613671875,0.010613775812089443,-0.006490438245236874,-0.041386090219020844
1772812239859837400,7.46583740234375,0.01030834298580885,-0.008323032408952713,-0.03711003437638283
1772812239869538000,7.4755380859375,0.009086613543331623,-0.004963276442140341,-0.02764163166284561
1772812239879238700,7.48523876953125,0.006948587018996477,0.0029779658652842045,-0.011148282326757908
1772812239888939300,7.494939208984375,0.0011453714687377214,0.008170315995812416,0.005039634648710489
1772812239898640000,7.504639892578125,-0.004352411720901728,0.013668099418282509,0.02000582218170166
1772812239908340500,7.514340576171875,-0.006185005884617567,0.011530072428286076,0.028863361105322838
1772812239918041000,7.524041015625,-0.0034361144062131643,0.004199695307761431,0.030390523374080658
1772812239927741700,7.53374169921875,0.003283398225903511,-0.0016035200096666813,0.023365577682852745
1772812239937442300,7.5434423828125,0.01030834298580885,-0.0022143847309052944,0.01206457894295454
1772812239947143000,7.553142822265625,0.013362666592001915,-0.004963276442140341,0.0007635809597559273
1772812239956843500,7.562843505859375,0.012446369975805283,-0.004963276442140341,-0.004428769461810589
1772812239966544100,7.572544189453125,0.009697478264570236,0.003894262947142124,-0.0010690133785828948
1772812239976244700,7.58224462890625,0.003894262947142124,0.010919207707047462,0.005345067009329796
1772812239985945300,7.5919453125,-0.0012980876490473747,0.009392046369612217,0.007788525894284248
1772812239995646000,7.60164599609375,-0.0022143847309052944,0.00847574882209301,0.006872228812426329
1772812240005346600,7.6113466796875,-0.0016035200096666813,0.009697478264570236,0.009315688163042068
1772812240015047200,7.621047119140625,-0.0019089524867013097,0.00511599238961935,0.006872228812426329
1772812240024747800,7.630747802734375,0.003894262947142124,0.000839939049910754,0.0062613640911877155
1772812240034448400,7.640448486328125,0.00847574882209301,-0.002825249684974551,0.005955931730568409
1772812240044149000,7.65014892578125,0.00755945174023509,-0.005574141163378954,0.004428769461810589
1772812240053849600,7.659849609375,0.009086613543331623,0.0029779658652842045,0.004734201822429895
1772812240063550200,7.66955029296875,0.011224640533328056,0.009086613543331623,0.008399390615522861
1772812240073250800,7.679250732421875,0.011224640533328056,-0.002825249684974551,0.005345067009329796
1772812240082951400,7.688951416015625,0.01183550525456667,-0.007101302966475487,-0.0013744457392022014
1772812240092652000,7.698652099609375,0.009697478264570236,0.0005345066892914474,-0.0102319847792387
1772812240102352600,7.7083525390625,0.004810560029000044,-0.00038179047987796366,-0.025503603741526604
1772812240112053200,7.71805322265625,0.002672533504664898,-0.0016035200096666813,-0.03558287397027016
1772812240121753900,7.72775390625,0.002672533504664898,0.0023671009112149477,-0.03527744114398956
1772812240131454500,7.737454345703125,0.002061668550595641,0.0023671009112149477,-0.02764163166284561
1772812240141155000,7.747155029296875,-0.0009926552884280682,-0.0009926552884280682,-0.019700389355421066
1772812240150855700,7.756855712890625,-0.0058795735239982605,0.0057268571108579636,-0.010842849500477314
1772812240160556500,7.766556640625,-0.013209951110184193,0.010613775812089443,-0.005345067009329796
1772812240170257200,7.776257080078125,-0.018096869811415672,0.0023671009112149477,0.001679878099821508
1772812240179957800,7.785957763671875,-0.016569707542657852,0.000839939049910754,0.010537417605519295
1772812240189658000,7.795658203125,-0.013515383005142212,-0.00038179047987796366,0.012980876490473747
1772812240199358700,7.805358642578125,-0.013515383005142212,-0.00007635809743078426,0.01359174121171236
1772812240209059300,7.815059326171875,-0.007101302966475487,0.001450803829357028,0.01359174121171236
1772812240218760000,7.824760009765625,-0.0009926552884280682,0.002061668550595641,0.016340631991624832
1772812240228460800,7.834460693359375,-0.004046979360282421,0.002061668550595641,0.0154243353754282
1772812240238161400,7.844161376953125,-0.016875140368938446,0.0023671009112149477,0.005955931730568409
1772812240247862000,7.853862060546875,-0.026648975908756256,0.007254019379615784,-0.014508038759231567
1772812240257562600,7.863562744140625,-0.026343543082475662,0.024663666263222694,-0.03741546720266342
1772812240267263200,7.87326318359375,-0.022983787581324577,0.023747367784380913,-0.03894263133406639
1772812240276963600,7.882963623046875,-0.020540328696370125,0.007254019379615784,-0.019700389355421066
1772812240286664400,7.89266455078125,-0.008017600513994694,-0.01107192412018776,0.0062613640911877155
1772812240296365000,7.902364990234375,0.003894262947142124,-0.00679587060585618,0.027947064489126205
1772812240306065700,7.912065673828125,0.008170315995812416,-0.004046979360282421,0.034666575491428375
1772812240315766300,7.921766357421875,0.004505127668380737,-0.005268708802759647,0.03558287397027016
1772812240325467000,7.931466796875,-0.0022143847309052944,-0.010155626572668552,0.027947064489126205
1772812240335167500,7.94116748046875,-0.004352411720901728,-0.0077121676877141,0.012980876490473747
1772812240344868000,7.9508681640625,-0.006490438245236874,0.004199695307761431,0.005039634648710489
1772812240354568700,7.960568603515625,-0.00954476185142994,0.00511599238961935,-0.0007635809597559273
1772812240364269300,7.970269287109375,-0.010461059398949146,-0.0009926552884280682,-0.004428769461810589
1772812240373970000,7.979969970703125,-0.012293653562664986,-0.004352411720901728,-0.010537417605519295
1772812240383670500,7.98967041015625,-0.014737112447619438,-0.0019089524867013097,-0.015729768201708794
1772812240393371100,7.99937109375,-0.01779143698513508,-0.005574141163378954,-0.022449281066656113
1772812240403071700,8.00907177734375,-0.021456625312566757,-0.006490438245236874,-0.022449281066656113
1772812240412772400,8.0187724609375,-0.026038112118840218,-0.0058795735239982605,-0.016340631991624832
1772812240422473000,8.028472900390625,-0.02909243479371071,0.0017562361899763346,-0.005345067009329796
1772812240432173600,8.038173583984374,-0.028176138177514076,0.004810560029000044,0.007177661173045635
1772812240441874200,8.047874267578125,-0.022678354755043983,0.008170315995812416,0.020311253145337105
1772812240451574800,8.05757470703125,-0.01718057133257389,-0.0006872228696011007,0.027947064489126205
1772812240461275400,8.067275390625,-0.012904518283903599,-0.010766491293907166,0.033139415085315704
1772812240470976000,8.07697607421875,-0.00679587060585618,-0.014431680552661419,0.03191768378019333
1772812240480676600,8.086676513671875,-0.00038179047987796366,-0.018096869811415672,0.0206166859716177
1772812240490377200,8.096377197265625,0.008170315995812416,-0.018402300775051117,0.007177661173045635
1772812240500077800,8.106077880859376,0.012751801870763302,-0.013515383005142212,-0.001679878099821508
1772812240509778400,8.1157783203125,0.013057234697043896,-0.0077121676877141,-0.004428769461810589
1772812240519479000,8.12547900390625,0.008781181648373604,-0.004352411720901728,-0.004734201822429895
1772812240529179600,8.1351796875,0.00511599238961935,-0.008017600513994694,-0.004734201822429895
1772812240538880300,8.14488037109375,0.000839939049910754,-0.007101302966475487,-0.004428769461810589
1772812240548581000,8.1545810546875,-0.0012980876490473747,-0.0019089524867013097,-0.004428769461810589
1772812240558281500,8.164281494140624,-0.004352411720901728,0.0023671009112149477,-0.006566796451807022
1772812240567982000,8.173982177734375,-0.00923932995647192,-0.0031306820455938578,-0.011148282326757908
1772812240577682700,8.1836826171875,-0.01259908638894558,-0.007101302966475487,-0.005650499369949102
1772812240587383300,8.19338330078125,-0.011377356946468353,-0.005574141163378954,-0.0062613640911877155
1772812240597084000,8.203083984375,-0.01107192412018776,0.00022907429956831038,-0.005955931730568409
1772812240606784800,8.21278466796875,-0.011377356946468353,0.01030834298580885,0.0001527161948615685
1772812240616485400,8.2224853515625,-0.01259908638894558,0.009086613543331623,0.009926552884280682
1772812240626186000,8.23218603515625,-0.011682788841426373,-0.0019089524867013097,0.01511890348047018
1772812240635886600,8.241886474609375,-0.008628465235233307,-0.0031306820455938578,0.017256930470466614
1772812240645587200,8.251587158203124,-0.004963276442140341,-0.0031306820455938578,0.014508038759231567
1772812240655287600,8.26128759765625,-0.0031306820455938578,-0.0025198173243552446,0.014508038759231567
1772812240664988400,8.270988525390624,-0.0012980876490473747,-0.0019089524867013097,0.01695149764418602
1772812240674689000,8.28068896484375,0.000839939049910754,0.000839939049910754,0.018173227086663246
1772812240684389600,8.2903896484375,0.005421424750238657,0.009392046369612217,0.02000582218170166
1772812240694090200,8.30009033203125,0.008781181648373604,0.007254019379615784,0.02153298258781433
1772812240703790800,8.309790771484375,0.010613775812089443,-0.002825249684974551,0.02000582218170166
1772812240713491500,8.319491455078126,0.009697478264570236,-0.012904518283903599,0.009315688163042068
1772812240723192000,8.329192138671875,0.007254019379615784,-0.010461059398949146,-0.0038179049734026194
1772812240732892700,8.338892578125,0.0057268571108579636,0.002061668550595641,-0.012980876490473747
1772812240742593300,8.34859326171875,0.002061668550595641,0.00603228947147727,-0.01847865991294384
1772812240752294000,8.3582939453125,-0.0025198173243552446,0.004505127668380737,-0.01695149764418602
1772812240761994500,8.367994384765625,-0.004046979360282421,0.004199695307761431,-0.0154243353754282
1772812240771695000,8.377695068359374,-0.004046979360282421,0.007254019379615784,-0.012980876490473747
1772812240781395700,8.387395751953125,-0.0009926552884280682,0.0035888305865228176,-0.012675444595515728
1772812240791096300,8.397096435546874,-0.0022143847309052944,-0.0022143847309052944,-0.014508038759231567
1772812240800797000,8.406796875,-0.0077121676877141,-0.00038179047987796366,-0.019394956529140472
1772812240810497500,8.41649755859375,-0.019624030217528343,-0.0009926552884280682,-0.030085090547800064
1772812240820198100,8.4261982421875,-0.026648975908756256,0.002672533504664898,-0.042913250625133514
1772812240829898800,8.435898681640625,-0.021456625312566757,0.01030834298580885,-0.04780016839504242
1772812240839599400,8.445599365234376,-0.008017600513994694,0.01183550525456667,-0.039858926087617874
1772812240849300000,8.455300048828125,0.00755945174023509,0.0066431546583771706,-0.014813470654189587
1772812240859000600,8.46500048828125,0.015806125476956367,0.0005345066892914474,0.023976443335413933
1772812240868701200,8.474701171875,0.013973532244563103,-0.0025198173243552446,0.05818486958742142
1772812240878401800,8.48440185546875,0.008170315995812416,-0.004046979360282421,0.07651081681251526
1772812240888102400,8.494102294921875,-0.0006872228696011007,0.004505127668380737,0.07864884287118912
1772812240897803000,8.503802978515624,-0.00923932995647192,0.016416991129517555,0.06551524996757507
1772812240907503600,8.513503662109375,-0.016569707542657852,0.020693045109510422,0.049632761627435684
1772812240917204200,8.523204345703125,-0.02237292192876339,0.017027854919433594,0.03649916872382164
1772812240926904800,8.53290478515625,-0.02328922040760517,0.013362666592001915,0.03130681812763214
1772812240936605400,8.54260546875,-0.031230462715029716,0.014584396965801716,0.022754713892936707
1772812240946306000,8.55230615234375,-0.03520108386874199,0.009392046369612217,0.0010690133785828948
1772812240956006700,8.562006591796875,-0.03061959706246853,0.012140937149524689,-0.027336198836565018
1772812240965707300,8.571707275390626,-0.022678354755043983,0.009697478264570236,-0.05238165333867073
1772812240975407900,8.581407958984375,-0.013515383005142212,-0.0006872228696011007,-0.07070759683847427
1772812240985108500,8.5911083984375,-0.005268708802759647,-0.009850194677710533,-0.07131846249103546
1772812240994809300,8.600809326171875,-0.007406735327094793,-0.0077121676877141,-0.053603384643793106
1772812241004510000,8.610510009765624,-0.015347977168858051,0.0017562361899763346,-0.022754713892936707
1772812241014210600,8.62021044921875,-0.02328922040760517,0.01672242395579815,0.013286309316754341
1772812241023911200,8.6299111328125,-0.026343543082475662,0.016416991129517555,0.04199695214629173
1772812241033611500,8.639611572265625,-0.025121813639998436,0.013057234697043896,0.05849030241370201
1772812241043312000,8.64931201171875,-0.015958841890096664,0.006948587018996477,0.05757400393486023
1772812241053013000,8.659012939453126,-0.004963276442140341,0.002672533504664898,0.04810560122132301
1772812241062713600,8.668713623046875,0.003894262947142124,-0.00007635809743078426,0.030695954337716103
1772812241072414200,8.678414306640626,0.01183550525456667,-0.0058795735239982605,0.0102319847792387
1772812241082114800,8.68811474609375,0.0191658828407526,-0.017486004158854485,-0.0154243353754282
1772812241091815400,8.6978154296875,0.02283107116818428,-0.021151192486286163,-0.03894263133406639
1772812241101516000,8.70751611328125,0.022220205515623093,-0.02237292192876339,-0.06490438431501389
1772812241111216600,8.717216552734374,0.0191658828407526,-0.026648975908756256,-0.0902552679181099
1772812241120917200,8.726917236328125,0.018555017188191414,-0.03245219215750694,-0.10308343172073364
1772812241130617900,8.736617919921875,0.015195261687040329,-0.034895651042461395,-0.10980294644832611
1772812241140318500,8.746318359375,0.01030834298580885,-0.023594651371240616,-0.11621702462434769
1772812241150019000,8.75601904296875,0.000839939049910754,-0.002825249684974551,-0.11224640160799026
1772812241159719700,8.7657197265625,-0.0034361144062131643,0.008781181648373604,-0.09575305134057999
1772812241169420300,8.775420166015625,-0.00679587060585618,-0.0012980876490473747,-0.0694858655333519
1772812241179121000,8.785120849609376,-0.011377356946468353,-0.0077121676877141,-0.040775224566459656
1772812241188821500,8.794821533203125,-0.013820815831422806,-0.004657844081521034,-0.01511890348047018
1772812241198522000,8.804522216796874,-0.010155626572668552,-0.0034361144062131643,0.001679878099821508
1772812241208222700,8.81422265625,0.0005345066892914474,-0.0012980876490473747,0.018784092739224434
1772812241217923300,8.82392333984375,0.010919207707047462,-0.006185005884617567,0.03283398225903511
1772812241227624000,8.8336240234375,0.016416991129517555,-0.01779143698513508,0.036804601550102234
1772812241237324500,8.843324462890624,0.01977674663066864,-0.029703300446271896,0.039858926087617874
1772812241247025200,8.853025146484375,0.020693045109510422,-0.03153589367866516,0.03436114266514778
1772812241256725800,8.862725830078125,0.020693045109510422,-0.02390008419752121,0.0206166859716177
1772812241266426400,8.87242626953125,0.015195261687040329,-0.011988221667706966,0.005039634648710489
1772812241276127000,8.882126953125,0.0035888305865228176,-0.014431680552661419,-0.008399390615522861
1772812241285827600,8.89182763671875,-0.0009926552884280682,-0.01779143698513508,-0.02306014485657215
1772812241295528200,8.901528076171875,-0.0019089524867013097,-0.016875140368938446,-0.031612250953912735
1772812241305228800,8.911228759765624,-0.0006872228696011007,-0.014126247726380825,-0.04260781779885292
1772812241314929700,8.9209296875,-0.003741546766832471,-0.005268708802759647,-0.04627300798892975
1772812241324630000,8.930630126953124,-0.005268708802759647,0.0017562361899763346,-0.03802633285522461
1772812241334330600,8.94033056640625,-0.004352411720901728,0.0005345066892914474,-0.019394956529140472
1772812241344031200,8.95003125,-0.004963276442140341,-0.0012980876490473747,0.005039634648710489
1772812241353731800,8.95973193359375,-0.013820815831422806,-0.00007635809743078426,0.024892739951610565
1772812241363432400,8.969432373046875,-0.022983787581324577,0.0005345066892914474,0.030390523374080658
1772812241373133300,8.97913330078125,-0.02390008419752121,-0.0006872228696011007,0.024281874299049377
1772812241382834000,8.988833984375,-0.01626427471637726,0.0005345066892914474,0.015729768201708794
1772812241392534500,8.998534423828126,-0.0058795735239982605,-0.006185005884617567,0.005955931730568409
1772812241402235100,9.008235107421875,0.009086613543331623,-0.01870773360133171,0.0013744457392022014
1772812241411935700,9.017935791015624,0.026190826669335365,-0.029397867619991302,0.0010690133785828948
1772812241421636000,9.027635986328125,0.03352120518684387,-0.026343543082475662,0.007788525894284248
1772812241431337000,9.0373369140625,0.02893971838057041,-0.015958841890096664,0.01511890348047018
1772812241441037600,9.04703759765625,0.01824958436191082,-0.013209951110184193,0.026419902220368385
1772812241450738200,9.05673828125,0.008170315995812416,-0.01259908638894558,0.03711003437638283
1772812241460438800,9.066438720703125,-0.00038179047987796366,-0.010766491293907166,0.041386090219020844
1772812241470139400,9.076139404296875,-0.004963276442140341,-0.012293653562664986,0.03405570983886719
1772812241479840000,9.085840087890626,-0.0077121676877141,-0.003741546766832471,0.025503603741526604
1772812241489540600,9.09554052734375,-0.010155626572668552,0.005421424750238657,0.014508038759231567
1772812241499241200,9.1052412109375,-0.011377356946468353,0.001450803829357028,-0.00045814859913662076
1772812241508941800,9.11494189453125,-0.008933897130191326,-0.00954476185142994,-0.014202605932950974
1772812241518642400,9.124642333984376,-0.0025198173243552446,-0.00679587060585618,-0.02000582218170166
1772812241528343000,9.134343017578125,0.0005345066892914474,0.005421424750238657,-0.017867794260382652
1772812241538043600,9.144043701171874,0.0011453714687377214,0.01030834298580885,-0.012675444595515728
1772812241547744300,9.153744140625,-0.004963276442140341,0.022220205515623093,0.0025961752980947495
1772812241557444900,9.16344482421875,-0.01718057133257389,0.0322994738817215,0.017562363296747208
1772812241567145500,9.1731455078125,-0.028787001967430115,0.03474293276667595,0.02825249545276165
1772812241576846000,9.18284619140625,-0.033979352563619614,0.025579962879419327,0.02825249545276165
1772812241586546700,9.192546630859376,-0.03367391973733902,0.01000291109085083,0.01847865991294384
1772812241596247300,9.202247314453125,-0.024816380813717842,-0.0058795735239982605,0.007483093533664942
1772812241605948000,9.211947998046876,0.0035888305865228176,-0.013820815831422806,0.0032070400193333626
1772812241615648500,9.2216484375,0.03565923124551773,-0.015042545273900032,0.010842849500477314
1772812241625349000,9.23134912109375,0.0475710928440094,-0.022678354755043983,0.027030766010284424
1772812241635049700,9.2410498046875,0.04176788032054901,-0.021151192486286163,0.0435241162776947
1772812241644750300,9.250750244140624,0.03107774630188942,-0.015347977168858051,0.0435241162776947
1772812241654451000,9.260450927734375,0.017944153398275375,-0.005574141163378954,0.025809036567807198
1772812241664151600,9.270151611328124,0.0017562361899763346,0.004199695307761431,-0.001679878099821508
1772812241673852200,9.27985205078125,-0.02023489587008953,0.010613775812089443,-0.02672533318400383
1772812241683552800,9.289552734375,-0.03306305781006813,0.0191658828407526,-0.045967575162649155
1772812241693253400,9.29925341796875,-0.03275762498378754,0.019471315667033195,-0.0639880821108818
1772812241702954000,9.3089541015625,-0.03153589367866516,0.017944153398275375,-0.07620538026094437
1772812241712654600,9.318654541015626,-0.026038112118840218,0.0243582334369421,-0.07070759683847427
1772812241722355200,9.328355224609375,-0.016875140368938446,0.025579962879419327,-0.0435241162776947
1772812241732055800,9.338055908203126,-0.0058795735239982605,0.011224640533328056,-0.006872228812426329
1772812241741756400,9.34775634765625,0.003894262947142124,-0.01870773360133171,0.01511890348047018
1772812241751457000,9.35745703125,0.011224640533328056,-0.03306305781006813,0.020311253145337105
1772812241761158000,9.367157958984375,0.013973532244563103,-0.009850194677710533,0.018173227086663246
1772812241770858500,9.3768583984375,0.00847574882209301,0.01824958436191082,0.024281874299049377
1772812241780559000,9.38655908203125,0.004505127668380737,0.020082179456949234,0.036804601550102234
1772812241790259700,9.396259765625,0.0005345066892914474,0.008170315995812416,0.04780016839504242
1772812241799960000,9.4059599609375,0.0023671009112149477,0.0017562361899763346,0.04566214233636856
1772812241809660700,9.41566064453125,0.010613775812089443,-0.007101302966475487,0.01847865991294384
1772812241819361500,9.425361572265626,0.020693045109510422,-0.013209951110184193,-0.022449281066656113
1772812241829062100,9.435062255859375,0.028634287416934967,-0.019624030217528343,-0.06612611562013626
1772812241838762800,9.4447626953125,0.027717988938093185,-0.015347977168858051,-0.09605848789215088
1772812241848463400,9.45446337890625,0.017944153398275375,-0.004046979360282421,-0.10766492038965225
1772812241858164000,9.4641640625,0.010919207707047462,-0.007101302966475487,-0.11835505068302155
1772812241867864600,9.473864501953125,0.009697478264570236,-0.015958841890096664,-0.14431680738925934
1772812241877565200,9.483565185546874,0.018860450014472008,-0.004963276442140341,-0.15836669504642487
1772812241887265800,9.493265869140625,0.009086613543331623,0.015195261687040329,-0.1406516134738922
1772812241896966400,9.50296630859375,-0.008017600513994694,0.004810560029000044,-0.11346813291311264
1772812241906667000,9.5126669921875,-0.01779143698513508,0.015806125476956367,-0.07376192510128021
1772812241916367600,9.52236767578125,-0.024510949850082397,0.035964664071798325,-0.03741546720266342
1772812241926068200,9.532068115234376,-0.03367391973733902,0.03810269013047218,-0.004123337101191282
1772812241935768800,9.541768798828125,-0.03672824427485466,0.053374309092760086,0.02825249545276165
1772812241945469400,9.551469482421876,-0.027259841561317444,0.06498073786497116,0.06368265300989151
1772812241955170000,9.561170166015625,-0.019929463043808937,0.05520690605044365,0.09605848789215088
1772812241964870700,9.57087060546875,-0.0034361144062131643,0.028634287416934967,0.11774418503046036
1772812241974571300,9.5805712890625,0.015500693581998348,0.013973532244563103,0.12873975932598114
1772812241984272000,9.59027197265625,0.02893971838057041,-0.01259908638894558,0.11682789027690887
1772812241993972500,9.599972412109375,0.03535379841923714,-0.02542724646627903,0.09239330142736435
1772812242003673000,9.609673095703124,0.03932442143559456,-0.024205517023801804,0.04627300798892975
1772812242013373700,9.619373779296875,0.04146244749426842,-0.013820815831422806,-0.004428769461810589
1772812242023074300,9.62907421875,0.03993528336286545,-0.022678354755043983,-0.052076224237680435
1772812242032775000,9.63877490234375,0.03565923124551773,-0.03061959706246853,-0.0896444097161293
1772812242042475500,9.6484755859375,0.03138317912817001,-0.007406735327094793,-0.11346813291311264
1772812242052176100,9.658176025390626,0.019471315667033195,0.017944153398275375,-0.11652245372533798
1772812242061876700,9.667876708984375,0.000839939049910754,0.02283107116818428,-0.10919208079576492
1772812242071577300,9.677577392578126,-0.019929463043808937,0.017944153398275375,-0.09300415962934494
1772812242081278200,9.6872783203125,-0.03153589367866516,0.013973532244563103,-0.07620538026094437
1772812242090978600,9.696978515625,-0.026038112118840218,0.024663666263222694,-0.05757400393486023
1772812242100679200,9.70667919921875,-0.019013166427612305,0.027717988938093185,-0.03405570983886719
1772812242110379800,9.7163798828125,-0.021456625312566757,0.015500693581998348,-0.005955931730568409
1772812242120080400,9.726080322265625,-0.013515383005142212,0.010919207707047462,0.01695149764418602
1772812242129781000,9.735781005859375,-0.006185005884617567,0.0035888305865228176,0.03588830679655075
1772812242139481900,9.74548193359375,-0.00038179047987796366,-0.0022143847309052944,0.044440411031246185
1772812242149182500,9.755182373046875,0.01000291109085083,-0.008323032408952713,0.0435241162776947
1772812242158883000,9.764883056640626,0.018555017188191414,-0.023594651371240616,0.03558287397027016
1772812242168583700,9.774583740234375,0.02496909722685814,-0.019013166427612305,0.028557928279042244
1772812242178284300,9.7842841796875,0.025579962879419327,-0.007101302966475487,0.023976443335413933
1772812242187985000,9.79398486328125,0.012446369975805283,-0.005574141163378954,0.018784092739224434
1772812242197685200,9.803685302734374,0.002061668550595641,0.004505127668380737,0.012675444595515728
1772812242207386000,9.81338623046875,-0.004046979360282421,0.01611155830323696,-0.001679878099821508
1772812242217086700,9.823086669921874,-0.00679587060585618,0.026801692321896553,-0.009315688163042068
1772812242226787300,9.832787353515625,-0.011988221667706966,0.022525638341903687,-0.01908952370285988
1772812242236488000,9.842488037109375,-0.014431680552661419,0.017333287745714188,-0.020311253145337105
1772812242246188500,9.8521884765625,-0.013515383005142212,0.013362666592001915,-0.020922118797898293
1772812242255889200,9.86188916015625,-0.010155626572668552,0.005421424750238657,-0.027030766010284424
1772812242265589800,9.87158984375,-0.0058795735239982605,0.00511599238961935,-0.03497200831770897
1772812242275290400,9.881290283203125,-0.006185005884617567,0.004199695307761431,-0.036193739622831345
1772812242284991000,9.890990966796876,-0.0058795735239982605,-0.00954476185142994,-0.040775224566459656
1772812242294691600,9.900691650390625,0.004199695307761431,-0.018096869811415672,-0.040775224566459656
1772812242304392200,9.91039208984375,0.014584396965801716,-0.0345902182161808,-0.0435241162776947
1772812242314092800,9.9200927734375,0.024052800610661507,-0.04039343446493149,-0.05604684352874756
1772812242323793400,9.92979345703125,0.029245151206851006,-0.018096869811415672,-0.06643154472112656
1772812242333494000,9.939493896484375,0.020387612283229828,0.003283398225903511,-0.06246092543005943
1772812242343194600,9.949194580078125,-0.0006872228696011007,-0.004046979360282421,-0.044440411031246185
1772812242352895200,9.958895263671875,-0.015958841890096664,0.00847574882209301,0.00045814859913662076
1772812242362595800,9.968595947265625,-0.03000873140990734,0.022220205515623093,0.05238165333867073
1772812242372296400,9.97829638671875,-0.0449749194085598,0.004810560029000044,0.08414662629365921
