time,seconds_elapsed,z,y,x
1772812210108084000,0.110083984375,0,0,0
1772812210117784300,0.119784423828125,0.021269798278808594,-0.036384373903274536,-0.002644181251525879
1772812210127485000,0.12948486328125,0.10313034057617188,-0.048402994871139526,0.02251148223876953
1772812210137185500,0.139185546875,0.18459796905517578,-0.05074596405029297,0.060318946838378906
1772812210146886100,0.14888623046875,0.2630786895751953,-0.0022913217544555664,0.07846987247467041
1772812210156586800,0.158586669921875,0.2916526794433594,0.015533238649368286,0.08566528558731079
1772812210166287400,0.168287353515625,0.2846240997314453,0.033053427934646606,0.04583805799484253
1772812210175988000,0.177988037109375,0.25319385528564453,0.040120333433151245,-0.024815261363983154
1772812210185688600,0.1876884765625,0.17516326904296875,0.05374261736869812,-0.08548027276992798
1772812210195389200,0.19738916015625,0.06622886657714844,0.017327994108200073,-0.10647958517074585
1772812210205089800,0.20708984375,-0.009243965148925781,-0.015531480312347412,-0.08591997623443604
1772812210214790400,0.216790283203125,-0.024736404418945312,-0.012331068515777588,-0.041542232036590576
1772812210224490800,0.22649072265625,-0.09111213684082031,0.01290324330329895,0.00394827127456665
1772812210234191600,0.236191650390625,-0.14099979400634766,0.04776185750961304,0.039739906787872314
1772812210243892000,0.24589208984375,-0.1860513687133789,0.07603737711906433,0.03713494539260864
1772812210253592600,0.255592529296875,-0.1877574920654297,0.0667155385017395,0.07318723201751709
1772812210263293200,0.265293212890625,-0.1935720443725586,0.017991989850997925,0.12082183361053467
1772812210272993800,0.274993896484375,-0.1759624481201172,0.0015103518962860107,0.08428049087524414
1772812210282694400,0.2846943359375,-0.20512866973876953,0.0052821338176727295,0.03528958559036255
1772812210292395000,0.29439501953125,-0.23244476318359375,-0.019945889711380005,0.025173604488372803
1772812210302095600,0.304095703125,-0.2479238510131836,0.010218560695648193,0.005375981330871582
1772812210311796200,0.313796142578125,-0.1537027359008789,0.016239315271377563,-0.04862910509109497
1772812210321496800,0.323496826171875,-0.09922027587890625,0.017792195081710815,-0.12295413017272949
1772812210331197400,0.333197509765625,-0.05381011962890625,0.02559971809387207,-0.23109722137451172
1772812210340898000,0.34289794921875,-0.035465240478515625,-0.0055637359619140625,-0.28463268280029297
1772812210350598400,0.352598388671875,-0.021434783935546875,-0.0185663104057312,-0.23453205823898315
1772812210360299000,0.362299072265625,0.10486125946044922,-0.04531598091125488,-0.1127387285232544
1772812210369999600,0.37199951171875,0.24529075622558594,-0.07006615400314331,0.02892202138900757
1772812210379700200,0.3817001953125,0.3132343292236328,-0.047557055950164795,0.11119908094406128
1772812210389400800,0.39140087890625,0.2962369918823242,-0.003062516450881958,0.15536123514175415
1772812210399101400,0.401101318359375,0.16326618194580078,0.004320025444030762,0.1485201120376587
1772812210408802000,0.410802001953125,0.00099945068359375,-0.000691533088684082,0.14835280179977417
1772812210418502700,0.420502685546875,-0.12621402740478516,-0.030069053173065186,0.1099691390991211
1772812210428203300,0.430203369140625,-0.18837356567382812,-0.022902369499206543,0.08483272790908813
1772812210437904000,0.43990380859375,-0.23403167724609375,-0.018904298543930054,0.0866432785987854
1772812210447604500,0.4496044921875,-0.23337364196777344,-0.009285122156143188,0.10566079616546631
1772812210457304800,0.459304931640625,-0.20726966857910156,0.0011959969997406006,0.05688059329986572
1772812210467005400,0.46900537109375,-0.22273635864257812,0.047097086906433105,-0.017651259899139404
1772812210476706300,0.478706298828125,-0.24265575408935547,0.07636424899101257,-0.05482262372970581
1772812210486406700,0.48840673828125,-0.25061893463134766,0.07381194829940796,-0.08960819244384766
1772812210496107300,0.498107177734375,-0.21072006225585938,0.04811534285545349,-0.10228681564331055
1772812210505808000,0.507807861328125,-0.12758445739746094,0.01385188102722168,-0.07127821445465088
1772812210515508500,0.517508544921875,-0.0406646728515625,0.007201462984085083,-0.0519791841506958
1772812210525209000,0.527208984375,0.12143707275390625,-0.020483583211898804,0.0002065896987915039
1772812210534909700,0.53690966796875,0.2554607391357422,-0.024850457906723022,0.040680527687072754
1772812210544610300,0.5466103515625,0.3388223648071289,-0.005262255668640137,0.055287063121795654
1772812210554311000,0.556310791015625,0.35630321502685547,-0.0263957679271698,0.06405985355377197
1772812210564011300,0.56601123046875,0.29988670349121094,-0.06092113256454468,0.030814528465270996
1772812210573712100,0.575712158203125,0.19091796875,-0.01910722255706787,-0.03691589832305908
1772812210583412700,0.585412841796875,0.06433296203613281,-0.015545129776000977,-0.08988738059997559
1772812210593113000,0.595113037109375,-0.053863525390625,-0.061345577239990234,-0.10498219728469849
1772812210602813700,0.604813720703125,-0.16635704040527344,-0.06823420524597168,-0.10576534271240234
1772812210612514300,0.614514404296875,-0.22873306274414062,-0.03907272219657898,-0.08443009853363037
1772812210622215000,0.62421484375,-0.2665424346923828,-0.0015270113945007324,-0.03636890649795532
1772812210631915500,0.63391552734375,-0.28501415252685547,0.017113804817199707,-0.004211127758026123
1772812210641616100,0.6436162109375,-0.30815601348876953,0.022685080766677856,0.048432111740112305
1772812210651316700,0.653316650390625,-0.25477123260498047,0.019350647926330566,0.09905868768692017
1772812210661017300,0.663017333984375,-0.13545513153076172,0.036464154720306396,0.13915258646011353
1772812210670718000,0.672718017578125,-0.09817218780517578,0.024852752685546875,0.1316293478012085
1772812210680418600,0.68241845703125,-0.025000572204589844,0.01811283826828003,0.059992194175720215
1772812210690119200,0.692119140625,0.0022172927856445312,-0.013235747814178467,0.0016894340515136719
1772812210699819500,0.701819580078125,0.07362651824951172,-0.028462588787078857,-0.009791910648345947
1772812210709520100,0.71152001953125,0.1356954574584961,-0.05351617932319641,-0.007032513618469238
1772812210719220700,0.721220703125,0.20632457733154297,-0.016760557889938354,-0.054827988147735596
1772812210728921300,0.73092138671875,0.18058109283447266,0.013304442167282104,-0.07644689083099365
1772812210738622000,0.7406220703125,0.13295936584472656,0.017783433198928833,-0.07689100503921509
1772812210748322600,0.750322509765625,0.10972976684570312,0.002755075693130493,-0.06134617328643799
1772812210758023200,0.760023193359375,0.0892782211303711,-0.017542868852615356,-0.048459649085998535
1772812210767723800,0.769723876953125,0.035037994384765625,-0.003736734390258789,-0.011955320835113525
1772812210777424400,0.77942431640625,-0.011269569396972656,-0.003306180238723755,0.030292749404907227
1772812210787125000,0.789125,-0.04514122009277344,-0.02070501446723938,0.0707467794418335
1772812210796825600,0.79882568359375,-0.08675384521484375,-0.03809884190559387,0.09619683027267456
1772812210806526000,0.80852587890625,-0.10174942016601562,0.0027542710304260254,0.05239325761795044
1772812210816226800,0.818226806640625,-0.14354324340820312,0.005117267370223999,0.045155882835388184
1772812210825927400,0.827927490234375,-0.24823951721191406,0.004848271608352661,0.02837836742401123
1772812210835627800,0.837627685546875,-0.29251861572265625,0.029897242784500122,0.026273608207702637
1772812210845328400,0.847328369140625,-0.28568172454833984,0.03493887186050415,0.028813064098358154
1772812210855029000,0.857029052734375,-0.1861400604248047,0.027258992195129395,-0.003269791603088379
1772812210864729600,0.8667294921875,-0.03881263732910156,0.009446173906326294,-0.04705911874771118
1772812210874430200,0.87643017578125,0.03679656982421875,0.03121870756149292,-0.09262049198150635
1772812210884130800,0.886130859375,0.10309982299804688,0.048213034868240356,-0.12387430667877197
1772812210893831400,0.89583154296875,0.09899044036865234,0.03626251220703125,-0.13325393199920654
1772812210903532000,0.905531982421875,0.07497501373291016,0.006703674793243408,-0.10267609357833862
1772812210913232600,0.915232666015625,0.08896923065185547,0.00903138518333435,-0.061391353607177734
1772812210922933200,0.924933349609375,0.11095714569091797,0.008916109800338745,-0.011857748031616211
1772812210932633900,0.9346337890625,0.17734527587890625,0.012601643800735474,0.030010879039764404
1772812210942334200,0.944334228515625,0.1662120819091797,0.04594838619232178,0.06084686517715454
1772812210952034800,0.954034912109375,0.07646560668945312,0.037706196308135986,0.07134121656417847
1772812210961735700,0.963735595703125,-0.014130592346191406,0.03791290521621704,0.09095960855484009
1772812210971436000,0.97343603515625,-0.10913848876953125,0.03820037841796875,0.0619087815284729
1772812210981136600,0.98313671875,-0.15557289123535156,0.0483267605304718,0.019299685955047607
1772812210990837200,0.992837158203125,-0.1224679946899414,0.06897121667861938,0.03282362222671509
1772812211000537900,1.002537841796875,-0.08639812469482422,0.0753580629825592,0.043835997581481934
1772812211010238500,1.012238525390625,0.0008363723754882812,0.08481037616729736,0.06538349390029907
1772812211019939000,1.02193896484375,0.0018758773803710938,0.09374731779098511,0.056542158126831055
1772812211029639700,1.0316396484375,-0.020647048950195312,0.10387533903121948,0.02092111110687256
1772812211039340300,1.04134033203125,-0.03215599060058594,0.1041850745677948,-0.05627208948135376
1772812211049040600,1.05104052734375,-0.057537078857421875,0.08251509070396423,-0.10290026664733887
1772812211058741500,1.060741455078125,-0.04013824462890625,0.042336463928222656,-0.11279696226119995
1772812211068442000,1.070442138671875,-0.0007219314575195312,0.0004025101661682129,-0.06662791967391968
1772812211078142500,1.080142578125,0.0933237075805664,-0.03661620616912842,-0.001572251319885254
1772812211087843000,1.089843017578125,0.19649505615234375,-0.020369917154312134,0.05640566349029541
1772812211097543700,1.099543701171875,0.2427511215209961,-0.0004974007606506348,0.09711939096450806
1772812211107244300,1.109244384765625,0.20825672149658203,0.028354734182357788,0.13324373960494995
1772812211116945000,1.11894482421875,0.15432071685791016,0.018883824348449707,0.1672060489654541
1772812211126645500,1.1286455078125,0.09657955169677734,0.02648782730102539,0.16209536790847778
1772812211136346000,1.13834619140625,0.0056972503662109375,0.016426533460617065,0.10044419765472412
1772812211146046700,1.148046630859375,-0.08724021911621094,-0.016550540924072266,0.06837213039398193
1772812211155747300,1.157747314453125,-0.15631961822509766,-0.033838897943496704,0.06042146682739258
1772812211165448000,1.167447998046875,-0.2124958038330078,-0.01747766137123108,0.06383877992630005
1772812211175148500,1.1771484375,-0.29015350341796875,-0.008254319429397583,0.05031830072402954
1772812211184849200,1.18684912109375,-0.3536968231201172,0.004499614238739014,0.027338802814483643
1772812211194549500,1.196549560546875,-0.2963132858276367,-0.0029928982257843018,-0.004735171794891357
1772812211204250400,1.20625048828125,-0.22006511688232422,0.017565488815307617,-0.019738972187042236
1772812211213951000,1.215950927734375,-0.09799766540527344,0.023726165294647217,-0.034793198108673096
1772812211223651300,1.2256513671875,0.053981781005859375,0.026561111211776733,-0.05474168062210083
1772812211233352000,1.23535205078125,0.12938785552978516,0.038104236125946045,-0.043868303298950195
1772812211243052500,1.245052490234375,0.17299461364746094,0.03207704424858093,-0.04222381114959717
1772812211252753200,1.254753173828125,0.22768306732177734,0.00445672869682312,-0.04276299476623535
1772812211262453800,1.264453857421875,0.23320770263671875,0.002559065818786621,-0.06943494081497192
1772812211272154400,1.274154296875,0.23631954193115234,-0.02239137887954712,-0.09173768758773804
1772812211281855000,1.28385498046875,0.20542335510253906,-0.043988317251205444,-0.13127315044403076
1772812211291555600,1.2935556640625,0.14934349060058594,0.003004521131515503,-0.12943923473358154
1772812211301256200,1.303256103515625,0.0295562744140625,-0.0003135204315185547,-0.08359426259994507
1772812211310956800,1.312956787109375,-0.09180450439453125,0.018418699502944946,-0.012477099895477295
1772812211320657400,1.322657470703125,-0.15000438690185547,0.026886433362960815,0.025374650955200195
1772812211330357800,1.332357666015625,-0.1497020721435547,0.0440216064453125,0.033782124519348145
1772812211340058400,1.342058349609375,-0.17899513244628906,0.020804375410079956,0.07304537296295166
1772812211349759000,1.351759033203125,-0.14550113677978516,-0.05236455798149109,0.08863234519958496
1772812211359459600,1.36145947265625,-0.12084579467773438,-0.07938835024833679,0.1255704164505005
1772812211369160200,1.37116015625,-0.1366567611694336,-0.04418313503265381,0.10935097932815552
1772812211378860800,1.38086083984375,-0.10040569305419922,0.027061671018600464,0.05600208044052124
1772812211388561400,1.3905615234375,-0.06593990325927734,0.030222266912460327,-0.026355087757110596
1772812211398262000,1.400261962890625,-0.052086830139160156,0.016732633113861084,-0.10256797075271606
1772812211407962600,1.409962646484375,0.04981040954589844,0.00497204065322876,-0.15217149257659912
1772812211417663200,1.419663330078125,0.10655975341796875,-0.010255575180053711,-0.12132716178894043
1772812211427363800,1.42936376953125,0.16008758544921875,-0.04025104641914368,-0.0439985990524292
1772812211437064400,1.439064453125,0.1433553695678711,-0.049468666315078735,0.014674365520477295
1772812211446765000,1.44876513671875,0.1587200164794922,-0.01764047145843506,0.03231245279312134
1772812211456465700,1.458465576171875,0.11850738525390625,0.010545849800109863,0.020847320556640625
1772812211466166300,1.468166259765625,0.0647745132446289,0.001248478889465332,0.015328705310821533
1772812211475866600,1.47786669921875,0.024896621704101562,-0.03081241250038147,0.013441860675811768
1772812211485567200,1.487567138671875,0.006896018981933594,-0.026238083839416504,0.021902859210968018
1772812211495267800,1.497267822265625,-0.06021881103515625,-0.039297133684158325,0.026719868183135986
1772812211504968400,1.506968505859375,-0.07443904876708984,-0.021235913038253784,0.01002424955368042
1772812211514669000,1.5166689453125,-0.12607955932617188,-0.004739999771118164,-0.025533080101013184
1772812211524369700,1.52636962890625,-0.1580820083618164,0.01679307222366333,-0.03244298696517944
1772812211534070300,1.5360703125,-0.17314815521240234,0.01886656880378723,-0.020446360111236572
1772812211543771000,1.54577099609375,-0.15155315399169922,0.010634690523147583,-0.012063682079315186
1772812211553471500,1.555471435546875,-0.08916282653808594,0.023552417755126953,-0.001607060432434082
1772812211563172000,1.565172119140625,-0.01963329315185547,0.027983129024505615,0.030533552169799805
1772812211572872700,1.574872802734375,0.01575756072998047,0.025597959756851196,0.05706310272216797
1772812211582573300,1.5845732421875,0.025923728942871094,-0.005815416574478149,0.030902326107025146
1772812211592273700,1.594273681640625,0.0465850830078125,-0.014053821563720703,0.0022696256637573242
1772812211601974500,1.603974609375,0.016330718994140625,0.0297393798828125,-0.04492384195327759
1772812211611675100,1.613675048828125,0.001880645751953125,0.02780744433403015,-0.08113479614257812
1772812211621375500,1.62337548828125,0.07353401184082031,0.012281030416488647,-0.07079875469207764
1772812211631076000,1.633076171875,0.10865974426269531,0.024607092142105103,-0.052881836891174316
1772812211640776700,1.642776611328125,0.1691579818725586,-0.013559341430664062,-0.03539937734603882
1772812211650477300,1.652477294921875,0.19226455688476562,-0.009802371263504028,-0.01371675729751587
1772812211660178000,1.662177978515625,0.0997161865234375,-0.05368727445602417,0.0008844733238220215
1772812211669878500,1.67187841796875,0.03112506866455078,-0.02765601873397827,-0.024204373359680176
1772812211679579100,1.6815791015625,-0.018604278564453125,0.028197824954986572,-0.02294743061065674
1772812211689279700,1.69127978515625,-0.06054973602294922,0.024103432893753052,0.0014837980270385742
1772812211698980400,1.70098046875,-0.09487533569335938,0.009074866771697998,0.035046517848968506
1772812211708681000,1.710680908203125,-0.061554908752441406,-0.0031754374504089355,0.032519757747650146
1772812211718381600,1.720381591796875,-0.07465648651123047,-0.00317499041557312,0.015645146369934082
1772812211728082000,1.73008203125,-0.11815738677978516,0.014169901609420776,-0.01857602596282959
1772812211737782500,1.739782470703125,-0.16326045989990234,0.03521621227264404,-0.0319366455078125
1772812211747483100,1.749483154296875,-0.1546640396118164,0.041792482137680054,-0.05775582790374756
1772812211757183700,1.759183837890625,-0.15096664428710938,0.009980946779251099,-0.04198652505874634
1772812211766884400,1.76888427734375,-0.056793212890625,-0.015231460332870483,-0.01414501667022705
1772812211776585000,1.7785849609375,0.056896209716796875,-0.05687755346298218,0.07955282926559448
1772812211786285600,1.78828564453125,0.14513397216796875,-0.05710941553115845,0.13179808855056763
1772812211795986200,1.797986083984375,0.19782733917236328,-0.021085292100906372,0.14940309524536133
1772812211805686800,1.807686767578125,0.1755657196044922,0.03128311038017273,0.09863471984863281
1772812211815387400,1.817387451171875,0.12074470520019531,0.053755372762680054,0.04417639970779419
1772812211825088000,1.827087890625,0.0633382797241211,0.0592704713344574,0.004423618316650391
1772812211834788600,1.83678857421875,0.01988506317138672,0.0507446825504303,-0.03297299146652222
1772812211844489200,1.8464892578125,-0.009862899780273438,0.047495484352111816,-0.05623370409011841
1772812211854189800,1.85618994140625,-0.033234596252441406,0.021300673484802246,-0.06631350517272949
1772812211863890400,1.865890380859375,-0.042099952697753906,0.0017918050289154053,-0.048112690448760986
1772812211873591000,1.875591064453125,-0.05319404602050781,-0.004263460636138916,-0.03708183765411377
1772812211883291400,1.88529150390625,-0.08530330657958984,-0.012250244617462158,0.016295015811920166
1772812211892992000,1.894991943359375,-0.09450912475585938,0.01223742961883545,0.008402764797210693
1772812211902692600,1.904692626953125,-0.0894613265991211,0.06965693831443787,-0.0032518506050109863
1772812211912393200,1.914393310546875,-0.06808185577392578,0.10314527153968811,-0.03940236568450928
1772812211922093800,1.92409375,-0.025880813598632812,0.07930299639701843,-0.08235049247741699
1772812211931794400,1.93379443359375,0.06866741180419922,0.06416448950767517,-0.12115752696990967
1772812211941495000,1.9434951171875,0.1182088851928711,0.020833462476730347,-0.08349978923797607
1772812211951195600,1.953195556640625,0.1387319564819336,-0.03690171241760254,-0.0179593563079834
1772812211960896300,1.962896240234375,0.17426395416259766,-0.04289361834526062,0.06191897392272949
1772812211970596900,1.972596923828125,0.16212844848632812,-0.02829483151435852,0.12249058485031128
1772812211980297500,1.98229736328125,0.11720943450927734,-0.001324474811553955,0.1583968997001648
1772812211989998000,1.991998046875,0.0871896743774414,0.016203999519348145,0.13129496574401855
1772812211999698700,2.00169873046875,0.03767585754394531,0.03694659471511841,0.08462566137313843
1772812212009399300,2.0113994140625,-0.04279136657714844,0.012093663215637207,0.04693871736526489
1772812212019100000,2.021099853515625,-0.08547496795654297,-0.0018094778060913086,0.01568204164505005
1772812212028800300,2.03080029296875,-0.14746761322021484,-0.03264486789703369,0.003407001495361328
1772812212038500900,2.0405009765625,-0.18021202087402344,-0.03400838375091553,-0.025654911994934082
1772812212048201500,2.050201416015625,-0.1994647979736328,-0.012111961841583252,-0.048025310039520264
1772812212057902000,2.059902099609375,-0.1712808609008789,0.018386423587799072,-0.07728958129882812
1772812212067602700,2.069602783203125,-0.08591938018798828,0.024527251720428467,-0.04871535301208496
1772812212077303300,2.07930322265625,-0.03264045715332031,-0.026077687740325928,-0.010298669338226318
1772812212087004000,2.08900390625,0.05973529815673828,-0.03801986575126648,0.0303838849067688
1772812212096704500,2.09870458984375,0.11767005920410156,-0.004165679216384888,0.03401976823806763
1772812212106405000,2.108405029296875,0.12994003295898438,0.019536852836608887,0.06273311376571655
1772812212116105700,2.118105712890625,0.09022808074951172,0.0005522072315216064,0.04560929536819458
1772812212125806300,2.127806396484375,0.03941154479980469,-0.029156774282455444,0.02074378728866577
1772812212135507000,2.1375068359375,-0.015270233154296875,-0.06664009392261505,-0.02715998888015747
1772812212145207600,2.14720751953125,-0.03370475769042969,-0.05618128180503845,-0.05835437774658203
1772812212154908200,2.156908203125,-0.06940746307373047,-0.05609250068664551,-0.05939382314682007
1772812212164608800,2.16660888671875,-0.10216045379638672,-0.07058730721473694,-0.05832928419113159
1772812212174309000,2.17630908203125,-0.14153003692626953,-0.05547147989273071,-0.005940854549407959
1772812212184009700,2.186009765625,-0.15682029724121094,-0.047914713621139526,0.01936650276184082
1772812212193710300,2.19571044921875,-0.12481021881103516,-0.045330196619033813,0.03698080778121948
1772812212203411000,2.205410888671875,-0.11806011199951172,-0.013705611228942871,0.044843196868896484
1772812212213111600,2.215111572265625,-0.11149311065673828,0.026788175106048584,0.04830139875411987
1772812212222812200,2.224812255859375,-0.11806106567382812,0.02092719078063965,0.055722713470458984
1772812212232512800,2.2345126953125,-0.0869607925415039,-0.012232422828674316,0.04611903429031372
1772812212242213400,2.24421337890625,-0.008187294006347656,-0.030812084674835205,0.03610175848007202
1772812212251914000,2.2539140625,0.05401039123535156,-0.04502066969871521,-0.012687921524047852
1772812212261614600,2.263614501953125,0.12347221374511719,-0.013220325112342834,-0.051528751850128174
1772812212271315200,2.273315185546875,0.1553955078125,0.0188463032245636,-0.09963876008987427
1772812212281015800,2.283015869140625,0.16100215911865234,0.009008437395095825,-0.12055927515029907
1772812212290716200,2.292716064453125,0.12068367004394531,0.024280637502670288,-0.11437058448791504
1772812212300417000,2.3024169921875,0.07284927368164062,0.030440211296081543,-0.08039736747741699
1772812212310117600,2.31211767578125,0.010549545288085938,0.03062993288040161,-0.06380492448806763
1772812212319818000,2.32181787109375,-0.03186607360839844,0.03492933511734009,-0.04085958003997803
1772812212329518600,2.3315185546875,-0.034768104553222656,0.06945294141769409,-0.02542203664779663
1772812212339219200,2.34121923828125,-0.03883838653564453,0.06872895359992981,0.024150967597961426
1772812212348919800,2.350919921875,-0.004050254821777344,0.049070537090301514,0.04626685380935669
1772812212358620400,2.360620361328125,0.01955890655517578,0.04712337255477905,0.07408547401428223
1772812212368321000,2.370321044921875,0.020418167114257812,0.020252197980880737,0.09331315755844116
1772812212378021600,2.380021728515625,0.008319854736328125,-0.012518182396888733,0.0900489091873169
1772812212387722200,2.38972216796875,0.017571449279785156,-0.016019299626350403,0.10262477397918701
1772812212397422800,2.3994228515625,0.010206222534179688,-0.05745585262775421,0.09383225440979004
1772812212407123500,2.40912353515625,0.013556480407714844,-0.0459664911031723,0.10264581441879272
1772812212416824000,2.418823974609375,0.0014963150024414062,0.028329700231552124,0.06239038705825806
1772812212426524700,2.428524658203125,-0.030409812927246094,0.04596094787120819,0.058341920375823975
1772812212436225300,2.438225341796875,-0.013562202453613281,0.04616279900074005,0.001454472541809082
1772812212445926000,2.44792578125,0.028924942016601562,0.028950735926628113,-0.04553645849227905
1772812212455626500,2.45762646484375,0.08146476745605469,0.02070985734462738,-0.10758358240127563
1772812212465327000,2.4673271484375,0.12267017364501953,0.010501816868782043,-0.14505302906036377
1772812212475027500,2.47702734375,0.1066732406616211,-0.05596938729286194,-0.12113320827484131
1772812212484728000,2.48672802734375,0.08849716186523438,-0.07657209038734436,-0.057468295097351074
1772812212494428700,2.4964287109375,0.09176349639892578,-0.07556197047233582,-0.022418498992919922
1772812212504129300,2.50612939453125,0.0679330825805664,-0.04255416989326477,0.02741008996963501
1772812212513830000,2.515829833984375,0.03981971740722656,-0.0016500651836395264,0.07166075706481934
1772812212523530500,2.525530517578125,-0.0149078369140625,0.025242403149604797,0.12497347593307495
1772812212533231000,2.535231201171875,-0.0770111083984375,0.024102583527565002,0.12252247333526611
1772812212542931700,2.544931640625,-0.11690807342529297,0.022984087467193604,0.08925914764404297
1772812212552632300,2.55463232421875,-0.17028236389160156,0.010523080825805664,0.02228492498397827
1772812212562333000,2.5643330078125,-0.18628978729248047,0.007703229784965515,-0.027804017066955566
1772812212572033500,2.574033447265625,-0.1738109588623047,-0.0015336424112319946,-0.055000364780426025
1772812212581734100,2.583734130859375,-0.1427288055419922,-0.02555599808692932,-0.046684205532073975
1772812212591434500,2.5934345703125,-0.06746482849121094,-0.016494452953338623,-0.025710225105285645
1772812212601135400,2.60313525390625,-0.0064144134521484375,0.024318739771842957,0.0010025501251220703
1772812212610836000,2.6128359375,0.06417655944824219,0.0204465389251709,0.031292498111724854
1772812212620536300,2.622536376953125,0.12180042266845703,0.0214499831199646,0.029884040355682373
1772812212630237000,2.63223681640625,0.19378376007080078,-0.005591168999671936,0.020495831966400146
1772812212639937500,2.6419375,0.24343585968017578,-0.05250999331474304,0.001970827579498291
1772812212649638100,2.65163818359375,0.24292564392089844,-0.06013549864292145,-0.004705607891082764
1772812212659338800,2.6613388671875,0.20717620849609375,-0.05404449999332428,-0.030212581157684326
1772812212669039400,2.671039306640625,0.12261581420898438,-0.018577679991722107,-0.06331473588943481
1772812212678740000,2.680739990234375,0.006534576416015625,-0.0034119635820388794,-0.06072115898132324
1772812212688440600,2.690440673828125,-0.08410453796386719,-0.002891853451728821,-0.0675315260887146
1772812212698141200,2.70014111328125,-0.12616348266601562,0.0038142502307891846,-0.049986958503723145
1772812212707841800,2.709841796875,-0.1510019302368164,0.03303486108779907,-0.0418848991394043
1772812212717542400,2.71954248046875,-0.1612710952758789,0.0316074937582016,-0.011206388473510742
1772812212727243000,2.729242919921875,-0.1514730453491211,0.009610801935195923,0.017286181449890137
1772812212736943600,2.738943603515625,-0.15375804901123047,0.002186909317970276,0.04083871841430664
1772812212746644000,2.74864404296875,-0.1042795181274414,0.01234889030456543,0.05829960107803345
1772812212756344800,2.7583447265625,-0.04971885681152344,0.0003888159990310669,0.05867213010787964
1772812212766045400,2.76804541015625,-0.007849693298339844,0.0036004483699798584,0.04050004482269287
1772812212775745800,2.777745849609375,0.022749900817871094,0.011104494333267212,0.01786649227142334
1772812212785446400,2.7874462890625,0.04467201232910156,0.005025744438171387,-0.0038338899612426758
1772812212795147000,2.79714697265625,0.1133432388305664,-0.024132296442985535,-0.04324233531951904
1772812212804847600,2.80684765625,0.1290903091430664,-0.05202440917491913,-0.056765615940093994
1772812212814548200,2.81654833984375,0.1576385498046875,-0.019928544759750366,-0.08986485004425049
1772812212824248800,2.826248779296875,0.19077301025390625,-0.06938621401786804,-0.11876249313354492
1772812212833949400,2.835949462890625,0.1586465835571289,-0.05330035090446472,-0.018651485443115234
1772812212843650000,2.845650146484375,-0.03449821472167969,0.06420078873634338,0.019120395183563232
1772812212853350700,2.8553505859375,-0.025735855102539062,-0.060208648443222046,0.03041696548461914
1772812212863051300,2.86505126953125,-0.012396812438964844,-0.10509378463029861,0.07784503698348999
1772812212872751900,2.874751953125,-0.01688385009765625,0.013719961047172546,0.07710206508636475
1772812212882452500,2.884452392578125,-0.0377044677734375,0.021497130393981934,0.03563159704208374
1772812212892152800,2.89415283203125,-0.07231998443603516,0.01698337495326996,0.06785321235656738
1772812212901853700,2.903853759765625,-0.12171649932861328,-0.004255399107933044,0.058843016624450684
1772812212911554300,2.91355419921875,-0.11264228820800781,0.01730741560459137,0.03087705373764038
1772812212921255000,2.9232548828125,-0.14841938018798828,-0.034380242228507996,0.038307785987854004
1772812212930955300,2.932955322265625,-0.1600961685180664,-0.06761828064918518,0.09386003017425537
1772812212940655900,2.94265576171875,-0.1481494903564453,-0.07690803706645966,0.1434727907180786
1772812212950356500,2.9523564453125,-0.11653709411621094,-0.02418343722820282,0.16299408674240112
1772812212960057000,2.96205712890625,-0.043212890625,0.014949962496757507,0.13162857294082642
1772812212969757700,2.9717578125,0.0265655517578125,0.03805336356163025,0.054637134075164795
1772812212979458300,2.981458251953125,0.0941171646118164,0.04492159187793732,-0.03980153799057007
1772812212989159000,2.991158935546875,0.08763885498046875,0.08930101990699768,-0.15774857997894287
1772812212998859500,3.000859619140625,0.150787353515625,0.05837659537792206,-0.22772479057312012
1772812213008560000,3.01056005859375,0.1635456085205078,-0.027585595846176147,-0.22528105974197388
1772812213018260700,3.0202607421875,0.19975662231445312,-0.07660277187824249,-0.17688053846359253
1772812213027961300,3.02996142578125,0.22487831115722656,-0.08105666935443878,-0.10173410177230835
1772812213037662000,3.039661865234375,0.17077255249023438,-0.036607012152671814,-0.020583748817443848
1772812213047362300,3.0493623046875,0.1246194839477539,0.0025570839643478394,0.037181973457336426
1772812213057063200,3.059063232421875,0.06041240692138672,-0.00868166983127594,0.0929100513458252
1772812213066763800,3.068763671875,-0.025144577026367188,-0.0219038724899292,0.10725629329681396
1772812213076464400,3.07846435546875,-0.08936786651611328,-0.011510193347930908,0.1256781816482544
1772812213086164700,3.088164794921875,-0.1255474090576172,-0.03313419222831726,0.12569260597229004
1772812213095865300,3.097865234375,-0.13529205322265625,-0.031138598918914795,0.11308389902114868
1772812213105566000,3.10756591796875,-0.12245845794677734,-0.00725632905960083,0.07043564319610596
1772812213115266600,3.1172666015625,-0.0827484130859375,-0.011279746890068054,0.05976182222366333
1772812213124967200,3.12696728515625,-0.09201240539550781,-0.015656501054763794,0.018154144287109375
1772812213134667800,3.136667724609375,-0.07529544830322266,-0.008275806903839111,-0.0012493133544921875
1772812213144368400,3.146368408203125,-0.031775474548339844,0.012476727366447449,-0.05479729175567627
1772812213154069000,3.156069091796875,0.005145072937011719,0.0008471757173538208,-0.07573205232620239
1772812213163769600,3.16576953125,0.030870437622070312,-0.002956867218017578,-0.06447911262512207
1772812213173470200,3.17547021484375,0.06795501708984375,-0.023084551095962524,-0.036973774433135986
1772812213183170800,3.1851708984375,0.11388397216796875,0.00867016613483429,-0.05368077754974365
1772812213192871400,3.194871337890625,0.11670970916748047,0.010394230484962463,-0.052322328090667725
1772812213202572000,3.204572021484375,0.08773231506347656,-0.009524598717689514,-0.054497599601745605
1772812213212272600,3.214272705078125,0.033390045166015625,0.008653700351715088,-0.08525437116622925
1772812213221973200,3.22397314453125,-0.0012187957763671875,0.0025205910205841064,-0.08277386426925659
1772812213231673900,3.233673828125,-0.048191070556640625,-0.03590849041938782,-0.033425867557525635
1772812213241374200,3.243374267578125,-0.07197380065917969,-0.05457735061645508,-0.03731954097747803
1772812213251074800,3.25307470703125,-0.09290409088134766,-0.05228099226951599,-0.04360616207122803
1772812213260775700,3.262775634765625,-0.07933807373046875,0.0014769285917282104,-0.020921826362609863
1772812213270476000,3.27247607421875,-0.0848398208618164,0.027120351791381836,0.04603499174118042
1772812213280176600,3.2821767578125,-0.043285369873046875,0.039899662137031555,0.09161365032196045
1772812213289877200,3.291877197265625,-0.022573471069335938,0.025424331426620483,0.1333627700805664
1772812213299577900,3.301577880859375,-0.0011425018310546875,-0.0021564364433288574,0.16277748346328735
1772812213309278500,3.311278564453125,0.03634452819824219,-0.007723882794380188,0.1560521125793457
1772812213318979000,3.32097900390625,0.06378555297851562,0.00469033420085907,0.1132933497428894
1772812213328679700,3.3306796875,0.05316734313964844,0.01167193055152893,0.042646944522857666
1772812213338380300,3.34038037109375,0.06396675109863281,-0.01695232093334198,-0.012178659439086914
1772812213348081000,3.350080810546875,0.05341148376464844,-0.021569103002548218,-0.03433948755264282
1772812213357781500,3.359781494140625,0.056018829345703125,-0.016997218132019043,-0.08595520257949829
1772812213367482000,3.369482177734375,0.06100654602050781,-0.04086998105049133,-0.12331652641296387
1772812213377182700,3.3791826171875,0.03651142120361328,-0.05489644408226013,-0.12257272005081177
1772812213386883300,3.38888330078125,0.007746696472167969,-0.01900431513786316,-0.11984699964523315
1772812213396583700,3.398583740234375,-0.009915351867675781,-0.019416481256484985,-0.12480610609054565
1772812213406284300,3.4082841796875,-0.05316638946533203,-0.008322268724441528,-0.12637406587600708
1772812213415985200,3.417985107421875,-0.05566215515136719,0.010338172316551208,-0.0825885534286499
1772812213425685500,3.427685546875,-0.0369110107421875,0.011141151189804077,-0.04220038652420044
1772812213435386000,3.43738623046875,-0.05260753631591797,0.002326399087905884,0.035394370555877686
1772812213445086700,3.447086669921875,-0.028051376342773438,-0.019539684057235718,0.04715371131896973
1772812213454787300,3.456787353515625,-0.02046489715576172,-0.008507058024406433,0.09155279397964478
1772812213464488000,3.466488037109375,-0.038964271545410156,0.0019216835498809814,0.11263608932495117
1772812213474188500,3.4761884765625,-0.03249073028564453,-0.009157642722129822,0.10327863693237305
1772812213483889200,3.48588916015625,-0.03207588195800781,-0.0061849504709243774,0.13720685243606567
1772812213493589800,3.49558984375,-0.0693368911743164,-0.0321003794670105,0.13684290647506714
1772812213503290400,3.505290283203125,-0.08235836029052734,-0.01567639410495758,0.10005998611450195
1772812213512991000,3.514990966796875,-0.09049797058105469,0.029301434755325317,0.014481186866760254
1772812213522691600,3.524691650390625,-0.12684059143066406,0.06714458763599396,-0.038428425788879395
1772812213532392200,3.53439208984375,-0.06484031677246094,0.0682687908411026,-0.11177927255630493
1772812213542092800,3.5440927734375,0.0103759765625,0.032078132033348083,-0.15717262029647827
1772812213551793200,3.553793212890625,0.04555511474609375,0.019546493887901306,-0.14094996452331543
1772812213561493800,3.56349365234375,0.0824880599975586,-0.030377477407455444,-0.08808064460754395
1772812213571194600,3.573194580078125,0.10936164855957031,-0.06444399058818817,-0.002486884593963623
1772812213580895000,3.58289501953125,0.12405681610107422,-0.01987530291080475,0.019140899181365967
1772812213590595600,3.592595703125,0.15963268280029297,0.015474528074264526,0.058910906314849854
1772812213600296200,3.602296142578125,0.1533832550048828,0.02535669505596161,0.08952867984771729
1772812213609996800,3.611996826171875,0.14017009735107422,-0.007797017693519592,0.10601818561553955
1772812213619697400,3.621697509765625,0.11073017120361328,-0.023964926600456238,0.07283371686935425
1772812213629398000,3.63139794921875,0.03594779968261719,-0.045043766498565674,0.02686375379562378
1772812213639098600,3.6410986328125,-0.04814720153808594,-0.019492313265800476,-0.00812608003616333
1772812213648799200,3.65079931640625,-0.1308584213256836,-0.010741233825683594,-0.035565078258514404
1772812213658499800,3.660499755859375,-0.17812442779541016,-0.0260382741689682,-0.022489309310913086
1772812213668200400,3.670200439453125,-0.1858367919921875,-0.01813320815563202,0.0023342370986938477
1772812213677901000,3.679901123046875,-0.1687774658203125,0.009924501180648804,-0.0011777877807617188
1772812213687601700,3.6896015625,-0.13790321350097656,0.027952104806900024,-0.0023090243339538574
1772812213697302300,3.69930224609375,-0.07926559448242188,0.05598264932632446,-0.02292799949645996
1772812213707002600,3.709002685546875,-0.02156543731689453,0.07100038230419159,-0.041366517543792725
1772812213716703500,3.718703369140625,0.02931976318359375,0.07962068915367126,-0.0526694655418396
1772812213726404000,3.728404052734375,0.07582569122314453,0.03449568152427673,-0.07067090272903442
1772812213736104700,3.738104736328125,0.1403331756591797,-0.013913720846176147,-0.03923487663269043
1772812213745805000,3.74780517578125,0.16846942901611328,-0.03583177924156189,-0.0418168306350708
1772812213755505700,3.757505615234375,0.1927165985107422,-0.06115427613258362,-0.04494529962539673
1772812213765206300,3.767206298828125,0.16487598419189453,-0.02070850133895874,-0.05671966075897217
1772812213774907000,3.776906982421875,0.10105323791503906,0.024243667721748352,-0.04250913858413696
1772812213784607500,3.786607421875,0.02420806884765625,0.02037253975868225,-0.034755825996398926
1772812213794308000,3.79630810546875,-0.061944007873535156,0.015971243381500244,-0.01900660991668701
1772812213804008700,3.8060087890625,-0.12197017669677734,0.03901948034763336,0.012754440307617188
1772812213813709300,3.815709228515625,-0.13522720336914062,0.0259675532579422,0.023572683334350586
1772812213823410000,3.825409912109375,-0.17787551879882812,-0.005641460418701172,0.05375945568084717
1772812213833110500,3.835110595703125,-0.16101551055908203,-0.021450430154800415,0.0340113639831543
1772812213842811100,3.84481103515625,-0.11962890625,-0.005371585488319397,-0.03271001577377319
1772812213852511700,3.85451171875,-0.10715007781982422,0.037335947155952454,-0.0446476936340332
1772812213862212400,3.86421240234375,-0.0702047348022461,0.023500338196754456,0.0073361992835998535
1772812213871913000,3.873912841796875,-0.023283004760742188,0.00024512410163879395,0.0408247709274292
1772812213881613600,3.883613525390625,0.02639007568359375,0.01681537926197052,0.03741145133972168
1772812213891314200,3.893314208984375,0.012857437133789062,0.031825095415115356,0.02377641201019287
1772812213901014500,3.9030146484375,-0.027507781982421875,0.05614037811756134,0.02089977264404297
1772812213910715100,3.912715087890625,-0.04946136474609375,0.028969362378120422,-0.0137062668800354
1772812213920415700,3.922415771484375,-0.059210777282714844,0.058904290199279785,-0.038285911083221436
1772812213930116600,3.93211669921875,-0.04529762268066406,0.07182024419307709,-0.02708965539932251
1772812213939817000,3.94181689453125,0.03299522399902344,0.05032053589820862,0.03796333074569702
1772812213949517600,3.951517578125,0.14876365661621094,0.02391381561756134,0.05461764335632324
1772812213959218200,3.96121826171875,0.24143123626708984,-0.0027238130569458008,0.07162964344024658
1772812213968918800,3.970918701171875,0.2608470916748047,0.008154243230819702,0.058985114097595215
1772812213978619400,3.980619384765625,0.2611989974975586,0.017782926559448242,0.008511006832122803
1772812213988320000,3.990320068359375,0.19925594329833984,0.029161617159843445,0.00211942195892334
1772812213998020600,4.0000205078125,0.12899303436279297,0.03233952820301056,-0.016329050064086914
1772812214007721200,4.00972119140625,0.05405616760253906,-0.000019341707229614258,-0.013578593730926514
1772812214017421800,4.019421875,-0.006670951843261719,-0.00021129846572875977,-0.006310582160949707
1772812214027122400,4.029122314453125,-0.07700157165527344,-0.02570033073425293,0.002235889434814453
1772812214036823000,4.038822998046875,-0.16619396209716797,-0.03061923384666443,0.01304483413696289
1772812214046523600,4.048523681640625,-0.21040916442871094,-0.008742928504943848,0.042357027530670166
1772812214056224300,4.058224365234375,-0.25274085998535156,0.047400206327438354,0.056596338748931885
1772812214065924600,4.067924560546875,-0.23914623260498047,0.08706203103065491,0.0551723837852478
1772812214075625500,4.07762548828125,-0.20821475982666016,0.076986163854599,0.0433732271194458
1772812214085326000,4.087326171875,-0.08129119873046875,0.08226244151592255,-0.007746100425720215
1772812214095026400,4.0970263671875,0.04247283935546875,0.0798788070678711,-0.03930044174194336
1772812214104727000,4.10672705078125,0.11484241485595703,0.023991450667381287,-0.04953557252883911
1772812214114427600,4.116427734375,0.17548465728759766,0.005797982215881348,-0.045660436153411865
1772812214124128300,4.126128173828125,0.21748733520507812,-0.017105907201766968,0.0033725500106811523
1772812214133828900,4.135828857421875,0.21876049041748047,-0.03858865797519684,0.027858316898345947
1772812214143529500,4.145529541015625,0.1929178237915039,-0.06652788817882538,0.0317116379737854
1772812214153230000,4.15522998046875,0.14982891082763672,-0.045252785086631775,0.021071016788482666
1772812214162930700,4.1649306640625,0.08624458312988281,-0.04400196671485901,0.014844715595245361
1772812214172631300,4.17463134765625,0.0025615692138671875,-0.0273037850856781,-0.009123742580413818
1772812214182332000,4.184331787109375,-0.060837745666503906,-0.0449599027633667,-0.0584259033203125
1772812214192032500,4.194032470703125,-0.1385059356689453,-0.04052919149398804,-0.09528255462646484
1772812214201733000,4.203733154296875,-0.17487716674804688,-0.018782317638397217,-0.07453519105911255
1772812214211433700,4.213433837890625,-0.14822864532470703,0.002161860466003418,-0.0589216947555542
1772812214221134300,4.22313427734375,-0.10556411743164062,0.009758949279785156,0.0009155869483947754
1772812214230835000,4.2328349609375,-0.1037302017211914,-0.027157172560691833,0.08216410875320435
1772812214240535600,4.24253564453125,-0.059658050537109375,-0.025996118783950806,0.12656062841415405
1772812214250236200,4.252236083984375,-0.02696514129638672,-0.040544942021369934,0.14625275135040283
1772812214259936500,4.2619365234375,-0.024265289306640625,0.002412170171737671,0.0979035496711731
1772812214269637000,4.27163720703125,-0.014554977416992188,0.009294956922531128,0.0104103684425354
1772812214279337700,4.281337646484375,0.0008831024169921875,0.00206911563873291,-0.027513861656188965
1772812214289038300,4.291038330078125,-0.00038051605224609375,-0.018375664949417114,-0.07555204629898071
1772812214298739000,4.300739013671875,0.024321556091308594,-0.02485308051109314,-0.09390091896057129
1772812214308439600,4.310439453125,0.025145530700683594,-0.025034219026565552,-0.0903899073600769
1772812214318140200,4.32014013671875,0.008304595947265625,-0.017242074012756348,-0.08798646926879883
1772812214327840800,4.3298408203125,-0.001178741455078125,-0.02208659052848816,-0.06594598293304443
1772812214337541400,4.339541259765625,-0.0069751739501953125,-0.012501507997512817,-0.05728071928024292
1772812214347242000,4.349241943359375,-0.023276329040527344,-0.011139243841171265,-0.0016168951988220215
1772812214356942600,4.358942626953125,-0.0005178451538085938,-0.025335252285003662,0.061820268630981445
1772812214366643200,4.368643310546875,0.000652313232421875,-0.03261607885360718,0.07996785640716553
1772812214376343800,4.37834375,0.03358650207519531,-0.02003765106201172,0.0741615891456604
1772812214386044400,4.38804443359375,0.05418968200683594,-0.005748003721237183,0.08289194107055664
1772812214395745000,4.3977451171875,0.04034614562988281,-0.032128751277923584,0.05734199285507202
1772812214405445600,4.407445556640625,0.049129486083984375,-0.019354552030563354,0.04706680774688721
1772812214415146200,4.417146240234375,0.03307151794433594,-0.002038717269897461,0.04505908489227295
1772812214424846600,4.4268466796875,0.000789642333984375,0.00017514824867248535,0.03729653358459473
1772812214434547200,4.436547119140625,-0.027436256408691406,-0.01627609133720398,0.03914159536361694
1772812214444248000,4.446248046875,-0.039908409118652344,0.011459439992904663,0.01860719919204712
1772812214453948400,4.455948486328125,-0.021622657775878906,0.03506183624267578,0.0271032452583313
1772812214463649000,4.46564892578125,0.00341796875,0.03085198998451233,0.02966707944869995
1772812214473349600,4.475349609375,0.023342132568359375,0.0365830659866333,-0.020579397678375244
1772812214483050200,4.48505029296875,0.028858184814453125,0.045421600341796875,-0.047978341579437256
1772812214492750800,4.494750732421875,0.031963348388671875,0.05292627215385437,-0.06939202547073364
1772812214502451500,4.504451416015625,0.02679157257080078,0.049674004316329956,-0.063487708568573
1772812214512152000,4.514152099609375,-0.004172325134277344,0.042943984270095825,-0.051835715770721436
1772812214521852700,4.523852783203125,-0.00518035888671875,0.022514641284942627,-0.05842846632003784
1772812214531553300,4.53355322265625,-0.033249855041503906,0.011005669832229614,-0.0436328649520874
1772812214541254000,4.54325390625,-0.044403076171875,-0.005861937999725342,-0.06071382761001587
1772812214550954500,4.55295458984375,-0.049477577209472656,-0.02536827325820923,-0.05665004253387451
1772812214560655000,4.562655029296875,-0.05684947967529297,-0.006429225206375122,-0.06425595283508301
1772812214570355700,4.572355712890625,-0.048857688903808594,-0.028848916292190552,-0.03474384546279907
1772812214580056300,4.582056396484375,-0.004540443420410156,-0.05855265259742737,0.04639202356338501
1772812214589757000,4.5917568359375,0.014288902282714844,-0.07782541215419769,0.10217839479446411
1772812214599457500,4.60145751953125,0.0068836212158203125,-0.06680499017238617,0.12475323677062988
1772812214609158100,4.611158203125,0.021940231323242188,-0.020850837230682373,0.11774176359176636
1772812214618858500,4.6208583984375,0.02501392364501953,0.033493250608444214,0.025467514991760254
1772812214628559000,4.63055908203125,0.01981067657470703,0.048855721950531006,-0.032700538635253906
1772812214638259700,4.640259765625,0.048888206481933594,0.030662477016448975,-0.09415018558502197
1772812214647960600,4.649960693359375,0.09876060485839844,-0.007684886455535889,-0.07393074035644531
1772812214657661000,4.659660888671875,0.09372901916503906,-0.060946643352508545,-0.05052173137664795
1772812214667361500,4.669361572265625,0.06055164337158203,-0.07072791457176208,-0.007208645343780518
1772812214677062100,4.679062255859375,-0.008568763732910156,-0.04247009754180908,0.019119441509246826
1772812214686762800,4.6887626953125,-0.0671548843383789,-0.012343347072601318,0.02849113941192627
1772812214696463400,4.69846337890625,-0.10834789276123047,0.001252681016921997,0.009441494941711426
1772812214706164000,4.7081640625,-0.13476848602294922,-0.0077288150787353516,0.037687063217163086
1772812214715864600,4.717864501953125,-0.1396045684814453,-0.03683146834373474,0.03373599052429199
1772812214725565200,4.727565185546875,-0.113800048828125,-0.024824172258377075,0.03344613313674927
1772812214735265800,4.737265869140625,-0.070831298828125,-0.0013036131858825684,0.04082202911376953
1772812214754667000,4.7566669921875,0.03163909912109375,-0.01059722900390625,-0.012155652046203613
1772812214764367600,4.76636767578125,0.0639963150024414,0.020861774682998657,-0.0362856388092041
1772812214774068200,4.776068115234375,0.05705833435058594,0.001744687557220459,-0.04287898540496826
1772812214783768600,4.7857685546875,0.07145214080810547,-0.006956309080123901,-0.016700267791748047
1772812214793469200,4.79546923828125,0.05030345916748047,-0.0077911317348480225,0.007002115249633789
1772812214803170000,4.805170166015625,0.03773784637451172,-0.012531578540802002,0.025792419910430908
1772812214812870700,4.81487060546875,0.027749061584472656,-0.003349900245666504,0.03361469507217407
1772812214822571000,4.824571044921875,0.015557289123535156,0.01608443260192871,0.010978102684020996
1772812214832271600,4.834271728515625,0.020051956176757812,0.030098021030426025,0.014628171920776367
1772812214841972200,4.84397216796875,0.0009527206420898438,0.047494858503341675,-0.0195997953414917
1772812214851672800,4.8536728515625,0.0021495819091796875,0.03554174304008484,-0.02604353427886963
1772812214861373400,4.86337353515625,-0.021422386169433594,0.05452990531921387,-0.021382689476013184
1772812214871074000,4.873073974609375,-0.022146224975585938,0.08246144652366638,-0.004939675331115723
1772812214880774700,4.882774658203125,-0.02628803253173828,0.09887492656707764,-0.0336877703666687
1772812214890475300,4.892475341796875,-0.046855926513671875,0.129115492105484,-0.024478912353515625
1772812214900176000,4.90217578125,-0.05076789855957031,0.1345304250717163,0.012747764587402344
1772812214909876500,4.91187646484375,-0.025336265563964844,0.08713483810424805,0.003711104393005371
1772812214919577000,4.9215771484375,0.07378768920898438,0.05615690350532532,-0.029532551765441895
1772812214929277700,4.931277587890625,0.12778091430664062,0.05186149477958679,-0.03490638732910156
1772812214938978300,4.940978271484375,0.12565326690673828,0.016086339950561523,-0.07896095514297485
1772812214948678700,4.9506787109375,0.12126445770263672,0.0051329731941223145,-0.11867105960845947
1772812214958379500,4.960379638671875,0.06990814208984375,-0.0074312686920166016,-0.139984130859375
1772812214968080100,4.970080078125,0.0029773712158203125,-0.00033846497535705566,-0.1710529327392578
1772812214977780700,4.97978076171875,-0.04744911193847656,0.004239201545715332,-0.2196078896522522
1772812214987481000,4.989481201171875,-0.08284187316894531,-0.009947717189788818,-0.2064257264137268
1772812214997181700,4.999181640625,-0.14468097686767578,-0.009413063526153564,-0.1696913242340088
1772812215006882300,5.00888232421875,-0.1855325698852539,0.006042540073394775,-0.10925829410552979
1772812215016583000,5.0185830078125,-0.18580150604248047,-0.010031640529632568,-0.004700124263763428
1772812215026283500,5.028283447265625,-0.13912677764892578,0.005637407302856445,0.10381782054901123
1772812215035984100,5.037984130859375,-0.058078765869140625,0.013959437608718872,0.1886303424835205
1772812215045684700,5.047684814453125,0.042677879333496094,0.01984304189682007,0.2597333788871765
1772812215055385300,5.05738525390625,0.1441326141357422,0.007466316223144531,0.24888372421264648
1772812215065086000,5.0670859375,0.20864486694335938,0.014333188533782959,0.19276022911071777
1772812215074786600,5.07678662109375,0.22037696838378906,0.033074766397476196,0.12955045700073242
1772812215084487200,5.086487060546875,0.20848846435546875,0.008696436882019043,0.06458127498626709
1772812215094187800,5.096187744140625,0.11452293395996094,-0.009192794561386108,0.03558349609375
1772812215103888400,5.105888427734375,0.057457923889160156,-0.018816828727722168,0.006764829158782959
1772812215113589000,5.115589111328125,-0.001033782958984375,-0.0072563886642456055,-0.011771857738494873
1772812215123289600,5.12528955078125,-0.05385112762451172,-0.002605348825454712,-0.06062859296798706
1772812215132990200,5.134990234375,-0.06574535369873047,0.026178985834121704,-0.09411031007766724
1772812215142690800,5.14469091796875,-0.09984016418457031,0.03218880295753479,-0.10117220878601074
1772812215152391200,5.15439111328125,-0.13697433471679688,0.009914308786392212,-0.05839806795120239
1772812215171792600,5.173792724609375,-0.13825035095214844,0.009803295135498047,-0.022617101669311523
1772812215181493200,5.1834931640625,-0.11374950408935547,0.039664000272750854,-0.06428152322769165
1772812215191193600,5.193193603515625,-0.06021595001220703,0.014640241861343384,-0.11545568704605103
1772812215200894200,5.202894287109375,0.034781455993652344,0.020886093378067017,-0.14942240715026855
1772812215210594800,5.2125947265625,0.11763858795166016,-0.020930230617523193,-0.17336934804916382
1772812215220295400,5.22229541015625,0.17454814910888672,-0.09714621305465698,-0.15156757831573486
1772812215229996000,5.23199609375,0.20599079132080078,-0.11111888289451599,-0.12165969610214233
1772812215239696600,5.241696533203125,0.15821456909179688,-0.0678863525390625,-0.04457712173461914
1772812215249397200,5.251397216796875,0.06188392639160156,-0.05180847644805908,0.033166468143463135
1772812215259097900,5.261097900390625,-0.04699230194091797,-0.017589449882507324,0.09906744956970215
1772812215268798500,5.270798583984375,-0.1353473663330078,0.0036320090293884277,0.1397051215171814
1772812215278499000,5.2804990234375,-0.20472145080566406,-0.02210119366645813,0.19809508323669434
1772812215288199700,5.29019970703125,-0.2342376708984375,-0.04217919707298279,0.18544787168502808
1772812215297900300,5.299900390625,-0.2162952423095703,-0.048478901386260986,0.16145408153533936
1772812215307601000,5.309600830078125,-0.189361572265625,-0.02032637596130371,0.1267910599708557
1772812215317301500,5.319301513671875,-0.1358957290649414,-0.010338962078094482,0.09656059741973877
1772812215327002000,5.329002197265625,-0.05272674560546875,-0.014339953660964966,0.07015788555145264
1772812215336702700,5.33870263671875,0.014945030212402344,-0.056302815675735474,0.04668128490447998
1772812215346403300,5.3484033203125,0.06504631042480469,-0.05226185917854309,-0.011705636978149414
1772812215356103700,5.358103759765625,0.14731788635253906,-0.04176244139671326,-0.08721882104873657
1772812215365804300,5.36780419921875,0.1811656951904297,-0.017115116119384766,-0.1152152419090271
1772812215375505200,5.377505126953125,0.1874675750732422,-0.031728267669677734,-0.11009055376052856
1772812215385205800,5.387205810546875,0.19263362884521484,-0.036768555641174316,-0.12026292085647583
1772812215394906000,5.396906005859375,0.15903854370117188,-0.034749358892440796,-0.09603816270828247
1772812215404606700,5.406606689453125,0.1225271224975586,-0.013677150011062622,-0.07358789443969727
1772812215414307300,5.416307373046875,0.057234764099121094,-0.003725677728652954,-0.03754526376724243
1772812215424008000,5.426008056640625,0.008272171020507812,-0.009184926748275757,0.02555215358734131
1772812215433708500,5.43570849609375,-0.02938079833984375,0.0007276535034179688,0.087516188621521
1772812215443409200,5.4454091796875,-0.042853355407714844,-0.010749131441116333,0.1352882981300354
1772812215453109800,5.45510986328125,-0.07723426818847656,-0.003961682319641113,0.1321578025817871
1772812215462810400,5.464810302734375,-0.11109447479248047,0.0001010894775390625,0.1339205503463745
1772812215472511000,5.474510986328125,-0.14096641540527344,-0.010709375143051147,0.13839054107666016
1772812215482211600,5.484211669921875,-0.12810707092285156,-0.013967812061309814,0.14692795276641846
1772812215491912200,5.493912109375,-0.11907291412353516,-0.023615390062332153,0.13477081060409546
1772812215501612800,5.50361279296875,-0.0808553695678711,-0.03964638710021973,0.12346208095550537
1772812215511313400,5.5133134765625,-0.05038738250732422,-0.03870820999145508,0.0740090012550354
1772812215521014000,5.523013916015625,0.01727008819580078,-0.03800678253173828,0.03198367357254028
1772812215530714600,5.532714599609375,0.06745624542236328,-0.020084261894226074,-0.02116304636001587
1772812215540415200,5.542415283203125,0.09218025207519531,-0.006625324487686157,-0.043421268463134766
1772812215550115800,5.55211572265625,0.07415103912353516,-0.010220944881439209,-0.03822517395019531
1772812215559816200,5.561816162109375,0.055253028869628906,-0.041269510984420776,-0.012960255146026611
1772812215569516800,5.571516845703125,0.03900623321533203,-0.03343188762664795,0.0016922354698181152
1772812215579217400,5.581217529296875,0.03483772277832031,-0.034579724073410034,0.021783769130706787
1772812215588918300,5.590918212890625,0.033141136169433594,0.001338958740234375,0.03774607181549072
1772812215598618600,5.60061865234375,0.03384971618652344,0.05382019281387329,0.040446937084198
1772812215608319200,5.6103193359375,0.015735626220703125,0.045061975717544556,0.05608433485031128
1772812215618019800,5.620019775390625,-0.004410743713378906,0.02669161558151245,0.06200981140136719
1772812215627720400,5.629720458984375,0.006404876708984375,0.029061436653137207,0.04071033000946045
1772812215637421000,5.639421142578125,-0.04295921325683594,0.018350988626480103,0.012784957885742188
1772812215647121700,5.64912158203125,-0.08572578430175781,-0.0023391544818878174,0.03573840856552124
1772812215656822300,5.658822265625,-0.11382293701171875,-0.03821825981140137,0.020855844020843506
1772812215666523000,5.66852294921875,-0.1368551254272461,-0.057130008935928345,-0.01780635118484497
1772812215676223500,5.678223388671875,-0.11836051940917969,-0.04600450396537781,-0.10202574729919434
1772812215685924000,5.687924072265625,-0.10489368438720703,-0.03323867917060852,-0.17852550745010376
1772812215695624700,5.697624755859375,-0.09397602081298828,-0.02855589985847473,-0.20303809642791748
1772812215705325300,5.7073251953125,-0.037303924560546875,-0.029934585094451904,-0.18827146291732788
1772812215715026000,5.71702587890625,-0.00390625,0.011068493127822876,-0.1533747911453247
1772812215724726500,5.7267265625,0.010134696960449219,0.011710882186889648,-0.11234194040298462
1772812215734427100,5.73642724609375,0.04746246337890625,0.04650932550430298,-0.05425304174423218
1772812215744127700,5.746127685546875,0.09003543853759766,0.022595137357711792,-0.008424341678619385
1772812215753828400,5.755828369140625,0.1354074478149414,0.03419730067253113,0.06692701578140259
1772812215763529000,5.765529052734375,0.18941402435302734,0.0005975663661956787,0.12131112813949585
1772812215773229300,5.775229248046875,0.21194076538085938,0.018864601850509644,0.1735953688621521
1772812215782930000,5.784929931640625,0.25064563751220703,0.037956953048706055,0.08158469200134277
1772812215792630800,5.794630859375,0.21112537384033203,0.09625127911567688,0.020541846752166748
1772812215802331400,5.804331298828125,0.16174983978271484,0.09252694249153137,-0.06926155090332031
1772812215812031700,5.81403173828125,0.0921010971069336,0.07295742630958557,-0.13107997179031372
1772812215821732400,5.823732421875,0.018952369689941406,0.04337179660797119,-0.13244515657424927
1772812215831433000,5.833432861328125,-0.050609588623046875,0.03221243619918823,-0.13875186443328857
1772812215841133600,5.843133544921875,-0.05308723449707031,0.029327362775802612,-0.10476142168045044
1772812215850834200,5.852834228515625,-0.0437164306640625,0.04612606763839722,-0.0769045352935791
1772812215860534800,5.86253466796875,-0.04862499237060547,0.07178705930709839,-0.04404264688491821
1772812215870235400,5.8722353515625,-0.052329063415527344,0.06045454740524292,0.020145416259765625
1772812215879936000,5.88193603515625,-0.057198524475097656,0.029952555894851685,0.08118462562561035
1772812215889636600,5.89163671875,-0.051445960998535156,0.01779887080192566,0.11575275659561157
1772812215899337200,5.901337158203125,-0.029417037963867188,-0.004759103059768677,0.1450486183166504
1772812215909037800,5.911037841796875,-0.006618499755859375,-0.049313247203826904,0.158480703830719
1772812215918738400,5.920738525390625,0.05345916748046875,-0.04787558317184448,0.13658499717712402
1772812215928439000,5.93043896484375,0.07254314422607422,0.0012143850326538086,0.09174734354019165
1772812215938139600,5.9401396484375,0.02426624298095703,-0.011778175830841064,0.054575562477111816
1772812215947840300,5.94984033203125,0.026247024536132812,-0.013926446437835693,0.011668801307678223
1772812215957540900,5.959540771484375,-0.03653240203857422,-0.00425991415977478,-0.012628912925720215
1772812215967241500,5.969241455078125,-0.07707405090332031,-0.005505889654159546,-0.06899392604827881
1772812215976941800,5.97894189453125,-0.07451152801513672,0.03775075078010559,-0.15170210599899292
1772812215986642400,5.988642333984375,-0.10021686553955078,0.07479849457740784,-0.1999189853668213
1772812215996343000,5.998343017578125,-0.10551643371582031,0.08603471517562866,-0.23867714405059814
1772812216006044000,6.0080439453125,-0.06011772155761719,0.09768369793891907,-0.2262876033782959
1772812216015744300,6.017744140625,0.02221393585205078,0.08783873915672302,-0.18809950351715088
1772812216025444900,6.02744482421875,0.11373615264892578,0.055231839418411255,-0.11933302879333496
1772812216035145500,6.0371455078125,0.16129207611083984,-0.02491024136543274,-0.007112741470336914
1772812216044846000,6.04684619140625,0.19747161865234375,-0.09892144799232483,0.09679889678955078
1772812216054546700,6.056546630859375,0.23668384552001953,-0.11030891537666321,0.18311136960983276
1772812216064247300,6.066247314453125,0.2259683609008789,-0.03256779909133911,0.20792841911315918
1772812216073948000,6.075947998046875,0.20371627807617188,0.014770865440368652,0.20119434595108032
1772812216083648500,6.0856484375,0.11359977722167969,0.017031580209732056,0.14925318956375122
1772812216093349000,6.09534912109375,0.03325366973876953,0.00387689471244812,0.1391562819480896
1772812216103049700,6.1050498046875,-0.01035308837890625,-0.008293211460113525,0.07822662591934204
1772812216112750300,6.114750244140625,-0.026124954223632812,0.03794902563095093,0.031632304191589355
1772812216122451000,6.124450927734375,-0.07111358642578125,-0.039055198431015015,0.030788123607635498
1772812216132151600,6.134151611328125,-0.12488174438476562,-0.1590205430984497,0.06640428304672241
1772812216141852200,6.14385205078125,-0.1567068099975586,-0.1953650712966919,0.10032260417938232
1772812216151552800,6.153552734375,-0.188079833984375,-0.19427961111068726,0.06969505548477173
1772812216161253400,6.16325341796875,-0.22368621826171875,-0.16302722692489624,0.029116272926330566
1772812216170954000,6.1729541015625,-0.25165367126464844,-0.10303601622581482,-0.035545945167541504
1772812216180654600,6.182654541015625,-0.25096702575683594,-0.047844916582107544,-0.06184571981430054
1772812216190355000,6.19235498046875,-0.221038818359375,-0.007236301898956299,-0.0347515344619751
1772812216200055600,6.2020556640625,-0.1658620834350586,-0.04041111469268799,-0.007890403270721436
1772812216209756200,6.211756103515625,-0.02687835693359375,-0.07310596108436584,0.025411903858184814
1772812216219457000,6.22145703125,0.055703163146972656,-0.05125811696052551,0.025675475597381592
1772812216229157400,6.231157470703125,0.06870269775390625,-0.0624469518661499,0.06734669208526611
1772812216238858000,6.24085791015625,0.055647850036621094,-0.07151740789413452,0.04997885227203369
1772812216248558600,6.25055859375,0.05578899383544922,-0.03087615966796875,0.031917572021484375
1772812216258259200,6.26025927734375,-0.0005645751953125,-0.04640647768974304,-0.013680517673492432
1772812216267959800,6.269959716796875,-0.05016803741455078,-0.05320769548416138,-0.08135360479354858
1772812216277660400,6.279660400390625,-0.0896310806274414,-0.023062855005264282,-0.14415442943572998
1772812216287361000,6.289361083984375,-0.08603763580322266,0.02776777744293213,-0.25541019439697266
1772812216297061600,6.2990615234375,-0.0894918441772461,0.05453711748123169,-0.28894567489624023
1772812216306762200,6.30876220703125,-0.10695934295654297,0.05719500780105591,-0.29959070682525635
1772812216316462800,6.318462890625,-0.10414314270019531,0.09116631746292114,-0.2652882933616638
1772812216326163500,6.32816357421875,-0.06726741790771484,0.08327707648277283,-0.22612804174423218
1772812216335864000,6.337864013671875,0.006653785705566406,0.034938305616378784,-0.09444522857666016
1772812216345564700,6.347564697265625,0.04520225524902344,-0.02113291621208191,0.05158066749572754
1772812216355265300,6.357265380859375,0.08190631866455078,-0.052646487951278687,0.17568373680114746
1772812216364966000,6.3669658203125,0.07797813415527344,-0.043969422578811646,0.22827523946762085
1772812216374666500,6.37666650390625,0.0622711181640625,0.01645854115486145,0.20676589012145996
1772812216384367000,6.3863671875,0.052643775939941406,0.06917184591293335,0.14147275686264038
1772812216394067700,6.396067626953125,0.11145305633544922,0.07279267907142639,0.07089340686798096
1772812216403768000,6.40576806640625,0.13407611846923828,0.053340762853622437,-0.003892242908477783
1772812216413468700,6.41546875,0.14351463317871094,0.008145064115524292,-0.02178192138671875
1772812216423169500,6.42516943359375,0.13172054290771484,-0.04604640603065491,-0.01735609769821167
1772812216432870100,6.4348701171875,0.06609153747558594,-0.03314867615699768,0.005279123783111572
1772812216442570500,6.444570556640625,-0.006632804870605469,-0.011817961931228638,0.038516104221343994
1772812216452271000,6.45427099609375,-0.06995010375976562,0.030280113220214844,0.05456387996673584
1772812216461971700,6.4639716796875,-0.112335205078125,0.018846720457077026,0.07694202661514282
1772812216471672300,6.47367236328125,-0.11880207061767578,-0.018573135137557983,0.111194908618927
1772812216481373000,6.483373046875,-0.0781402587890625,-0.0560014545917511,0.12621182203292847
1772812216491073500,6.493073486328125,-0.037009239196777344,-0.06569564342498779,0.13190126419067383
1772812216500774100,6.502774169921875,0.0186920166015625,-0.05596834421157837,0.10661447048187256
1772812216510474800,6.512474853515625,0.040496826171875,-0.00870424509048462,0.07379913330078125
1772812216520175400,6.52217529296875,0.05609416961669922,0.019856691360473633,0.0471225380897522
1772812216529876000,6.5318759765625,0.07035350799560547,0.03994455933570862,0.04193609952926636
1772812216539576600,6.54157666015625,0.05851459503173828,0.034107714891433716,0.031700730323791504
1772812216549277200,6.551277099609375,0.05394458770751953,0.022198408842086792,0.04046213626861572
1772812216558977800,6.560977783203125,0.05417919158935547,0.002879619598388672,0.0032582879066467285
1772812216568678400,6.570678466796875,0.05563545227050781,0.02686285972595215,0.03225231170654297
1772812216578379000,6.58037890625,0.060637474060058594,0.03925904631614685,0.03943508863449097
1772812216588079600,6.59007958984375,0.004372596740722656,0.022663742303848267,0.011606872081756592
1772812216597780200,6.5997802734375,-0.04508018493652344,0.010774999856948853,-0.033153653144836426
1772812216607480800,6.609480712890625,-0.0889892578125,0.016467928886413574,-0.05313307046890259
1772812216617181200,6.61918115234375,-0.11807918548583984,0.01591530442237854,-0.04821974039077759
1772812216626881800,6.6288818359375,-0.11496925354003906,0.013719022274017334,-0.030260920524597168
1772812216636582700,6.638582763671875,-0.10249519348144531,0.0061830878257751465,-0.01642453670501709
1772812216646283300,6.648283203125,-0.05731010437011719,0.03583899140357971,0.018287599086761475
1772812216655983600,6.657983642578125,-0.058837890625,0.06429702043533325,0.050737977027893066
1772812216665684200,6.667684326171875,-0.0074367523193359375,0.06667780876159668,0.09234619140625
1772812216675384800,6.677384765625,0.06430816650390625,0.07117074728012085,0.08135849237442017
1772812216685085400,6.68708544921875,0.11252307891845703,0.07685309648513794,0.04854768514633179
1772812216694786000,6.6967861328125,0.1611957550048828,0.061725229024887085,0.019840121269226074
1772812216704486700,6.706486572265625,0.20208263397216797,0.033163756132125854,-0.02247917652130127
1772812216714187300,6.716187255859375,0.18704605102539062,0.031603455543518066,-0.03671586513519287
1772812216723887900,6.725887939453125,0.16525650024414062,-0.002392679452896118,-0.053844451904296875
1772812216733588500,6.73558837890625,0.11916351318359375,-0.0018360018730163574,-0.09274083375930786
1772812216743289000,6.7452890625,0.05149078369140625,-0.0018767714500427246,-0.06476914882659912
1772812216752989700,6.75498974609375,-0.0009555816650390625,0.006924957036972046,-0.04672110080718994
1772812216762690300,6.764690185546875,-0.0349273681640625,0.03654828667640686,-0.025389432907104492
1772812216772391000,6.774390869140625,-0.03076648712158203,0.06194266676902771,-0.060462236404418945
1772812216782091500,6.784091552734375,-0.016060829162597656,-0.011778950691223145,-0.0976635217666626
1772812216791792000,6.793792236328125,0.019651412963867188,-0.04480016231536865,-0.1936284899711609
1772812216801492700,6.80349267578125,-0.02988147735595703,0.02820652723312378,-0.14131122827529907
1772812216811193300,6.813193359375,-0.06684684753417969,0.11224108934402466,-0.045156121253967285
1772812216820894000,6.82289404296875,-0.09023094177246094,0.16031289100646973,0.048690974712371826
1772812216830594600,6.832594482421875,-0.08733844757080078,0.1321445107460022,0.10377657413482666
1772812216840295000,6.842294921875,-0.0763711929321289,0.06048691272735596,0.10004681348800659
1772812216849995800,6.851995849609375,-0.04696846008300781,-0.008905351161956787,0.06955665349960327
1772812216859696400,6.8616962890625,0.04191112518310547,-0.023782193660736084,0.07109391689300537
1772812216869396700,6.871396728515625,0.13181781768798828,-0.004610300064086914,0.00938117504119873
1772812216879097300,6.881097412109375,0.14629268646240234,0.004212796688079834,-0.03468596935272217
1772812216888798000,6.8907978515625,0.0794363021850586,-0.020778119564056396,-0.060859620571136475
1772812216898498600,6.90049853515625,-0.023934364318847656,-0.033447861671447754,-0.08098798990249634
1772812216908199200,6.91019921875,-0.1067342758178711,0.02019667625427246,-0.11260509490966797
1772812216917899800,6.919899658203125,-0.15171146392822266,0.08397805690765381,-0.055063843727111816
1772812216927600400,6.929600341796875,-0.19838905334472656,0.05298793315887451,0.05220437049865723
1772812216937301000,6.939301025390625,-0.17850208282470703,0.003919064998626709,0.09078061580657959
1772812216947001600,6.949001708984375,-0.16371536254882812,0.05430227518081665,0.06525623798370361
1772812216956702200,6.9587021484375,-0.09978103637695312,0.09013998508453369,0.0027423501014709473
1772812216966402800,6.96840283203125,-0.09228229522705078,0.09727025032043457,-0.0622372031211853
1772812216976103400,6.978103515625,-0.050812721252441406,0.07652318477630615,-0.10621309280395508
1772812216985804000,6.987803955078125,0.07593154907226562,0.04922264814376831,-0.11563390493392944
1772812216995504600,6.997504638671875,0.13242435455322266,0.027431905269622803,-0.05405682325363159
1772812217005205200,7.007205322265625,0.17626190185546875,-0.019867241382598877,0.0310785174369812
1772812217014905900,7.01690576171875,0.18529033660888672,-0.09217453002929688,0.023049354553222656
1772812217024606500,7.0266064453125,0.13070201873779297,-0.10708624124526978,-0.041031718254089355
1772812217034307000,7.03630712890625,0.04645729064941406,-0.055816471576690674,-0.14194828271865845
1772812217044007700,7.046007568359375,-0.05406379699707031,-0.035545945167541504,-0.21608388423919678
1772812217053708000,7.0557080078125,-0.1506032943725586,-0.010862767696380615,-0.2242714762687683
1772812217063409000,7.065408935546875,-0.18448162078857422,0.01361989974975586,-0.19744640588760376
1772812217073109500,7.075109619140625,-0.201507568359375,-0.014316678047180176,-0.04328495264053345
1772812217082810000,7.08481005859375,-0.16186046600341797,-0.013895094394683838,0.06517159938812256
1772812217092510500,7.094510498046875,-0.054610252380371094,0.046462953090667725,0.11623162031173706
1772812217102211000,7.104211181640625,0.01320648193359375,0.07544803619384766,0.1648053526878357
1772812217111911700,7.11391162109375,0.06697463989257812,0.008563697338104248,0.16377675533294678
1772812217121612300,7.1236123046875,0.11168289184570312,-0.02467411756515503,0.11952698230743408
1772812217131313000,7.13331298828125,0.10394287109375,0.003997743129730225,0.07363229990005493
1772812217141013500,7.143013427734375,0.10698223114013672,0.0279768705368042,0.0517541766166687
1772812217150714000,7.152714111328125,0.0758829116821289,0.034852445125579834,0.010047972202301025
1772812217160414700,7.162414794921875,0.06770706176757812,0.07239842414855957,-0.048217594623565674
1772812217170115300,7.172115234375,0.043227195739746094,0.07961314916610718,-0.053866565227508545
1772812217179816000,7.18181591796875,0.03094959259033203,0.0791395902633667,-0.022922992706298828
1772812217189516500,7.1915166015625,0.029500961303710938,0.04719376564025879,0.004177272319793701
1772812217199217200,7.201217041015625,-0.01546478271484375,0.06474268436431885,0.017235934734344482
1772812217208917800,7.210917724609375,-0.04675769805908203,0.09177738428115845,0.002983987331390381
1772812217218618400,7.220618408203125,-0.10350227355957031,0.0877847671508789,-0.031980693340301514
1772812217228319000,7.230319091796875,-0.15823936462402344,0.06702131032943726,-0.04765772819519043
1772812217238019600,7.24001953125,-0.17570972442626953,0.0688970685005188,-0.07752686738967896
1772812217247720200,7.24972021484375,-0.13535785675048828,0.03710514307022095,-0.09144341945648193
1772812217257420800,7.2594208984375,-0.10400581359863281,0.01129060983657837,-0.07868021726608276
1772812217267121400,7.269121337890625,0.010425567626953125,-0.046511173248291016,-0.07943588495254517
1772812217276822000,7.278822021484375,0.1524972915649414,-0.05075061321258545,-0.08304476737976074
1772812217286522600,7.288522705078125,0.21582698822021484,-0.03940469026565552,-0.0685269832611084
1772812217296223200,7.29822314453125,0.2641334533691406,-0.004769742488861084,-0.04483211040496826
1772812217305923800,7.307923828125,0.2588338851928711,0.012274384498596191,-0.012550413608551025
1772812217315624200,7.317624267578125,0.23018169403076172,0.01583099365234375,0.03215068578720093
1772812217325325000,7.327324951171875,0.1432485580444336,-0.02295583486557007,0.05620777606964111
1772812217335025700,7.337025634765625,0.07193470001220703,-0.03688395023345947,0.033791184425354004
1772812217344726000,7.34672607421875,0.012437820434570312,-0.011761248111724854,0.007779598236083984
1772812217354426600,7.356426513671875,-0.051932334899902344,0.027597427368164062,0.011023640632629395
1772812217364127200,7.366127197265625,-0.10348224639892578,0.01783275604248047,0.07136040925979614
1772812217373827800,7.375827880859375,-0.15429401397705078,0.0069161057472229,0.11609792709350586
1772812217383528400,7.385528564453125,-0.20441341400146484,-0.011679470539093018,0.15370053052902222
1772812217393229000,7.39522900390625,-0.22913265228271484,0.008108258247375488,0.13345211744308472
1772812217402929700,7.4049296875,-0.20533370971679688,0.010309815406799316,0.11854308843612671
1772812217412630300,7.41463037109375,-0.1796712875366211,-0.006355762481689453,0.08639556169509888
1772812217422331000,7.424330810546875,-0.13447284698486328,-0.01000511646270752,0.0379907488822937
1772812217432031500,7.434031494140625,-0.07939434051513672,-0.03676402568817139,-0.016325771808624268
1772812217441732000,7.443732177734375,-0.0075397491455078125,-0.09128201007843018,-0.015038073062896729
1772812217451432700,7.4534326171875,0.031355857849121094,-0.11967718601226807,0.006722867488861084
1772812217461133300,7.46313330078125,0.08492755889892578,-0.10969758033752441,0.019090890884399414
1772812217470834000,7.472833984375,0.1141510009765625,-0.08075010776519775,0.007511794567108154
1772812217480534500,7.482534423828125,0.11120414733886719,-0.056514203548431396,-0.030180156230926514
1772812217490235100,7.492235107421875,0.06951522827148438,-0.060243070125579834,-0.002537548542022705
1772812217499935700,7.501935791015625,-0.019702911376953125,-0.09087443351745605,0.042080044746398926
1772812217509636400,7.51163623046875,-0.0721597671508789,-0.08588123321533203,0.07951080799102783
1772812217519337000,7.5213369140625,-0.12264442443847656,-0.02750241756439209,0.07480418682098389
1772812217529037600,7.53103759765625,-0.15360736846923828,0.01218503713607788,0.06776362657546997
1772812217538738200,7.54073828125,-0.1665487289428711,0.019161760807037354,0.011561572551727295
1772812217548438800,7.550438720703125,-0.1216583251953125,0.009850740432739258,-0.06437629461288452
1772812217558139400,7.560139404296875,-0.0727529525756836,0.015096127986907959,-0.11870062351226807
1772812217567839700,7.56983984375,-0.031635284423828125,-0.009096860885620117,-0.1295672059059143
1772812217577540400,7.579540283203125,0.0053768157958984375,-0.031752169132232666,-0.12376558780670166
1772812217587241000,7.589240966796875,0.034722328186035156,-0.04102438688278198,-0.09929090738296509
1772812217596941800,7.59894189453125,0.07176780700683594,-0.05786943435668945,-0.0588260293006897
1772812217606642200,7.60864208984375,0.1812143325805664,-0.06723779439926147,0.03578925132751465
1772812217616342800,7.6183427734375,0.22418785095214844,-0.09800714254379272,0.07123446464538574
1772812217626043400,7.62804345703125,0.22762012481689453,-0.10862979292869568,0.11498761177062988
1772812217635744000,7.637743896484375,0.1992349624633789,-0.10335493087768555,0.09688568115234375
1772812217645444600,7.647444580078125,0.15604400634765625,-0.11595815420150757,0.043315351009368896
1772812217655145200,7.657145263671875,0.07602214813232422,-0.10760849714279175,-0.025441527366638184
1772812217664845800,7.666845703125,0.04920673370361328,-0.11305025219917297,-0.09108710289001465
1772812217674546400,7.67654638671875,-0.0124359130859375,-0.12260216474533081,-0.10205602645874023
1772812217684247000,7.6862470703125,-0.05779838562011719,-0.11559665203094482,-0.05667394399642944
1772812217693947600,7.69594775390625,-0.09535789489746094,-0.07427898049354553,-0.009349942207336426
1772812217703648300,7.705648193359375,-0.12178230285644531,-0.006330728530883789,0.027720987796783447
1772812217713348900,7.715348876953125,-0.1915111541748047,-0.016445457935333252,0.07951730489730835
1772812217723049500,7.725049560546875,-0.20381736755371094,-0.03742438554763794,0.10804939270019531
1772812217732750000,7.73475,-0.11829185485839844,0.052747905254364014,0.06724458932876587
1772812217742450700,7.74445068359375,-0.08953189849853516,0.009999215602874756,0.08040225505828857
1772812217752151300,7.7541513671875,-0.08132171630859375,-0.01091676950454712,0.07539844512939453
1772812217761852000,7.763851806640625,-0.0073871612548828125,0.014275610446929932,0.09788703918457031
1772812217771552500,7.773552490234375,0.05233955383300781,0.001573026180267334,0.12459021806716919
1772812217781253000,7.783253173828125,0.12168693542480469,-0.003835916519165039,0.1449110507965088
1772812217790953500,7.792953369140625,0.15121078491210938,-0.03139770030975342,0.07745867967605591
1772812217800654000,7.802654052734375,0.18512344360351562,-0.0033643245697021484,-0.026493370532989502
1772812217810355000,7.81235498046875,0.17851638793945312,0.05868792533874512,-0.0793302059173584
1772812217820055600,7.8220556640625,0.1402568817138672,0.045124590396881104,-0.09337139129638672
1772812217829756000,7.831755859375,0.11676311492919922,0.03019505739212036,-0.0646592378616333
1772812217839456500,7.84145654296875,0.056038856506347656,-0.00037556886672973633,-0.058690667152404785
1772812217849157000,7.8511572265625,-0.008382797241210938,-0.012501239776611328,-0.06823062896728516
1772812217858857700,7.860857666015625,-0.10709857940673828,-0.015007734298706055,-0.0904703140258789
1772812217868558300,7.870558349609375,-0.18424510955810547,-0.01900160312652588,-0.10684508085250854
1772812217878259000,7.880259033203125,-0.16948890686035156,0.019311904907226562,-0.11291944980621338
1772812217887959600,7.88995947265625,-0.12442493438720703,0.04901933670043945,-0.050009965896606445
1772812217897660200,7.89966015625,-0.07197761535644531,0.04558664560317993,0.044602394104003906
1772812217907360800,7.90936083984375,0.010140419006347656,0.010845959186553955,0.08807086944580078
1772812217917061400,7.919061279296875,0.054424285888671875,0.028527140617370605,0.08086937665939331
1772812217926762000,7.928761962890625,0.06383991241455078,0.05334603786468506,0.052063822746276855
1772812217936462600,7.938462646484375,0.060151100158691406,0.09865707159042358,-0.006591796875
1772812217946163200,7.9481630859375,0.04127311706542969,0.11606287956237793,-0.06354725360870361
1772812217955863800,7.95786376953125,0.045134544372558594,0.09313368797302246,-0.10034054517745972
1772812217965564400,7.967564453125,0.03249549865722656,0.07555222511291504,-0.10415452718734741
1772812217975265000,7.97726513671875,0.011854171752929688,0.06426632404327393,-0.1270507574081421
1772812217984965600,7.986965576171875,0.0033130645751953125,0.05225318670272827,-0.1108095645904541
1772812217994666200,7.996666259765625,0.010194778442382812,0.035762012004852295,-0.09823375940322876
1772812218004366800,8.006366943359374,0.004050254821777344,0.039257168769836426,-0.08483588695526123
1772812218014067500,8.0160673828125,-0.023128509521484375,0.039235591888427734,-0.06629675626754761
1772812218023768000,8.02576806640625,-0.054576873779296875,0.042186737060546875,-0.0670580267906189
1772812218033468700,8.03546875,-0.08435344696044922,0.03939861059188843,-0.05185198783874512
1772812218043169300,8.045169189453125,-0.08312129974365234,0.0462191104888916,-0.061525702476501465
1772812218052870000,8.054869873046876,-0.04903221130371094,0.031702518463134766,-0.0380060076713562
1772812218062570200,8.0645703125,-0.00376129150390625,0.037798911333084106,0.050527095794677734
1772812218072270800,8.074270751953126,0.07616710662841797,0.04423940181732178,0.17265653610229492
1772812218081971700,8.0839716796875,0.10777473449707031,0.04868629574775696,0.22132569551467896
1772812218091672300,8.09367236328125,0.07525825500488281,0.06988480687141418,0.2504321336746216
1772812218101372700,8.10337255859375,0.07376575469970703,0.0680687427520752,0.179298996925354
1772812218111073300,8.1130732421875,0.07458782196044922,0.05398973822593689,0.043322980403900146
1772812218120774000,8.12277392578125,0.10724258422851562,0.04054617881774902,-0.0978996753692627
1772812218130474500,8.132474609375,0.1724710464477539,0.038651615381240845,-0.1743268370628357
1772812218140175000,8.142175048828125,0.16031646728515625,0.021644949913024902,-0.19723212718963623
1772812218149875700,8.151875732421875,0.146148681640625,-0.01541435718536377,-0.1909945011138916
1772812218159576300,8.161576416015626,0.07342147827148438,0.006242334842681885,-0.16232550144195557
1772812218169277000,8.17127685546875,-0.019266128540039062,0.04110831022262573,-0.11807376146316528
1772812218178977500,8.1809775390625,-0.08218097686767578,0.056620240211486816,-0.11637532711029053
1772812218188678100,8.19067822265625,-0.152313232421875,0.08673089742660522,-0.06969493627548218
1772812218198378800,8.200378662109374,-0.14017391204833984,0.04921412467956543,-0.04439258575439453
1772812218208079400,8.210079345703125,-0.1778087615966797,0.027841508388519287,0.022645294666290283
1772812218217780000,8.219780029296874,-0.14668655395507812,-0.0263594388961792,0.11862832307815552
1772812218227480600,8.22948046875,-0.09845542907714844,-0.05375352501869202,0.1155771017074585
1772812218237181200,8.23918115234375,-0.07457923889160156,-0.024488747119903564,0.125951886177063
1772812218246881800,8.2488818359375,-0.058173179626464844,0.004525959491729736,0.13500714302062988
1772812218256582400,8.25858251953125,-0.03730010986328125,0.015604972839355469,0.13512146472930908
1772812218266283000,8.268282958984376,-0.029694557189941406,0.02696758508682251,0.0876360535621643
1772812218275983600,8.277983642578125,-0.022203445434570312,0.034342050552368164,0.013175427913665771
1772812218285684200,8.287684326171876,-0.027803421020507812,0.03654360771179199,-0.02850252389907837
1772812218295384800,8.297384765625,-0.026287078857421875,0.0009343624114990234,-0.07089704275131226
1772812218305085400,8.30708544921875,-0.0000820159912109375,-0.018168866634368896,-0.08360028266906738
1772812218314786000,8.3167861328125,0.018614768981933594,-0.021389693021774292,-0.09488332271575928
1772812218324486400,8.326486328125,0.015811920166015625,-0.019856274127960205,-0.06463229656219482
1772812218334187000,8.33618701171875,0.04363441467285156,-0.02826187014579773,-0.024999678134918213
1772812218343887600,8.3458876953125,0.05339622497558594,-0.032863885164260864,-0.016558170318603516
1772812218353588500,8.35558837890625,0.07482337951660156,-0.030307084321975708,-0.0036086440086364746
1772812218363289000,8.3652890625,0.053569793701171875,-0.00410124659538269,-0.0023569464683532715
1772812218372989400,8.374989501953126,0.04917335510253906,-0.023554503917694092,0.005841612815856934
1772812218382690000,8.38468994140625,0.03781414031982422,-0.022058188915252686,0.012792587280273438
1772812218392390700,8.394390625,0.033728599548339844,-0.031583815813064575,0.020739972591400146
1772812218402091300,8.40409130859375,0.022606849670410156,-0.048487186431884766,0.012875199317932129
1772812218411792000,8.4137919921875,-0.028351783752441406,-0.09109783172607422,0.012524247169494629
1772812218421492500,8.423492431640625,-0.023169517517089844,-0.07872793078422546,0.04036819934844971
1772812218431193000,8.433193115234374,-0.05100536346435547,-0.06211978197097778,0.048957645893096924
1772812218440893700,8.442893798828125,-0.02422618865966797,-0.05822870135307312,0.08498162031173706
1772812218450594300,8.45259423828125,-0.027337074279785156,-0.06554800271987915,0.09454125165939331
1772812218460295000,8.462294921875,-0.02217578887939453,-0.07302993535995483,0.09656733274459839
1772812218469995500,8.47199560546875,0.0016660690307617188,-0.06797897815704346,0.04711109399795532
1772812218479696100,8.481696044921875,-0.032578468322753906,-0.07426008582115173,0.04458487033843994
1772812218489396700,8.491396728515625,-0.008518218994140625,-0.09246870875358582,0.016568481922149658
1772812218499097300,8.501097412109376,-0.011803627014160156,-0.042893558740615845,0.021626830101013184
1772812218508798000,8.5107978515625,-0.023285865783691406,-0.02029132843017578,0.05340433120727539
1772812218518498600,8.52049853515625,-0.048781394958496094,-0.05407831072807312,0.059561192989349365
1772812218528199200,8.53019921875,-0.0715341567993164,-0.04799410700798035,0.1040194034576416
1772812218537899800,8.539899658203124,0.03669261932373047,-0.040029555559158325,0.08432132005691528
1772812218547600400,8.549600341796875,0.12070941925048828,0.061150431632995605,0.10646253824234009
1772812218557301000,8.559301025390624,0.1103668212890625,0.038861751556396484,0.05520498752593994
1772812218567001600,8.569001708984375,0.2039012908935547,0.01502266526222229,0.057914555072784424
1772812218576702200,8.5787021484375,0.12416267395019531,0.04070568084716797,0.021921217441558838
1772812218586402800,8.58840283203125,0.12932682037353516,0.04450824856758118,0.008538544178009033
1772812218596103200,8.598103271484375,0.092041015625,0.024264544248580933,-0.05248749256134033
1772812218605803800,8.6078037109375,0.0989532470703125,-0.032127052545547485,-0.05592411756515503
1772812218615504400,8.61750439453125,0.10232353210449219,-0.037383973598480225,-0.04078322649002075
1772812218625205200,8.627205322265626,0.16722869873046875,-0.05211985111236572,-0.12387388944625854
1772812218634905900,8.63690576171875,-0.01961231231689453,-0.026662230491638184,-0.08931350708007812
1772812218644606200,8.646606201171876,-0.1965646743774414,-0.07447585463523865,-0.06873530149459839
1772812218654306800,8.656306884765625,-0.1695270538330078,-0.01961567997932434,-0.06509578227996826
1772812218664007400,8.66600732421875,-0.14535140991210938,0.03697013854980469,-0.012885749340057373
1772812218673708000,8.6757080078125,-0.11931419372558594,0.012590616941452026,0.019986271858215332
1772812218683408600,8.68540869140625,-0.1914691925048828,-0.00283658504486084,0.013370096683502197
1772812218693109200,8.695109130859375,-0.07173442840576172,0.02873361110687256,-0.012314796447753906
1772812218702809900,8.704809814453125,-0.06692028045654297,0.023753821849822998,-0.023876845836639404
1772812218712510500,8.714510498046875,-0.0798330307006836,0.001980692148208618,-0.00976496934890747
1772812218722211000,8.724211181640625,-0.030175209045410156,0.00010547041893005371,0.016683757305145264
1772812218731911700,8.73391162109375,0.022207260131835938,0.0022453665733337402,0.06576985120773315
1772812218741612300,8.7436123046875,0.0737771987915039,-0.036138951778411865,0.05132263898849487
1772812218751313000,8.75331298828125,0.08440017700195312,-0.03781220316886902,0.08358526229858398
1772812218761013500,8.763013427734375,0.0018148422241210938,-0.061717092990875244,0.07331079244613647
1772812218770714000,8.772714111328124,0.07832622528076172,-0.048388004302978516,0.058115363121032715
1772812218780414700,8.782414794921875,0.01827716827392578,-0.021258383989334106,0.01842951774597168
1772812218790115300,8.792115234375,-0.017187118530273438,0.0010071396827697754,0.0010165572166442871
1772812218799816000,8.80181591796875,0.003173828125,-0.011906325817108154,-0.026287317276000977
1772812218809516500,8.8115166015625,-0.0804758071899414,0.008448660373687744,0.015393435955047607
1772812218819217200,8.821217041015625,-0.027420997619628906,-0.012200891971588135,-0.07698732614517212
1772812218828917800,8.830917724609375,-0.05054187774658203,0.027787894010543823,-0.05387145280838013
1772812218838618400,8.840618408203126,-0.03790283203125,0.017116010189056396,-0.09110903739929199
1772812218848319000,8.850319091796875,-0.08184051513671875,0.014236867427825928,-0.10790050029754639
1772812218858019600,8.86001953125,-0.09914016723632812,0.039718031883239746,-0.10289508104324341
1772812218867720200,8.86972021484375,-0.04566001892089844,0.06846600770950317,-0.05518573522567749
1772812218877420500,8.879420654296876,-0.007426261901855469,0.0370979905128479,0.06117546558380127
1772812218887121400,8.889121337890625,0.05828094482421875,-0.012606233358383179,0.15749669075012207
1772812218896822000,8.898822021484374,0.13938617706298828,-0.052075207233428955,0.157778799533844
1772812218906522600,8.908522705078125,0.17684555053710938,-0.038025230169296265,0.13028401136398315
1772812218916223000,8.918222900390624,0.18793106079101562,-0.0039251744747161865,0.07688772678375244
1772812218925923600,8.927923583984375,0.13419532775878906,0.02840360999107361,0.020649373531341553
1772812218935624200,8.937624267578125,0.07436752319335938,0.03275451064109802,0.005981802940368652
1772812218945325000,8.947324951171876,0.0060520172119140625,0.005288422107696533,0.015856802463531494
1772812218955025400,8.957025390625,-0.07299613952636719,-0.006918430328369141,0.02404695749282837
1772812218964726000,8.96672607421875,-0.08370208740234375,-0.009698271751403809,0.020252645015716553
1772812218974426600,8.976426513671875,-0.1189870834350586,0.016843706369400024,0.003655374050140381
1772812218984127200,8.986127197265626,-0.13369464874267578,0.032503873109817505,-0.0037740468978881836
1772812218993827800,8.995827880859375,-0.12811660766601562,0.04234349727630615,-0.022784650325775146
1772812219003528400,9.005528564453124,-0.14499378204345703,0.07360497117042542,-0.0044686198234558105
1772812219013229000,9.01522900390625,-0.14048004150390625,0.051947981119155884,-0.0030129551887512207
1772812219022929700,9.0249296875,-0.14203739166259766,0.0036243200302124023,0.0344051718711853
1772812219032630300,9.03463037109375,-0.08951282501220703,-0.032235145568847656,0.026743531227111816
1772812219042331000,9.044330810546874,-0.04617881774902344,-0.05458247661590576,0.006032764911651611
1772812219052031500,9.054031494140625,0.024648666381835938,-0.07105660438537598,-0.01977217197418213
1772812219061732000,9.063732177734375,0.07087421417236328,-0.04607948660850525,-0.0716126561164856
1772812219071432700,9.0734326171875,0.11062908172607422,-0.01887756586074829,-0.1276751160621643
1772812219081133300,9.08313330078125,0.1168670654296875,0.0024766921997070312,-0.13048678636550903
1772812219090834000,9.092833984375,0.06062793731689453,-0.0014757215976715088,-0.07054692506790161
1772812219100534500,9.102534423828125,0.03001880645751953,-0.0327492356300354,-0.06309276819229126
1772812219110235100,9.112235107421874,0.011759757995605469,-0.03226828575134277,-0.016330718994140625
1772812219129636400,9.13163623046875,0.07019233703613281,0.002994716167449951,-0.04413825273513794
1772812219139337000,9.1413369140625,0.051369667053222656,0.027011513710021973,-0.01224517822265625
1772812219149037300,9.151037353515624,0.06693744659423828,-0.019441992044448853,0.06804448366165161
1772812219158738200,9.16073828125,0.09171485900878906,0.006837308406829834,0.08559548854827881
1772812219168438800,9.170438720703125,0.05962181091308594,0.030080556869506836,0.08985716104507446
1772812219178139400,9.180139404296876,0.022184371948242188,0.0360676646232605,0.0749010443687439
1772812219187839700,9.18983984375,-0.029939651489257812,0.036417990922927856,0.05741894245147705
1772812219197540400,9.199540283203126,-0.08120059967041016,-0.0034994184970855713,0.08701097965240479
1772812219207241000,9.209240966796875,-0.08916473388671875,-0.07794803380966187,0.08452999591827393
1772812219216941800,9.21894189453125,-0.025216102600097656,-0.08988931775093079,0.10943520069122314
