time,seconds_elapsed,z,y,x
1772810852130849000,0.32584912109375,-0.07098865509033203,0.04278318211436272,0.016969693824648857
1772810852150610700,0.345610595703125,-0.08985233306884766,-0.018852107226848602,0.03360283747315407
1772810852170372600,0.36537255859375,-0.07787513732910156,0.021619334816932678,0.004567071795463562
1772810852190134300,0.38513427734375,-0.08266639709472656,0.014181170612573624,-0.00035914406180381775
1772810852209896200,0.404896240234375,-0.0919485092163086,0.009541425853967667,0.021168142557144165
1772810852229657900,0.424657958984375,-0.07787418365478516,-0.0022845007479190826,-0.012141739018261433
1772810852249419800,0.444419677734375,-0.08026981353759766,0.019166897982358932,-0.019463039934635162
1772810852269181400,0.464181396484375,-0.07787513732910156,0.018955696374177933,0.018521614372730255
1772810852288943400,0.483943359375,-0.09464168548583984,0.0022351667284965515,0.025622591376304626
1772810852308705000,0.503705078125,-0.07308292388916016,0.028683170676231384,0.018454644829034805
1772810852328467000,0.523467041015625,-0.08266544342041016,-0.000014372169971466064,0.004307945258915424
1772810852348228600,0.543228515625,-0.06829166412353516,-0.002361506223678589,0.00841596070677042
1772810852367990500,0.562990478515625,-0.08266544342041016,-0.011894218623638153,0.013070403598248959
1772810852387752200,0.582752197265625,-0.08026981353759766,0.007161956280469894,-0.0013863099738955498
1772810852407514000,0.60251416015625,-0.08985137939453125,-0.011456727981567383,0.011312084272503853
1772810852427275800,0.62227587890625,-0.06619644165039062,0.0028091631829738617,0.011682054027915001
1772810852447037700,0.64203759765625,-0.05691337585449219,-0.011410783976316452,0.004762753844261169
1772810852466799400,0.66179931640625,-0.07817363739013672,-0.009017497301101685,0.009572535753250122
1772810852486561300,0.681561279296875,-0.07308292388916016,0.0004060901701450348,0.011934822425246239
1772810852506323500,0.701323486328125,-0.08506107330322266,0.010241109877824783,-0.00007428135722875595
1772810852526086000,0.7210859375,-0.08985042572021484,-0.004031199961900711,0.0069246236234903336
1772810852545848300,0.740848388671875,-0.09224605560302734,-0.0017423145473003387,0.011371604166924953
1772810852565610800,0.76061083984375,-0.07098579406738281,-0.008930608630180359,0.016024934127926826
1772810852585373200,0.780373291015625,-0.05930900573730469,0.0028876736760139465,0.011044775135815144
1772810852605135600,0.800135498046875,-0.06380081176757812,-0.016978546977043152,0.01749366894364357
1772810852624898000,0.81989794921875,-0.08715629577636719,-0.00031671300530433655,0.01511558797210455
1772810852644660500,0.839660400390625,-0.07787418365478516,-0.009848572313785553,0.005655096843838692
1772810852664423000,0.8594228515625,-0.08266544342041016,0.016494952142238617,0.010670889168977737
1772810852684185300,0.879185302734375,-0.08026981353759766,-0.00985659658908844,0.020371481776237488
1772810852703947800,0.89894775390625,-0.08266639709472656,0.0021168142557144165,0.032619256526231766
1772810852723710500,0.91871044921875,-0.08745765686035156,-0.00028209388256073,0.015618977136909962
1772810852743473000,0.938472900390625,-0.07547950744628906,0.0021093040704727173,0.010442339815199375
1772810852763235000,0.958235107421875,-0.06829166412353516,-0.00008275359869003296,0.022279998287558556
1772810852782997800,0.977997802734375,-0.07547855377197266,0.014437764883041382,0.005581607110798359
1772810852802760200,0.99776025390625,-0.07308197021484375,0.004902895539999008,0.00630246102809906
1772810852822522600,1.017522705078125,-0.07787418365478516,0.007241252809762955,0.01605435274541378
1772810852842285000,1.03728515625,-0.07068729400634766,0.014471687376499176,0.003940800204873085
1772810852862047500,1.057047607421875,-0.09434223175048828,0.00004360079765319824,0.0015126513317227364
1772810852881810000,1.076809814453125,-0.07547855377197266,0.0023832395672798157,-0.015231319703161716
1772810852901572400,1.096572265625,-0.07547664642333984,-0.009336333721876144,0.0157187320291996
1772810852921334800,1.116334716796875,-0.08984947204589844,-0.00434102863073349,-0.0035688262432813644
1772810852941097200,1.13609716796875,-0.08266353607177734,0.01710604876279831,0.0032335910946130753
1772810852960859600,1.155859619140625,-0.08506011962890625,0.007208608090877533,0.01033339649438858
1772810852980622000,1.1756220703125,-0.07547855377197266,-0.004873938858509064,0.007696771062910557
1772810853000384500,1.195384521484375,-0.07547855377197266,0.009089380502700806,-0.005170515738427639
1772810853020146400,1.215146484375,-0.06589603424072266,-0.017361819744110107,-0.00749567523598671
1772810853039908600,1.23490869140625,-0.06350040435791016,0.0016529448330402374,0.00006800331175327301
1772810853059670500,1.25467041015625,-0.082366943359375,-0.012821979820728302,0.0003430042415857315
1772810853079432700,1.2744326171875,-0.08925342559814453,-0.012820813804864883,0.0027021076530218124
1772810853099195000,1.29419482421875,-0.060807228088378906,-0.020106282085180283,0.009953114204108715
1772810853118956800,1.313956787109375,-0.09434223175048828,-0.01994718611240387,0.014496485702693462
1772810853138719000,1.333718994140625,-0.08685684204101562,0.008997645229101181,-0.012638059444725513
1772810853158481000,1.35348095703125,-0.06829166412353516,0.008990217000246048,0.0018020309507846832
1772810853178243000,1.3732431640625,-0.08206653594970703,-0.017511185258626938,0.0043155737221241
1772810853198005200,1.393005126953125,-0.07308387756347656,0.0017410852015018463,0.012463724240660667
1772810853217767200,1.41276708984375,-0.08266639709472656,-0.01019388996064663,-0.01785576343536377
1772810853237529300,1.432529296875,-0.07547950744628906,0.006619563326239586,0.001480589620769024
1772810853257291300,1.452291259765625,-0.06589794158935547,0.004528261721134186,0.0038927914574742317
1772810853277053400,1.472053466796875,-0.06619548797607422,0.004574544727802277,0.006149805150926113
1772810853296815600,1.491815673828125,-0.08985233306884766,-0.011799503117799759,0.01339974720031023
1772810853316577500,1.51157763671875,-0.09224796295166016,0.004808126017451286,0.011068866588175297
1772810853336339700,1.531339599609375,-0.07308387756347656,-0.01659204438328743,0.010823448188602924
1772810853356102000,1.551101806640625,-0.09703922271728516,0.002412421628832817,-0.005468950606882572
1772810853375863800,1.57086376953125,-0.07308483123779297,0.009538967162370682,0.006822698749601841
1772810853395626000,1.5906259765625,-0.08506202697753906,-0.002740081399679184,-0.0010988637804985046
1772810853415388000,1.610387939453125,-0.10362720489501953,-0.0008536223322153091,0.005401138216257095
1772810853435150000,1.630150146484375,-0.0895547866821289,0.03485041484236717,0.007501324638724327
1772810853454912300,1.649912353515625,-0.04254341125488281,-0.0035303793847560883,0.01225313637405634
1772810853474674200,1.669674072265625,-0.08985328674316406,0.006251230835914612,0.012213367968797684
1772810853494436400,1.689436279296875,-0.08745765686035156,-0.01530311070382595,0.012174024246633053
1772810853514197800,1.70919775390625,-0.07308483123779297,0.02056262083351612,0.007397409528493881
1772810853533959200,1.728959228515625,-0.08027172088623047,0.01581067405641079,-0.0022690482437610626
1772810853553720600,1.748720458984375,-0.0943441390991211,-0.015325378626585007,-0.00011326838284730911
1772810853573482000,1.76848193359375,-0.08745670318603516,-0.010325508192181587,0.0021442119032144547
1772810853593243100,1.7882431640625,-0.08027076721191406,-0.017350615933537483,-0.004814960993826389
1772810853613004500,1.808004638671875,-0.08266639709472656,-0.012607444077730179,0.000045783817768096924
1772810853632766000,1.827765869140625,-0.0751800537109375,0.018467646092176437,0.019010193645954132
1772810853652527400,1.84752734375,-0.09404373168945312,-0.003092994913458824,0.021411798894405365
1772810853672288800,1.867288818359375,-0.0895528793334961,-0.012928415089845657,0.0018113981932401657
1772810853692050200,1.88705029296875,-0.06829357147216797,-0.005741707980632782,-0.0007090577855706215
1772810853711811600,1.9068115234375,-0.07787704467773438,-0.025306006893515587,0.006543614901602268
1772810853731573000,1.926572998046875,-0.09404659271240234,0.0008441861718893051,0.01639198139309883
1772810853751334400,1.94633447265625,-0.08236885070800781,-0.0180121548473835,0.01879344880580902
1772810853771095800,1.966095703125,-0.07997322082519531,-0.008376803249120712,0.021296562626957893
1772810853790857200,1.985857177734375,-0.0943450927734375,-0.008271422237157822,0.014625039882957935
1772810853810618600,2.00561865234375,-0.09224891662597656,0.001203114166855812,0.0029123760759830475
1772810853830380000,2.025380126953125,-0.08266925811767578,0.008225485682487488,0.005827642977237701
1772810853850141400,2.045141357421875,-0.08985519409179688,-0.0012555457651615143,0.034919701516628265
1772810853869902800,2.06490283203125,-0.11081600189208984,0.020338186994194984,-0.008277413435280323
1772810853889664300,2.084664306640625,-0.09225082397460938,0.0033063702285289764,0.001271515153348446
1772810853909425700,2.10442578125,-0.1063232421875,0.0011157859116792679,0.02986236847937107
1772810853929187000,2.12418701171875,-0.08027267456054688,-0.012940559536218643,0.018007639795541763
1772810853948948500,2.143948486328125,-0.08506298065185547,0.010920928791165352,-0.027146093547344208
1772810853968710000,2.1637099609375,-0.08506393432617188,-0.015008097514510155,0.006314239464700222
1772810853988471300,2.18347119140625,-0.09704017639160156,-0.02894935943186283,0.030484456568956375
1772810854008233000,2.20323291015625,-0.0895538330078125,0.017911607399582863,-0.0019252384081482887
1772810854027995000,2.222994873046875,-0.08027172088623047,0.03476475179195404,0.012933761812746525
1772810854047756800,2.2427568359375,-0.0727853775024414,0.008570734411478043,0.015452920459210873
1772810854067518500,2.2625185546875,-0.0823678970336914,0.010965367779135704,0.03467308729887009
1772810854087280400,2.2822802734375,-0.06829261779785156,-0.012765303254127502,0.010845371522009373
1772810854107042300,2.302042236328125,-0.10123062133789062,-0.02700645476579666,0.010918932966887951
1772810854126804200,2.32180419921875,-0.05631446838378906,-0.010119214653968811,0.027645975351333618
1772810854146566100,2.341566162109375,-0.07068729400634766,-0.005264881998300552,0.0037710973992943764
1772810854166328000,2.361328125,-0.09404373168945312,-0.00036258623003959656,-0.0032261377200484276
1772810854186089700,2.38108984375,-0.09404277801513672,-0.009980399161577225,0.025375690311193466
1772810854205851600,2.4008515625,-0.08925342559814453,0.0019512809813022614,0.015313479118049145
1772810854225613600,2.420613525390625,-0.07727622985839844,0.011479452252388,-0.018129345029592514
1772810854245375500,2.44037548828125,-0.08685779571533203,0.004296880215406418,0.003506566397845745
1772810854265137200,2.46013720703125,-0.09164905548095703,-0.014795474708080292,0.01555032841861248
1772810854284899000,2.479899169921875,-0.09644031524658203,0.020868532359600067,0.0035981321707367897
1772810854304661000,2.499660888671875,-0.0703887939453125,0.006652221083641052,-0.015473435632884502
1772810854324423000,2.5194228515625,-0.08685779571533203,-0.014938466250896454,0.02749434858560562
1772810854344184800,2.539184814453125,-0.063201904296875,0.006271790713071823,0.02007080614566803
1772810854363946800,2.55894677734375,-0.09404468536376953,0.0011363513767719269,0.010414849035441875
1772810854383708400,2.57870849609375,-0.08685874938964844,-0.006037086248397827,0.017356401309370995
1772810854403470300,2.59847021484375,-0.07757568359375,0.0015993788838386536,0.015419027768075466
1772810854423232300,2.618232177734375,-0.0727853775024414,0.00863049179315567,-0.006055827252566814
1772810854442994200,2.637994140625,-0.0679941177368164,-0.0006852895021438599,-0.005867982283234596
1772810854462756000,2.657756103515625,-0.07967185974121094,0.008896075189113617,0.017892006784677505
1772810854482518000,2.67751806640625,-0.09643936157226562,-0.01259254664182663,0.006040339358150959
1772810854502280000,2.697280029296875,-0.09643936157226562,-0.00034921616315841675,0.0012756818905472755
1772810854522042400,2.71704248046875,-0.09164905548095703,0.002000361680984497,0.010927055962383747
1772810854541804500,2.736804443359375,-0.09883499145507812,0.006637774407863617,0.025149546563625336
1772810854561567000,2.75656689453125,-0.07967090606689453,0.011580336838960648,0.0008607367053627968
1772810854581329200,2.7763291015625,-0.08206653594970703,0.014176413416862488,0.022272126749157906
1772810854601091300,2.79609130859375,-0.08925151824951172,-0.004923619329929352,0.010962428525090218
1772810854620853800,2.815853759765625,-0.08446025848388672,-0.011884402483701706,0.01556028425693512
1772810854640616000,2.835615966796875,-0.09164714813232422,0.0023904256522655487,-0.00367561262100935
1772810854660378400,2.85537841796875,-0.09164619445800781,-0.011756796389818192,0.017739783972501755
1772810854680140500,2.875140625,-0.07996845245361328,-0.011686109006404877,0.0011531906202435493
1772810854699902700,2.89490283203125,-0.06828975677490234,0.009870864450931549,0.01818929985165596
1772810854719665200,2.9146650390625,-0.0868539810180664,-0.013907473534345627,0.006233955733478069
1772810854739427300,2.93442724609375,-0.07308101654052734,0.005206983536481857,0.006307065486907959
1772810854759189800,2.954189697265625,-0.0940399169921875,-0.009149119257926941,0.010908122174441814
1772810854778952000,2.973951904296875,-0.07787132263183594,0.00043989717960357666,0.015607825480401516
1772810854798714400,2.99371435546875,-0.06349849700927734,0.0028915181756019592,0.013432945124804974
1772810854818476500,3.0134765625,-0.07996749877929688,-0.0017354600131511688,-0.0008601220324635506
1772810854838239000,3.033239013671875,-0.07996749877929688,-0.001726292073726654,-0.003018677234649658
1772810854858001200,3.053001220703125,-0.07996845245361328,-0.0018199943006038666,0.021200451999902725
1772810854877763600,3.072763671875,-0.07996749877929688,0.02461540699005127,0.021000556647777557
1772810854897525800,3.09252587890625,-0.08475875854492188,0.0031120665371418,0.004307428374886513
1772810854917288000,3.112287841796875,-0.06589221954345703,-0.0015151649713516235,0.02342171035706997
1772810854937050400,3.13205029296875,-0.06828784942626953,0.0009384974837303162,0.01614268869161606
1772810854956812500,3.1518125,-0.0916433334350586,0.0010480992496013641,0.02104155905544758
1772810854976575000,3.171574951171875,-0.07547378540039062,0.00838778167963028,0.016312282532453537
1772810854996337400,3.19133740234375,-0.08236122131347656,0.006045058369636536,0.0015635406598448753
1772810855016100600,3.2111005859375,-0.0844573974609375,0.0037563256919384003,0.008314407430589199
1772810855035863600,3.230863525390625,-0.0748739242553711,0.0015214905142784119,0.017697805538773537
1772810855055626800,3.250626708984375,-0.08445453643798828,-0.013076849281787872,0.007887580431997776
1772810855075390000,3.270389892578125,-0.08685111999511719,0.024827778339385986,0.0004292083904147148
1772810855095153000,3.29015283203125,-0.07008171081542969,-0.0016162656247615814,0.019289655610919
1772810855114916000,3.309916015625,-0.06558990478515625,0.0007858723402023315,0.004681695252656937
1772810855134679300,3.32967919921875,-0.0844564437866211,0.0030821003019809723,0.02140153758227825
1772810855154442200,3.349442138671875,-0.0772695541381836,0.0006933249533176422,0.0023660389706492424
1772810855174205400,3.369205322265625,-0.0892477035522461,-0.00902540609240532,0.00962072890251875
1772810855193968600,3.38896875,-0.0868520736694336,0.012877754867076874,0.017476174980401993
1772810855213731600,3.408731689453125,-0.0772705078125,-0.005972251296043396,0.017782103270292282
1772810855233494800,3.428494873046875,-0.0868520736694336,0.0010656379163265228,0.013705150224268436
1772810855253258000,3.448258056640625,-0.07307815551757812,0.013035137206315994,0.008982835337519646
1772810855273021200,3.468021240234375,-0.07517433166503906,-0.008403334766626358,0.016023457050323486
1772810855292784000,3.4877841796875,-0.0868520736694336,0.0061248913407325745,0.013691745698451996
1772810855312547300,3.50754736328125,-0.082061767578125,0.025265846401453018,0.011619909666478634
1772810855332310500,3.527310546875,-0.06828689575195312,-0.003519684076309204,0.00913808774203062
1772810855352073500,3.547073486328125,-0.07307815551757812,0.001225646585226059,0.004575728438794613
1772810855371836700,3.566836669921875,-0.0892477035522461,0.01563868299126625,0.0023086871951818466
1772810855391599900,3.586599853515625,-0.08236122131347656,0.006056945770978928,0.021123463287949562
1772810855411363000,3.606363037109375,-0.07277965545654297,0.0035614222288131714,0.004181756637990475
1772810855431126000,3.6261259765625,-0.051520347595214844,0.0011720433831214905,0.021158788353204727
1772810855450889200,3.64588916015625,-0.0844583511352539,-0.008443329483270645,-0.017222685739398003
1772810855470652400,3.66565234375,-0.07038307189941406,0.013210315257310867,0.004359201528131962
1772810855490415400,3.685415283203125,-0.0796661376953125,0.001342032104730606,0.013951274566352367
1772810855510178300,3.70517822265625,-0.10362052917480469,0.01102103665471077,0.014168108813464642
1772810855529941500,3.72494140625,-0.0796670913696289,-0.022685661911964417,-0.0026203030720353127
1772810855549704400,3.744704345703125,-0.0772714614868164,0.015681255608797073,0.03111124038696289
1772810855569467400,3.76446728515625,-0.0676889419555664,0.010780710726976395,-0.0024460987187922
1772810855589230300,3.784230224609375,-0.0748758316040039,-0.0012390203773975372,0.01687922701239586
1772810855608993300,3.8039931640625,-0.0868539810180664,0.003555282950401306,0.021671101450920105
1772810855628756200,3.823756103515625,-0.07996654510498047,-0.008403535932302475,0.021619226783514023
1772810855648519200,3.843519287109375,-0.06349754333496094,0.0036799833178520203,0.014545322395861149
1772810855668282000,3.8632822265625,-0.07757091522216797,0.010962840169668198,0.01684330403804779
1772810855688045000,3.883045166015625,-0.0892486572265625,0.006161775439977646,-0.004641708917915821
1772810855707808000,3.90280810546875,-0.06559181213378906,0.003833245486021042,0.004862571135163307
1772810855727571000,3.922571044921875,-0.08236122131347656,0.015964653342962265,0.009672954678535461
1772810855747334000,3.942333984375,-0.06798648834228516,0.01117919385433197,0.022096950560808182
1772810855767096800,3.962096923828125,-0.0796651840209961,0.0017187930643558502,-0.0044212788343429565
1772810855786860000,3.981860107421875,-0.09433746337890625,0.011151175945997238,0.005391721613705158
1772810855806623000,4.001623046875,-0.0844564437866211,0.03258312866091728,0.014778505079448223
1772810855826386000,4.021385986328125,-0.06589221954345703,-0.007964096963405609,0.015151431784033775
1772810855846148900,4.04114892578125,-0.07277965545654297,0.008709441870450974,0.0029955455102026463
1772810855865911800,4.060911865234375,-0.07308006286621094,-0.000758003443479538,0.022161195054650307
1772810855885674800,4.0806748046875,-0.08505821228027344,0.0010986439883708954,0.007602422498166561
1772810855905437700,4.100437744140625,-0.06828975677490234,0.0132741779088974,0.012357044965028763
1772810855925200600,4.12020068359375,-0.07517623901367188,-0.010490406304597855,0.002803955227136612
1772810855944963600,4.139963623046875,-0.09194469451904297,0.006220150738954544,0.0010685259476304054
1772810855964726500,4.1597265625,-0.07996845245361328,-0.0011326000094413757,0.022701311856508255
1772810855984489500,4.179489501953125,-0.07308101654052734,0.0012814663350582123,0.005801931023597717
1772810856004251600,4.199251708984375,-0.06349849700927734,-0.0015355199575424194,0.03403546288609505
1772810856024012800,4.2190126953125,-0.07757186889648438,-0.013524800539016724,0.01477920450270176
1772810856043774200,4.238774169921875,-0.06559467315673828,0.005548197776079178,0.012552560307085514
1772810856063535400,4.258535400390625,-0.07517719268798828,0.003168754279613495,0.021980538964271545
1772810856083296800,4.278296875,-0.0940408706665039,-0.0017541572451591492,0.01704164780676365
1772810856103058200,4.29805810546875,-0.07996940612792969,0.007579144090414047,-0.001880735158920288
1772810856122819300,4.3178193359375,-0.07068538665771484,0.002855919301509857,0.004916751757264137
1772810856142580700,4.337580810546875,-0.08445930480957031,0.007707700133323669,0.007282119244337082
1772810856162342100,4.357342041015625,-0.07068538665771484,0.005324907600879669,0.0046023717150092125
1772810856182103300,4.377103271484375,-0.07278060913085938,0.010276135057210922,-0.00499142799526453
1772810856201864700,4.39686474609375,-0.08206462860107422,0.0005588531494140625,0.01597682014107704
1772810856221625900,4.4166259765625,-0.07248210906982422,-0.01132972165942192,0.01853155717253685
1772810856241387300,4.43638720703125,-0.08206462860107422,0.012575238943099976,-0.010476245544850826
1772810856261148700,4.456148681640625,-0.06319808959960938,0.019752327352762222,0.015675367787480354
1772810856280909800,4.475909912109375,-0.08445930480957031,0.0007112212479114532,0.013292113319039345
1772810856300671200,4.495671142578125,-0.0796670913696289,-0.013362865895032883,0.013304059393703938
1772810856320432600,4.5154326171875,-0.0772714614868164,0.012287251651287079,0.01037798821926117
1772810856340193800,4.53519384765625,-0.0844583511352539,0.0027733445167541504,0.000517883338034153
1772810856359955200,4.554955078125,-0.07277965545654297,0.0049752481281757355,-0.004388818517327309
1772810856379716600,4.574716552734375,-0.0772714614868164,-0.014249671250581741,0.005319545976817608
1772810856399477800,4.594477783203125,-0.07038497924804688,0.00028777867555618286,0.010477643460035324
1772810856419239200,4.6142392578125,-0.07038497924804688,0.01261737197637558,0.013133056461811066
1772810856439000600,4.63400048828125,-0.07038402557373047,0.005494516342878342,0.0034232307225465775
1772810856458761700,4.65376171875,-0.07517528533935547,-0.008740998804569244,0.015254157595336437
1772810856478523100,4.673523193359375,-0.06559276580810547,-0.0038720443844795227,0.0035095252096652985
1772810856498284500,4.693284423828125,-0.06110191345214844,-0.018299315124750137,0.010659237392246723
1772810856518046000,4.7130458984375,-0.0820627212524414,0.012636207044124603,0.032251834869384766
1772810856537807600,4.7328076171875,-0.07757186889648438,0.010090343654155731,0.008006480522453785
1772810856557569000,4.752569091796875,-0.058707237243652344,0.0028681159019470215,0.0029846029356122017
1772810856577330700,4.77233056640625,-0.05840778350830078,0.00038917362689971924,0.021939333528280258
1772810856597092400,4.79209228515625,-0.07966804504394531,0.00035763904452323914,0.010071376338601112
1772810856616853800,4.811853759765625,-0.07547569274902344,0.0075524188578128815,0.00814902875572443
1772810856636615400,4.831615478515625,-0.07068443298339844,0.007406119257211685,0.014982055872678757
1772810856656376800,4.851376953125,-0.07308006286621094,-0.004492036998271942,0.014989612624049187
1772810856676138500,4.871138427734375,-0.07068538665771484,0.01201949268579483,0.010214931331574917
1772810856695900200,4.890900146484375,-0.05631256103515625,0.007082466036081314,0.0004576360806822777
1772810856715661600,4.91066162109375,-0.06828975677490234,0.00041132792830467224,0.005271659232676029
1772810856735423200,4.93042333984375,-0.07308101654052734,-0.0018056593835353851,0.0004093572497367859
1772810856755185000,4.950184814453125,-0.058707237243652344,-0.0017820745706558228,0.015182665549218655
1772810856774946300,4.9699462890625,-0.08236312866210938,-0.013664856553077698,0.019818296656012535
1772810856794708000,4.9897080078125,-0.07517623901367188,-0.013920612633228302,0.007159884087741375
1772810856814469400,5.009469482421875,-0.06319808959960938,0.009739283472299576,-0.0006951801478862762
1772810856834231000,5.02923095703125,-0.07248115539550781,-0.01895466074347496,0.006563826464116573
1772810856853992700,5.04899267578125,-0.07727336883544922,0.0021672099828720093,0.0060899388045072556
1772810856873754000,5.068754150390625,-0.08206462860107422,0.01618242636322975,0.008399940095841885
1772810856893515800,5.088515869140625,-0.07008552551269531,-0.005296081304550171,0.0034796707332134247
1772810856913277200,5.108277099609375,-0.07038497924804688,-0.012441206723451614,0.011040807701647282
1772810856933038800,5.128038818359375,-0.07966804504394531,-0.005173921585083008,0.008662711828947067
1772810856952800500,5.147800537109375,-0.09613609313964844,-0.0028045661747455597,0.013720969669520855
1772810856972562000,5.16756201171875,-0.091644287109375,0.02368079125881195,0.015759751200675964
1772810856992323600,5.187323486328125,-0.07517623901367188,-0.007087007164955139,0.016414687037467957
1772810857012085500,5.20708544921875,-0.05870628356933594,-0.003962129354476929,0.014316500164568424
1772810857031847400,5.226847412109375,-0.08266162872314453,0.007918830960988998,0.0006758719682693481
1772810857051609300,5.246609375,-0.07068347930908203,-0.004031047224998474,0.0174984373152256
1772810857071371300,5.266371337890625,-0.05631256103515625,-0.00660146027803421,-0.0014247437939047813
1772810857091133200,5.28613330078125,-0.08745384216308594,0.01718943566083908,-0.0012357411906123161
1772810857110895000,5.30589501953125,-0.07068634033203125,0.01712847873568535,0.013300389982759953
1772810857130657000,5.325656982421875,-0.07547760009765625,0.00043132156133651733,0.013360354118049145
1772810857150419000,5.3454189453125,-0.07308197021484375,0.007521908730268478,0.00649394653737545
1772810857170180900,5.365180908203125,-0.08505916595458984,0.0051380544900894165,0.01856394112110138
1772810857189942800,5.38494287109375,-0.049427032470703125,-0.004415847361087799,-0.005699748173356056
1772810857209704700,5.40470458984375,-0.0847616195678711,0.019267849624156952,0.013072525151073933
1772810857229466600,5.424466552734375,-0.07068729400634766,-0.016717426478862762,0.0010241465643048286
1772810857249228800,5.444228759765625,-0.06829166412353516,0.014419257640838623,0.007921329699456692
1772810857268990700,5.46399072265625,-0.07787418365478516,-0.01438366249203682,0.003312986344099045
1772810857288752600,5.483752685546875,-0.07547950744628906,0.009317226707935333,0.0249137245118618
1772810857308514600,5.5035146484375,-0.07068824768066406,-0.017033878713846207,0.017986714839935303
1772810857328276500,5.5232763671875,-0.087158203125,0.0019920729100704193,0.003589046187698841
1772810857348038400,5.543038330078125,-0.0895528793334961,-0.005215849727392197,0.01552080363035202
1772810857367800300,5.56280029296875,-0.07068920135498047,-0.012462252750992775,0.0037261806428432465
1772810857387562200,5.582562255859375,-0.06589794158935547,-0.012419354170560837,0.022676419466733932
1772810857407324200,5.60232421875,-0.0751800537109375,-0.008140120655298233,0.00015848223119974136
1772810857427086000,5.622086181640625,-0.072784423828125,-0.01054786890745163,0.002580740489065647
1772810857446848000,5.641847900390625,-0.08446311950683594,-0.020021140575408936,0.018985621631145477
1772810857466610000,5.66160986328125,-0.0799703598022461,-0.010290760546922684,0.01399951335042715
1772810857486371800,5.681371826171875,-0.0632009506225586,-0.010434683412313461,-0.0008382294327020645
1772810857506134000,5.701134033203125,-0.0655965805053711,-0.012918125838041306,0.013249834068119526
1772810857525896000,5.72089599609375,-0.05841064453125,-0.015397032722830772,0.015665747225284576
1772810857545658000,5.740658203125,-0.0679922103881836,-0.010543383657932281,-0.008173367939889431
1772810857565420000,5.760419921875,-0.07487964630126953,0.008400477468967438,0.00838039442896843
1772810857585182200,5.78018212890625,-0.08925247192382812,0.003543257713317871,-0.004149421118199825
1772810857604944100,5.799944091796875,-0.0775747299194336,0.006270162761211395,0.011449530720710754
1772810857624706300,5.819706298828125,-0.07308292388916016,-0.010538339614868164,0.011374629102647305
1772810857644468500,5.839468505859375,-0.07068729400634766,-0.003199279308319092,0.011299606412649155
1772810857664230400,5.85923046875,-0.05871009826660156,0.0015806593000888824,0.011328061111271381
1772810857683992300,5.878992431640625,-0.0799703598022461,-0.0033155567944049835,0.013695435598492622
1772810857703754500,5.89875439453125,-0.04673194885253906,-0.007749360054731369,0.013461215421557426
1772810857723516400,5.918516357421875,-0.056313514709472656,0.01617739349603653,0.003870108164846897
1772810857743278600,5.938278564453125,-0.08475971221923828,0.002040516585111618,-0.013236886821687222
1772810857763040800,5.958040771484375,-0.07068538665771484,0.004615277051925659,-0.0013110842555761337
1772810857782802700,5.977802734375,-0.05870819091796875,0.009380292147397995,0.0033677546307444572
1772810857802564900,5.99756494140625,-0.08715438842773438,-0.007485181093215942,-0.015272434800863266
1772810857822326800,6.017326904296875,-0.07068538665771484,-0.00025420263409614563,0.003781796433031559
1772810857842089000,6.0370888671875,-0.08026790618896484,-0.009722493588924408,0.006216190755367279
1772810857861851000,6.056850830078125,-0.06589412689208984,-0.012103356420993805,0.0014213724061846733
1772810857881613000,6.076613037109375,-0.08984947204589844,0.009429756551980972,0.016123924404382706
1772810857901375000,6.096375,-0.06589412689208984,0.0023342370986938477,-0.0002924809232354164
1772810857921137200,6.11613720703125,-0.08984947204589844,-0.000017113983631134033,0.004737822338938713
1772810857940899000,6.135899169921875,-0.07068538665771484,0.007250744849443436,0.00925283320248127
1772810857960661200,6.1556611328125,-0.07547664642333984,-0.0024891532957553864,0.011832033284008503
1772810857980423200,6.175423095703125,-0.07308101654052734,0.019179977476596832,0.002297133207321167
1772810858000185600,6.195185546875,-0.05900764465332031,-0.0001466013491153717,0.01832755282521248
1772810858019948500,6.214948486328125,-0.07068634033203125,-0.0026484914124011993,-0.0007325978949666023
1772810858039711500,6.23471142578125,-0.07547664642333984,0.004572693258523941,0.00638969149440527
1772810858059474400,6.254474365234375,-0.07068538665771484,-0.0025133565068244934,0.018434667959809303
1772810858079237000,6.274237060546875,-0.06379985809326172,0.004449807107448578,-0.003170223906636238
1772810858099000000,6.294,-0.07068538665771484,-0.00019393488764762878,0.01591050997376442
1772810858118763000,6.313762939453125,-0.06589508056640625,0.001983208581805229,0.003977145068347454
1772810858138526000,6.33352587890625,-0.07787322998046875,-0.007643131539225578,0.0039177825674414635
1772810858158289000,6.353288818359375,-0.07308292388916016,0.004317641258239746,0.021191073581576347
1772810858178051600,6.373051513671875,-0.07068729400634766,0.008928151801228523,-0.00021291431039571762
1772810858197814500,6.392814453125,-0.08266544342041016,-0.019682960584759712,0.011494390666484833
1772810858217577500,6.412577392578125,-0.06829166412353516,0.0016067419201135635,0.0062360623851418495
1772810858237340400,6.43234033203125,-0.07068729400634766,0.003986474126577377,-0.01300500426441431
1772810858257103400,6.452103271484375,-0.06110572814941406,-0.005540451034903526,0.025170139968395233
1772810858276866300,6.4718662109375,-0.07787418365478516,-0.005691599100828171,0.003604268655180931
1772810858296629000,6.49162890625,-0.05871009826660156,0.011201076209545135,0.0011543501168489456
1772810858316392000,6.511391845703125,-0.06829166412353516,-0.0008344613015651703,0.010559579357504845
1772810858336155000,6.53115478515625,-0.06110572814941406,-0.015288077294826508,0.0130319120362401
1772810858355917800,6.550917724609375,-0.07787418365478516,0.00386006198823452,0.008224143646657467
1772810858375680800,6.5706806640625,-0.07308292388916016,0.00623517669737339,0.010340791195631027
1772810858395443500,6.590443359375,-0.061405181884765625,-0.0009055417031049728,-0.0061144037172198296
1772810858415206400,6.610206298828125,-0.07787418365478516,0.010938899591565132,0.015766195952892303
1772810858434969300,6.62996923828125,-0.059009552001953125,0.004087511450052261,0.0062252189964056015
1772810858454732300,6.649732177734375,-0.061405181884765625,0.020610086619853973,0.010995779186487198
1772810858474495200,6.6694951171875,-0.07098674774169922,-0.007374856621026993,-0.005708024837076664
1772810858494258000,6.6892578125,-0.07787418365478516,0.016435516998171806,-0.005900496616959572
1772810858514020600,6.7090205078125,-0.0781717300415039,0.00464751198887825,0.0014292486011981964
1772810858533783300,6.728783203125,-0.04014396667480469,-0.014597797766327858,0.02085176296532154
1772810858553546000,6.7485458984375,-0.06619453430175781,-0.0075074899941682816,0.013586580753326416
1772810858573308700,6.76830859375,-0.05661296844482422,-0.00037979520857334137,0.01330290175974369
1772810858593071400,6.7880712890625,-0.06379985809326172,-0.003076128661632538,0.015276356600224972
1772810858612833800,6.807833740234375,-0.056613922119140625,0.013357331976294518,-0.007020651362836361
1772810858632596500,6.827596435546875,-0.054218292236328125,-0.003566710278391838,-0.004666103981435299
1772810858652359200,6.847359130859375,-0.07308292388916016,0.010724473744630814,0.012027309276163578
1772810858672121900,6.867121826171875,-0.05182361602783203,0.01069440133869648,-0.00467818696051836
1772810858691884500,6.886884521484375,-0.056613922119140625,0.005832064896821976,-0.012301723472774029
1772810858711647200,6.906647216796875,-0.07068634033203125,0.015477297827601433,0.016514601185917854
1772810858731409700,6.92640966796875,-0.0847616195678711,-0.0038413256406784058,-0.00030355993658304214
1772810858751172400,6.94617236328125,-0.07547855377197266,-0.008622244000434875,-0.0053918566554784775
1772810858770935000,6.96593505859375,-0.07068634033203125,0.005679294466972351,-0.0007526874542236328
1772810858790697700,6.98569775390625,-0.08955097198486328,-0.001058485358953476,0.007070583291351795
1772810858810460400,7.00546044921875,-0.0685892105102539,-0.019888782873749733,0.00027791503816843033
1772810858830223000,7.02522314453125,-0.06170177459716797,0.018340900540351868,-0.002111392095685005
1772810858849985500,7.044985595703125,-0.0733804702758789,0.013720285147428513,0.004912260919809341
1772810858869748200,7.064748291015625,-0.09224605560302734,-0.010375190526247025,0.002615939825773239
1772810858889511000,7.084510986328125,-0.06409931182861328,0.01822107844054699,0.0026638060808181763
1772810858909273600,7.104273681640625,-0.06409835815429688,-0.003235703334212303,0.0052052270621061325
1772810858929036300,7.124036376953125,-0.0757761001586914,-0.0006404761224985123,-0.01601984351873398
1772810858948799000,7.143799072265625,-0.04972648620605469,0.0039273593574762344,0.01050531305372715
1772810858968561700,7.163561767578125,-0.08745479583740234,-0.010131970047950745,0.0032109031453728676
1772810858988324000,7.183323974609375,-0.04523468017578125,-0.000608149915933609,0.007935397326946259
1772810859008086300,7.203086181640625,-0.05421733856201172,0.02717297151684761,-0.014789644628763199
1772810859027848400,7.222848388671875,-0.06829071044921875,0.005995884537696838,0.0114862360060215
1772810859047610600,7.242610595703125,-0.07787227630615234,-0.00353454053401947,0.0065796347334980965
1772810859067372500,7.26237255859375,-0.061702728271484375,-0.0034319795668125153,0.0017860746011137962
1772810859087134700,7.282134765625,-0.07308101654052734,0.01305285096168518,0.006616286002099514
1772810859106897000,7.30189697265625,-0.05661201477050781,0.0009104888886213303,-0.01043817587196827
1772810859126658800,7.321658935546875,-0.07547664642333984,-0.0015927515923976898,0.010737692937254906
1772810859146421000,7.3414208984375,-0.07547664642333984,-0.018030576407909393,0.010767634958028793
1772810859166183200,7.36118310546875,-0.08505916595458984,-0.004110980778932571,-0.00120598915964365
1772810859185945000,7.380945068359375,-0.0637979507446289,-0.008787227794528008,-0.0034885434433817863
1772810859205707300,7.400707275390625,-0.085357666015625,-0.00035814009606838226,0.019531026482582092
1772810859225469200,7.42046923828125,-0.06170177459716797,0.011638451367616653,0.015116265043616295
1772810859245231400,7.4402314453125,-0.07607555389404297,0.014153677970170975,0.007774388417601585
1772810859264993500,7.45999365234375,-0.07367801666259766,-0.0025005601346492767,-0.004196238704025745
1772810859284755500,7.47975537109375,-0.08565616607666016,0.014190293848514557,0.0077094417065382
1772810859304517600,7.499517578125,-0.07607460021972656,-0.011983903124928474,-0.009000655263662338
1772810859324279800,7.51927978515625,-0.06918716430664062,0.006870316341519356,0.015216784551739693
1772810859344041700,7.539041748046875,-0.06679153442382812,-0.002000141888856888,0.012996017932891846
1772810859363804000,7.558803955078125,-0.06918811798095703,0.01702796295285225,0.003506174311041832
1772810859383565800,7.57856591796875,-0.06679248809814453,0.005147654563188553,0.001208484172821045
1772810859403328000,7.598327880859375,-0.056911468505859375,0.0013500191271305084,0.011569375172257423
1772810859423090200,7.618090087890625,-0.06140327453613281,0.008626081049442291,-0.014593704603612423
1772810859442852000,7.63785205078125,-0.07577705383300781,0.0155254527926445,-0.012429103255271912
1772810859462614300,7.6576142578125,-0.08296489715576172,0.008274322375655174,0.009212709031999111
1772810859482376400,7.67737646484375,-0.08266544342041016,0.010496966540813446,-0.004994594492018223
1772810859502138000,7.69713818359375,-0.07098674774169922,-0.0014717169106006622,-0.014647194184362888
1772810859521899300,7.716899169921875,-0.07787418365478516,-0.0062438249588012695,0.011470266617834568
1772810859541660700,7.73666064453125,-0.06170368194580078,0.005622943863272667,0.005912149325013161
1772810859561421800,7.756421875,-0.06619548797607422,-0.0017092283815145493,0.015511206351220608
1772810859581183200,7.776183349609375,-0.06379985809326172,-0.006429031491279602,0.00820312462747097
1772810859600944400,7.7959443359375,-0.05212116241455078,-0.011035319417715073,0.0033015403896570206
1772810859620705500,7.81570556640625,-0.07787322998046875,0.0004919394850730896,0.01997339352965355
1772810859640467000,7.835467041015625,-0.06829166412353516,-0.009075162932276726,0.012809013947844505
1772810859660228000,7.85522802734375,-0.06589794158935547,-0.0026830341666936874,-0.001663820818066597
1772810859679989500,7.874989501953125,-0.08266639709472656,-0.005319166928529739,0.010135918855667114
1772810859699750700,7.894750732421875,-0.05422019958496094,0.004104083403944969,0.010113626718521118
1772810859719512000,7.914511962890625,-0.08027076721191406,-0.0007319375872612,-0.004302041605114937
1772810859739273200,7.934273193359375,-0.06140613555908203,-0.010285608470439911,0.009944846853613853
1772810859759034600,7.95403466796875,-0.05661582946777344,0.0016413237899541855,0.0026999861001968384
1772810859778795800,7.973795654296875,-0.05422019958496094,0.023308448493480682,-0.00044787488877773285
1772810859798557200,7.99355712890625,-0.08027076721191406,-0.007366755977272987,-0.006617143750190735
1772810859818318300,8.013318359375,-0.0784749984741211,0.002658095210790634,0.002165732905268669
1772810859838079700,8.033079833984376,-0.07607841491699219,-0.00430687703192234,0.004809672012925148
1772810859857841000,8.0528408203125,-0.059609413146972656,0.019350970163941383,0.013999700546264648
1772810859877602300,8.072602294921875,-0.0736837387084961,0.016973787918686867,0.009292256087064743
1772810859897363500,8.092363525390626,-0.0880575180053711,-0.002385571599006653,0.0002690199762582779
1772810859917124600,8.11212451171875,-0.0712900161743164,0.004692016169428825,0.007995996624231339
1772810859936886000,8.131885986328125,-0.06679821014404297,-0.004482053220272064,0.005486227571964264
1772810859956647200,8.151647216796874,-0.07129096984863281,-0.002334240823984146,0.008122518658638
1772810859976408600,8.17140869140625,-0.06200885772705078,-0.021546509116888046,0.005819214507937431
1772810859996170000,8.191169921875,-0.07398796081542969,0.009124530479311943,0.010700291022658348
1772810860015932400,8.210932373046875,-0.06650161743164062,0.0017430968582630157,0.012923008762300014
1772810860035694600,8.230694580078126,-0.08087539672851562,0.008656946942210197,-0.011107943952083588
1772810860055457000,8.25045703125,-0.07847976684570312,-0.005542803555727005,-0.011029064655303955
1772810860075219200,8.27021923828125,-0.05242919921875,-0.015085186809301376,0.010816380381584167
1772810860094981600,8.289981689453125,-0.059314727783203125,-0.02460501529276371,-0.0010017398744821548
1772810860114743800,8.309743896484376,-0.07368946075439453,0.016034958884119987,-0.000791759230196476
1772810860134506200,8.32950634765625,-0.07368946075439453,-0.005609642714262009,0.0040426235646009445
1772810860154268400,8.349268310546876,-0.07368850708007812,-0.00803324580192566,-0.0010034553706645966
1772810860174030600,8.369030517578125,-0.06200981140136719,0.008668778464198112,0.013031207025051117
1772810860193793000,8.38879296875,-0.07368850708007812,0.003925900906324387,0.007924491539597511
1772810860213555200,8.40855517578125,-0.057219505310058594,0.001583760604262352,0.012337693944573402
1772810860233317600,8.428317626953126,-0.07129287719726562,0.011248353868722916,0.002802819013595581
1772810860253079800,8.448079833984375,-0.06171131134033203,-0.007840525358915329,0.012305928394198418
1772810860272842200,8.46784228515625,-0.08776187896728516,0.008665481582283974,0.017213474959135056
1772810860292604400,8.4876044921875,-0.05931377410888672,-0.0006101280450820923,0.011983626522123814
1772810860312366800,8.507366943359376,-0.056919097900390625,0.0017865151166915894,-0.004874857142567635
1772810860332129000,8.52712890625,-0.05212879180908203,0.006412884220480919,-0.0069426558911800385
1772810860351891500,8.546891357421876,-0.05452442169189453,0.008298326283693314,0.017025122418999672
1772810860371653600,8.566653564453125,-0.052428245544433594,-0.007950540632009506,-0.004212650470435619
1772810860391416000,8.586416015625,-0.07847976684570312,-0.0030437763780355453,-0.0039025014266371727
1772810860411178200,8.60617822265625,-0.06200981140136719,0.016293497756123543,0.013887740671634674
1772810860430940700,8.625940673828126,-0.07608318328857422,-0.012221982702612877,0.020717406645417213
1772810860450702800,8.645702880859375,-0.06200885772705078,-0.009396612644195557,0.018434956669807434
1772810860470465300,8.66546533203125,-0.08327007293701172,0.004763979464769363,0.006443940103054047
1772810860490227500,8.6852275390625,-0.055123329162597656,-0.002566266804933548,0.0018048882484436035
1772810860509989400,8.7049892578125,-0.05242919921875,-0.007334558293223381,0.016399480402469635
1772810860529751600,8.72475146484375,-0.09045696258544922,-0.00019390322268009186,0.009038243442773819
1772810860549513500,8.744513427734375,-0.07847976684570312,0.009268030524253845,-0.0077107492834329605
1772810860569275400,8.764275390625,-0.057219505310058594,0.0020816586911678314,0.009439138695597649
1772810860589037300,8.784037353515625,-0.06470489501953125,-0.0002561379224061966,0.0073792580515146255
1772810860608799200,8.80379931640625,-0.04554176330566406,-0.0026404112577438354,0.009209099225699902
1772810860628561200,8.82356103515625,-0.0715932846069336,-0.010004272684454918,0.006749652326107025
1772810860648323300,8.8433232421875,-0.06680107116699219,0.002179771661758423,0.006840393878519535
1772810860668085200,8.863085205078125,-0.06919670104980469,-0.00015824846923351288,0.01404905691742897
1772810860687847200,8.88284716796875,-0.07847976684570312,0.002237332984805107,0.0067985039204359055
1772810860707609000,8.902609130859375,-0.0644063949584961,0.004678646102547646,0.011617185547947884
1772810860727371000,8.92237109375,-0.06440544128417969,0.01194501481950283,0.013776742853224277
1772810860747133000,8.9421328125,-0.06440448760986328,0.0024656932801008224,0.013696039095520973
1772810860766895000,8.96189501953125,-0.07398700714111328,-0.02148376777768135,0.008733510039746761
1772810860786657000,8.981656982421875,-0.08087539672851562,0.007147163152694702,0.003833998925983906
1772810860806419000,9.0014189453125,-0.07608318328857422,-0.012425601482391357,-0.01095309667289257
1772810860826180900,9.021180908203124,-0.07398605346679688,-0.014574466273188591,0.005598756484687328
1772810860845942800,9.04094287109375,-0.0641031265258789,-0.0001956690102815628,-0.006617060862481594
1772810860865704700,9.06070458984375,-0.057216644287109375,-0.014374112710356712,0.007740804925560951
1772810860885466600,9.080466552734375,-0.0736856460571289,0.01184968650341034,0.005181333050131798
1772810860905228800,9.100228759765624,-0.0736856460571289,0.004605712369084358,0.01234150119125843
1772810860924990700,9.11999072265625,-0.0641031265258789,0.014313660562038422,0.009926332160830498
1772810860944752600,9.139752685546876,-0.05212593078613281,-0.0215613916516304,0.0026341676712036133
1772810860964514600,9.1595146484375,-0.0712890625,-0.0047758519649505615,-0.0020958445966243744
1772810860984276500,9.1792763671875,-0.0736846923828125,0.011969193816184998,-0.002035340294241905
1772810861004038100,9.1990380859375,-0.05032920837402344,0.007866593077778816,0.0056884028017520905
1772810861023799600,9.218799560546875,-0.07398414611816406,-0.006582779809832573,0.003336498513817787
1772810861043561000,9.23856103515625,-0.06679821014404297,0.0054092369973659515,-0.013512449339032173
1772810861063322000,9.258322021484375,-0.045538902282714844,0.010152004659175873,-0.0013343412429094315
1772810861083083500,9.27808349609375,-0.047934532165527344,-0.004234425723552704,0.006085984408855438
1772810861102845000,9.297844970703125,-0.06919288635253906,0.0030757971107959747,0.017804279923439026
1772810861122606300,9.3176064453125,-0.07637977600097656,0.003148093819618225,0.008296428248286247
1772810861142367500,9.337367431640626,-0.08117103576660156,-0.013559073209762573,0.0010979380458593369
1772810861162129000,9.35712890625,-0.07398414611816406,-0.013395579531788826,-0.0035500340163707733
1772810861181890300,9.376890380859376,-0.06470012664794922,-0.0013866182416677475,0.010983139276504517
1772810861201651700,9.396651611328124,-0.05272483825683594,-0.0013040434569120407,0.010609008371829987
1772810861221413000,9.4164130859375,-0.07158851623535156,0.0034550055861473083,0.013120593503117561
1772810861241174300,9.43617431640625,-0.059909820556640625,0.0057612694799900055,0.032508254051208496
1772810861260935700,9.455935791015625,-0.0712890625,0.005826964974403381,0.025099193677306175
1772810861280697000,9.475697021484375,-0.06919193267822266,-0.010732127353549004,-0.013202983886003494
1772810861300458500,9.49545849609375,-0.076080322265625,0.010622607544064522,0.01066700927913189
1772810861320219600,9.5152197265625,-0.06709671020507812,-0.01352856494486332,0.001076599583029747
1772810861339981000,9.53498095703125,-0.06919288635253906,-0.00884278304874897,0.012860679998993874
1772810861359742500,9.554742431640625,-0.07398414611816406,-0.006403632462024689,0.000771084800362587
1772810861379503900,9.57450390625,-0.05751514434814453,-0.020697427913546562,-0.009001551195979118
1772810861399265000,9.59426513671875,-0.06679630279541016,-0.023111756891012192,-0.004516765475273132
1772810861419026400,9.6140263671875,-0.06439971923828125,-0.0017679613083600998,-0.0022260863333940506
1772810861438787800,9.633787841796876,-0.07158660888671875,-0.006267847493290901,0.007382074370980263
1772810861458549200,9.65354931640625,-0.07607841491699219,-0.00622415728867054,-0.004693552851676941
1772810861478310700,9.673310546875,-0.0784749984741211,-0.0018550530076026917,0.007464580237865448
1772810861498072300,9.693072265625,-0.07368278503417969,-0.0017193909734487534,0.0003221556544303894
1772810861517835000,9.7128349609375,-0.07128715515136719,-0.011142823845148087,0.014599842950701714
1772810861537598000,9.732597900390624,-0.05511760711669922,-0.02029617875814438,0.00998302735388279
1772810861557360600,9.752360595703125,-0.07847404479980469,-0.0015959013253450394,-0.018620366230607033
1772810861577123300,9.772123291015625,-0.06919097900390625,-0.003901902586221695,0.003079598769545555
1772810861596886000,9.791885986328126,-0.062302589416503906,-0.0012792889028787613,0.007885072380304337
1772810861616649000,9.81164892578125,-0.0694894790649414,-0.001052236184477806,-0.0014004465192556381
1772810861636411600,9.83141162109375,-0.0646982192993164,0.008742569014430046,-0.0038964003324508667
1772810861656174300,9.85117431640625,-0.06918907165527344,-0.01016150787472725,0.02976587601006031
1772810861675937000,9.87093701171875,-0.0718851089477539,0.004022965207695961,-0.006157785654067993
1772810861695700000,9.890699951171875,-0.069488525390625,0.015988904982805252,0.007827550172805786
1772810861715462700,9.910462646484374,-0.0575103759765625,0.004183858633041382,0.019542889669537544
1772810861735225300,9.930225341796875,-0.05511474609375,-0.019498521462082863,0.0003709476441144943
1772810861754988000,9.949988037109375,-0.04583263397216797,0.0018877554684877396,0.009715227410197258
1772810861774751000,9.9697509765625,-0.0790700912475586,-0.0004889145493507385,0.007242737337946892
1772810861794513700,9.989513671875,-0.07637500762939453,0.0016827192157506943,0.01956723816692829
1772810861814276400,10.0092763671875,-0.06918811798095703,0.00643402524292469,0.01672019064426422
1772810861834039000,10.0290390625,-0.06200122833251953,0.006497170776128769,0.0022826772183179855
1772810861853802000,10.048802001953124,-0.07397937774658203,0.015912504866719246,0.019099555909633636
1772810861873564700,10.068564697265625,-0.07397937774658203,-0.01048649474978447,0.028448738157749176
1772810861893327400,10.088327392578124,-0.06439685821533203,-0.020196205005049706,-0.0030529461801052094
1772810861913090300,10.10809033203125,-0.08116436004638672,0.01348939724266529,0.008534198626875877
1772810861932853000,10.12785302734375,-0.06918621063232422,-0.0056835804134607315,0.02289467677474022
1772810861952615700,10.14761572265625,-0.06678962707519531,0.004019958898425102,0.010729169473052025
1772810861972378400,10.16737841796875,-0.07158088684082031,0.016088442876935005,0.0011890735477209091
1772810861992141300,10.187141357421876,-0.03864288330078125,-0.007715746760368347,0.00585554912686348
1772810862011902700,10.20690283203125,-0.0691843032836914,-0.014990804716944695,-0.006370091810822487
1772810862031664400,10.226664306640625,-0.050620079040527344,-0.02224818244576454,0.003145674243569374
1772810862051426000,10.246426025390624,-0.05990314483642578,0.01357460767030716,-0.00642695277929306
1772810862071187700,10.266187744140625,-0.06469345092773438,0.006451817229390144,-0.003976557403802872
1772810862090949400,10.285949462890626,-0.07427597045898438,0.018256274983286858,0.003246210515499115
1772810862110710800,10.305710693359375,-0.0859537124633789,-0.012772461399435997,0.003180108964443207
1772810862130472400,10.325472412109375,-0.05511188507080078,0.0040135253220796585,0.007892351597547531
1772810862150234000,10.345234130859374,-0.06708908081054688,-0.007915809750556946,0.02479763887822628
1772810862169995800,10.364995849609375,-0.059902191162109375,0.004285458475351334,-0.003893289715051651
1772810862189757200,10.384757080078124,-0.057506561279296875,-0.0052549149841070175,-0.0013459399342536926
1772810862209518800,10.404518798828125,-0.05541038513183594,0.014653688296675682,0.001692088320851326
1772810862229280500,10.424280517578126,-0.06469249725341797,0.00030837953090667725,0.013786084949970245
1772810862249042200,10.444042236328125,-0.07906627655029297,0.005011644214391708,0.004138395190238953
1772810862268803800,10.463803955078125,-0.06229686737060547,0.007467620074748993,-0.003147607669234276
1772810862288565200,10.483565185546874,-0.06020164489746094,-0.009249208495020866,-0.007468912750482559
1772810862308327000,10.503326904296875,-0.05780506134033203,0.005293646827340126,0.014247484505176544
1772810862328088600,10.523088623046876,-0.06948280334472656,0.00047765858471393585,-0.002467239275574684
1772810862347850200,10.542850341796875,-0.07906532287597656,-0.021154537796974182,0.002210920676589012
1772810862367612000,10.56261181640625,-0.06738662719726562,-0.011463554576039314,-0.0024224314838647842
1772810862387373300,10.582373291015625,-0.06948280334472656,0.01736932247877121,0.007240515202283859
1772810862407135000,10.602135009765625,-0.06229591369628906,-0.004118533805012703,-0.007028520107269287
1772810862426896600,10.621896728515624,-0.07906532287597656,0.007834400981664658,0.0003219377249479294
1772810862446658300,10.641658203125,-0.0979299545288086,-0.004207199439406395,0.0004201773554086685
1772810862466419700,10.661419677734376,-0.07217788696289062,0.005440317094326019,-0.0020260289311408997
1772810862486181400,10.681181396484375,-0.05780506134033203,-0.0088821891695261,0.012105202302336693
1772810862505943000,10.700943115234375,-0.07906532287597656,-0.023229453712701797,0.004902400076389313
1772810862525704400,10.720704345703124,-0.06738662719726562,-0.006364945322275162,0.0023425258696079254
1772810862545466000,10.740466064453125,-0.06499099731445312,0.009951850399374962,-0.00021091103553771973
1772810862565227500,10.7602275390625,-0.08385753631591797,0.017019324004650116,-0.0025525465607643127
1772810862584989000,10.779989013671875,-0.06259632110595703,-0.0014621615409851074,0.005020109936594963
1772810862604750600,10.79975048828125,-0.06708812713623047,-0.0027794409543275833,-0.01082591712474823
1772810862624512000,10.819511962890624,-0.07158279418945312,0.0014680009335279465,0.016150450333952904
1772810862644273700,10.839273681640625,-0.09044837951660156,-0.008219750598073006,0.026176897808909416
1772810862664035000,10.85903515625,-0.0694875717163086,0.00870903953909874,0.007145503535866737
1772810862683796700,10.878796630859375,-0.08326148986816406,-0.022191954776644707,-0.009704846888780594
1772810862703558100,10.89855810546875,-0.059902191162109375,-0.00263155996799469,-0.00811769813299179
