time,seconds_elapsed,z,y,x
1772810821857655800,0.20865576171875,0,0.004127896390855312,-0.0007989476434886456
1772810821867537400,0.218537353515625,0,0.0030626326333731413,-0.0007989476434886456
1772810821877419000,0.2284189453125,0,0.001997369108721614,0.0007989476434886456
1772810821887300600,0.238300537109375,0,0.0025300008710473776,0.00026631588116288185
1772810821897182200,0.24818212890625,0.002130527049303055,0.0009321055840700865,0.0013315794058144093
1772810821907063800,0.258063720703125,0.001597895286977291,-0.00013315794058144093,-0.00026631588116288185
1772810821916945400,0.2679453125,0.002130527049303055,0.0009321055840700865,0.00026631588116288185
1772810821926827000,0.277826904296875,0.0005326317623257637,-0.0006657897029072046,0.00026631588116288185
1772810821936708600,0.28770849609375,0.001597895286977291,-0.00013315794058144093,0.0013315794058144093
1772810821946590500,0.297590576171875,-0.0005326317623257637,0.00519315991550684,0.0013315794058144093
1772810821956472000,0.30747216796875,0,-0.00013315794058144093,0.0013315794058144093
1772810821966353700,0.317353759765625,0,-0.00013315794058144093,0.0007989476434886456
1772810821976235300,0.3272353515625,-0.0005326317623257637,0.0003994738217443228,-0.0007989476434886456
1772810821986116900,0.337116943359375,-0.001597895286977291,0.0009321055840700865,0.0007989476434886456
1772810821995998500,0.34699853515625,0.0009321055840700865,0.0003994738217443228,0.0009321055840700865
1772810822005880800,0.356880859375,-0.00013315794058144093,-0.0006657897029072046,0.0003994738217443228
1772810822015763000,0.366762939453125,0.0003994738217443228,0.0009321055840700865,0.0003994738217443228
1772810822025645000,0.37664501953125,0.0003994738217443228,0.0014647373463958502,0.0003994738217443228
1772810822035527400,0.38652734375,-0.00013315794058144093,-0.0006657897029072046,0.0009321055840700865
1772810822045409500,0.396409423828125,0.0009321055840700865,0.0003994738217443228,0.0003994738217443228
1772810822055291600,0.406291748046875,-0.0006657897029072046,-0.00013315794058144093,0.0009321055840700865
1772810822065174000,0.416174072265625,0.0003994738217443228,-0.001731053227558732,0.0009321055840700865
1772810822075056000,0.42605615234375,0.0009321055840700865,0.0009321055840700865,0.0003994738217443228
1772810822084938200,0.435938232421875,-0.0006657897029072046,0.0014647373463958502,0.0009321055840700865
1772810822094820600,0.445820556640625,-0.0011984214652329683,-0.00013315794058144093,0.0014647373463958502
1772810822104702700,0.45570263671875,-0.0011984214652329683,-0.0006657897029072046,-0.0011984214652329683
1772810822114584800,0.465584716796875,-0.00013315794058144093,0.0009321055840700865,-0.001731053227558732
1772810822124467000,0.475467041015625,-0.0011984214652329683,0.001997369108721614,0.0003994738217443228
1772810822134349300,0.485349365234375,-0.00013315794058144093,-0.0006657897029072046,0.0003994738217443228
1772810822144231400,0.4952314453125,-0.0006657897029072046,0.0003994738217443228,-0.0011984214652329683
1772810822154113800,0.50511376953125,-0.0006657897029072046,0.0003994738217443228,-0.00013315794058144093
1772810822163996000,0.514995849609375,-0.00013315794058144093,0.001997369108721614,-0.0006657897029072046
1772810822173878000,0.5248779296875,0.0014647373463958502,-0.00013315794058144093,-0.00013315794058144093
1772810822183760100,0.534760009765625,0.0009321055840700865,-0.001731053227558732,0.0009321055840700865
1772810822193642500,0.544642578125,0.0014647373463958502,0.0014647373463958502,-0.0006657897029072046
1772810822203524600,0.554524658203125,-0.00013315794058144093,0.0003994738217443228,0.0003994738217443228
1772810822213407000,0.564406982421875,0.0009321055840700865,0.0003994738217443228,-0.0011984214652329683
1772810822223289000,0.5742890625,0.0009321055840700865,-0.001731053227558732,-0.00013315794058144093
1772810822233171200,0.584171142578125,0.0003994738217443228,-0.00013315794058144093,-0.0011984214652329683
1772810822243053300,0.59405322265625,0.0009321055840700865,0.001997369108721614,0.0003994738217443228
1772810822252935700,0.603935791015625,-0.00013315794058144093,-0.0011984214652329683,-0.00013315794058144093
1772810822262817800,0.61381787109375,0.0009321055840700865,-0.0011984214652329683,0.0003994738217443228
1772810822272700000,0.623699951171875,-0.0011984214652329683,0.001997369108721614,-0.0006657897029072046
1772810822282582300,0.633582275390625,-0.0006657897029072046,0.0009321055840700865,0.0003994738217443228
1772810822292464400,0.64346435546875,0.0003994738217443228,-0.0006657897029072046,-0.00013315794058144093
1772810822302346500,0.653346435546875,-0.00013315794058144093,-0.00013315794058144093,0.0003994738217443228
1772810822312228900,0.663228759765625,-0.00013315794058144093,-0.0011984214652329683,-0.0006657897029072046
1772810822322111000,0.673111083984375,-0.001731053227558732,0.0003994738217443228,0.0003994738217443228
1772810822331993000,0.6829931640625,-0.00013315794058144093,0.0003994738217443228,-0.0011984214652329683
1772810822341875500,0.69287548828125,0.0003994738217443228,-0.00013315794058144093,0.0014647373463958502
1772810822351757600,0.702757568359375,0.0009321055840700865,-0.0011984214652329683,0.0003994738217443228
1772810822361639700,0.7126396484375,0.0003994738217443228,-0.0011984214652329683,-0.00013315794058144093
1772810822371522000,0.72252197265625,-0.0006657897029072046,0.0003994738217443228,0.0009321055840700865
1772810822381404200,0.732404052734375,0.0009321055840700865,-0.0022636849898844957,-0.0005326317623257637
1772810822391286300,0.742286376953125,-0.00013315794058144093,-0.0006657897029072046,-0.0005326317623257637
1772810822401168600,0.752168701171875,-0.00013315794058144093,-0.00013315794058144093,-0.0005326317623257637
1772810822411050800,0.76205078125,-0.0006657897029072046,-0.0006657897029072046,0.0005326317623257637
1772810822420932900,0.771932861328125,-0.0006657897029072046,0.0009321055840700865,-0.0010652635246515274
1772810822430815200,0.781815185546875,0.0003994738217443228,-0.001731053227558732,-0.0005326317623257637
1772810822440697300,0.791697265625,-0.0006657897029072046,0.0003994738217443228,0.0005326317623257637
1772810822450579500,0.801579345703125,0.0003994738217443228,0.0009321055840700865,0.0005326317623257637
1772810822460461800,0.8114619140625,-0.0006657897029072046,0.0009321055840700865,0.0005326317623257637
1772810822470344000,0.821343994140625,0.0003994738217443228,-0.0006657897029072046,0
1772810822480226000,0.83122607421875,-0.00013315794058144093,0.0014647373463958502,0
1772810822490108200,0.841108154296875,0.0009321055840700865,-0.00013315794058144093,0
1772810822499990000,0.850989990234375,0.0003994738217443228,-0.0006657897029072046,-0.0010652635246515274
1772810822509871400,0.860871337890625,-0.0011984214652329683,-0.00013315794058144093,0.001597895286977291
1772810822519752700,0.870752685546875,-0.0006657897029072046,-0.0027963167522102594,0
1772810822529634000,0.880634033203125,-0.0006657897029072046,-0.0011984214652329683,-0.0005326317623257637
1772810822539515400,0.890515380859375,-0.001731053227558732,0.0003994738217443228,0.0005326317623257637
1772810822549396700,0.900396728515625,0.0009321055840700865,0.0014647373463958502,-0.0005326317623257637
1772810822569159400,0.920159423828125,-0.001731053227558732,-0.0011984214652329683,0.0010652635246515274
1772810822579040800,0.930040771484375,-0.0011984214652329683,-0.00013315794058144093,-0.001597895286977291
1772810822588922000,0.939922119140625,-0.0006657897029072046,0.0009321055840700865,0.0005326317623257637
1772810822598803500,0.949803466796875,0.0003994738217443228,0.0014647373463958502,0
1772810822608684800,0.959684814453125,0.0003994738217443228,-0.00013315794058144093,0.001597895286977291
1772810822618566100,0.969566162109375,0.0003994738217443228,0.0003994738217443228,0
1772810822628447500,0.979447509765625,-0.00013315794058144093,-0.0006657897029072046,0.0005326317623257637
1772810822638328800,0.989328857421875,-0.0006657897029072046,-0.001731053227558732,-0.0005326317623257637
1772810822648210200,0.999210205078125,0.0003994738217443228,0.0009321055840700865,0.0010652635246515274
1772810822658091500,1.009091552734375,-0.00013315794058144093,0.0014647373463958502,-0.0005326317623257637
1772810822667972900,1.018972900390625,0.0014647373463958502,0.0014647373463958502,0
1772810822677854200,1.028854248046875,-0.00013315794058144093,0.0003994738217443228,0.0010652635246515274
1772810822687735600,1.038735595703125,-0.00013315794058144093,0.0025300008710473776,-0.0005326317623257637
1772810822697617000,1.048616943359375,0.0003994738217443228,0.0009321055840700865,-0.0005326317623257637
1772810822707498200,1.058498291015625,0.0009321055840700865,0.0009321055840700865,0
1772810822717379600,1.068379638671875,-0.00013315794058144093,0.0003994738217443228,0.0005326317623257637
1772810822727261000,1.078260986328125,0.0003994738217443228,-0.00013315794058144093,-0.0010652635246515274
1772810822737142300,1.088142333984375,0.0003994738217443228,0.0014647373463958502,-0.0010652635246515274
1772810822747023600,1.098023681640625,-0.0006657897029072046,-0.00013315794058144093,0.002130527049303055
1772810822756905000,1.107905029296875,-0.0022636849898844957,-0.00013315794058144093,0
1772810822766786300,1.117786376953125,0.0003994738217443228,0.0003994738217443228,0
1772810822776667600,1.127667724609375,0.0003994738217443228,-0.00013315794058144093,-0.0010652635246515274
1772810822786549000,1.137549072265625,-0.0006657897029072046,-0.00013315794058144093,-0.0005326317623257637
1772810822796430300,1.147430419921875,0.0009321055840700865,0.0003994738217443228,0.0005326317623257637
1772810822806311700,1.157311767578125,0.0014647373463958502,0.0003994738217443228,0.001597895286977291
1772810822816193000,1.167193115234375,-0.00013315794058144093,-0.0006657897029072046,0.0005326317623257637
1772810822826074400,1.177074462890625,-0.00013315794058144093,0.0014647373463958502,-0.0010652635246515274
1772810822835955700,1.186955810546875,0.0009321055840700865,-0.00013315794058144093,0
1772810822845837000,1.196837158203125,0.0014647373463958502,-0.00013315794058144093,-0.001597895286977291
1772810822855718400,1.206718505859375,-0.0011984214652329683,-0.0006657897029072046,0.0010652635246515274
1772810822865600000,1.21660009765625,-0.00013315794058144093,-0.001731053227558732,0.0005326317623257637
1772810822875481000,1.226481201171875,0.0003994738217443228,0.0003994738217443228,0.0005326317623257637
1772810822885362400,1.236362548828125,-0.00013315794058144093,-0.00013315794058144093,0.0005326317623257637
1772810822895243800,1.246243896484375,0.0003994738217443228,0.0009321055840700865,0.0005326317623257637
1772810822905125000,1.256125,0.0009321055840700865,-0.00013315794058144093,-0.0005326317623257637
1772810822915006700,1.2660068359375,-0.0006657897029072046,-0.00013315794058144093,0.0005326317623257637
1772810822924888000,1.27588818359375,-0.0011984214652329683,-0.0006657897029072046,-0.0005326317623257637
1772810822934769400,1.285769287109375,-0.0011984214652329683,0.0003994738217443228,-0.0005326317623257637
1772810822944650800,1.295650634765625,0.0009321055840700865,-0.0006657897029072046,0.0010652635246515274
1772810822954531800,1.30553173828125,0.0009321055840700865,-0.001731053227558732,0
1772810822964413400,1.315413330078125,-0.0011984214652329683,-0.0022636849898844957,0.001597895286977291
1772810822974294800,1.325294677734375,-0.0027963167522102594,-0.00013315794058144093,0
1772810822984176000,1.335176025390625,-0.0022636849898844957,-0.00013315794058144093,0.0010652635246515274
1772810822994057500,1.345057373046875,-0.00013315794058144093,0.0009321055840700865,0.0010652635246515274
1772810823003938000,1.35493798828125,-0.001731053227558732,-0.0006657897029072046,-0.0005326317623257637
1772810823013818400,1.364818359375,-0.0006657897029072046,0.0003994738217443228,-0.0005326317623257637
1772810823023699000,1.374698974609375,-0.0006657897029072046,-0.00013315794058144093,-0.0010652635246515274
1772810823033579500,1.38457958984375,0.0014647373463958502,-0.00013315794058144093,-0.0005326317623257637
1772810823043459800,1.3944599609375,-0.0006657897029072046,-0.0006657897029072046,0
1772810823053340400,1.40434033203125,0.0003994738217443228,-0.0006657897029072046,0
1772810823063221000,1.414220947265625,-0.00013315794058144093,-0.0006657897029072046,-0.0005326317623257637
1772810823073101600,1.4241015625,0.0003994738217443228,-0.0006657897029072046,-0.0005326317623257637
1772810823082982000,1.43398193359375,0.0003994738217443228,-0.0027963167522102594,0.0010652635246515274
1772810823092862500,1.443862548828125,-0.00013315794058144093,-0.0011984214652329683,-0.001597895286977291
1772810823102742800,1.45374267578125,0.0003994738217443228,0.0003994738217443228,0.001597895286977291
1772810823112623400,1.463623291015625,-0.00013315794058144093,0.0025300008710473776,0.0005326317623257637
1772810823122504000,1.47350390625,-0.0006657897029072046,-0.0022636849898844957,0.0010652635246515274
1772810823132384500,1.483384521484375,0.0014647373463958502,-0.00013315794058144093,0
1772810823142264800,1.493264892578125,-0.001731053227558732,-0.0022636849898844957,0.0010652635246515274
1772810823152145400,1.5031455078125,-0.0011984214652329683,0.0003994738217443228,-0.0010652635246515274
1772810823162026000,1.51302587890625,-0.00013315794058144093,0.0009321055840700865,-0.0005326317623257637
1772810823171906300,1.52290625,-0.0011984214652329683,0.001997369108721614,0.0010652635246515274
1772810823181787000,1.532786865234375,0.0009321055840700865,0.001997369108721614,0
1772810823191667500,1.54266748046875,-0.00013315794058144093,0.0003994738217443228,0
1772810823201547800,1.5525478515625,-0.0006657897029072046,0.0003994738217443228,0.0010652635246515274
1772810823211428400,1.562428466796875,0.0009321055840700865,0.0003994738217443228,-0.001597895286977291
1772810823221309000,1.572308837890625,0.0009321055840700865,-0.00013315794058144093,0.0005326317623257637
1772810823231189200,1.582189208984375,-0.0011984214652329683,-0.0006657897029072046,0.0010652635246515274
1772810823241069800,1.59206982421875,0.0009321055840700865,-0.00013315794058144093,0.0010652635246515274
1772810823250950400,1.601950439453125,-0.0011984214652329683,0.0009321055840700865,-0.0010652635246515274
1772810823260831000,1.6118310546875,-0.0006657897029072046,-0.0011984214652329683,0.0010652635246515274
1772810823270711300,1.621711181640625,0.0003994738217443228,-0.0006657897029072046,0.001597895286977291
1772810823280592000,1.631591796875,-0.001731053227558732,-0.00013315794058144093,-0.001597895286977291
1772810823290472400,1.641472412109375,-0.0006657897029072046,-0.0011984214652329683,0
1772810823300352800,1.651352783203125,0.0009321055840700865,-0.00013315794058144093,-0.0005326317623257637
1772810823310233300,1.6612333984375,0.001997369108721614,0.0014647373463958502,0
1772810823320114000,1.671114013671875,-0.0006657897029072046,0.0009321055840700865,0
1772810823329994200,1.680994140625,-0.0011984214652329683,-0.0011984214652329683,0
1772810823339874800,1.690874755859375,0.0003994738217443228,-0.0006657897029072046,-0.0005326317623257637
1772810823349755400,1.70075537109375,-0.0011984214652329683,-0.0006657897029072046,0
1772810823359636000,1.710635986328125,0.0003994738217443228,-0.0006657897029072046,0
1772810823369516300,1.720516357421875,-0.001731053227558732,0.0009321055840700865,0
1772810823379396900,1.73039697265625,-0.0011984214652329683,-0.0011984214652329683,0.001597895286977291
1772810823389277400,1.74027734375,0.0009321055840700865,-0.0011984214652329683,0.0005326317623257637
1772810823399157800,1.75015771484375,-0.0011984214652329683,-0.0006657897029072046,-0.0005326317623257637
1772810823418919000,1.7699189453125,-0.0011984214652329683,0.0009321055840700865,0.002130527049303055
1772810823428799200,1.77979931640625,-0.00013315794058144093,0.0009321055840700865,0
1772810823438679800,1.7896796875,0.0025300008710473776,-0.0011984214652329683,0.0005326317623257637
1772810823448560400,1.799560302734375,0.0003994738217443228,0.0014647373463958502,-0.0005326317623257637
1772810823458440700,1.809440673828125,0.0003994738217443228,-0.00013315794058144093,-0.001597895286977291
1772810823468321300,1.8193212890625,-0.0006657897029072046,0.0003994738217443228,-0.0005326317623257637
1772810823478201900,1.829201904296875,-0.0006657897029072046,-0.0022636849898844957,0.0010652635246515274
1772810823488082400,1.83908251953125,-0.0006657897029072046,0.0003994738217443228,0.0005326317623257637
1772810823497963000,1.848962890625,0.0003994738217443228,-0.0006657897029072046,-0.0010652635246515274
1772810823507843800,1.85884375,-0.00013315794058144093,0.0003994738217443228,0.0005326317623257637
1772810823517724700,1.868724609375,-0.0006657897029072046,-0.00013315794058144093,0
1772810823527605500,1.87860546875,-0.001731053227558732,-0.0006657897029072046,-0.00013315794058144093
1772810823537486300,1.888486328125,0.0014647373463958502,-0.0006657897029072046,0.0003994738217443228
1772810823547367200,1.8983671875,-0.0011984214652329683,0.0014647373463958502,0.0003994738217443228
1772810823557248000,1.908248046875,-0.0006657897029072046,0.0014647373463958502,-0.0022636849898844957
1772810823567128800,1.91812890625,-0.00013315794058144093,-0.0011984214652329683,0.0003994738217443228
1772810823577009700,1.928009765625,0.0003994738217443228,0.0003994738217443228,-0.0011984214652329683
1772810823586890500,1.937890380859375,-0.001731053227558732,-0.0006657897029072046,0.0009321055840700865
1772810823596771300,1.947771240234375,-0.0006657897029072046,-0.0011984214652329683,0.0003994738217443228
1772810823606652400,1.95765234375,-0.00013315794058144093,-0.001731053227558732,0.0009321055840700865
1772810823616533200,1.967533203125,-0.0006657897029072046,0.0014647373463958502,-0.001731053227558732
1772810823626414000,1.9774140625,-0.0006657897029072046,-0.0006657897029072046,0.0025300008710473776
1772810823636295000,1.987294921875,-0.001731053227558732,0.0003994738217443228,-0.00013315794058144093
1772810823646175700,1.99717578125,-0.00013315794058144093,0.0003994738217443228,-0.00013315794058144093
1772810823656056600,2.007056640625,-0.0011984214652329683,0.0014647373463958502,-0.0027963167522102594
1772810823665937400,2.0169375,-0.0006657897029072046,0.0003994738217443228,0.0009321055840700865
1772810823675818200,2.026818359375,0.0014647373463958502,0.0009321055840700865,0.0005326317623257637
1772810823685699000,2.036698974609375,0.0009321055840700865,0.0003994738217443228,-0.001597895286977291
1772810823695580200,2.046580078125,-0.0006657897029072046,0.0009321055840700865,0.0010652635246515274
1772810823705461000,2.0564609375,-0.0006657897029072046,0.0009321055840700865,-0.0005326317623257637
1772810823715341800,2.066341796875,0.0003994738217443228,-0.00013315794058144093,-0.0010652635246515274
1772810823725222700,2.07622265625,-0.00013315794058144093,0.0009321055840700865,-0.001597895286977291
1772810823735103500,2.086103515625,-0.0011984214652329683,0.0014647373463958502,0.0005326317623257637
1772810823744984300,2.095984375,-0.0006657897029072046,-0.0022636849898844957,0
1772810823754865200,2.105865234375,0.0003994738217443228,-0.00013315794058144093,0.002130527049303055
1772810823764746000,2.11574609375,-0.001731053227558732,0.0003994738217443228,0.0005326317623257637
1772810823774626800,2.125626708984375,-0.0010652635246515274,-0.0011984214652329683,0.0009321055840700865
1772810823784507600,2.135507568359375,0,-0.00013315794058144093,-0.0006657897029072046
1772810823794388500,2.145388427734375,0.001597895286977291,-0.0006657897029072046,0.0003994738217443228
1772810823804269600,2.15526953125,0.0005326317623257637,0.0009321055840700865,-0.0011984214652329683
1772810823814150400,2.165150390625,0.0010652635246515274,-0.00013315794058144093,0.0003994738217443228
1772810823824031200,2.17503125,-0.0010652635246515274,0.0009321055840700865,0.0003994738217443228
1772810823833912000,2.184912109375,0,-0.001731053227558732,0.0009321055840700865
1772810823843793000,2.19479296875,-0.0010652635246515274,0.0009321055840700865,0.0014647373463958502
1772810823853673700,2.204673828125,-0.0005326317623257637,-0.0006657897029072046,-0.00013315794058144093
1772810823863554600,2.214554443359375,-0.0005326317623257637,-0.0011984214652329683,0.0003994738217443228
1772810823873435400,2.224435302734375,-0.0005326317623257637,-0.0011984214652329683,-0.00013315794058144093
1772810823883316200,2.234316162109375,-0.001597895286977291,0.0003994738217443228,0.0003994738217443228
1772810823893197000,2.244197021484375,0,-0.0011984214652329683,-0.00013315794058144093
1772810823903078000,2.254077880859375,0.0005326317623257637,-0.0006657897029072046,-0.00013315794058144093
1772810823912959000,2.263958984375,0,0.0009321055840700865,-0.00013315794058144093
1772810823922839800,2.27383984375,-0.002130527049303055,0.0003994738217443228,-0.00013315794058144093
1772810823932720600,2.283720703125,-0.0005326317623257637,0.0014647373463958502,-0.00013315794058144093
1772810823942601500,2.2936015625,-0.001597895286977291,0.0003994738217443228,0.0009321055840700865
1772810823952482300,2.303482421875,0.0005326317623257637,0.0014647373463958502,-0.0006657897029072046
1772810823972244000,2.323243896484375,0,-0.0006657897029072046,0.0003994738217443228
1772810823982124800,2.333124755859375,0.0010652635246515274,0.0003994738217443228,-0.00013315794058144093
1772810823992005600,2.343005615234375,-0.0005326317623257637,0.0009321055840700865,-0.0011984214652329683
1772810824001886700,2.35288671875,0,0.0003994738217443228,0.0009321055840700865
1772810824011767600,2.362767578125,0,-0.00013315794058144093,0.0009321055840700865
1772810824021648600,2.372648681640625,0,-0.00013315794058144093,-0.00013315794058144093
1772810824031529700,2.38252978515625,0,-0.00013315794058144093,0.0003994738217443228
1772810824041410600,2.39241064453125,0.0005326317623257637,0.0003994738217443228,-0.0006657897029072046
1772810824051291600,2.402291748046875,0,-0.0022636849898844957,-0.00013315794058144093
1772810824061172700,2.4121728515625,0,0.0009321055840700865,-0.00013315794058144093
1772810824071053600,2.422053466796875,0.0005326317623257637,0.0009321055840700865,-0.00013315794058144093
1772810824080934700,2.4319345703125,0,-0.0006657897029072046,-0.0011984214652329683
1772810824090815700,2.441815673828125,0,-0.00013315794058144093,0.0014647373463958502
1772810824100696800,2.45169677734375,0.0005326317623257637,-0.001731053227558732,-0.0011984214652329683
1772810824110577700,2.46157763671875,-0.001597895286977291,0.0030626326333731413,-0.00013315794058144093
1772810824120458800,2.471458740234375,0,0.0014647373463958502,0.0014647373463958502
1772810824130339600,2.481339599609375,-0.0005326317623257637,0.0003994738217443228,0.0014647373463958502
1772810824140220700,2.491220703125,0.0005326317623257637,-0.00013315794058144093,0.0009321055840700865
1772810824150101800,2.501101806640625,-0.0005326317623257637,0.0014647373463958502,-0.0011984214652329683
1772810824159982600,2.510982666015625,-0.0005326317623257637,-0.001731053227558732,-0.0006657897029072046
1772810824169863700,2.52086376953125,0.0010652635246515274,0.0003994738217443228,-0.00013315794058144093
1772810824179744800,2.530744873046875,0.0005326317623257637,-0.00013315794058144093,0.0009321055840700865
1772810824189625600,2.54062548828125,0,-0.001731053227558732,0.0003994738217443228
1772810824199506700,2.550506591796875,0,0.0009321055840700865,-0.0006657897029072046
1772810824209387800,2.5603876953125,0.0005326317623257637,0.001997369108721614,-0.0006657897029072046
1772810824219268600,2.5702685546875,-0.0010652635246515274,-0.00013315794058144093,0.0003994738217443228
1772810824229149700,2.580149658203125,0,-0.0006657897029072046,-0.00013315794058144093
1772810824239030800,2.59003076171875,-0.002130527049303055,-0.0006657897029072046,-0.00013315794058144093
1772810824248911600,2.59991162109375,0.0010652635246515274,-0.0006657897029072046,-0.001731053227558732
1772810824258792700,2.609792724609375,0.0005326317623257637,-0.001731053227558732,0.001997369108721614
1772810824268673800,2.619673828125,-0.0005326317623257637,0.0003994738217443228,-0.0011984214652329683
1772810824278554600,2.6295546875,0.001597895286977291,0.003595264395698905,0.0003994738217443228
1772810824288435700,2.639435791015625,-0.0010652635246515274,0.0003994738217443228,-0.0011984214652329683
1772810824298316800,2.64931689453125,-0.0005326317623257637,0.0014647373463958502,-0.00013315794058144093
1772810824308197600,2.65919775390625,-0.0005326317623257637,-0.0006657897029072046,0.0003994738217443228
1772810824318078700,2.66907861328125,-0.002130527049303055,0.0009321055840700865,0.0009321055840700865
1772810824327959800,2.678959716796875,0.0005326317623257637,-0.00013315794058144093,0.0009321055840700865
1772810824337840600,2.688840576171875,-0.0005326317623257637,0.0014647373463958502,-0.0011984214652329683
1772810824347721700,2.6987216796875,0,0.0009321055840700865,0.0009321055840700865
1772810824357602800,2.708602783203125,0.0005326317623257637,-0.0027963167522102594,-0.00013315794058144093
1772810824367483600,2.718483642578125,-0.001597895286977291,-0.0006657897029072046,0.0003994738217443228
1772810824377364700,2.72836474609375,0,-0.001731053227558732,-0.00013315794058144093
1772810824387245800,2.738245849609375,0,0.0003994738217443228,0.0009321055840700865
1772810824397126700,2.748126708984375,-0.0010652635246515274,-0.0006657897029072046,0.0003994738217443228
1772810824407007700,2.7580078125,0.0005326317623257637,0.0003994738217443228,-0.00013315794058144093
1772810824416888800,2.767888916015625,0.0005326317623257637,-0.0027963167522102594,-0.00013315794058144093
1772810824426769700,2.777769775390625,0.002130527049303055,0.0003994738217443228,0.0009321055840700865
1772810824436650800,2.787650634765625,0.0010652635246515274,0.0009321055840700865,0.0009321055840700865
1772810824446531800,2.79753173828125,-0.001597895286977291,0.0009321055840700865,-0.0006657897029072046
1772810824456412700,2.80741259765625,0.0005326317623257637,0.0009321055840700865,0.0014647373463958502
1772810824466293800,2.817293701171875,-0.0010652635246515274,-0.0011984214652329683,0.0014647373463958502
1772810824476174800,2.8271748046875,-0.0005326317623257637,0.0009321055840700865,-0.00013315794058144093
1772810824486055700,2.8370556640625,-0.0010652635246515274,0.0014647373463958502,0.0003994738217443228
1772810824495936800,2.846936767578125,-0.0010652635246515274,-0.0006657897029072046,0.0003994738217443228
1772810824505818000,2.856818115234375,0.001597895286977291,0.0003994738217443228,-0.0006657897029072046
1772810824515699500,2.866699462890625,0,-0.0006657897029072046,-0.00013315794058144093
1772810824525580500,2.87658056640625,0.0010652635246515274,-0.0011984214652329683,0.0003994738217443228
1772810824535462000,2.8864619140625,0.0005326317623257637,0.0009321055840700865,0.0014647373463958502
1772810824545343200,2.89634326171875,0.0010652635246515274,0.001997369108721614,-0.0006657897029072046
1772810824555224600,2.906224609375,0.0010652635246515274,-0.00013315794058144093,-0.00013315794058144093
1772810824565106000,2.91610595703125,0.0010652635246515274,0.0003994738217443228,-0.00013315794058144093
1772810824574987000,2.925987060546875,0.0026631588116288185,0.0003994738217443228,0.0009321055840700865
1772810824584868400,2.935868408203125,-0.0010652635246515274,-0.00013315794058144093,-0.0027963167522102594
1772810824594749700,2.945749755859375,-0.0005326317623257637,0.0003994738217443228,-0.00013315794058144093
1772810824604631000,2.955631103515625,0.0010652635246515274,-0.00013315794058144093,-0.00013315794058144093
1772810824614512400,2.965512451171875,-0.0010652635246515274,-0.0006657897029072046,0.0014647373463958502
1772810824624393500,2.9753935546875,0.0010652635246515274,0.0003994738217443228,-0.0006657897029072046
1772810824634274800,2.98527490234375,-0.0005326317623257637,0.0009321055840700865,-0.0006657897029072046
1772810824654037500,3.00503759765625,-0.0010652635246515274,0.0014647373463958502,-0.0006657897029072046
1772810824663918800,3.0149189453125,0.0005326317623257637,-0.001731053227558732,-0.00013315794058144093
1772810824673800000,3.024800048828125,-0.0010652635246515274,0.001997369108721614,-0.0006657897029072046
1772810824683681300,3.034681396484375,-0.001597895286977291,-0.0011984214652329683,-0.0011984214652329683
1772810824693562600,3.044562744140625,-0.002130527049303055,0.0014647373463958502,-0.0006657897029072046
1772810824703444000,3.05444384765625,0.0010652635246515274,-0.00013315794058144093,-0.0006657897029072046
1772810824713325300,3.0643251953125,0.0005326317623257637,0.0003994738217443228,0.0009321055840700865
1772810824723206400,3.074206298828125,0.001597895286977291,-0.00013315794058144093,0.0009321055840700865
1772810824733087700,3.084087646484375,0,-0.00013315794058144093,-0.0006657897029072046
1772810824742969000,3.093968994140625,0.0005326317623257637,-0.00013315794058144093,-0.00013315794058144093
1772810824752850400,3.103850341796875,-0.0010652635246515274,0.0009321055840700865,0.0003994738217443228
1772810824762731800,3.113731689453125,0,0.0014647373463958502,-0.00013315794058144093
1772810824772612900,3.12361279296875,0.0005326317623257637,-0.001731053227558732,-0.0022636849898844957
1772810824782494200,3.133494140625,0.0005326317623257637,-0.0011984214652329683,-0.0006657897029072046
1772810824792375600,3.14337548828125,-0.0005326317623257637,0.0014647373463958502,0.0003994738217443228
1772810824802257000,3.1532568359375,0,0.0003994738217443228,0.0014647373463958502
1772810824812138000,3.163137939453125,0.0005326317623257637,0.0009321055840700865,-0.0006657897029072046
1772810824822019300,3.173019287109375,0.0005326317623257637,-0.00013315794058144093,0.0025300008710473776
1772810824831900700,3.182900634765625,0,-0.0006657897029072046,0.0003994738217443228
1772810824841782000,3.192781982421875,-0.0005326317623257637,-0.0011984214652329683,-0.0006657897029072046
1772810824851663400,3.202663330078125,-0.001597895286977291,-0.0011984214652329683,-0.0011984214652329683
1772810824861544400,3.21254443359375,0,-0.001731053227558732,-0.00013315794058144093
1772810824871425800,3.22242578125,0,0.0009321055840700865,-0.00013315794058144093
1772810824881307100,3.23230712890625,0.002130527049303055,-0.00013315794058144093,0.0003994738217443228
1772810824891188500,3.2421884765625,0.0005326317623257637,-0.0022636849898844957,-0.0006657897029072046
1772810824901069800,3.25206982421875,0.001597895286977291,-0.00013315794058144093,0.0014647373463958502
1772810824910951000,3.261950927734375,0.0005326317623257637,-0.0006657897029072046,-0.0006657897029072046
1772810824920832300,3.271832275390625,-0.0005326317623257637,-0.001731053227558732,-0.00013315794058144093
1772810824930713600,3.281713623046875,0,-0.00013315794058144093,-0.0006657897029072046
1772810824940595000,3.291594970703125,0.0005326317623257637,-0.001731053227558732,0.0003994738217443228
1772810824950476300,3.301476318359375,-0.0010652635246515274,-0.0006657897029072046,-0.001731053227558732
1772810824960357400,3.311357421875,0.0010652635246515274,-0.00013315794058144093,0.0003994738217443228
1772810824970238700,3.32123876953125,-0.0005326317623257637,-0.001731053227558732,0.0003994738217443228
1772810824980120000,3.3311201171875,0,0.0009321055840700865,-0.00013315794058144093
1772810824990001400,3.34100146484375,0,-0.0011984214652329683,-0.00013315794058144093
1772810824999882500,3.350882568359375,-0.0005326317623257637,-0.00013315794058144093,0.0014647373463958502
1772810825009763600,3.360763671875,-0.0005326317623257637,-0.0011984214652329683,0.0009321055840700865
1772810825019644400,3.37064453125,-0.0010652635246515274,-0.0006657897029072046,0.0003994738217443228
1772810825029525500,3.380525390625,-0.0010652635246515274,-0.0022636849898844957,-0.001731053227558732
1772810825039406600,3.390406494140625,-0.0005326317623257637,-0.0011984214652329683,-0.0006657897029072046
1772810825049287400,3.400287353515625,-0.0005326317623257637,0.0014647373463958502,0.0003994738217443228
1772810825059168500,3.41016845703125,0.0010652635246515274,-0.0006657897029072046,-0.00013315794058144093
1772810825069049600,3.420049560546875,0.0010652635246515274,-0.00013315794058144093,-0.0022636849898844957
1772810825078930400,3.429930419921875,0.0010652635246515274,0.0009321055840700865,0.0003994738217443228
1772810825088811500,3.4398115234375,-0.0005326317623257637,0.0009321055840700865,-0.0006657897029072046
1772810825098692600,3.449692626953125,0,0.0009321055840700865,-0.00013315794058144093
1772810825108573400,3.459573486328125,0.0010652635246515274,-0.0006657897029072046,-0.00013315794058144093
1772810825118454500,3.46945458984375,0,0.0009321055840700865,-0.0006657897029072046
1772810825128335600,3.479335693359375,-0.0005326317623257637,-0.00013315794058144093,0.0003994738217443228
1772810825138216400,3.489216552734375,0,-0.0006657897029072046,-0.00013315794058144093
1772810825148097500,3.49909765625,-0.0005326317623257637,-0.0006657897029072046,-0.0011984214652329683
1772810825157978600,3.508978515625,-0.0010652635246515274,-0.001731053227558732,0.0003994738217443228
1772810825167859500,3.518859375,0.0010652635246515274,-0.0006657897029072046,-0.0011984214652329683
1772810825177740500,3.528740478515625,0.0005326317623257637,-0.00013315794058144093,0.0003994738217443228
1772810825187621600,3.53862158203125,0.002130527049303055,-0.00013315794058144093,0.0003994738217443228
1772810825197502500,3.54850244140625,-0.0005326317623257637,-0.00013315794058144093,-0.0006657897029072046
1772810825207383600,3.558383544921875,0.0005326317623257637,-0.00013315794058144093,-0.0011984214652329683
1772810825217264600,3.5682646484375,0,0.0003994738217443228,-0.00013315794058144093
1772810825227145700,3.578145751953125,0,0.0009321055840700865,0.0009321055840700865
1772810825237026600,3.588026611328125,-0.0005326317623257637,-0.0006657897029072046,0.0014647373463958502
1772810825246907600,3.59790771484375,0.0010652635246515274,0.0003994738217443228,0.001997369108721614
1772810825256788700,3.607788818359375,0,0.0003994738217443228,0.0009321055840700865
1772810825266669600,3.617669677734375,0.0005326317623257637,0.0009321055840700865,0.0009321055840700865
1772810825276550700,3.627550537109375,0.0005326317623257637,-0.0006657897029072046,0.0009321055840700865
1772810825286431700,3.637431640625,0.001597895286977291,-0.0022636849898844957,0.0003994738217443228
1772810825296312600,3.6473125,0,-0.0011984214652329683,-0.0022636849898844957
1772810825306193700,3.657193603515625,0,-0.001731053227558732,0.0003994738217443228
1772810825316074800,3.66707470703125,-0.001597895286977291,-0.0011984214652329683,0.0003994738217443228
1772810825325955600,3.67695556640625,-0.0005326317623257637,0.0009321055840700865,0.0009321055840700865
1772810825335836700,3.686836669921875,-0.0005326317623257637,0.0009321055840700865,-0.001731053227558732
1772810825345717800,3.6967177734375,0.0005326317623257637,-0.0006657897029072046,-0.001731053227558732
1772810825355598600,3.7065986328125,0.0005326317623257637,-0.0006657897029072046,-0.0006657897029072046
1772810825365479700,3.716479736328125,-0.0010652635246515274,-0.0006657897029072046,0.0003994738217443228
1772810825375360800,3.72636083984375,0.0005326317623257637,0.0003994738217443228,-0.0011984214652329683
1772810825385241600,3.73624169921875,0.001597895286977291,-0.0006657897029072046,-0.00013315794058144093
1772810825395122700,3.746122802734375,-0.001597895286977291,-0.001731053227558732,-0.00013315794058144093
1772810825405003800,3.756003662109375,0,-0.00013315794058144093,-0.0011984214652329683
1772810825414884600,3.765884521484375,0.0005326317623257637,-0.0006657897029072046,0.0009321055840700865
1772810825424765700,3.775765625,-0.0010652635246515274,-0.0006657897029072046,-0.0006657897029072046
1772810825434646800,3.785646728515625,-0.0010652635246515274,0.0009321055840700865,-0.00013315794058144093
1772810825444527900,3.79552783203125,-0.0005326317623257637,-0.0006657897029072046,0.0003994738217443228
1772810825454408700,3.80540869140625,-0.0005326317623257637,-0.0011984214652329683,-0.00013315794058144093
1772810825464289800,3.815289794921875,0,0.0003994738217443228,0.0003994738217443228
1772810825474171000,3.8251708984375,0,-0.00013315794058144093,0.0003994738217443228
1772810825484051700,3.8350517578125,-0.0010652635246515274,-0.00013315794058144093,0.0003994738217443228
1772810825493932800,3.844932861328125,-0.001597895286977291,-0.001731053227558732,-0.0006657897029072046
1772810825503814400,3.854814453125,0,0.0014647373463958502,0.0003994738217443228
1772810825513696000,3.864696044921875,0,-0.0022636849898844957,-0.0011984214652329683
1772810825523577600,3.87457763671875,0,-0.001731053227558732,-0.0006657897029072046
1772810825533459200,3.884459228515625,-0.002130527049303055,-0.0006657897029072046,-0.001731053227558732
1772810825543340800,3.8943408203125,-0.0005326317623257637,-0.00013315794058144093,0.0014647373463958502
1772810825553222700,3.90422265625,0.0005326317623257637,-0.0011984214652329683,0.0003994738217443228
1772810825563104300,3.914104248046875,0.0010652635246515274,0.001597895286977291,0.0003994738217443228
1772810825572985900,3.92398583984375,-0.0005326317623257637,0.0005326317623257637,0.0003994738217443228
1772810825582867500,3.933867431640625,0.0010652635246515274,0,0.0025300008710473776
1772810825592749000,3.9437490234375,0,0.0010652635246515274,0.0003994738217443228
1772810825602630700,3.953630615234375,-0.0005326317623257637,-0.0005326317623257637,-0.00026631588116288185
1772810825612512500,3.963512451171875,0.002130527049303055,-0.001597895286977291,-0.0013315794058144093
1772810825622394000,3.97339404296875,-0.0005326317623257637,0.0005326317623257637,0.00026631588116288185
1772810825632275700,3.983275634765625,0.0005326317623257637,-0.0005326317623257637,0.00026631588116288185
1772810825642157300,3.9931572265625,0,0.0010652635246515274,-0.00026631588116288185
1772810825652039000,4.003038818359375,0,-0.0010652635246515274,-0.0007989476434886456
1772810825661920800,4.012920654296875,0.001597895286977291,0.0005326317623257637,0.0007989476434886456
1772810825671802400,4.02280224609375,-0.0010652635246515274,0,0.0003994738217443228
1772810825681684000,4.03268408203125,-0.0010652635246515274,0,0.0003994738217443228
1772810825691565600,4.042565673828125,0.0010652635246515274,0.0010652635246515274,0.0003994738217443228
1772810825701447200,4.052447265625,-0.0005326317623257637,0.0005326317623257637,0.0025300008710473776
1772810825711328800,4.062328857421875,0.001597895286977291,-0.001597895286977291,0.0009321055840700865
1772810825721210600,4.072210693359375,-0.0005326317623257637,0.0005326317623257637,-0.0006657897029072046
1772810825731092200,4.08209228515625,-0.0005326317623257637,0.0005326317623257637,0.0003994738217443228
1772810825740973800,4.091973876953125,-0.0010652635246515274,-0.0005326317623257637,0.0003994738217443228
1772810825750855400,4.10185546875,0.001597895286977291,-0.0005326317623257637,-0.00013315794058144093
1772810825760737000,4.111737060546875,-0.0010652635246515274,-0.0005326317623257637,-0.001731053227558732
1772810825770619000,4.121618896484375,0.0010652635246515274,0.0005326317623257637,-0.00013315794058144093
1772810825780500500,4.13150048828125,-0.0010652635246515274,-0.0005326317623257637,0.0003994738217443228
1772810825790382000,4.141382080078125,0,0.001597895286977291,-0.00013315794058144093
1772810825800263700,4.151263671875,0.0005326317623257637,0.0010652635246515274,0.0003994738217443228
1772810825810145300,4.161145263671875,0.0005326317623257637,0.0026631588116288185,-0.0006657897029072046
1772810825820027100,4.171027099609375,-0.0005326317623257637,-0.0005326317623257637,-0.0006657897029072046
1772810825829908700,4.18090869140625,-0.0005326317623257637,0.0010652635246515274,0.0009321055840700865
1772810825839790300,4.190790283203125,0.0005326317623257637,0.0010652635246515274,-0.0006657897029072046
1772810825849672000,4.200671875,-0.0005326317623257637,0.0005326317623257637,0.0009321055840700865
1772810825859553500,4.210553466796875,-0.001597895286977291,0,-0.0011984214652329683
1772810825869435100,4.22043505859375,-0.0005326317623257637,-0.001597895286977291,-0.00013315794058144093
1772810825879317000,4.23031689453125,-0.0005326317623257637,0.0010652635246515274,-0.0006657897029072046
1772810825889198600,4.240198486328125,-0.0005326317623257637,0.0010652635246515274,-0.00013315794058144093
1772810825899080200,4.250080078125,-0.001597895286977291,-0.0005326317623257637,0.0009321055840700865
1772810825908961800,4.2599619140625,0.0010652635246515274,-0.0010652635246515274,0.0003994738217443228
1772810825918843400,4.269843505859375,-0.0010652635246515274,0.0005326317623257637,-0.0011984214652329683
1772810825928725200,4.279725341796875,-0.0005326317623257637,0.0005326317623257637,-0.00013315794058144093
1772810825938606800,4.28960693359375,0,0,0.0003994738217443228
1772810825948488400,4.299488525390625,0,0,-0.001731053227558732
1772810825958370000,4.3093701171875,0,-0.0005326317623257637,-0.0006657897029072046
1772810825968251600,4.319251708984375,-0.0005326317623257637,0.0005326317623257637,0.0014647373463958502
1772810825978133200,4.32913330078125,0.001597895286977291,-0.0010652635246515274,-0.00013315794058144093
1772810825988015000,4.33901513671875,0.001597895286977291,0.002130527049303055,-0.0006657897029072046
1772810825997896400,4.348896484375,0,0.001597895286977291,-0.0022636849898844957
1772810826007777000,4.358777099609375,-0.001597895286977291,0.0005326317623257637,0.0003994738217443228
1772810826017657900,4.368657958984375,0.0010652635246515274,-0.0026631588116288185,-0.0011984214652329683
1772810826027538700,4.37853857421875,0.0005326317623257637,0.0005326317623257637,-0.0022636849898844957
1772810826037419500,4.38841943359375,0.0010652635246515274,0.0005326317623257637,0.0014647373463958502
1772810826047300400,4.39830029296875,0.0005326317623257637,0.0010652635246515274,-0.0006657897029072046
1772810826057181000,4.408180908203125,0.002130527049303055,0.0005326317623257637,0.0003994738217443228
1772810826067061800,4.418061767578125,0,-0.002130527049303055,-0.00013315794058144093
1772810826076942600,4.427942626953125,0,0,-0.00013315794058144093
1772810826086823400,4.437823486328125,0.001597895286977291,0.0010652635246515274,-0.0011984214652329683
1772810826096704300,4.447704345703125,-0.0005326317623257637,-0.0010652635246515274,0.0009321055840700865
1772810826106584800,4.457584716796875,-0.0005326317623257637,0.002130527049303055,-0.0006657897029072046
1772810826116465700,4.467465576171875,0.001597895286977291,-0.0026631588116288185,-0.00013315794058144093
1772810826126346500,4.477346435546875,0.0005326317623257637,0.0010652635246515274,-0.00013315794058144093
1772810826136227300,4.487227294921875,-0.0010652635246515274,0,-0.0006657897029072046
1772810826146108200,4.497108154296875,-0.0005326317623257637,-0.0010652635246515274,-0.00013315794058144093
1772810826155988700,4.50698876953125,0,0,-0.00013315794058144093
1772810826165869600,4.51686962890625,-0.001597895286977291,0.0010652635246515274,0.0014647373463958502
1772810826175750400,4.52675048828125,-0.001597895286977291,-0.0005326317623257637,-0.0011984214652329683
1772810826185631200,4.53663134765625,-0.0010652635246515274,-0.0026631588116288185,-0.0006657897029072046
1772810826195512000,4.546511962890625,0,0.0005326317623257637,-0.0011984214652329683
1772810826205392600,4.556392578125,-0.0010652635246515274,0.0005326317623257637,0.0003994738217443228
1772810826215273500,4.5662734375,0,0.001597895286977291,-0.00013315794058144093
1772810826225154300,4.576154296875,0.0005326317623257637,0,-0.00013315794058144093
1772810826235035100,4.58603515625,-0.0005326317623257637,0.001597895286977291,0.0003994738217443228
1772810826244916000,4.595916015625,0,-0.001597895286977291,-0.001731053227558732
1772810826254796800,4.605796875,0.0005326317623257637,0.0005326317623257637,0.0003994738217443228
1772810826264677400,4.615677490234375,-0.0005326317623257637,0.001597895286977291,0.0014647373463958502
1772810826274558200,4.62555810546875,-0.0026631588116288185,-0.001597895286977291,0.0009321055840700865
1772810826284439000,4.63543896484375,0.0005326317623257637,0,-0.0011984214652329683
1772810826294319900,4.64531982421875,0.0010652635246515274,0,-0.0006657897029072046
1772810826304200700,4.65520068359375,0.0010652635246515274,0,-0.00013315794058144093
1772810826314081300,4.665081298828125,0.0005326317623257637,-0.0010652635246515274,0.0014647373463958502
1772810826323962000,4.674962158203125,0.0005326317623257637,-0.0005326317623257637,0.0014647373463958502
1772810826333843000,4.684843017578125,-0.0005326317623257637,0.0005326317623257637,-0.00013315794058144093
1772810826343723800,4.694723876953125,-0.0005326317623257637,0.0005326317623257637,0.0003994738217443228
1772810826353604600,4.7046044921875,-0.0010652635246515274,-0.002130527049303055,0.0003994738217443228
1772810826363485200,4.714485107421875,0.0005326317623257637,0.0005326317623257637,0.0025300008710473776
1772810826373366000,4.724365966796875,0.002130527049303055,0.0005326317623257637,0.0003994738217443228
1772810826383246800,4.734246826171875,0.0005326317623257637,0.0010652635246515274,0.0003994738217443228
1772810826393127700,4.744127685546875,0.002130527049303055,0,-0.00013315794058144093
1772810826403008500,4.754008544921875,-0.0010652635246515274,0.001597895286977291,0.0014647373463958502
1772810826412889000,4.76388916015625,0.001597895286977291,-0.0005326317623257637,-0.001731053227558732
1772810826422770000,4.77377001953125,0.001597895286977291,-0.0005326317623257637,0.0003994738217443228
1772810826432650800,4.783650634765625,-0.002130527049303055,-0.0005326317623257637,-0.00013315794058144093
1772810826442531600,4.793531494140625,-0.0005326317623257637,0.0005326317623257637,0.0014647373463958502
1772810826452412400,4.803412353515625,-0.0005326317623257637,-0.0010652635246515274,0.0003994738217443228
1772810826462293000,4.81329296875,0.0005326317623257637,-0.0005326317623257637,0.0009321055840700865
1772810826472174000,4.823174072265625,0,0.0010652635246515274,-0.00013315794058144093
1772810826482055000,4.833054931640625,0,0.0010652635246515274,-0.0011984214652329683
1772810826491936000,4.84293603515625,-0.0005326317623257637,0.0010652635246515274,0.0003994738217443228
1772810826501816800,4.85281689453125,0.0005326317623257637,-0.0026631588116288185,-0.0006657897029072046
1772810826511698000,4.862697998046875,0.0005326317623257637,0.0005326317623257637,0.0003994738217443228
1772810826521579000,4.8725791015625,0,0.0005326317623257637,-0.00013315794058144093
1772810826531459800,4.8824599609375,0.0010652635246515274,0,0.001997369108721614
1772810826541341000,4.8923408203125,0,0.0005326317623257637,-0.00013315794058144093
1772810826551221800,4.9022216796875,-0.0010652635246515274,0,-0.00013315794058144093
1772810826561102800,4.912102783203125,0.0010652635246515274,0.0005326317623257637,-0.001731053227558732
1772810826570983700,4.921983642578125,0,0.0010652635246515274,-0.00013315794058144093
1772810826580864800,4.93186474609375,-0.0005326317623257637,-0.0005326317623257637,-0.0006657897029072046
1772810826590745900,4.941745849609375,-0.0005326317623257637,-0.0010652635246515274,-0.0006657897029072046
1772810826600626700,4.951626708984375,0,-0.0005326317623257637,-0.00013315794058144093
1772810826610507800,4.9615078125,0.0010652635246515274,-0.001597895286977291,-0.00013315794058144093
1772810826620388900,4.971388916015625,-0.001597895286977291,0,0.0003994738217443228
1772810826630269700,4.981269775390625,-0.0005326317623257637,-0.0005326317623257637,0.0014647373463958502
1772810826640150800,4.99115087890625,-0.0005326317623257637,-0.002130527049303055,0.0009321055840700865
1772810826650031600,5.001031494140625,0.0005326317623257637,0.0010652635246515274,-0.00013315794058144093
1772810826659912700,5.01091259765625,-0.0005326317623257637,0,-0.00013315794058144093
1772810826669793500,5.02079345703125,-0.002130527049303055,0.001597895286977291,-0.001731053227558732
1772810826679674600,5.030674560546875,-0.0005326317623257637,-0.0010652635246515274,0.0003994738217443228
1772810826689555700,5.0405556640625,0,0.0005326317623257637,-0.00013315794058144093
1772810826699436500,5.0504365234375,-0.0010652635246515274,0.0005326317623257637,0.0009321055840700865
1772810826709317600,5.060317626953125,0.0005326317623257637,0.0005326317623257637,-0.0011984214652329683
1772810826719198500,5.070198486328125,-0.0010652635246515274,0.0010652635246515274,0.0003994738217443228
1772810826729079600,5.08007958984375,-0.0010652635246515274,-0.0005326317623257637,-0.0006657897029072046
1772810826738960600,5.089960693359375,0.0010652635246515274,0.001597895286977291,-0.00013315794058144093
1772810826748841500,5.099841552734375,0.0010652635246515274,0.0005326317623257637,0.0003994738217443228
1772810826758722600,5.10972265625,-0.0005326317623257637,0.001597895286977291,0.0014647373463958502
1772810826768603400,5.119603271484375,0,0,0.0003994738217443228
1772810826778484500,5.129484375,-0.0005326317623257637,-0.0010652635246515274,0.0003994738217443228
1772810826788365600,5.139365478515625,0.0010652635246515274,-0.0005326317623257637,-0.00013315794058144093
1772810826798246400,5.149246337890625,-0.0010652635246515274,0.001597895286977291,-0.00013315794058144093
1772810826808127500,5.15912744140625,-0.0005326317623257637,-0.002130527049303055,-0.00013315794058144093
1772810826818008300,5.16900830078125,0.0010652635246515274,-0.001597895286977291,0.0014647373463958502
1772810826827889400,5.178889404296875,-0.0005326317623257637,0,-0.00013315794058144093
1772810826837770500,5.1887705078125,0.0005326317623257637,0.0010652635246515274,-0.00013315794058144093
1772810826847651300,5.1986513671875,0.0005326317623257637,-0.0005326317623257637,0.0009321055840700865
1772810826857532400,5.208532470703125,0.0005326317623257637,0,-0.0006657897029072046
1772810826867413200,5.218413330078125,0.0010652635246515274,0.0010652635246515274,-0.0006657897029072046
1772810826877294300,5.22829443359375,-0.002130527049303055,0,-0.0022636849898844957
1772810826887175400,5.238175537109375,0.0010652635246515274,0.0010652635246515274,0.0003994738217443228
1772810826897056300,5.24805615234375,0.001597895286977291,0.0010652635246515274,-0.00013315794058144093
1772810826906937300,5.257937255859375,0.0005326317623257637,0.0010652635246515274,0.001997369108721614
1772810826916818200,5.267818115234375,-0.0005326317623257637,0.0005326317623257637,0.0003994738217443228
1772810826926699300,5.27769921875,0.0010652635246515274,0.0005326317623257637,0.0003994738217443228
1772810826936580400,5.287580322265625,-0.0005326317623257637,-0.0010652635246515274,0.0003994738217443228
1772810826946461200,5.297461181640625,-0.0005326317623257637,0,-0.0006657897029072046
1772810826956342300,5.30734228515625,0.0010652635246515274,-0.0005326317623257637,0.0009321055840700865
1772810826966223000,5.31722314453125,-0.0005326317623257637,0,0.001997369108721614
1772810826976104200,5.327104248046875,-0.0026631588116288185,0.0005326317623257637,-0.00013315794058144093
1772810826985985000,5.336985107421875,-0.0005326317623257637,-0.0005326317623257637,-0.00013315794058144093
1772810826995866000,5.3468662109375,0.0005326317623257637,-0.0010652635246515274,0.0003994738217443228
1772810827005747200,5.356747314453125,-0.0005326317623257637,0.0005326317623257637,-0.00013315794058144093
1772810827015628300,5.366628173828125,-0.0010652635246515274,0.001597895286977291,0.0003994738217443228
1772810827025509400,5.37650927734375,0,0.0010652635246515274,-0.00013315794058144093
1772810827035390500,5.386390380859375,-0.0010652635246515274,-0.001597895286977291,-0.001731053227558732
1772810827045271600,5.396271484375,0,0.0005326317623257637,-0.0011984214652329683
1772810827055152600,5.406152587890625,0.001597895286977291,0.0005326317623257637,0.0003994738217443228
1772810827065033500,5.416033447265625,-0.0005326317623257637,-0.0010652635246515274,0.0003994738217443228
1772810827074914600,5.42591455078125,-0.0005326317623257637,0.0010652635246515274,-0.001731053227558732
1772810827084795600,5.435795654296875,-0.0010652635246515274,0,-0.0011984214652329683
1772810827094676700,5.4456767578125,-0.0010652635246515274,0.0010652635246515274,-0.00013315794058144093
1772810827104557800,5.455557861328125,0.0005326317623257637,-0.001597895286977291,-0.0011984214652329683
1772810827114439000,5.46543896484375,0.001597895286977291,-0.0010652635246515274,0.0003994738217443228
1772810827124320000,5.475320068359375,0.0005326317623257637,0.0005326317623257637,-0.00013315794058144093
1772810827144082200,5.495082275390625,0,-0.0010652635246515274,-0.00013315794058144093
1772810827153963500,5.504963623046875,0,0.0026631588116288185,0.0009321055840700865
1772810827163845000,5.51484521484375,0,0,-0.0006657897029072046
1772810827173726700,5.524726806640625,-0.0005326317623257637,0.0010652635246515274,0.0003994738217443228
1772810827183608000,5.534608154296875,0.0010652635246515274,-0.0010652635246515274,0.0003994738217443228
1772810827193489700,5.54448974609375,-0.0005326317623257637,0.001597895286977291,0.001997369108721614
1772810827203371000,5.55437109375,0.001597895286977291,0.0005326317623257637,-0.00013315794058144093
1772810827213252600,5.564252685546875,0,0.0005326317623257637,0.0003994738217443228
1772810827233015600,5.584015625,0.0005326317623257637,0.0005326317623257637,0.0003994738217443228
1772810827242897000,5.59389697265625,0.0010652635246515274,0.0005326317623257637,-0.00013315794058144093
1772810827252778500,5.603778564453125,0,-0.001597895286977291,-0.0006657897029072046
1772810827272541400,5.62354150390625,0,-0.001597895286977291,0
1772810827292304600,5.6433046875,-0.0005326317623257637,-0.00013315794058144093,0.001597895286977291
1772810827302186000,5.65318603515625,0.0010652635246515274,0.0003994738217443228,0
1772810827312067600,5.663067626953125,-0.001597895286977291,-0.0011984214652329683,0.0010652635246515274
1772810827321949000,5.672948974609375,0,-0.0006657897029072046,-0.0005326317623257637
1772810827331830500,5.68283056640625,-0.0005326317623257637,-0.0029294746927917004,0
1772810827351593500,5.702593505859375,0.0005326317623257637,-0.0007989476434886456,-0.0010652635246515274
1772810827361474800,5.712474853515625,-0.0005326317623257637,-0.00013315794058144093,-0.0006657897029072046
1772810827371356400,5.7223564453125,0.0005326317623257637,-0.003328948514536023,-0.00013315794058144093
1772810827381238000,5.732238037109375,-0.0005326317623257637,0.0025300008710473776,-0.00013315794058144093
1772810827391119400,5.742119384765625,0.0026631588116288185,0.0003994738217443228,-0.00013315794058144093
1772810827401001000,5.7520009765625,0.0005326317623257637,-0.001731053227558732,-0.0006657897029072046
1772810827410882300,5.76188232421875,0.0010652635246515274,0.0009321055840700865,-0.00013315794058144093
1772810827420764000,5.771763916015625,-0.0005326317623257637,-0.0006657897029072046,-0.0006657897029072046
1772810827430645500,5.7816455078125,-0.0010652635246515274,-0.00013315794058144093,0.0003994738217443228
1772810827440526800,5.79152685546875,0,0.0003994738217443228,-0.00013315794058144093
1772810827450408400,5.801408447265625,0,-0.0011984214652329683,-0.0006657897029072046
1772810827460289800,5.811289794921875,-0.0010652635246515274,0.0003994738217443228,0.0003994738217443228
1772810827470171400,5.82117138671875,-0.001597895286977291,0.0003994738217443228,-0.0006657897029072046
1772810827489934300,5.840934326171875,-0.0005326317623257637,0.0014647373463958502,-0.0011984214652329683
1772810827499816200,5.850816162109375,-0.0005326317623257637,0.0003994738217443228,-0.0006657897029072046
1772810827509698300,5.8606982421875,-0.0026631588116288185,0.0030626326333731413,0.0003994738217443228
1772810827519580400,5.870580322265625,0.0010652635246515274,0.0009321055840700865,0.0009321055840700865
1772810827529462800,5.880462890625,-0.0010652635246515274,0.0003994738217443228,-0.00013315794058144093
1772810827539345000,5.890344970703125,-0.0010652635246515274,0.0003994738217443228,-0.0006657897029072046
1772810827559109400,5.910109375,-0.002130527049303055,-0.0011984214652329683,0.0003994738217443228
1772810827568991500,5.919991455078125,-0.0005326317623257637,-0.0006657897029072046,-0.00013315794058144093
1772810827588755700,5.939755615234375,-0.0005326317623257637,0.0003994738217443228,0.0014647373463958502
1772810827598638000,5.94963818359375,0,-0.00013315794058144093,0.0014647373463958502
1772810827608520200,5.959520263671875,-0.0005326317623257637,-0.00013315794058144093,-0.0006657897029072046
1772810827618402300,5.96940234375,0,-0.00013315794058144093,-0.00013315794058144093
1772810827628284700,5.97928466796875,0.001597895286977291,-0.0006657897029072046,0.0003994738217443228
1772810827638166800,5.989166748046875,-0.001597895286977291,-0.0006657897029072046,0.0003994738217443228
1772810827648049000,5.999048828125,0.0005326317623257637,-0.001731053227558732,-0.0011984214652329683
1772810827657931000,6.008930908203125,0.002130527049303055,0.0003994738217443228,0.0003994738217443228
1772810827667813400,6.0188134765625,-0.0010652635246515274,0.0003994738217443228,0.0003994738217443228
1772810827677695500,6.028695556640625,-0.0005326317623257637,0.0009321055840700865,0.0003994738217443228
1772810827687577600,6.03857763671875,0,0.0025300008710473776,0.0003994738217443228
1772810827697459700,6.048459716796875,0,-0.00013315794058144093,-0.0011984214652329683
1772810827717224200,6.06822412109375,0.0010652635246515274,0.0003994738217443228,0.0003994738217443228
1772810827727106300,6.078106201171875,0.0005326317623257637,-0.0027963167522102594,0.0003994738217443228
1772810827736988700,6.08798876953125,-0.0005326317623257637,-0.0011984214652329683,0.0003994738217443228
1772810827756753000,6.1077529296875,-0.0005326317623257637,-0.0011984214652329683,0.0003994738217443228
1772810827766635300,6.11763525390625,-0.0005326317623257637,0.0003994738217443228,-0.00013315794058144093
1772810827776517400,6.127517333984375,0.0005326317623257637,-0.00013315794058144093,0.0009321055840700865
1772810827786399500,6.1373994140625,-0.0005326317623257637,0.0009321055840700865,-0.0006657897029072046
1772810827796281600,6.147281494140625,-0.001597895286977291,0.0009321055840700865,-0.0006657897029072046
1772810827806164000,6.1571640625,0,-0.0011984214652329683,0.0003994738217443228
1772810827816046000,6.167046142578125,-0.0005326317623257637,0.0003994738217443228,0.0003994738217443228
1772810827825928200,6.17692822265625,-0.0005326317623257637,-0.0011984214652329683,0.0014647373463958502
1772810827835810300,6.186810302734375,-0.0005326317623257637,-0.0006657897029072046,0.001997369108721614
1772810827845692700,6.196692626953125,-0.0010652635246515274,-0.0011984214652329683,0.0003994738217443228
1772810827855574800,6.20657470703125,0.0010652635246515274,-0.00013315794058144093,-0.001731053227558732
1772810827865457000,6.216456787109375,0.001597895286977291,-0.0011984214652329683,-0.0011984214652329683
1772810827875339300,6.22633935546875,0.002130527049303055,0.0003994738217443228,-0.0011984214652329683
1772810827885221400,6.236221435546875,0.0010652635246515274,0.0003994738217443228,0.0003994738217443228
1772810827895103500,6.246103515625,0.0005326317623257637,0.0009321055840700865,-0.0006657897029072046
1772810827904985600,6.255985595703125,-0.0010652635246515274,-0.0006657897029072046,0.001997369108721614
1772810827914868000,6.265867919921875,-0.0010652635246515274,0.0003994738217443228,0.0014647373463958502
1772810827924750000,6.27575,-0.0010652635246515274,-0.0011984214652329683,-0.00013315794058144093
1772810827934632200,6.285632080078125,-0.0010652635246515274,-0.00013315794058144093,0.0003994738217443228
1772810827944514300,6.295514404296875,-0.0010652635246515274,-0.0006657897029072046,-0.00013315794058144093
1772810827954396700,6.305396728515625,0.0010652635246515274,0.0014647373463958502,-0.00013315794058144093
1772810827964278800,6.31527880859375,-0.0010652635246515274,-0.00013315794058144093,-0.0006657897029072046
1772810827974161000,6.325160888671875,0.001597895286977291,-0.0006657897029072046,-0.0011984214652329683
1772810827984043300,6.335043212890625,0,-0.0011984214652329683,0.0003994738217443228
1772810827993925400,6.34492529296875,-0.0005326317623257637,0.0003994738217443228,0.0003994738217443228
1772810828003806500,6.354806396484375,0,-0.0006657897029072046,0.0003994738217443228
1772810828013687300,6.364687255859375,0,-0.001731053227558732,0.0009321055840700865
1772810828023568400,6.374568359375,0,-0.0006657897029072046,-0.0011984214652329683
1772810828033449200,6.38444921875,-0.0010652635246515274,-0.0011984214652329683,-0.00013315794058144093
1772810828043330300,6.394330322265625,0,-0.0006657897029072046,0.0003994738217443228
1772810828053211100,6.404211181640625,0.002130527049303055,-0.0006657897029072046,-0.00013315794058144093
1772810828063092200,6.41409228515625,0.0010652635246515274,0.0009321055840700865,-0.00013315794058144093
1772810828072973000,6.42397314453125,0,-0.00013315794058144093,-0.00013315794058144093
1772810828082854100,6.433854248046875,0.0005326317623257637,0.0003994738217443228,0.0003994738217443228
1772810828092735000,6.44373486328125,0.0010652635246515274,0.0003994738217443228,0.0014647373463958502
1772810828102616000,6.453615966796875,-0.0005326317623257637,0.0003994738217443228,0.0003994738217443228
1772810828122378000,6.4733779296875,-0.001597895286977291,-0.00013315794058144093,0.0009321055840700865
1772810828132258800,6.4832587890625,-0.0005326317623257637,0.0014647373463958502,-0.00013315794058144093
1772810828152020700,6.503020751953125,-0.0005326317623257637,-0.0006657897029072046,-0.0011984214652329683
1772810828161901800,6.51290185546875,-0.0005326317623257637,-0.00013315794058144093,-0.0006657897029072046
1772810828171782700,6.52278271484375,0.0026631588116288185,0.0003994738217443228,-0.001731053227558732
1772810828191544600,6.542544677734375,0.0005326317623257637,0.0009321055840700865,0.0009321055840700865
1772810828201425700,6.55242578125,-0.0005326317623257637,0.0009321055840700865,-0.0006657897029072046
1772810828211306500,6.562306396484375,0,-0.001731053227558732,0.0003994738217443228
1772810828221187600,6.5721875,0.0005326317623257637,0.0009321055840700865,-0.00013315794058144093
1772810828231068400,6.582068359375,0.0005326317623257637,-0.00013315794058144093,-0.0011984214652329683
1772810828240949500,6.591949462890625,-0.0005326317623257637,-0.0011984214652329683,0.0009321055840700865
1772810828250830300,6.601830322265625,0.001597895286977291,-0.0006657897029072046,-0.0006657897029072046
1772810828260711400,6.61171142578125,-0.0005326317623257637,-0.00013315794058144093,0.0009321055840700865
1772810828270592300,6.62159228515625,0.001597895286977291,-0.0011984214652329683,0.001997369108721614
1772810828280473300,6.631473388671875,0.0010652635246515274,-0.0006657897029072046,-0.00013315794058144093
1772810828290354200,6.641354248046875,0,0.0003994738217443228,-0.00013315794058144093
1772810828300235300,6.6512353515625,0.001597895286977291,0.001997369108721614,-0.0006657897029072046
1772810828310116000,6.6611162109375,0.0010652635246515274,0.0003994738217443228,-0.00013315794058144093
1772810828319997200,6.6709970703125,0,0.0014647373463958502,0.0003994738217443228
1772810828329878000,6.6808779296875,0,0.001997369108721614,-0.00013315794058144093
1772810828339759000,6.690759033203125,0,-0.001731053227558732,-0.0011984214652329683
1772810828349640000,6.700639892578125,0,0.0014647373463958502,0.0003994738217443228
1772810828359521000,6.71052099609375,-0.0010652635246515274,0.0003994738217443228,-0.0006657897029072046
1772810828369401900,6.72040185546875,-0.0005326317623257637,0.0009321055840700865,0.0009321055840700865
1772810828379283000,6.730282958984375,0.0005326317623257637,0.0014647373463958502,0.0003994738217443228
1772810828389163800,6.740163818359375,0,0.0003994738217443228,0.001997369108721614
1772810828399044900,6.750044921875,-0.001597895286977291,0.001997369108721614,-0.001731053227558732
1772810828408925700,6.75992578125,-0.0005326317623257637,-0.00013315794058144093,-0.0011984214652329683
1772810828418806800,6.769806884765625,0,0.0014647373463958502,-0.0006657897029072046
1772810828428687600,6.7796875,0,-0.0011984214652329683,0.0009321055840700865
1772810828438568700,6.789568603515625,-0.0005326317623257637,0.0003994738217443228,0.0003994738217443228
1772810828448449500,6.799449462890625,-0.0005326317623257637,-0.00013315794058144093,0.0003994738217443228
1772810828458330600,6.80933056640625,-0.0005326317623257637,-0.0006657897029072046,0.0003994738217443228
1772810828468211500,6.81921142578125,-0.002130527049303055,0.0009321055840700865,0.0009321055840700865
1772810828478092500,6.829092529296875,0.001597895286977291,-0.001731053227558732,-0.00013315794058144093
1772810828487973400,6.838973388671875,0.0005326317623257637,0.001997369108721614,0.0014647373463958502
1772810828497854200,6.848854248046875,0.001597895286977291,0.0003994738217443228,0.0003994738217443228
1772810828507735000,6.858735107421875,-0.0005326317623257637,0.001997369108721614,0.0009321055840700865
1772810828517615600,6.86861572265625,-0.001597895286977291,0.0014647373463958502,-0.0011984214652329683
1772810828527496200,6.87849609375,0,-0.0011984214652329683,-0.00013315794058144093
1772810828537377000,6.888376953125,0,-0.0006657897029072046,-0.00013315794058144093
1772810828547257600,6.898257568359375,0.0005326317623257637,-0.00013315794058144093,0.0014647373463958502
1772810828557138200,6.90813818359375,0.0005326317623257637,-0.00013315794058144093,-0.00013315794058144093
1772810828567019000,6.91801904296875,-0.0005326317623257637,0.0014647373463958502,-0.00013315794058144093
1772810828576899600,6.927899658203125,-0.0005326317623257637,0.0003994738217443228,-0.00013315794058144093
1772810828586780200,6.9377802734375,-0.0005326317623257637,0.001997369108721614,-0.00013315794058144093
1772810828596661000,6.947660888671875,-0.001597895286977291,-0.0006657897029072046,0.0003994738217443228
1772810828606541600,6.95754150390625,0,0.0003994738217443228,0.001997369108721614
1772810828616422100,6.967422119140625,-0.0010652635246515274,0.0003994738217443228,0.0003994738217443228
1772810828626303000,6.977302978515625,-0.0005326317623257637,-0.0011984214652329683,-0.0011984214652329683
1772810828636183600,6.98718359375,0.0010652635246515274,-0.00013315794058144093,-0.0006657897029072046
1772810828646064000,6.997064208984375,-0.0010652635246515274,-0.0006657897029072046,0.0003994738217443228
1772810828655944700,7.00694482421875,0,-0.00013315794058144093,-0.00013315794058144093
1772810828665825500,7.016825439453125,0.0005326317623257637,0.0025300008710473776,0.0003994738217443228
1772810828675706000,7.0267060546875,0.0005326317623257637,0.0009321055840700865,0.0003994738217443228
1772810828685586700,7.036586669921875,0,-0.00013315794058144093,0.0003994738217443228
1772810828695467500,7.046467529296875,0.0010652635246515274,0.0009321055840700865,-0.0006657897029072046
1772810828705348000,7.05634814453125,0.0010652635246515274,0.0009321055840700865,0.0003994738217443228
1772810828715228700,7.066228759765625,-0.0005326317623257637,0.0009321055840700865,0.0003994738217443228
1772810828725109500,7.076109619140625,0.0005326317623257637,-0.001731053227558732,0.001997369108721614
1772810828734990000,7.085989990234375,0.0010652635246515274,-0.00013315794058144093,-0.0011984214652329683
1772810828744870700,7.09587060546875,0.0005326317623257637,0.0003994738217443228,0.0014647373463958502
1772810828754751500,7.10575146484375,0,0.001997369108721614,-0.0011984214652329683
1772810828764632000,7.115632080078125,-0.0005326317623257637,-0.00013315794058144093,-0.0006657897029072046
1772810828774512600,7.1255126953125,0.0005326317623257637,-0.0006657897029072046,-0.00013315794058144093
1772810828794274000,7.145274169921875,-0.0010652635246515274,-0.0006657897029072046,0.0003994738217443228
1772810828804154600,7.155154541015625,0.0010652635246515274,-0.0011984214652329683,-0.0006657897029072046
1772810828814035500,7.165035400390625,0.0010652635246515274,-0.00013315794058144093,-0.0011984214652329683
1772810828823916000,7.174916015625,-0.0005326317623257637,-0.00013315794058144093,-0.00013315794058144093
1772810828833796600,7.184796630859375,0,-0.0011984214652329683,-0.0011984214652329683
1772810828843677400,7.194677490234375,0,0.0003994738217443228,0.0009321055840700865
1772810828853558000,7.20455810546875,-0.0005326317623257637,-0.00013315794058144093,0.0003994738217443228
1772810828873319400,7.2243193359375,0.001597895286977291,0.0014647373463958502,-0.00013315794058144093
1772810828893080600,7.24408056640625,0,-0.0022636849898844957,0.0014647373463958502
1772810828902961400,7.25396142578125,0.0005326317623257637,0.0003994738217443228,0.0009321055840700865
1772810828912842000,7.263842041015625,-0.001597895286977291,-0.00013315794058144093,0.0003994738217443228
1772810828922722600,7.27372265625,-0.0005326317623257637,-0.0011984214652329683,0.0003994738217443228
1772810828932603400,7.283603271484375,0.001597895286977291,-0.00013315794058144093,-0.00013315794058144093
1772810828942484000,7.29348388671875,0.0005326317623257637,-0.0006657897029072046,-0.0006657897029072046
1772810828952364500,7.303364501953125,-0.0005326317623257637,0.0003994738217443228,-0.001731053227558732
1772810828962245000,7.3132451171875,0.0005326317623257637,0.0003994738217443228,-0.00013315794058144093
1772810828972126000,7.3231259765625,0.0010652635246515274,0.0030626326333731413,-0.00013315794058144093
1772810828982006500,7.333006591796875,-0.0005326317623257637,-0.00013315794058144093,-0.0006657897029072046
1772810828991887000,7.34288720703125,-0.0005326317623257637,0.0003994738217443228,-0.00013315794058144093
1772810829001767700,7.352767578125,-0.0005326317623257637,-0.00013315794058144093,-0.0006657897029072046
1772810829011648300,7.362648193359375,0.0005326317623257637,0.0003994738217443228,0.0003994738217443228
1772810829021528600,7.372528564453125,0.001597895286977291,-0.00013315794058144093,-0.00013315794058144093
1772810829031409200,7.3824091796875,0,-0.00013315794058144093,-0.00013315794058144093
1772810829041289700,7.392289794921875,-0.001597895286977291,-0.0011984214652329683,0.0009321055840700865
1772810829051170000,7.402170166015625,0.0005326317623257637,0.0014647373463958502,-0.00013315794058144093
1772810829061050600,7.412050537109375,0.0005326317623257637,0.0003994738217443228,0.0003994738217443228
1772810829070931000,7.421930908203125,-0.0010652635246515274,0.0009321055840700865,0.0003994738217443228
1772810829080811500,7.4318115234375,0.0010652635246515274,-0.00013315794058144093,0.0014647373463958502
1772810829090691800,7.44169189453125,0.0005326317623257637,-0.00013315794058144093,-0.00013315794058144093
1772810829100572400,7.451572509765625,0.002130527049303055,-0.0006657897029072046,0.0009321055840700865
1772810829110453000,7.461452880859375,-0.0005326317623257637,-0.00013315794058144093,0.0009321055840700865
1772810829120333300,7.471333251953125,0,0.0009321055840700865,-0.0006657897029072046
1772810829130214000,7.4812138671875,-0.0010652635246515274,0.0003994738217443228,-0.00013315794058144093
1772810829140094200,7.49109423828125,0,-0.00013315794058144093,0.0009321055840700865
1772810829159855400,7.51085546875,0,-0.00013315794058144093,0.0009321055840700865
1772810829169735700,7.520735595703125,0,-0.0006657897029072046,0.001997369108721614
1772810829179616300,7.5306162109375,0.0010652635246515274,0.0014647373463958502,-0.00013315794058144093
1772810829189496600,7.54049658203125,0,0.0014647373463958502,-0.0011984214652329683
1772810829199377200,7.550377197265625,-0.0005326317623257637,-0.0006657897029072046,-0.0006657897029072046
1772810829209257500,7.560257568359375,0.0010652635246515274,-0.0006657897029072046,0.0009321055840700865
1772810829219138000,7.570137939453125,0.001597895286977291,-0.0011984214652329683,0.0014647373463958502
1772810829229018600,7.5800185546875,-0.0005326317623257637,0.0009321055840700865,-0.00013315794058144093
1772810829238899000,7.58989892578125,0.0010652635246515274,0.0003994738217443228,0.001997369108721614
1772810829248779500,7.599779541015625,-0.0010652635246515274,-0.0011984214652329683,0.0009321055840700865
1772810829268540400,7.61954052734375,-0.0005326317623257637,0.0014647373463958502,0.0009321055840700865
1772810829278421000,7.6294208984375,-0.0010652635246515274,-0.0027963167522102594,-0.0006657897029072046
1772810829288301300,7.63930126953125,0,-0.0006657897029072046,-0.0011984214652329683
1772810829298182000,7.649181884765625,0.0010652635246515274,-0.0006657897029072046,-0.00013315794058144093
1772810829317942800,7.66894287109375,0.0005326317623257637,0.0003994738217443228,0.0003994738217443228
1772810829327823000,7.678822998046875,0.001597895286977291,0.0009321055840700865,-0.0006657897029072046
1772810829337703700,7.68870361328125,0,-0.00013315794058144093,-0.00013315794058144093
1772810829357464600,7.708464599609375,0,-0.00013315794058144093,-0.00013315794058144093
1772810829367345200,7.71834521484375,0.0005326317623257637,-0.001731053227558732,-0.00013315794058144093
1772810829377225500,7.7282255859375,0.001597895286977291,-0.0006657897029072046,0.0003994738217443228
1772810829387106000,7.73810595703125,0,0.0003994738217443228,-0.0006657897029072046
1772810829396986400,7.747986328125,0.0005326317623257637,0.0003994738217443228,-0.0006657897029072046
1772810829406867000,7.757866943359375,-0.0005326317623257637,0.0003994738217443228,0.0009321055840700865
1772810829416747300,7.767747314453125,0.0005326317623257637,-0.001731053227558732,0.0009321055840700865
1772810829426627800,7.7776279296875,0,0.001997369108721614,-0.0006657897029072046
1772810829436508400,7.78750830078125,-0.0005326317623257637,0.0003994738217443228,-0.0006657897029072046
1772810829446388700,7.797388671875,0,0.0003994738217443228,-0.0006657897029072046
1772810829456269300,7.807269287109375,0.0005326317623257637,-0.00013315794058144093,0.0003994738217443228
1772810829466149600,7.817149658203125,-0.0005326317623257637,0.001997369108721614,0.0009321055840700865
1772810829476030200,7.8270302734375,0.0005326317623257637,0.0003994738217443228,0.0009321055840700865
1772810829485910800,7.836910888671875,-0.0005326317623257637,-0.00013315794058144093,0.0003994738217443228
1772810829495791400,7.846791259765625,-0.0005326317623257637,-0.0011984214652329683,0.0009321055840700865
1772810829505672400,7.85667236328125,0.0010652635246515274,-0.00013315794058144093,-0.0006657897029072046
1772810829515553500,7.866553466796875,0.0010652635246515274,-0.00013315794058144093,0.0009321055840700865
1772810829525434600,7.8764345703125,0,-0.0006657897029072046,0.0003994738217443228
1772810829535315700,7.886315673828125,-0.0010652635246515274,-0.0027963167522102594,-0.0011984214652329683
1772810829545196800,7.89619677734375,0,-0.0022636849898844957,0.0003994738217443228
1772810829555078000,7.906077880859375,0.0005326317623257637,-0.0006657897029072046,0.0009321055840700865
1772810829564959000,7.915958984375,0,-0.0006657897029072046,-0.0006657897029072046
1772810829574840000,7.925840087890625,0,-0.001731053227558732,0.0009321055840700865
1772810829584721200,7.93572119140625,0.0005326317623257637,0.0009321055840700865,-0.001731053227558732
1772810829594602200,7.945602294921875,0.001597895286977291,-0.001731053227558732,-0.0006657897029072046
1772810829604483300,7.9554833984375,0,0.0009321055840700865,0.0009321055840700865
1772810829614364400,7.965364501953125,0,-0.0027963167522102594,0.0009321055840700865
1772810829624245500,7.97524560546875,0.0005326317623257637,-0.0011984214652329683,-0.0006657897029072046
1772810829634126600,7.985126708984375,0.0010652635246515274,-0.0006657897029072046,-0.0011984214652329683
1772810829644007700,7.995007568359375,-0.0005326317623257637,-0.00013315794058144093,0.0003994738217443228
1772810829653888800,8.004888671875,0.0005326317623257637,0.0003994738217443228,-0.00013315794058144093
1772810829673651000,8.02465087890625,0.0010652635246515274,-0.0011984214652329683,-0.0006657897029072046
1772810829683532000,8.034531982421875,0,-0.0006657897029072046,0.0009321055840700865
1772810829693413000,8.0444130859375,0,0.0025300008710473776,-0.001731053227558732
1772810829713175300,8.06417529296875,-0.002130527049303055,-0.00013315794058144093,-0.0006657897029072046
1772810829723056400,8.074056396484375,0,-0.0006657897029072046,0.0009321055840700865
1772810829732937500,8.0839375,-0.0005326317623257637,0.0003994738217443228,0.0003994738217443228
1772810829752699600,8.10369970703125,0.0010652635246515274,-0.001731053227558732,-0.0027963167522102594
1772810829762580700,8.113580810546875,0.0010652635246515274,-0.0006657897029072046,-0.00013315794058144093
1772810829772461800,8.1234619140625,0.0010652635246515274,-0.0022636849898844957,-0.0011984214652329683
1772810829782343000,8.133343017578126,-0.001597895286977291,0.0003994738217443228,-0.001731053227558732
1772810829792224000,8.14322412109375,0.0005326317623257637,0.0009321055840700865,-0.00013315794058144093
1772810829802105000,8.15310498046875,0,-0.0006657897029072046,0.0014647373463958502
1772810829811986200,8.162986083984375,0.0010652635246515274,0.0009321055840700865,-0.00013315794058144093
1772810829831748400,8.182748291015624,0.0005326317623257637,0.001997369108721614,0.0014647373463958502
1772810829841629400,8.19262939453125,0.0010652635246515274,-0.00013315794058144093,-0.00013315794058144093
1772810829851510500,8.202510498046875,0.0010652635246515274,-0.0011984214652329683,-0.0011984214652329683
1772810829871272700,8.222272705078124,0,-0.00013315794058144093,-0.00013315794058144093
1772810829881153800,8.23215380859375,0.0010652635246515274,0.0025300008710473776,-0.00013315794058144093
1772810829891035000,8.242034912109375,0,0.0014647373463958502,-0.00013315794058144093
1772810829910797000,8.261797119140626,0,0.0025300008710473776,0.0025300008710473776
1772810829920678100,8.27167822265625,0.0005326317623257637,0.0014647373463958502,0.0014647373463958502
1772810829930559200,8.281559326171875,0.0026631588116288185,0.0003994738217443228,0.0009321055840700865
1772810829940440300,8.2914404296875,-0.002130527049303055,-0.00013315794058144093,0.0003994738217443228
1772810829950321400,8.3013212890625,-0.0010652635246515274,0.0009321055840700865,-0.0011984214652329683
1772810829960202500,8.311202392578124,0,-0.00013315794058144093,-0.00013315794058144093
1772810829970083600,8.32108349609375,0.0010652635246515274,0.0003994738217443228,-0.00013315794058144093
1772810829989845800,8.340845703125,-0.0005326317623257637,0.0014647373463958502,-0.00013315794058144093
1772810829999727000,8.35072705078125,0,0.0009321055840700865,-0.0006657897029072046
1772810830009608400,8.3606083984375,0,0.0025300008710473776,0.0014647373463958502
1772810830019489500,8.370489501953125,0.0010652635246515274,0.0025300008710473776,-0.0006657897029072046
1772810830029371000,8.380370849609376,0.0005326317623257637,-0.00013315794058144093,0.0003994738217443228
1772810830039252200,8.390252197265625,0,0.001997369108721614,0.0014647373463958502
1772810830049133600,8.400133544921875,0.0010652635246515274,0.0003994738217443228,-0.0006657897029072046
1772810830059014700,8.4100146484375,0.0010652635246515274,0.0003994738217443228,0.0003994738217443228
1772810830068896000,8.41989599609375,0,0.0003994738217443228,0.0003994738217443228
1772810830078777300,8.42977734375,-0.0005326317623257637,0.001997369108721614,-0.00013315794058144093
1772810830088658700,8.43965869140625,-0.0010652635246515274,0.0030626326333731413,0.0009321055840700865
1772810830098540000,8.4495400390625,0,0.0009321055840700865,-0.00013315794058144093
1772810830108421000,8.459421142578124,-0.0010652635246515274,0.0009321055840700865,0.0014647373463958502
1772810830118302500,8.469302490234375,0,-0.0011984214652329683,0.001997369108721614
1772810830128183800,8.479183837890625,0.0005326317623257637,0.0009321055840700865,-0.0011984214652329683
1772810830138065200,8.489065185546876,-0.0005326317623257637,0.0014647373463958502,-0.00013315794058144093
1772810830147946200,8.4989462890625,0.0005326317623257637,-0.0006657897029072046,-0.0011984214652329683
1772810830157827600,8.50882763671875,0,-0.0011984214652329683,-0.00013315794058144093
1772810830167709000,8.518708984375,-0.0010652635246515274,-0.0022636849898844957,-0.00013315794058144093
1772810830177590300,8.52859033203125,-0.0005326317623257637,-0.0022636849898844957,-0.0011984214652329683
1772810830187471600,8.5384716796875,-0.001597895286977291,-0.0022636849898844957,-0.0006657897029072046
1772810830197352700,8.548352783203125,-0.0010652635246515274,-0.0006657897029072046,0.0009321055840700865
1772810830207234000,8.558234130859375,-0.0010652635246515274,0.0009321055840700865,-0.00013315794058144093
1772810830217115400,8.568115478515624,-0.0005326317623257637,-0.0006657897029072046,0.0009321055840700865
1772810830226996700,8.577996826171875,0.0005326317623257637,-0.0006657897029072046,0.0009321055840700865
1772810830236878000,8.587878173828125,-0.0010652635246515274,-0.00013315794058144093,-0.0011984214652329683
1772810830246759200,8.59775927734375,-0.0005326317623257637,-0.0022636849898844957,0.0014647373463958502
1772810830266521900,8.61752197265625,0.0010652635246515274,-0.0011984214652329683,0.0009321055840700865
1772810830276403200,8.6274033203125,0.0005326317623257637,-0.001731053227558732,-0.00013315794058144093
1772810830286284300,8.6372841796875,-0.0005326317623257637,-0.0011984214652329683,0.0003994738217443228
1772810830296165600,8.64716552734375,-0.0005326317623257637,0.0003994738217443228,-0.0011984214652329683
1772810830306047000,8.657046875,-0.0005326317623257637,-0.0006657897029072046,-0.0011984214652329683
1772810830315928300,8.66692822265625,0.0005326317623257637,0.0014647373463958502,0.0014647373463958502
1772810830325809400,8.676809326171876,-0.0010652635246515274,0.0009321055840700865,-0.00013315794058144093
1772810830335690800,8.686690673828124,0.0010652635246515274,-0.00013315794058144093,0.0003994738217443228
1772810830345572000,8.696572021484375,0.0010652635246515274,0.0009321055840700865,-0.0011984214652329683
1772810830355453400,8.706453369140625,-0.0005326317623257637,-0.0011984214652329683,-0.0006657897029072046
1772810830365334800,8.716334716796876,0.0010652635246515274,0.0009321055840700865,0.0009321055840700865
1772810830375215900,8.7262158203125,-0.001597895286977291,-0.0006657897029072046,0.0014647373463958502
1772810830385097200,8.73609716796875,-0.0010652635246515274,0.0003994738217443228,0.0003994738217443228
1772810830394978600,8.745978515625,-0.001597895286977291,-0.0006657897029072046,-0.0006657897029072046
1772810830404860000,8.75585986328125,0.0005326317623257637,0.0009321055840700865,0.0014647373463958502
1772810830414741000,8.765740966796875,0.0010652635246515274,0.0003994738217443228,-0.00013315794058144093
1772810830424622300,8.775622314453125,-0.0005326317623257637,-0.001731053227558732,0.0003994738217443228
1772810830434503700,8.785503662109376,0,-0.00013315794058144093,-0.0022636849898844957
1772810830444385000,8.795385009765624,0.0010652635246515274,-0.0006657897029072046,0.0009321055840700865
1772810830454266000,8.80526611328125,-0.0010652635246515274,-0.0006657897029072046,0.0009321055840700865
1772810830464147500,8.8151474609375,0.0005326317623257637,0.0009321055840700865,-0.0006657897029072046
1772810830474028800,8.82502880859375,-0.0005326317623257637,0.0009321055840700865,-0.00013315794058144093
1772810830483910100,8.83491015625,-0.0005326317623257637,0.001997369108721614,-0.00013315794058144093
1772810830493791500,8.84479150390625,0.0010652635246515274,0.0014647373463958502,0.0009321055840700865
1772810830503672800,8.8546728515625,0.002130527049303055,-0.00013315794058144093,0.0003994738217443228
1772810830513554200,8.86455419921875,0.0005326317623257637,-0.0006657897029072046,0.0003994738217443228
1772810830523435800,8.874435791015625,-0.0010652635246515274,0.0014647373463958502,-0.0011984214652329683
1772810830543198500,8.894198486328126,0.0005326317623257637,0.0014647373463958502,-0.0006657897029072046
1772810830553080000,8.904080078125,-0.0005326317623257637,0.0003994738217443228,-0.0006657897029072046
1772810830572842800,8.9238427734375,0.0010652635246515274,0.0003994738217443228,-0.00013315794058144093
1772810830582724400,8.933724365234376,0,-0.00013315794058144093,-0.00013315794058144093
1772810830592605700,8.943605712890625,0.0010652635246515274,-0.00013315794058144093,-0.0006657897029072046
1772810830602487000,8.953487060546875,-0.001597895286977291,0.0009321055840700865,0.0014647373463958502
1772810830612368600,8.96336865234375,0,0.0009321055840700865,0.0014647373463958502
1772810830632131300,8.98313134765625,0.0005326317623257637,0.0025300008710473776,-0.0011984214652329683
1772810830642013000,8.993012939453125,0.0005326317623257637,0.0014647373463958502,0.0009321055840700865
1772810830651894300,9.002894287109376,-0.0005326317623257637,0.0025300008710473776,0.0009321055840700865
1772810830671657200,9.0226572265625,0.0005326317623257637,0.0025300008710473776,0.0009321055840700865
1772810830681538600,9.03253857421875,0,0.0014647373463958502,-0.00013315794058144093
1772810830691420000,9.042419921875,-0.0010652635246515274,-0.0006657897029072046,0.0003994738217443228
1772810830701301500,9.052301513671875,0,0.0009321055840700865,0.0003994738217443228
1772810830711182800,9.062182861328125,0,-0.0011984214652329683,0.0014647373463958502
1772810830721064200,9.072064208984376,-0.0005326317623257637,-0.0006657897029072046,0.0003994738217443228
1772810830730945800,9.08194580078125,-0.0005326317623257637,-0.0022636849898844957,-0.0022636849898844957
1772810830740827100,9.0918271484375,-0.0005326317623257637,0.0003994738217443228,-0.0011984214652329683
1772810830750708500,9.10170849609375,-0.0005326317623257637,0.0003994738217443228,-0.0011984214652329683
1772810830760590000,9.111590087890624,0.0005326317623257637,-0.0006657897029072046,-0.0006657897029072046
1772810830770471400,9.121471435546875,-0.0010652635246515274,0.0014647373463958502,-0.00013315794058144093
1772810830780352800,9.131352783203125,-0.0005326317623257637,0.0003994738217443228,-0.0006657897029072046
1772810830790234400,9.141234375,-0.0005326317623257637,-0.001731053227558732,-0.00013315794058144093
1772810830809997000,9.1609970703125,-0.0026631588116288185,-0.001731053227558732,-0.0006657897029072046
1772810830819878700,9.170878662109375,-0.001597895286977291,-0.00013315794058144093,-0.00013315794058144093
1772810830829760000,9.180760009765624,-0.0005326317623257637,-0.00013315794058144093,0.0003994738217443228
1772810830839641300,9.190641357421875,0,-0.0006657897029072046,0.0009321055840700865
1772810830849523000,9.20052294921875,0,-0.0011984214652329683,0.0003994738217443228
1772810830859404300,9.210404296875,0.0005326317623257637,-0.0011984214652329683,0.0009321055840700865
1772810830869286000,9.220285888671874,-0.001597895286977291,0.0009321055840700865,0.0014647373463958502
1772810830879167200,9.230167236328125,0.0005326317623257637,0.001997369108721614,-0.00013315794058144093
1772810830898930000,9.249929931640626,0.0010652635246515274,-0.001864211168140173,-0.00026631588116288185
1772810830908811500,9.2598115234375,-0.0005326317623257637,-0.00026631588116288185,-0.00026631588116288185
1772810830918692900,9.26969287109375,0,0.00026631588116288185,-0.0013315794058144093
1772810830928574200,9.27957421875,-0.0005326317623257637,0.00026631588116288185,-0.0013315794058144093
1772810830938455800,9.289455810546874,0.0005326317623257637,-0.00026631588116288185,0.00026631588116288185
1772810830948337200,9.299337158203125,-0.0005326317623257637,0.00026631588116288185,-0.0013315794058144093
1772810830958218800,9.30921875,0.0005326317623257637,0.00026631588116288185,-0.00026631588116288185
1772810830968100000,9.31910009765625,0.0005326317623257637,0.00026631588116288185,0.00026631588116288185
1772810830977981400,9.3289814453125,-0.002130527049303055,0.0013315794058144093,0.00026631588116288185
1772810830987862800,9.33886279296875,0.0005326317623257637,0.001864211168140173,0.00026631588116288185
1772810830997744000,9.348744140625,0.001597895286977291,-0.0029294746927917004,-0.00026631588116288185
1772810831007625000,9.358625,-0.0010652635246515274,0.003462106455117464,-0.0007989476434886456
1772810831027386600,9.37838671875,0.0005326317623257637,-0.00026631588116288185,-0.00026631588116288185
1772810831037267500,9.388267333984375,0,0.0013315794058144093,-0.00026631588116288185
1772810831047148300,9.398148193359376,0,-0.0023968429304659367,0.00026631588116288185
1772810831057029000,9.408029052734374,-0.001597895286977291,0.00026631588116288185,-0.0007989476434886456
1772810831066910000,9.417909912109375,0,-0.00026631588116288185,-0.00026631588116288185
1772810831076790800,9.427790771484375,0.0005326317623257637,-0.0023968429304659367,-0.00026631588116288185
1772810831086671600,9.437671630859375,0,0.00026631588116288185,-0.001864211168140173
1772810831096552400,9.447552490234376,0.0005326317623257637,-0.00026631588116288185,-0.0023968429304659367
1772810831106433300,9.457433349609374,0.001597895286977291,0.0007989476434886456,-0.0007989476434886456
1772810831116314000,9.467314208984375,0.0005326317623257637,-0.0013315794058144093,-0.001864211168140173
1772810831126195000,9.47719482421875,0.0005326317623257637,-0.0023968429304659367,-0.00026631588116288185
1772810831136075800,9.48707568359375,0.002130527049303055,0.0007989476434886456,-0.0013315794058144093
1772810831145956600,9.49695654296875,-0.0010652635246515274,0.00026631588116288185,0.0013315794058144093
1772810831155837400,9.50683740234375,0.0010652635246515274,0.0007989476434886456,0.0007989476434886456
1772810831165718300,9.51671826171875,-0.0005326317623257637,-0.0007989476434886456,-0.0007989476434886456
1772810831175599000,9.52659912109375,0,-0.0013315794058144093,-0.00026631588116288185
1772810831185480000,9.53647998046875,-0.0005326317623257637,-0.00026631588116288185,-0.0013315794058144093
1772810831195360800,9.54636083984375,0.0010652635246515274,-0.00026631588116288185,-0.0007989476434886456
1772810831205241600,9.55624169921875,0,-0.0007989476434886456,-0.0007989476434886456
1772810831215122400,9.566122314453125,0,-0.0007989476434886456,-0.0013315794058144093
1772810831225003500,9.57600341796875,0.0010652635246515274,0.0007989476434886456,-0.00026631588116288185
1772810831234884400,9.58588427734375,0,-0.0007989476434886456,-0.0007989476434886456
1772810831244765200,9.59576513671875,-0.0010652635246515274,0.00026631588116288185,0.00026631588116288185
1772810831254646000,9.60564599609375,0,0.0013315794058144093,0.0013315794058144093
1772810831264526800,9.61552685546875,-0.0010652635246515274,0.001864211168140173,-0.0007989476434886456
1772810831274407700,9.62540771484375,0,0.0007989476434886456,0.0007989476434886456
1772810831284288500,9.63528857421875,-0.0005326317623257637,0.0013315794058144093,-0.0013315794058144093
1772810831294169300,9.64516943359375,0.0010652635246515274,-0.0007989476434886456,-0.0007989476434886456
1772810831304050200,9.65505029296875,0,-0.00026631588116288185,-0.00026631588116288185
1772810831313931000,9.664930908203125,-0.0005326317623257637,0.0013315794058144093,-0.0007989476434886456
1772810831323811800,9.674811767578126,-0.0010652635246515274,-0.0013315794058144093,-0.0007989476434886456
1772810831333692700,9.684692626953124,-0.0005326317623257637,0.00026631588116288185,0.0007989476434886456
1772810831343573500,9.694573486328125,-0.0005326317623257637,-0.0007989476434886456,0.0007989476434886456
1772810831353454300,9.704454345703125,-0.001597895286977291,0.0013315794058144093,-0.0007989476434886456
1772810831363335200,9.714335205078125,0,0.00026631588116288185,-0.00026631588116288185
1772810831373216000,9.724216064453126,0.0010652635246515274,-0.00026631588116288185,0.00026631588116288185
1772810831383096800,9.734096923828124,0,0.0007989476434886456,-0.00026631588116288185
1772810831392977700,9.743977783203125,0.001597895286977291,-0.0007989476434886456,-0.00026631588116288185
1772810831402858500,9.7538583984375,0.0005326317623257637,-0.001864211168140173,0.00026631588116288185
1772810831412739300,9.7637392578125,0,0.00026631588116288185,-0.001864211168140173
1772810831422620200,9.7736201171875,0.0005326317623257637,0.0013315794058144093,-0.0007989476434886456
1772810831432501000,9.7835009765625,-0.0010652635246515274,-0.00026631588116288185,-0.00026631588116288185
1772810831442381800,9.7933818359375,-0.0010652635246515274,0.00026631588116288185,-0.0013315794058144093
1772810831462143500,9.8131435546875,-0.0005326317623257637,0.0013315794058144093,0.0007989476434886456
1772810831472024300,9.8230244140625,0.0010652635246515274,-0.00026631588116288185,0.0013315794058144093
1772810831481905200,9.8329052734375,0.001597895286977291,0.00026631588116288185,0.0013315794058144093
1772810831501667000,9.8526669921875,0.0010652635246515274,-0.001864211168140173,-0.00026631588116288185
1772810831511548200,9.862548095703126,0,0.00026631588116288185,-0.00026631588116288185
1772810831521429500,9.872429443359374,-0.001597895286977291,0.0007989476434886456,0.0007989476434886456
1772810831531310600,9.882310546875,-0.001597895286977291,0.00026631588116288185,-0.00026631588116288185
1772810831541192000,9.89219189453125,0,0.0013315794058144093,0.0007989476434886456
1772810831551073000,9.902072998046876,-0.0010652635246515274,-0.003462106455117464,0.00026631588116288185
1772810831560954000,9.9119541015625,0,-0.0022636849898844957,0.001864211168140173
1772810831570835500,9.92183544921875,0,-0.001731053227558732,0.00026631588116288185
1772810831580716500,9.931716552734375,-0.001597895286977291,-0.0011984214652329683,-0.00026631588116288185
1772810831590597600,9.94159765625,-0.001597895286977291,0.0009321055840700865,-0.00026631588116288185
1772810831600479000,9.95147900390625,0,0.0014647373463958502,0.0007989476434886456
1772810831610360000,9.961360107421875,0.0010652635246515274,0.0014647373463958502,-0.0007989476434886456
1772810831620241400,9.971241455078125,-0.0010652635246515274,-0.0011984214652329683,-0.0007989476434886456
1772810831630122500,9.98112255859375,0,-0.0006657897029072046,-0.0007989476434886456
1772810831640003800,9.99100390625,0.0005326317623257637,-0.0022636849898844957,-0.00026631588116288185
1772810831649885000,10.000885009765625,0.0005326317623257637,-0.00013315794058144093,0.00026631588116288185
1772810831659766000,10.01076611328125,-0.0010652635246515274,0.0003994738217443228,-0.0013315794058144093
1772810831669647400,10.0206474609375,-0.0005326317623257637,-0.001731053227558732,-0.0007989476434886456
1772810831679528400,10.030528564453125,0.0005326317623257637,-0.0011984214652329683,0.0007989476434886456
1772810831689409800,10.040409912109375,0.0010652635246515274,-0.00013315794058144093,-0.00026631588116288185
1772810831699291000,10.050290771484375,0.0005326317623257637,0.0003994738217443228,0.0007989476434886456
1772810831709172000,10.060171875,0.0010652635246515274,0.0003994738217443228,-0.00026631588116288185
1772810831719053300,10.07005322265625,0,-0.0006657897029072046,-0.0007989476434886456
1772810831738815700,10.089815673828125,0.001597895286977291,0.0014647373463958502,-0.00026631588116288185
1772810831748696800,10.09969677734375,0,-0.0006657897029072046,-0.0007989476434886456
1772810831758578200,10.109578125,-0.001597895286977291,-0.0022636849898844957,-0.0013315794058144093
1772810831768459300,10.119459228515625,0.0005326317623257637,-0.0011984214652329683,-0.00026631588116288185
1772810831778340400,10.12934033203125,-0.0010652635246515274,-0.0006657897029072046,-0.00026631588116288185
1772810831788221700,10.1392216796875,0.0010652635246515274,-0.00013315794058144093,0.0007989476434886456
1772810831798102800,10.149102783203125,0.0010652635246515274,-0.0006657897029072046,-0.0007989476434886456
1772810831807983900,10.15898388671875,-0.0005326317623257637,-0.0006657897029072046,-0.0007989476434886456
1772810831817865200,10.168865234375,-0.0005326317623257637,-0.0027963167522102594,0.00026631588116288185
1772810831827746300,10.178746337890624,0.0010652635246515274,-0.0006657897029072046,-0.00026631588116288185
1772810831837627600,10.188627685546875,-0.0005326317623257637,-0.0011984214652329683,-0.00026631588116288185
1772810831847508700,10.1985087890625,-0.002130527049303055,-0.0011984214652329683,-0.00026631588116288185
1772810831857390000,10.20839013671875,0.0005326317623257637,-0.0011984214652329683,0.00026631588116288185
1772810831867271200,10.218271240234374,-0.001597895286977291,0.0003994738217443228,-0.00026631588116288185
1772810831877152300,10.22815234375,0.002130527049303055,-0.00013315794058144093,-0.00026631588116288185
1772810831887033600,10.23803369140625,-0.0010652635246515274,-0.0011984214652329683,-0.00026631588116288185
1772810831896914700,10.247914794921876,0.0005326317623257637,0.0003994738217443228,-0.001864211168140173
1772810831906796000,10.257796142578124,0,0.0003994738217443228,-0.0007989476434886456
1772810831916677000,10.267677001953125,0.0005326317623257637,0.0003994738217443228,0.00026631588116288185
1772810831926558200,10.27755810546875,0,-0.001731053227558732,0.00026631588116288185
1772810831936439600,10.287439453125,0,0.0003994738217443228,-0.00026631588116288185
1772810831946320600,10.297320556640624,0.0005326317623257637,-0.0011984214652329683,0.00026631588116288185
1772810831956202000,10.307201904296875,-0.0010652635246515274,0.0003994738217443228,-0.00026631588116288185
1772810831966083000,10.3170830078125,0,-0.00013315794058144093,-0.0013315794058144093
1772810831975964200,10.326964111328126,0,-0.0006657897029072046,-0.0013315794058144093
1772810831985845500,10.336845458984374,-0.0005326317623257637,-0.0011984214652329683,-0.0013315794058144093
1772810831995726600,10.3467265625,0.001597895286977291,-0.00013315794058144093,-0.001864211168140173
1772810832005607700,10.356607666015625,0.0010652635246515274,-0.001731053227558732,0.0007989476434886456
1772810832015489000,10.366489013671876,0,-0.00013315794058144093,-0.00026631588116288185
1772810832025370000,10.3763701171875,-0.0010652635246515274,-0.0011984214652329683,-0.001864211168140173
1772810832035251500,10.38625146484375,-0.0010652635246515274,-0.00013315794058144093,0.0007989476434886456
1772810832045132500,10.396132568359375,-0.0010652635246515274,-0.0011984214652329683,-0.0007989476434886456
1772810832055013600,10.406013671875,0.0010652635246515274,-0.0011984214652329683,0.0007989476434886456
1772810832064895000,10.41589501953125,-0.0005326317623257637,-0.00013315794058144093,0.00026631588116288185
1772810832074776000,10.425776123046875,0,-0.0011984214652329683,-0.00026631588116288185
1772810832084657200,10.4356572265625,0,-0.001731053227558732,-0.00026631588116288185
1772810832094538500,10.44553857421875,0,-0.0011984214652329683,0.00026631588116288185
1772810832104419600,10.455419677734374,-0.0005326317623257637,0.001997369108721614,0.0007989476434886456
1772810832114301000,10.465301025390625,-0.0005326317623257637,-0.00013315794058144093,-0.0007989476434886456
1772810832124182000,10.47518212890625,0,0.0003994738217443228,0.0007989476434886456
1772810832134063000,10.48506298828125,0.0026631588116288185,0.0003994738217443228,-0.0013315794058144093
1772810832143944400,10.4949443359375,0.001597895286977291,0.0003994738217443228,0.00026631588116288185
1772810832153825500,10.504825439453125,-0.0010652635246515274,-0.0006657897029072046,-0.0013315794058144093
1772810832163707000,10.514706787109375,-0.0010652635246515274,-0.001731053227558732,-0.0007989476434886456
1772810832173588000,10.524587890625,-0.0005326317623257637,-0.0006657897029072046,0.00026631588116288185
1772810832183469000,10.534468994140624,0.0010652635246515274,-0.0011984214652329683,-0.0023968429304659367
1772810832193350400,10.544350341796875,-0.0005326317623257637,-0.00013315794058144093,-0.0007989476434886456
1772810832203231500,10.5542314453125,-0.0005326317623257637,0.0025300008710473776,-0.00026631588116288185
1772810832213112600,10.564112548828126,-0.0005326317623257637,0.0003994738217443228,-0.0013315794058144093
1772810832222994000,10.573993896484374,0,-0.0006657897029072046,0.0007989476434886456
1772810832232875000,10.583875,0.0005326317623257637,0.0009321055840700865,-0.00026631588116288185
1772810832242756000,10.593756103515625,0,-0.0027963167522102594,-0.0013315794058144093
1772810832252637400,10.603637451171876,-0.0010652635246515274,0.0003994738217443228,-0.0013315794058144093
1772810832262518500,10.6135185546875,-0.0005326317623257637,-0.0006657897029072046,-0.00026631588116288185
1772810832272399600,10.623399658203125,0.0010652635246515274,0.0014647373463958502,-0.0013315794058144093
1772810832282281000,10.633281005859375,0,-0.001731053227558732,-0.00026631588116288185
1772810832292162000,10.643162109375,0,0.0003994738217443228,0.00026631588116288185
1772810832302043400,10.65304345703125,0.0005326317623257637,0.003595264395698905,0.00026631588116288185
1772810832311924500,10.662924560546875,0.0010652635246515274,0.0025300008710473776,0.0007989476434886456
1772810832321805600,10.6728056640625,-0.0005326317623257637,0.0014647373463958502,0.0023968429304659367
1772810832331687000,10.68268701171875,-0.002130527049303055,0.0025300008710473776,-0.00026631588116288185
1772810832341568000,10.692568115234375,0.001597895286977291,0.0003994738217443228,-0.00026631588116288185
1772810832351449000,10.702448974609375,-0.0005326317623257637,0.0009321055840700865,0.0007989476434886456
1772810832361330400,10.712330322265625,-0.0005326317623257637,0.0009321055840700865,0.0007989476434886456
1772810832371211500,10.72221142578125,0.0010652635246515274,-0.00013315794058144093,0.00026631588116288185
1772810832381092900,10.7320927734375,0.0010652635246515274,-0.001731053227558732,-0.00026631588116288185
1772810832390974000,10.741973876953125,0,0.004660528153181076,0.0029294746927917004
1772810832400855000,10.75185498046875,0,0.0003994738217443228,0.001864211168140173
1772810832410736400,10.761736328125,-0.001597895286977291,-0.00013315794058144093,-0.00026631588116288185
1772810832420617500,10.771617431640625,0.0010652635246515274,0.0030626326333731413,0.0013315794058144093
1772810832430498600,10.78149853515625,0,0.0030626326333731413,0.0007989476434886456
1772810832440380000,10.7913798828125,-0.0010652635246515274,0.0030626326333731413,0.00026631588116288185
1772810832450261000,10.801260986328124,-0.0005326317623257637,0.0025300008710473776,-0.00026631588116288185
1772810832460142000,10.81114208984375,0,-0.00013315794058144093,-0.0013315794058144093
1772810832470023400,10.8210234375,0.002130527049303055,-0.003861580276861787,-0.0023968429304659367
1772810832479904500,10.830904541015625,-0.0005326317623257637,-0.007057370617985725,-0.0045273699797689915
1772810832489785900,10.840785888671874,-0.001597895286977291,-0.010785792954266071,-0.006125265266746283
1772810832499666700,10.850666748046875,0.0005326317623257637,-0.003328948514536023,-0.0029294746927917004
