time,seconds_elapsed,z,y,x
1772810370193679400,0.363679443359375,-0.07791423797607422,-0.008821569383144379,-0.00914061814546585
1772810370213438200,0.383438232421875,-0.08719635009765625,-0.011314138770103455,-0.02588082104921341
1772810370233197300,0.403197265625,-0.0850992202758789,0.0006669089198112488,-0.0019481629133224487
1772810370252956400,0.422956298828125,-0.08000850677490234,0.01274976134300232,0.01464369148015976
1772810370272715500,0.442715576171875,-0.07791519165039062,-0.0015138983726501465,-0.0037384331226348877
1772810370292474600,0.462474609375,-0.08030891418457031,-0.025716759264469147,-0.008503034710884094
1772810370312233500,0.4822333984375,-0.07581615447998047,0.005380377173423767,-0.00857912003993988
1772810370331992600,0.50199267578125,-0.0967721939086914,-0.009090431034564972,-0.011255048215389252
1772810370351751700,0.521751708984375,-0.08030128479003906,0.007475793361663818,-0.004142925143241882
1772810370371510800,0.5415107421875,-0.09197998046875,0.010077759623527527,-0.01613926887512207
1772810370391270000,0.561269775390625,-0.0779104232788086,-0.001894138753414154,-0.0039269328117370605
1772810370411029000,0.581029052734375,-0.0755147933959961,-0.01381557434797287,-0.003896757960319519
1772810370430787800,0.600787841796875,-0.061141014099121094,-0.009226597845554352,-0.0014716535806655884
1772810370450547000,0.620546875,-0.07101821899414062,0.0003084838390350342,-0.013780340552330017
1772810370470306000,0.64030615234375,-0.08719253540039062,-0.011560745537281036,0.0003327801823616028
1772810370490065200,0.660065185546875,-0.10156440734863281,0.007762894034385681,-0.004636310040950775
1772810370509823700,0.67982373046875,-0.0659341812133789,0.000580616295337677,-0.004451863467693329
1772810370529582300,0.699582275390625,-0.09198570251464844,-0.006952904164791107,-0.004318274557590485
1772810370549341000,0.7193408203125,-0.08958911895751953,0.0022301897406578064,-0.0019968077540397644
1772810370569099800,0.739099853515625,-0.044677734375,-0.00250215083360672,-0.0047048479318618774
1772810370588858400,0.7588583984375,-0.08240699768066406,-0.0048422664403915405,0.00006424635648727417
1772810370608617000,0.778616943359375,-0.07552242279052734,-0.016606293618679047,-0.014174066483974457
1772810370628375600,0.79837548828125,-0.10127639770507812,0.012088686227798462,-0.0091453418135643
1772810370648134100,0.818134033203125,-0.07312679290771484,-0.009565591812133789,-0.006876081228256226
1772810370667892700,0.837892822265625,-0.08031368255615234,-0.006711557507514954,0.0028796344995498657
1772810370687651300,0.8576513671875,-0.08031177520751953,0.005621090531349182,-0.011421523988246918
1772810370707410200,0.87741015625,-0.09198951721191406,0.007969759404659271,0.0008825138211250305
1772810370727168800,0.897168701171875,-0.0662374496459961,-0.0016070157289505005,-0.008369587361812592
1772810370746927400,0.91692724609375,-0.08510494232177734,-0.011231012642383575,-0.005842678248882294
1772810370766686000,0.93668603515625,-0.06833744049072266,-0.0016445443034172058,-0.008104078471660614
1772810370786444500,0.956444580078125,-0.10157489776611328,-0.004139378666877747,-0.005574382841587067
1772810370806203400,0.976203369140625,-0.08271121978759766,-0.0065824538469314575,0.0016932860016822815
1772810370825962000,0.9959619140625,-0.0919942855834961,-0.006523333489894867,-0.010305456817150116
1772810370845720600,1.015720458984375,-0.07552623748779297,-0.0015719011425971985,-0.007931366562843323
1772810370865479200,1.035479248046875,-0.07822132110595703,0.012698501348495483,-0.017428085207939148
1772810370885237800,1.05523779296875,-0.07342815399169922,0.0006687268614768982,0.003955639898777008
1772810370904996400,1.074996337890625,-0.08960151672363281,0.0030656754970550537,0.009083710610866547
1772810370924755000,1.0947548828125,-0.0922994613647461,-0.00874967873096466,-0.002658061683177948
1772810370944513800,1.114513671875,-0.08272171020507812,-0.02535027265548706,-0.009658649563789368
1772810370964272400,1.1342724609375,-0.07793045043945312,0.003345772624015808,-0.009626045823097229
1772810370984031000,1.154031005859375,-0.07822990417480469,0.0008490905165672302,0.004826925694942474
1772810371003789800,1.173789794921875,-0.08032703399658203,0.0034540295600891113,-0.0047762393951416016
1772810371023549200,1.193549072265625,-0.08721542358398438,-0.0036227181553840637,-0.0023519769310951233
1772810371043308300,1.213308349609375,-0.08272552490234375,-0.008407965302467346,0.00017628073692321777
1772810371063067400,1.2330673828125,-0.08990859985351562,-0.008507683873176575,-0.009577669203281403
1772810371082826800,1.25282666015625,-0.08272266387939453,-0.006156370043754578,0.0023753345012664795
1772810371102585900,1.2725859375,-0.07793045043945312,-0.0015159323811531067,0.0023299306631088257
1772810371122345200,1.29234521484375,-0.07553577423095703,0.0009800717234611511,-0.01199764758348465
1772810371142104300,1.312104248046875,-0.06864738464355469,-0.006050914525985718,-0.00023778527975082397
1772810371161863400,1.331863525390625,-0.09918689727783203,-0.010841213166713715,-0.0027971789240837097
1772810371181622500,1.35162255859375,-0.09199905395507812,0.0011849403381347656,0.001827426254749298
1772810371201382000,1.3713818359375,-0.08241653442382812,-0.013129249215126038,-0.008219033479690552
1772810371221141000,1.39114111328125,-0.08960151672363281,-0.008282765746116638,-0.018208950757980347
1772810371240900400,1.410900390625,-0.06384658813476562,-0.001253567636013031,0.005526714026927948
1772810371260659500,1.430659423828125,-0.08031463623046875,-0.008332043886184692,-0.01863977313041687
1772810371280418600,1.45041845703125,-0.037792205810546875,-0.0012986287474632263,-0.016250185668468475
1772810371300178000,1.470177978515625,-0.08719825744628906,0.005988948047161102,-0.0068845078349113464
1772810371319937000,1.48993701171875,-0.08001327514648438,-0.008223645389080048,0.00028821080923080444
1772810371339696000,1.509696044921875,-0.10367107391357422,0.022305406630039215,-0.006647706031799316
1772810371359455500,1.52945556640625,-0.0848073959350586,0.012819521129131317,0.005263954401016235
1772810371379214600,1.549214599609375,-0.07043075561523438,0.003132261335849762,0.002751953899860382
1772810371398973700,1.5689736328125,-0.07761764526367188,0.010209374129772186,0.007279947400093079
1772810371418733000,1.588733154296875,-0.06114673614501953,-0.0016651153564453125,-0.014738030731678009
1772810371438492200,1.6084921875,-0.08959579467773438,0.010202661156654358,-0.0025646090507507324
1772810371458251500,1.62825146484375,-0.07522392272949219,0.007851310074329376,-0.002521805465221405
1772810371478010600,1.6480107421875,-0.0710306167602539,-0.012702405452728271,-0.010962925851345062
1772810371497770200,1.667770263671875,-0.08061504364013672,-0.0005176961421966553,-0.00848264992237091
1772810371517530600,1.687530517578125,-0.0758209228515625,-0.0027168244123458862,0.003780186176300049
1772810371537291300,1.707291259765625,-0.0854034423828125,0.011699549853801727,-0.008152537047863007
1772810371557051600,1.7270517578125,-0.0806112289428711,0.009245507419109344,0.0013140663504600525
1772810371576812000,1.74681201171875,-0.07342529296875,0.016373589634895325,0.0038482770323753357
1772810371596572700,1.76657275390625,-0.0662393569946289,-0.00018819421529769897,0.0038337409496307373
1772810371616333000,1.7863330078125,-0.0734262466430664,0.007147848606109619,0.008453436195850372
1772810371636093700,1.80609375,-0.0734243392944336,-0.00019641220569610596,-0.013160571455955505
1772810371655854000,1.82585400390625,-0.08060646057128906,0.006882131099700928,0.017999351024627686
1772810371675614700,1.84561474609375,-0.0755147933959961,0.0038847997784614563,-0.0027237683534622192
1772810371695375000,1.865375,-0.0850973129272461,-0.005543224513530731,0.006741002202033997
1772810371715135500,1.885135498046875,-0.0943756103515625,-0.008040256798267365,0.004177451133728027
1772810371734896000,1.904896240234375,-0.0823984146118164,-0.005693018436431885,-0.005465313792228699
1772810371754656500,1.924656494140625,-0.06622791290283203,-0.008186772465705872,-0.0030288323760032654
1772810371774417200,1.944417236328125,-0.08479499816894531,0.0013923421502113342,-0.00293518602848053
1772810371794177500,1.964177490234375,-0.08269882202148438,0.001493886113166809,-0.007836557924747467
1772810371813938200,1.983938232421875,-0.08030319213867188,0.01829896867275238,-0.0030027925968170166
1772810371833698600,2.003698486328125,-0.0895853042602539,-0.010388538241386414,-0.010246798396110535
1772810371853459200,2.023459228515625,-0.08030509948730469,-0.008141577243804932,-0.00041988492012023926
1772810371873219600,2.043219482421875,-0.08240318298339844,0.011117957532405853,-0.009306073188781738
1772810371892980000,2.06297998046875,-0.07102203369140625,0.01568763703107834,-0.006915748119354248
1772810371912740600,2.08274072265625,-0.08749103546142578,0.008547343313694,-0.01181504875421524
1772810371932501200,2.102501220703125,-0.0827016830444336,-0.0009848326444625854,-0.00932098925113678
1772810371952261600,2.12226171875,-0.08719825744628906,0.003854326903820038,-0.016147196292877197
1772810371972022000,2.14202197265625,-0.08031082153320312,-0.0010399222373962402,0.00549924373626709
1772810371991782700,2.16178271484375,-0.08270549774169922,0.0059877559542655945,-0.006331771612167358
1772810372011542500,2.18154248046875,-0.08270835876464844,-0.005779795348644257,-0.003842674195766449
1772810372031302400,2.201302490234375,-0.10157394409179688,-0.0007294043898582458,-0.015925243496894836
1772810372051062300,2.221062255859375,-0.06384563446044922,0.004056766629219055,0.005670078098773956
1772810372070822100,2.240822265625,-0.09678173065185547,-0.0007351934909820557,-0.006417818367481232
1772810372090582000,2.26058203125,-0.06384658813476562,0.00899476557970047,0.00574919581413269
1772810372110342000,2.280341796875,-0.09438896179199219,0.006646193563938141,-0.003894589841365814
1772810372130101800,2.300101806640625,-0.06384563446044922,-0.002985745668411255,-0.013529971241950989
1772810372149861600,2.319861572265625,-0.09199237823486328,0.002111785113811493,0.007856369018554688
1772810372169621500,2.33962158203125,-0.07552337646484375,-0.014750286936759949,0.002999909222126007
1772810372189381400,2.35938134765625,-0.08510112762451172,0.006597094237804413,-0.00674428790807724
1772810372209141200,2.379141357421875,-0.08061027526855469,0.018660344183444977,-0.00675007700920105
1772810372228900900,2.39890087890625,-0.07342338562011719,-0.0027438774704933167,0.0003212764859199524
1772810372248661000,2.418660888671875,-0.07821178436279297,0.02577205002307892,0.01691000908613205
1772810372268420600,2.438420654296875,-0.07102775573730469,-0.010104052722454071,0.0048768967390060425
1772810372288180700,2.4581806640625,-0.059047698974609375,0.00671030580997467,-0.009954608976840973
1772810372307940400,2.4779404296875,-0.08510208129882812,0.013728484511375427,0.004712425172328949
1772810372327700200,2.4977001953125,-0.09438419342041016,-0.0005915239453315735,-0.0001437067985534668
1772810372347460000,2.517460205078125,-0.05665302276611328,0.004092693328857422,0.0045792460441589355
1772810372367220000,2.537219970703125,-0.08240509033203125,0.008823014795780182,-0.02410634607076645
1772810372386979800,2.556979736328125,-0.06593704223632812,0.01080639660358429,-0.007138065993785858
1772810372406739700,2.57673974609375,-0.08719825744628906,0.017730027437210083,-0.007093541324138641
1772810372426499600,2.59649951171875,-0.05395984649658203,-0.008066751062870026,0.01189296692609787
1772810372446259500,2.616259521484375,-0.08480072021484375,0.0009655877947807312,-0.016901642084121704
1772810372466019300,2.636019287109375,-0.07282733917236328,-0.015182197093963623,0.00006154179573059082
1772810372485779200,2.655779296875,-0.07791519165039062,0.003521546721458435,-0.003044530749320984
1772810372505539000,2.6755390625,-0.0776214599609375,-0.0036642178893089294,-0.0001955851912498474
1772810372525299000,2.695298828125,-0.0800161361694336,-0.0036629661917686462,0.0020830705761909485
1772810372545058600,2.71505859375,-0.075225830078125,-0.00860237330198288,-0.024102307856082916
1772810372564818400,2.734818359375,-0.0824127197265625,0.003678642213344574,-0.01706632971763611
1772810372584578000,2.754578125,-0.084808349609375,-0.0012170672416687012,0.00458063930273056
1772810372604338000,2.774337890625,-0.08480453491210938,-0.006055586040019989,-0.0005832463502883911
1772810372624097800,2.794097900390625,-0.07042694091796875,0.015282027423381805,-0.027075275778770447
1772810372643857700,2.813857666015625,-0.08001136779785156,-0.010905109345912933,-0.007864050567150116
1772810372663617300,2.8336171875,-0.07521820068359375,0.010836124420166016,-0.019585438072681427
1772810372683377200,2.853377197265625,-0.09199237823486328,0.001497812569141388,-0.011583633720874786
1772810372703137000,2.873136962890625,-0.08031558990478516,0.006538398563861847,-0.011388115584850311
1772810372722896600,2.892896728515625,-0.0686330795288086,0.016052164137363434,-0.006613321602344513
1772810372742656500,2.912656494140625,-0.08480548858642578,-0.007999569177627563,-0.008805781602859497
1772810372762416000,2.932416015625,-0.068634033203125,0.013440601527690887,-0.00875670462846756
1772810372782176000,2.952176025390625,-0.08510112762451172,0.0013587400317192078,-0.001685209572315216
1772810372801936000,2.971935791015625,-0.09438419342041016,0.01092740148305893,-0.0016438663005828857
1772810372821695500,2.991695556640625,-0.06623363494873047,-0.02269040048122406,-0.0018608272075653076
1772810372841455400,3.011455322265625,-0.09677696228027344,-0.008258618414402008,0.000572890043258667
1772810372861215200,3.03121533203125,-0.07341957092285156,-0.0033085644245147705,0.00030090659856796265
1772810372880975000,3.05097509765625,-0.0823974609375,0.010996438562870026,0.009513556957244873
1772810372900734700,3.070734619140625,-0.07102012634277344,0.008479580283164978,-0.004682585597038269
1772810372920494600,3.09049462890625,-0.07072162628173828,-0.0033499300479888916,-0.007104441523551941
1772810372940254200,3.110254150390625,-0.05904197692871094,0.0012252479791641235,0.0025427639484405518
1772810372960014000,3.13001416015625,-0.08509635925292969,0.013179250061511993,0.0026600435376167297
1772810372979774000,3.14977392578125,-0.08270072937011719,-0.0010986179113388062,-0.00923898071050644
1772810372999533600,3.169533447265625,-0.10635566711425781,-0.005841255187988281,0.004938602447509766
1772810373019293400,3.18929345703125,-0.061438560485839844,0.010853908956050873,0.007240548729896545
1772810373039053300,3.20905322265625,-0.06383037567138672,0.005788713693618774,0.0024643391370773315
1772810373058813200,3.228813232421875,-0.10395622253417969,0.008218936622142792,0.009655594825744629
1772810373078573000,3.248572998046875,-0.08958148956298828,-0.006259709596633911,0.004824429750442505
1772810373098333000,3.2683330078125,-0.08030033111572266,-0.023011930286884308,-0.004735320806503296
1772810373118092500,3.288092529296875,-0.10155868530273438,-0.0039571598172187805,-0.007105939090251923
1772810373137852400,3.307852294921875,-0.08509063720703125,-0.004011370241641998,0.007377117872238159
1772810373157612300,3.3276123046875,-0.0919790267944336,-0.02539779245853424,0.00020791590213775635
1772810373177372200,3.3473720703125,-0.07820701599121094,-0.00150289386510849,-0.011584252119064331
1772810373197132000,3.367132080078125,-0.06862735748291016,-0.013630062341690063,-0.006458356976509094
1772810373216892000,3.386891845703125,-0.07820987701416016,-0.004000812768936157,0.012655645608901978
1772810373236651800,3.40665185546875,-0.08270263671875,-0.013524897396564484,-0.011269323527812958
1772810373256411400,3.426411376953125,-0.0806112289428711,-0.02258412539958954,0.010552600026130676
1772810373276171300,3.446171142578125,-0.06833457946777344,-0.0016322210431098938,-0.002199530601501465
1772810373295931100,3.46593115234375,-0.07043075561523438,-0.004330873489379883,-0.012153267860412598
1772810373315691000,3.48569091796875,-0.061148643493652344,-0.006625190377235413,-0.021743714809417725
1772810373335451000,3.505450927734375,-0.0892953872680664,-0.0041304826736450195,-0.00011640042066574097
1772810373355210800,3.525210693359375,-0.09199237823486328,0.0077776312828063965,0.004787921905517578
1772810373374970600,3.544970703125,-0.07073307037353516,0.0029760003089904785,-0.0023287013173103333
1772810373394730200,3.564730224609375,-0.075225830078125,-0.0018730983138084412,0.00013464689254760742
1772810373414490000,3.584489990234375,-0.10816287994384766,-0.006719626486301422,-0.0022401660680770874
1772810373434250000,3.60425,-0.0964822769165039,0.00763373076915741,-0.015039235353469849
1772810373454009900,3.624009765625,-0.06803417205810547,0.0027759820222854614,0.00642743706703186
1772810373473769700,3.643769775390625,-0.08241081237792969,0.0002153143286705017,-0.0021744444966316223
1772810373493529600,3.663529541015625,-0.08001708984375,-0.0045290663838386536,0.0027338191866874695
1772810373513290200,3.683290283203125,-0.08001708984375,-0.013855956494808197,-0.004429951310157776
1772810373533051100,3.703051025390625,-0.0919942855834961,-0.013952463865280151,-0.0019114390015602112
1772810373552811800,3.722811767578125,-0.0872030258178711,0.011712633073329926,-0.006471194326877594
1772810373572572700,3.74257275390625,-0.07791900634765625,-0.007553800940513611,0.012589819729328156
1772810373592333300,3.762333251953125,-0.08001327514648438,-0.007555440068244934,0.002815723419189453
1772810373612094200,3.78209423828125,-0.08480072021484375,-0.014884896576404572,0.00022854655981063843
1772810373631855000,3.801855224609375,-0.07042789459228516,-0.0003678649663925171,0.009764276444911957
1772810373651615700,3.82161572265625,-0.09438228607177734,-0.009792514145374298,-0.021435506641864777
1772810373671376600,3.841376708984375,-0.07043075561523438,-0.002612091600894928,-0.0017982348799705505
1772810373691137300,3.86113720703125,-0.09198760986328125,0.0021645575761795044,-0.011749736964702606
1772810373710898200,3.880898193359375,-0.09438133239746094,0.0021010711789131165,-0.002004578709602356
1772810373730658800,3.900658935546875,-0.07042694091796875,-0.014358356595039368,-0.0071204304695129395
1772810373750419700,3.920419677734375,-0.08000850677490234,0.002047240734100342,0.0051659345626831055
1772810373770180400,3.940180419921875,-0.07281970977783203,-0.007482603192329407,-0.004651159048080444
1772810373789941200,3.959941162109375,-0.056357383728027344,0.007232733070850372,0.002806626260280609
1772810373809702000,3.979701904296875,-0.08720016479492188,-0.0047468021512031555,0.0005293861031532288
1772810373829462800,3.999462890625,-0.09198856353759766,-0.007039815187454224,0.014888763427734375
1772810373849223400,4.019223388671875,-0.06833457946777344,0.00960288941860199,-0.006985068321228027
1772810373868984300,4.038984375,-0.07073402404785156,-0.011246152222156525,0.01058948040008545
1772810373888745200,4.0587451171875,-0.09439277648925781,-0.015868492424488068,0.010796435177326202
1772810373908505900,4.078505859375,-0.07283496856689453,-0.013359740376472473,0.010849140584468842
1772810373928266800,4.098266845703125,-0.07313156127929688,0.0034465491771698,0.0009724795818328857
1772810373948027400,4.11802734375,-0.10157585144042969,0.003226935863494873,0.0009350776672363281
1772810373967788300,4.137788330078125,-0.08960247039794922,0.0009242817759513855,0.0036512985825538635
1772810373987549000,4.157548828125,-0.0872039794921875,-0.0088086798787117,0.005899347364902496
1772810374007309300,4.177309326171875,-0.08510971069335938,-0.013487637042999268,-0.015621103346347809
1772810374027069400,4.1970693359375,-0.09648609161376953,0.012730471789836884,0.005895331501960754
1772810374046829600,4.21682958984375,-0.0776214599609375,-0.011216290295124054,-0.0013769716024398804
1772810374066589700,4.236589599609375,-0.075225830078125,0.005184687674045563,-0.0012556686997413635
1772810374086349800,4.256349853515625,-0.07313156127929688,0.009702689945697784,-0.005968570709228516
1772810374106110000,4.27610986328125,-0.10157966613769531,-0.0043719857931137085,-0.0033987239003181458
1772810374125870000,4.2958701171875,-0.0755319595336914,-0.011150434613227844,-0.0056138113141059875
1772810374145630200,4.315630126953125,-0.08242034912109375,-0.004423819482326508,-0.005381442606449127
1772810374165390300,4.335390380859375,-0.07762813568115234,-0.0067657604813575745,0.008839115500450134
1772810374185150500,4.355150390625,-0.07073974609375,0.004896737635135651,-0.012788847088813782
1772810374204910600,4.37491064453125,-0.09439849853515625,0.002542242407798767,0.013762146234512329
1772810374224670700,4.394670654296875,-0.09439945220947266,-0.0023588016629219055,-0.005222432315349579
1772810374244430800,4.414430908203125,-0.08961296081542969,-0.002314649522304535,0.0022874772548675537
1772810374264191000,4.43419091796875,-0.09679889678955078,-0.0023822635412216187,0.005001157522201538
1772810374283951000,4.453951171875,-0.07284259796142578,0.009172685444355011,-0.0023224353790283203
1772810374303711200,4.473711181640625,-0.07763671875,0.002075597643852234,-0.004487328231334686
1772810374323471400,4.493471435546875,-0.09200859069824219,0.006797298789024353,0.009936966001987457
1772810374343231500,4.5132314453125,-0.04948711395263672,0.006675325334072113,0.004948824644088745
1772810374362991600,4.53299169921875,-0.09440422058105469,0.0019214600324630737,-0.002258084714412689
1772810374382751700,4.552751708984375,-0.0968027114868164,-0.01652444154024124,-0.004424586892127991
1772810374402512000,4.572511962890625,-0.09440994262695312,0.006760917603969574,0.010103277862071991
1772810374422272000,4.59227197265625,-0.08003711700439453,0.0042990222573280334,0.00022124499082565308
1772810374442032000,4.6120322265625,-0.09441184997558594,-0.000310555100440979,0.0005144551396369934
1772810374461792300,4.631792236328125,-0.07764339447021484,-0.0006696805357933044,0.0005813539028167725
1772810374481552400,4.651552490234375,-0.07285213470458984,-0.00989656150341034,0.007722020149230957
1772810374501312300,4.671312255859375,-0.07285213470458984,-0.0005723312497138977,-0.0043345168232917786
1772810374521071900,4.69107177734375,-0.0779428482055664,-0.012438520789146423,0.0004219338297843933
1772810374540831500,4.71083154296875,-0.08003902435302734,-0.010090924799442291,0.012397952377796173
1772810374560591000,4.730591064453125,-0.08722591400146484,-0.019353412091732025,0.0029314905405044556
1772810374580350700,4.750350830078125,-0.08004188537597656,-0.014849379658699036,0.0006555095314979553
1772810374600110300,4.7701103515625,-0.08003902435302734,-0.002927519381046295,-0.011494606733322144
1772810374619870000,4.789869873046875,-0.07764148712158203,0.0018015429377555847,-0.006884284317493439
1772810374639629600,4.809629638671875,-0.07315349578857422,-0.007724426686763763,-0.0017654076218605042
1772810374659389200,4.82938916015625,-0.08722782135009766,-0.007714398205280304,0.0030653998255729675
1772810374679148800,4.849148681640625,-0.05638694763183594,-0.016858279705047607,0.0006889328360557556
1772810374698908400,4.868908447265625,-0.06357383728027344,0.009289883077144623,-0.011302478611469269
1772810374718668000,4.88866796875,-0.08243846893310547,-0.009951911866664886,-0.008873865008354187
1772810374738427600,4.908427734375,-0.08244132995605469,-0.0004150792956352234,-0.0014574378728866577
1772810374758187300,4.928187255859375,-0.08962535858154297,0.0019353628158569336,0.008026525378227234
1772810374777947000,4.94794677734375,-0.08483123779296875,0.0066227540373802185,-0.0017410814762115479
1772810374797706500,4.96770654296875,-0.08962440490722656,0.004230082035064697,-0.011131711304187775
1772810374817465900,4.9874658203125,-0.10369873046875,0.004231549799442291,0.00808928906917572
1772810374837225700,5.007225830078125,-0.06357097625732422,-0.0006005540490150452,-0.0017287656664848328
1772810374856985000,5.026985107421875,-0.08243751525878906,0.02337547391653061,0.017580538988113403
1772810374876744700,5.04674462890625,-0.09441280364990234,-0.012578405439853668,0.0030147284269332886
1772810374896504300,5.06650439453125,-0.08483028411865234,-0.0029307901859283447,0.0077599212527275085
1772810374916264000,5.086263916015625,-0.07764434814453125,-0.007853738963603973,-0.0016974955797195435
1772810374936023600,5.1060234375,-0.07045555114746094,-0.010431177914142609,-0.0018287375569343567
1772810374955783200,5.125783203125,-0.10848140716552734,-0.003383845090866089,-0.0019112825393676758
1772810374975542800,5.145542724609375,-0.06835746765136719,-0.0058639273047447205,-0.004228681325912476
1772810374995302100,5.16530224609375,-0.08722114562988281,-0.005844935774803162,0.002816811203956604
1772810375015060700,5.185060791015625,-0.07793903350830078,-0.027399785816669464,0.0029335245490074158
1772810375034819000,5.204819091796875,-0.10129356384277344,-0.010656505823135376,-0.002041637897491455
1772810375054577400,5.224577392578125,-0.08033370971679688,-0.01546470820903778,-0.011584311723709106
1772810375074335700,5.244335693359375,-0.0776376724243164,0.0038583949208259583,-0.0117531418800354
1772810375094094000,5.264093994140625,-0.0680551528930664,-0.0032614395022392273,0.0001397952437400818
1772810375113852400,5.283852294921875,-0.06356143951416016,0.004029609262943268,0.00712740421295166
1772810375133610800,5.30361083984375,-0.0824270248413086,-0.010417096316814423,-0.004824608564376831
1772810375153369300,5.323369384765625,-0.08721637725830078,-0.000928238034248352,0.016724884510040283
1772810375173127700,5.343127685546875,-0.08002948760986328,0.008494526147842407,-0.000025451183319091797
1772810375192886000,5.362885986328125,-0.09918975830078125,-0.0034672915935516357,-0.0026564672589302063
1772810375212644400,5.382644287109375,-0.08720970153808594,-0.0037086308002471924,0.016393408179283142
1772810375232402700,5.402402587890625,-0.08002185821533203,-0.010970547795295715,0.0018815100193023682
1772810375252161000,5.4221611328125,-0.06594562530517578,-0.0014294907450675964,-0.0030392035841941833
1772810375271919600,5.441919677734375,-0.07792186737060547,-0.013478375971317291,0.006447724997997284
1772810375291678000,5.461677978515625,-0.08001899719238281,0.0007967352867126465,-0.019795775413513184
1772810375311436300,5.481436279296875,-0.07043838500976562,0.003400862216949463,0.00422283262014389
1772810375331194600,5.501194580078125,-0.09409141540527344,0.005589030683040619,-0.007773950695991516
1772810375350953000,5.520952880859375,-0.06804275512695312,0.0103691965341568,0.006761923432350159
1772810375370711300,5.540711181640625,-0.075225830078125,0.005423061549663544,-0.0006110742688179016
1772810375390470000,5.560469970703125,-0.0824136734008789,0.012647107243537903,-0.005373463034629822
1772810375410228200,5.580228271484375,-0.08241462707519531,0.005409128963947296,-0.0005116909742355347
1772810375429986600,5.599986572265625,-0.0896005630493164,-0.00659787654876709,-0.005275562405586243
1772810375449745000,5.619744873046875,-0.0728311538696289,0.007821865379810333,0.016170337796211243
1772810375469503200,5.639503173828125,-0.0895986557006836,-0.00413842499256134,-0.0030216053128242493
1772810375489261600,5.659261474609375,-0.0895986557006836,-0.006616175174713135,-0.0006580725312232971
1772810375509021200,5.679021240234375,-0.08720111846923828,0.0003200545907020569,-0.012593746185302734
1772810375528780800,5.69878076171875,-0.0752248764038086,-0.004608683288097382,-0.005275361239910126
1772810375548540400,5.71854052734375,-0.07312870025634766,0.007519103586673737,-0.004700757563114166
1772810375568300000,5.738300048828125,-0.0728302001953125,-0.0020000189542770386,-0.0022811368107795715
1772810375588060000,5.758059814453125,-0.0943899154663086,0.0030427202582359314,0.004965789616107941
1772810375607819500,5.777819580078125,-0.08510684967041016,-0.006324641406536102,-0.009472832083702087
1772810375627579100,5.7975791015625,-0.09199047088623047,-0.00690295547246933,0.00894002616405487
1772810375647338800,5.8173388671875,-0.0964822769165039,0.007307589054107666,0.0018736794590950012
1772810375667098600,5.8370986328125,-0.08690357208251953,-0.011826470494270325,0.0069291964173316956
1772810375686858200,5.856858154296875,-0.08929920196533203,-0.014188311994075775,0.01644860953092575
1772810375706617900,5.876617919921875,-0.07522296905517578,-0.019037999212741852,0.01802394539117813
1772810375726377500,5.89637744140625,-0.07761669158935547,0.002214379608631134,-0.015515133738517761
1772810375746137300,5.916137451171875,-0.08240699768066406,-0.0073464661836624146,-0.020351603627204895
1772810375765897000,5.93589697265625,-0.09169483184814453,-0.011951230466365814,0.013539373874664307
1772810375785656600,5.955656494140625,-0.08929920196533203,-0.0023043975234031677,0.0014744102954864502
1772810375805416200,5.975416259765625,-0.08959579467773438,-0.004732437431812286,-0.008280746638774872
1772810375825176000,5.995176025390625,-0.0824136734008789,0.0002729147672653198,-0.0033098161220550537
1772810375844935700,6.014935791015625,-0.0896005630493164,-0.021080926060676575,0.0037833750247955322
1772810375864695300,6.0346953125,-0.08480548858642578,0.009740591049194336,0.015595272183418274
1772810375884455200,6.054455078125,-0.09438610076904297,0.0023509860038757324,0.006072536110877991
1772810375904214800,6.07421484375,-0.07043170928955078,-0.00003752857446670532,0.010966241359710693
1772810375923974400,6.093974365234375,-0.07282733917236328,-0.012085303664207458,0.003842391073703766
1772810375943734000,6.113734130859375,-0.0752248764038086,-0.01688702404499054,0.0039056241512298584
1772810375963493600,6.13349365234375,-0.08720207214355469,-0.007179714739322662,0.008647240698337555
1772810375983253500,6.15325341796875,-0.08959770202636719,-0.0022206902503967285,0.003712579607963562
1772810376003012900,6.173012939453125,-0.08959770202636719,0.0049119144678115845,0.001385711133480072
1772810376022771700,6.192771728515625,-0.084808349609375,-0.014319069683551788,0.018591314554214478
1772810376042530800,6.21253076171875,-0.0752267837524414,0.004897817969322205,0.00696893036365509
1772810376062290000,6.2322900390625,-0.084808349609375,0.0025585368275642395,0.01165211945772171
1772810376082049000,6.252049072265625,-0.07283306121826172,-0.026387199759483337,0.00010776519775390625
1772810376101807900,6.271807861328125,-0.0967855453491211,-0.01447480171918869,-0.00008115917444229126
1772810376121567000,6.29156689453125,-0.08001422882080078,-0.0122036412358284,0.014077872037887573
1772810376141326000,6.311326171875,-0.08959579467773438,-0.0026597976684570312,0.006896696984767914
1772810376161085000,6.3310849609375,-0.07522296905517578,-0.005191929638385773,0.004563324153423309
1772810376180844000,6.350843994140625,-0.08241081237792969,-0.014435313642024994,0.0070139020681381226
1772810376200603100,6.37060302734375,-0.06833553314208984,0.0045303478837013245,0.007515162229537964
1772810376220362200,6.3903623046875,-0.09198951721191406,0.013936415314674377,-0.0024446919560432434
1772810376240121000,6.41012109375,-0.08719921112060547,-0.0027664825320243835,-0.00027771294116973877
1772810376259880200,6.429880126953125,-0.08959674835205078,-0.002754420042037964,0.0022364556789398193
1772810376279639300,6.449639404296875,-0.06833362579345703,0.00432886928319931,-0.005127161741256714
1772810376299398400,6.4693984375,-0.09438705444335938,-0.0027916207909584045,-0.01700088381767273
1772810376319157200,6.4891572265625,-0.07043170928955078,-0.005117237567901611,-0.007384732365608215
1772810376338916400,6.508916259765625,-0.08001422882080078,-0.0074876099824905396,0.0045496150851249695
1772810376358675500,6.528675537109375,-0.1060638427734375,0.002150215208530426,-0.012382462620735168
1772810376378434600,6.5484345703125,-0.09438610076904297,-0.002677030861377716,0.0069396719336509705
1772810376398193400,6.568193359375,-0.08959579467773438,-0.0026628077030181885,-0.017065808176994324
1772810376417952500,6.587952392578125,-0.0800161361694336,-0.009615585207939148,0.0065955668687820435
1772810376437711600,6.607711669921875,-0.07971477508544922,-0.00006970018148422241,-0.008143171668052673
1772810376457470700,6.627470703125,-0.06564140319824219,-0.00715579092502594,-0.012984581291675568
1772810376477229600,6.6472294921875,-0.08480644226074219,0.00006558746099472046,-0.00581253319978714
1772810376496989000,6.666989013671875,-0.0916910171508789,-0.0049881711602211,0.015687331557273865
1772810376516749600,6.68674951171875,-0.09378528594970703,-0.00280163437128067,-0.0012585446238517761
1772810376536510200,6.70651025390625,-0.07042598724365234,0.008840307593345642,-0.00621640682220459
1772810376556271000,6.72627099609375,-0.08210468292236328,-0.0007582008838653564,0.003436729311943054
1772810376576031700,6.74603173828125,-0.08210563659667969,-0.007945425808429718,-0.001624464988708496
1772810376595792400,6.76579248046875,-0.08659648895263672,0.00878772884607315,-0.011559650301933289
1772810376615553000,6.785552978515625,-0.06563472747802734,-0.01276329904794693,0.00034086406230926514
1772810376635313700,6.805313720703125,-0.10156631469726562,-0.006728284060955048,-0.005115076899528503
1772810376655074300,6.82507421875,-0.07761287689208984,-0.016294747591018677,0.009213894605636597
1772810376674835000,6.8448349609375,-0.08240509033203125,-0.011290542781352997,0.002048686146736145
1772810376694595800,6.864595947265625,-0.08480262756347656,0.010332442820072174,-0.014559738337993622
1772810376714356500,6.8843564453125,-0.07312202453613281,0.015124469995498657,0.0068066418170928955
1772810376734117000,6.9041171875,-0.08000850677490234,-0.013817824423313141,-0.005184531211853027
1772810376753877800,6.923877685546875,-0.06862735748291016,0.010200493037700653,-0.0005715712904930115
1772810376773638400,6.943638427734375,-0.0779104232788086,-0.001843474805355072,-0.011949695646762848
1772810376793399000,6.96339892578125,-0.09676933288574219,0.012331485748291016,0.00935741513967514
1772810376813159700,6.98315966796875,-0.08988571166992188,0.010050341486930847,-0.007265277206897736
1772810376832920600,7.002920654296875,-0.08029842376708984,-0.009658783674240112,-0.0017109587788581848
1772810376852681200,7.02268115234375,-0.07071208953857422,0.00925939530134201,0.007624976336956024
1772810376872441900,7.04244189453125,-0.10394954681396484,-0.012289732694625854,0.0075814202427864075
1772810376892202500,7.062202392578125,-0.09167003631591797,0.0021130815148353577,-0.0069063082337379456
1772810376911963100,7.081963134765625,-0.07041263580322266,-0.01692938059568405,-0.00208447128534317
1772810376931723800,7.101723876953125,-0.08238887786865234,-0.004961460828781128,-0.004597358405590057
1772810376951484700,7.121484619140625,-0.08718204498291016,-0.00018734484910964966,-0.004459060728549957
1772810376971245300,7.141245361328125,-0.09197235107421875,-0.004878982901573181,0.002796567976474762
1772810376991006000,7.161005859375,-0.0800008773803711,-0.007173091173171997,-0.006539195775985718
1772810377010766300,7.180766357421875,-0.07999992370605469,-0.014347843825817108,-0.004159450531005859
1772810377030526700,7.200526611328125,-0.08479022979736328,-0.014333903789520264,0.002891242504119873
1772810377050287000,7.220287109375,-0.05634021759033203,-0.019153662025928497,0.0002643093466758728
1772810377070047700,7.2400478515625,-0.09436798095703125,0.002537257969379425,-0.011713802814483643
1772810377089808100,7.25980810546875,-0.08718490600585938,-0.00226544588804245,-0.00205066055059433
1772810377109568500,7.279568603515625,-0.08239078521728516,0.009568735957145691,-0.004512406885623932
1772810377129329000,7.299328857421875,-0.05634307861328125,-0.019203059375286102,-0.001829303801059723
1772810377149089500,7.319089599609375,-0.09676361083984375,-0.004837654531002045,0.00038460642099380493
1772810377168850000,7.338849853515625,-0.07280635833740234,-0.014458239078521729,-0.011798754334449768
1772810377188610300,7.3586103515625,-0.05393791198730469,0.007068656384944916,-0.0025973692536354065
1772810377208370700,7.37837060546875,-0.0943603515625,0.0070349425077438354,-0.017010577023029327
1772810377228131000,7.398131103515625,-0.0799856185913086,0.007004491984844208,-0.008294723927974701
1772810377247891700,7.4178916015625,-0.07489490509033203,-0.005136549472808838,-0.003365330398082733
1772810377267652000,7.437652099609375,-0.07489681243896484,-0.01454966515302658,-0.0009415820240974426
1772810377287412500,7.45741259765625,-0.08477783203125,-0.005116619169712067,0.010881699621677399
1772810377307172900,7.4771728515625,-0.0728006362915039,0.0041404590010643005,-0.008238658308982849
1772810377326933500,7.49693359375,-0.08208179473876953,-0.0054970383644104,-0.00835040956735611
1772810377346694000,7.51669384765625,-0.09615135192871094,-0.0056071653962135315,-0.006070047616958618
1772810377366454300,7.536454345703125,-0.09165668487548828,0.008678331971168518,-0.004445172846317291
1772810377386214700,7.556214599609375,-0.07968330383300781,-0.019887857139110565,-0.0020182952284812927
1772810377405975000,7.57597509765625,-0.07518959045410156,0.011159084737300873,-0.01882200688123703
1772810377425735700,7.595735595703125,-0.06321048736572266,-0.0027168765664100647,0.007928237318992615
1772810377445496000,7.61549609375,-0.07997894287109375,-0.009600557386875153,-0.0035712048411369324
1772810377465256400,7.63525634765625,-0.07997798919677734,0.011967003345489502,-0.008421190083026886
1772810377485016800,7.655016845703125,-0.07997989654541016,-0.007045343518257141,-0.0036468803882598877
1772810377504776700,7.674776611328125,-0.09165477752685547,-0.007047645747661591,-0.008599534630775452
1772810377524536600,7.69453662109375,-0.07279014587402344,-0.006998136639595032,-0.0014867410063743591
1772810377544296200,7.714296142578125,-0.0871591567993164,0.01685110479593277,-0.013718321919441223
1772810377564055800,7.734055908203125,-0.07757568359375,-0.028470657765865326,-0.016208231449127197
1772810377583815400,7.7538154296875,-0.08476543426513672,-0.019059792160987854,0.0006873682141304016
1772810377603575000,7.773574951171875,-0.07039356231689453,-0.00692903995513916,0.0031534209847450256
1772810377623334700,7.793334716796875,-0.07278728485107422,-0.002100549638271332,-0.013763703405857086
1772810377643094300,7.81309423828125,-0.07997322082519531,0.009841367602348328,0.005308337509632111
1772810377662854000,7.83285400390625,-0.08925533294677734,-0.002250276505947113,-0.0017978698015213013
1772810377682613500,7.852613525390625,-0.09165000915527344,0.0025165602564811707,0.0029610246419906616
1772810377702373000,7.872373046875,-0.07997703552246094,-0.0021840035915374756,0.003289423882961273
1772810377722132700,7.8921328125,-0.08716392517089844,-0.0045852214097976685,-0.018204420804977417
1772810377741892600,7.911892578125,-0.08925724029541016,0.00491497665643692,-0.01595291495323181
1772810377761652200,7.93165234375,-0.08925151824951172,0.009462609887123108,0.002815842628479004
1772810377781411800,7.951411865234375,-0.07996845245361328,0.000020176172256469727,0.00023780018091201782
1772810377801171500,7.97117138671875,-0.08955001831054688,0.00026039034128189087,-0.011893831193447113
1772810377820931000,7.99093115234375,-0.08715534210205078,-0.004529044032096863,-0.014735281467437744
1772810377840690700,8.010690673828124,-0.07487773895263672,-0.0047825053334236145,-0.010895885527133942
1772810377860450300,8.0304501953125,-0.0820627212524414,-0.007126770913600922,-0.01817093789577484
1772810377880210000,8.0502099609375,-0.08446216583251953,-0.0069744884967803955,-0.003711715340614319
1772810377899969500,8.069969482421875,-0.07966995239257812,-0.014146573841571808,-0.0013902336359024048
1772810377919729200,8.089729248046876,-0.0703878402709961,0.002598904073238373,-0.020481757819652557
1772810377939489000,8.109489013671874,-0.09165000915527344,0.00013421475887298584,-0.00591529905796051
1772810377959248600,8.12924853515625,-0.08895206451416016,-0.011936493217945099,0.005867660045623779
1772810377979008300,8.14900830078125,-0.06798934936523438,0.004753090441226959,-0.01817510277032852
1772810377998767900,8.168767822265625,-0.09613895416259766,-0.0022906437516212463,-0.011381469666957855
1772810378018528300,8.1885283203125,-0.08206367492675781,-0.018939971923828125,-0.005859777331352234
1772810378038288600,8.20828857421875,-0.09674072265625,-0.001624181866645813,-0.009151153266429901
1772810378058048800,8.228048828125,-0.08475971221923828,-0.00592438131570816,-0.009165771305561066
1772810378077809200,8.24780908203125,-0.08954906463623047,-0.0010450705885887146,-0.006832525134086609
1772810378097569300,8.2675693359375,-0.06859111785888672,-0.01753203570842743,-0.004401087760925293
1772810378117329700,8.28732958984375,-0.0991353988647461,-0.0007296577095985413,-0.009041652083396912
1772810378137090000,8.307090087890625,-0.08746051788330078,0.001802295446395874,-0.008894532918930054
1772810378156850200,8.32685009765625,-0.08476638793945312,-0.0029487162828445435,-0.017913222312927246
1772810378176610600,8.346610595703124,-0.06859302520751953,-0.0029576271772384644,-0.011037617921829224
1772810378196370700,8.36637060546875,-0.08266830444335938,-0.014765560626983643,-0.015765085816383362
1772810378216131000,8.386131103515625,-0.08027267456054688,-0.0027541741728782654,-0.013398431241512299
1772810378235891500,8.405891357421876,-0.091949462890625,-0.005558006465435028,-0.004679478704929352
1772810378255651600,8.425651611328124,-0.09883499145507812,-0.0007427260279655457,-0.004737108945846558
1772810378275412000,8.445411865234375,-0.0775766372680664,0.011335156857967377,-0.00708133727312088
1772810378295172000,8.465172119140625,-0.07787704467773438,0.018350116908550262,-0.0069288089871406555
1772810378314932500,8.484932373046876,-0.07308673858642578,-0.014529690146446228,0.0002915188670158386
1772810378334692900,8.50469287109375,-0.07308769226074219,-0.005259960889816284,0.002713620662689209
1772810378354453000,8.524452880859375,-0.08955860137939453,0.013646364212036133,-0.009052515029907227
1772810378374213400,8.54421337890625,-0.0754842758178711,0.0044293999671936035,-0.00442330539226532
1772810378393973800,8.563973876953124,-0.07758045196533203,0.0045461952686309814,-0.018872492015361786
1772810378413734000,8.58373388671875,-0.10153675079345703,-0.007391981780529022,-0.011520907282829285
1772810378433494300,8.603494384765625,-0.07278823852539062,0.011264421045780182,-0.008029654622077942
1772810378453254400,8.62325439453125,-0.08925533294677734,-0.010401993989944458,-0.0009098649024963379
1772810378473014800,8.643014892578124,-0.0679941177368164,0.008814744651317596,-0.008298717439174652
1772810378492775000,8.66277490234375,-0.07757759094238281,0.008365541696548462,-0.0224815234541893
1772810378512534300,8.6825341796875,-0.08207035064697266,-0.005916565656661987,-0.017615698277950287
1772810378532293600,8.702293701171875,-0.08925628662109375,0.0008872821927070618,-0.017590604722499847
1772810378552052700,8.722052734375,-0.07518386840820312,0.005535148084163666,-0.005761854350566864
1772810378571812000,8.74181201171875,-0.08686447143554688,0.0006627440452575684,-0.003365263342857361
1772810378591571500,8.761571533203124,-0.07279300689697266,-0.013708777725696564,-0.003217548131942749
1772810378611330600,8.78133056640625,-0.07728290557861328,-0.003986462950706482,-0.015384703874588013
1772810378631090000,8.80108984375,-0.08237552642822266,0.0037090927362442017,-0.004404276609420776
1772810378650849300,8.820849365234375,-0.06799983978271484,-0.013110123574733734,0.005047500133514404
1772810378670608400,8.8406083984375,-0.10363197326660156,0.003674335777759552,-0.009373553097248077
1772810378690367700,8.86036767578125,-0.07758522033691406,0.001504071056842804,-0.006771557033061981
1772810378710126800,8.880126953125,-0.08956241607666016,0.011188343167304993,0.0002921968698501587
1772810378729886200,8.89988623046875,-0.09674930572509766,-0.005648382008075714,0.0052094534039497375
1772810378749645600,8.9196455078125,-0.08477592468261719,-0.007897265255451202,0.0029439255595207214
1772810378769405000,8.939405029296875,-0.08956718444824219,-0.010448560118675232,0.01029348373413086
1772810378789164000,8.9591640625,-0.0775918960571289,-0.003333255648612976,-0.0014911219477653503
1772810378808923400,8.97892333984375,-0.0847787857055664,-0.015404753386974335,0.0010392293334007263
1772810378828682800,8.998682861328126,-0.08238506317138672,0.008450046181678772,-0.0035536885261535645
1772810378848441900,9.01844189453125,-0.0775918960571289,-0.0033942386507987976,-0.008597880601882935
1772810378868201200,9.038201171875,-0.070404052734375,-0.0008189156651496887,0.0008109882473945618
1772810378887960600,9.057960693359375,-0.08716964721679688,-0.0009475648403167725,-0.004090860486030579
1772810378907719700,9.0777197265625,-0.0871744155883789,0.003757461905479431,0.005819305777549744
1772810378927479000,9.09747900390625,-0.07280349731445312,0.001433730125427246,-0.0035128220915794373
1772810378947238400,9.11723828125,-0.07759571075439453,0.003892660140991211,-0.0038183853030204773
1772810378966997500,9.13699755859375,-0.07759761810302734,-0.005601249635219574,0.0037967339158058167
1772810378986756900,9.1567568359375,-0.08957862854003906,-0.012630686163902283,-0.003491438925266266
1772810379006515700,9.176515625,-0.07999801635742188,0.0040481314063072205,-0.003592677414417267
1772810379026274600,9.196274658203125,-0.09197616577148438,-0.010379686951637268,-0.005589276552200317
1772810379046033200,9.216033203125,-0.08719062805175781,-0.005447819828987122,-0.00020657479763031006
1772810379065792000,9.2357919921875,-0.08718681335449219,-0.0031808242201805115,-0.005153879523277283
1772810379085550800,9.25555078125,-0.0871896743774414,-0.010216578841209412,-0.00032723695039749146
1772810379105309700,9.275309814453125,-0.08210086822509766,-0.012506701052188873,-0.0001889243721961975
1772810379125068300,9.295068359375,-0.07281780242919922,-0.009858489036560059,-0.01474851369857788
1772810379144827100,9.3148271484375,-0.10126590728759766,-0.009811535477638245,0.004541635513305664
1772810379164585700,9.334585693359376,-0.08719348907470703,0.006963856518268585,-0.00982491672039032
1772810379184344600,9.354344482421874,-0.07521438598632812,-0.0004554539918899536,-0.007377125322818756
1772810379204103400,9.374103515625,-0.09886550903320312,0.009022608399391174,-0.01719149947166443
1772810379223862000,9.393862060546875,-0.09646987915039062,-0.010196462273597717,-0.005517460405826569
1772810379243620900,9.413620849609375,-0.08688735961914062,0.011463791131973267,-0.015482991933822632
1772810379263379700,9.433379638671875,-0.09407520294189453,0.008914336562156677,-0.0009184032678604126
1772810379283138300,9.45313818359375,-0.08209609985351562,-0.007862485945224762,-0.0010880008339881897
1772810379302897200,9.472897216796875,-0.07760238647460938,-0.0174282044172287,-0.006088621914386749
1772810379322656000,9.492656005859375,-0.07520484924316406,0.006379768252372742,-0.008583158254623413
1772810379342414800,9.512414794921876,-0.07759952545166016,-0.0007292404770851135,-0.0038517042994499207
1772810379362173400,9.53217333984375,-0.07759952545166016,0.0016341060400009155,-0.0039106085896492004
1772810379381932300,9.551932373046874,-0.08238792419433594,0.011262260377407074,-0.0017851293087005615
1772810379401691100,9.571691162109374,-0.07041263580322266,-0.0010406076908111572,-0.006318837404251099
1772810379421449700,9.59144970703125,-0.07999610900878906,0.003814294934272766,0.003393813967704773
1772810379441208600,9.61120849609375,-0.08238792419433594,0.00402107834815979,0.0006719008088111877
1772810379460967200,9.63096728515625,-0.07280635833740234,-0.007912762463092804,-0.004074558615684509
1772810379480726000,9.65072607421875,-0.07280635833740234,0.011090755462646484,-0.015925131738185883
1772810379500485600,9.670485595703125,-0.09166812896728516,-0.008133664727210999,-0.013667762279510498
1772810379520246300,9.690246337890626,-0.0943613052368164,-0.012820504605770111,0.0028196796774864197
1772810379540007000,9.7100068359375,-0.09645652770996094,-0.02009086310863495,0.0004068911075592041
1772810379559767600,9.729767578125,-0.0799856185913086,-0.0035466179251670837,-0.018831856548786163
1772810379579528200,9.749528076171876,-0.11292076110839844,0.005991026759147644,-0.021295316517353058
1772810379599288600,9.76928857421875,-0.0799856185913086,-0.008234903216362,-0.011701442301273346
1772810379619049200,9.78904931640625,-0.0916595458984375,0.0011093467473983765,0.004882611334323883
1772810379638809900,9.808809814453125,-0.10094356536865234,-0.008375361561775208,0.0002270713448524475
1772810379658570500,9.828570556640624,-0.07279586791992188,-0.008434154093265533,-0.007061876356601715
1772810379678331100,9.8483310546875,-0.06800365447998047,-0.003507554531097412,-0.0023849159479141235
1772810379698091800,9.868091796875,-0.07998466491699219,-0.008306160569190979,0.00025106221437454224
1772810379717852400,9.887852294921874,-0.0751953125,0.0014019981026649475,-0.01883324235677719
1772810379737613000,9.907613037109375,-0.0656137466430664,-0.008137822151184082,-0.004464738070964813
1772810379757373700,9.927373779296875,-0.08687591552734375,-0.0081452876329422,-0.009095810353755951
1772810379777134300,9.94713427734375,-0.07489681243896484,-0.008099250495433807,-0.0068566203117370605
1772810379796895000,9.96689501953125,-0.08207893371582031,0.0037906616926193237,-0.0023361891508102417
1772810379816655600,9.986655517578125,-0.09166145324707031,-0.0009226053953170776,-0.002348102629184723
1772810379836416300,10.006416259765626,-0.08956623077392578,0.00866091251373291,-0.009476527571678162
1772810379856176600,10.0261767578125,-0.0680074691772461,-0.015077784657478333,-0.002352483570575714
1772810379875937300,10.045937255859375,-0.06800460815429688,-0.005611874163150787,-0.002518594264984131
1772810379895698000,10.065697998046875,-0.08716773986816406,0.008916854858398438,0.004433102905750275
1772810379915458600,10.08545849609375,-0.06560707092285156,0.013902060687541962,0.006692729890346527
1772810379935219200,10.10521923828125,-0.0916595458984375,-0.02205607295036316,-0.00045756995677948
1772810379954979800,10.124979736328125,-0.07758522033691406,-0.010079815983772278,-0.010083943605422974
1772810379974740500,10.144740478515626,-0.08477401733398438,0.002019040286540985,-0.009972885251045227
1772810379994500900,10.1645009765625,-0.07519340515136719,0.004580825567245483,-0.0075228214263916016
1772810380014260700,10.1842607421875,-0.08687019348144531,-0.00039605051279067993,-0.0026859641075134277
1772810380034020600,10.2040205078125,-0.05842399597167969,-0.005403570830821991,0.004479214549064636
1772810380053780500,10.223780517578126,-0.07758808135986328,0.010953091084957123,-0.005101285874843597
1772810380073540400,10.243540283203124,-0.08447742462158203,-0.0007058307528495789,-0.004944831132888794
1772810380093300000,10.263300048828125,-0.06800651550292969,0.005976028740406036,-0.012058846652507782
1772810380113059800,10.283059814453125,-0.08926773071289062,0.0012009665369987488,0.00000959634780883789
1772810380132819700,10.30281982421875,-0.0656118392944336,-0.00823695957660675,-0.00015678256750106812
1772810380152579600,10.32257958984375,-0.07968807220458984,0.006192170083522797,-0.00957229733467102
1772810380172339500,10.34233935546875,-0.07519817352294922,-0.005651503801345825,-0.014336884021759033
1772810380192099300,10.362099365234375,-0.07970428466796875,0.015111453831195831,-0.017637506127357483
1772810380211859000,10.38185888671875,-0.058444976806640625,0.0008603259921073914,0.006042174994945526
1772810380231618800,10.401618896484376,-0.0916738510131836,-0.015251703560352325,0.005839787423610687
1772810380251378700,10.421378662109374,-0.07999420166015625,0.006361670792102814,0.010437935590744019
1772810380271138600,10.441138671875,-0.08928775787353516,-0.008642703294754028,-0.004935495555400848
1772810380290898400,10.4608984375,-0.0680379867553711,0.012232206761837006,0.008507102727890015
1772810380310658000,10.480657958984375,-0.05605602264404297,0.005257338285446167,-0.013647444546222687
1772810380330418000,10.50041796875,-0.10124874114990234,-0.0036244913935661316,0.00789950042963028
