time,seconds_elapsed,z,y,x
1772810455003065000,0.359065185546875,-0.08548355102539062,-0.0028716474771499634,0.003947228193283081
1772810455022825700,0.37882568359375,-0.0881805419921875,0.0019443556666374207,-0.0007491037249565125
1772810455042586600,0.398586669921875,-0.08308887481689453,0.0017113015055656433,-0.007892496883869171
1772810455062347300,0.41834716796875,-0.08339118957519531,-0.019820280373096466,0.011467300355434418
1772810455082108000,0.43810791015625,-0.08069324493408203,-0.010212421417236328,0.0016697496175765991
1772810455101868800,0.457868896484375,-0.06452560424804688,-0.005188122391700745,-0.000683911144733429
1772810455121629400,0.47762939453125,-0.09027767181396484,-0.012399427592754364,0.001753591001033783
1772810455141390300,0.497390380859375,-0.08548927307128906,0.001998394727706909,-0.002736225724220276
1772810455161151000,0.51715087890625,-0.06662368774414062,-0.017292477190494537,-0.00035055726766586304
1772810455180911600,0.53691162109375,-0.07381248474121094,0.004187725484371185,0.011824116110801697
1772810455200672500,0.556672607421875,-0.07830524444580078,0.011245094239711761,0.007177531719207764
1772810455220433200,0.57643310546875,-0.09267711639404297,-0.010439872741699219,-0.009497858583927155
1772810455240194000,0.596194091796875,-0.09028244018554688,-0.020047545433044434,0.00502140074968338
1772810455259954700,0.61595458984375,-0.07381343841552734,0.005821734666824341,0.012249082326889038
1772810455279715300,0.63571533203125,-0.08099842071533203,0.0012013167142868042,0.005052506923675537
1772810455299476200,0.655476318359375,-0.08069801330566406,0.0031665414571762085,0.005043528974056244
1772810455319236900,0.67523681640625,-0.09027957916259766,-0.011284716427326202,0.009877301752567291
1772810455338997500,0.69499755859375,-0.0809946060180664,-0.00862911343574524,0.007189162075519562
1772810455358758400,0.71475830078125,-0.07590389251708984,0.0025937333703041077,0.0048363059759140015
1772810455378519000,0.73451904296875,-0.08548641204833984,-0.01342163234949112,0.014460943639278412
1772810455398279700,0.75427978515625,-0.07830238342285156,-0.01811131089925766,0.009818218648433685
1772810455418040600,0.77404052734375,-0.059436798095703125,0.00044930726289749146,-0.002267591655254364
1772810455437801200,0.79380126953125,-0.08309364318847656,-0.006088882684707642,0.012148454785346985
1772810455457562000,0.81356201171875,-0.08309459686279297,-0.013276681303977966,-0.014101952314376831
1772810455477322800,0.83332275390625,-0.09986019134521484,0.0033861100673675537,0.00979180634021759
1772810455497083100,0.853083251953125,-0.09267425537109375,0.017959706485271454,0.012074433267116547
1772810455516843000,0.872843017578125,-0.06931495666503906,-0.0015667304396629333,0.007222816348075867
1772810455536602600,0.8926025390625,-0.09267234802246094,-0.0016229301691055298,-0.006503403186798096
1772810455556362500,0.912362548828125,-0.07620620727539062,-0.015995055437088013,0.0009341910481452942
1772810455576122000,0.9321220703125,-0.06452655792236328,0.005509227514266968,0.01769130676984787
1772810455595882000,0.951882080078125,-0.06931781768798828,-0.001625746488571167,0.0009143948554992676
1772810455615641600,0.9716416015625,-0.0762014389038086,-0.01136355847120285,0.015071101486682892
1772810455635401500,0.9914013671875,-0.07140922546386719,-0.004280425608158112,-0.004801638424396515
1772810455655161000,1.0111611328125,-0.061824798583984375,0.007641203701496124,0.01190485805273056
1772810455674921000,1.0309208984375,-0.08099174499511719,-0.0019934922456741333,0.012048840522766113
1772810455694680600,1.0506806640625,-0.0926675796508789,0.009877242147922516,0.002509377896785736
1772810455714440400,1.0704404296875,-0.09027385711669922,0.0002946034073829651,0.017127029597759247
1772810455734200000,1.090199951171875,-0.0762033462524414,-0.009081512689590454,0.007536441087722778
1772810455753960000,1.1099599609375,-0.06422138214111328,-0.009031005203723907,0.004720576107501984
1772810455773719600,1.129719482421875,-0.09746074676513672,-0.006479896605014801,0.002419501543045044
1772810455793479400,1.1494794921875,-0.08787822723388672,-0.004083193838596344,0.014228641986846924
1772810455813239000,1.169239013671875,-0.07829666137695312,-0.011167198419570923,0.0022448748350143433
1772810455832999000,1.1889990234375,-0.07859230041503906,0.00494731217622757,0.009110957384109497
1772810455852758500,1.208758544921875,-0.06391716003417969,-0.009229540824890137,0.013684295117855072
1772810455872518400,1.228518310546875,-0.09505367279052734,-0.00709204375743866,0.0060341209173202515
1772810455892278000,1.248278076171875,-0.06181812286376953,-0.0002598688006401062,-0.00609203428030014
1772810455912038000,1.268037841796875,-0.07588768005371094,-0.00026042014360427856,0.003118947148323059
1772810455931797500,1.287797607421875,-0.08786582946777344,0.011864520609378815,0.007899962365627289
1772810455951557400,1.307557373046875,-0.08068466186523438,-0.014640606939792633,-0.0011186525225639343
1772810455971317000,1.32731689453125,-0.09266376495361328,-0.00021944940090179443,0.02776462584733963
1772810455991076900,1.347076904296875,-0.08547592163085938,-0.016930684447288513,0.010829009115695953
1772810456010836700,1.366836669921875,-0.0711050033569336,-0.009484633803367615,0.005976676940917969
1772810456030596600,1.3865966796875,-0.07110309600830078,-0.0023001059889793396,0.005864180624485016
1772810456050356500,1.4063564453125,-0.07349872589111328,-0.004593230783939362,-0.0038263052701950073
1772810456070116400,1.426116455078125,-0.08307838439941406,0.002384983003139496,0.0010072961449623108
1772810456089876500,1.44587646484375,-0.08068466186523438,-0.01687595248222351,-0.0012409687042236328
1772810456109636400,1.46563623046875,-0.07110214233398438,0.011917084455490112,-0.0012501254677772522
1772810456129396200,1.485396240234375,-0.08787155151367188,-0.0047476887702941895,-0.0037033185362815857
1772810456149156000,1.505156005859375,-0.0806875228881836,-0.00479782372713089,-0.008189365267753601
1772810456168916200,1.524916259765625,-0.07590198516845703,-0.011930003762245178,-0.007728166878223419
1772810456188676000,1.544676025390625,-0.07111263275146484,-0.007136307656764984,-0.0028411448001861572
1772810456208436000,1.56443603515625,-0.06871700286865234,0.007231809198856354,-0.00035040825605392456
1772810456228195800,1.58419580078125,-0.09476852416992188,-0.011929146945476532,0.009323127567768097
1772810456247955700,1.603955810546875,-0.09027862548828125,0.0001501142978668213,-0.004952244460582733
1772810456267715800,1.6237158203125,-0.09955883026123047,-0.009533226490020752,0.021173648536205292
1772810456287475700,1.643475830078125,-0.09267234802246094,-0.0048449039459228516,0.009338468313217163
1772810456307235600,1.663235595703125,-0.09027671813964844,-0.01182980090379715,-0.002192184329032898
1772810456326995500,1.682995361328125,-0.08339500427246094,-0.01860509067773819,0.007934868335723877
1772810456346755300,1.70275537109375,-0.0830984115600586,-0.009167879819869995,-0.006336838006973267
1772810456366515500,1.722515380859375,-0.08309459686279297,-0.01405690610408783,-0.013626612722873688
1772810456386275300,1.742275390625,-0.07351112365722656,-0.009265847504138947,-0.001808464527130127
1772810456406035200,1.76203515625,-0.08099651336669922,-0.011499792337417603,0.0002677515149116516
1772810456425795000,1.781795166015625,-0.07830238342285156,-0.011196941137313843,0.00036372244358062744
1772810456445555000,1.801554931640625,-0.08069610595703125,-0.02077043056488037,0.012224189937114716
1772810456465315000,1.821315185546875,-0.09746360778808594,-0.013270154595375061,0.00003353506326675415
1772810456485075000,1.841074951171875,-0.1139364242553711,0.010725721716880798,0.01220366358757019
1772810456504834600,1.86083447265625,-0.07381439208984375,-0.008230246603488922,0.0003226622939109802
1772810456524594000,1.880593994140625,-0.09028148651123047,0.01566099375486374,-0.0020275115966796875
1772810456544353300,1.900353271484375,-0.0759115219116211,-0.008186876773834229,0.0075415074825286865
1772810456564112600,1.920112548828125,-0.09507274627685547,-0.0009007900953292847,0.012163668870925903
1772810456583872000,1.9398720703125,-0.08818721771240234,0.0015949532389640808,0.00975412130355835
1772810456603631400,1.95963134765625,-0.05015850067138672,-0.005694009363651276,-0.0046744197607040405
1772810456623390700,1.979390625,-0.08788681030273438,-0.027434319257736206,-0.002635873854160309
1772810456643150300,1.999150390625,-0.09028339385986328,0.0035070329904556274,-0.007729567587375641
1772810456662909700,2.01890966796875,-0.07351398468017578,-0.0036805346608161926,-0.0011996030807495117
1772810456682669000,2.0386689453125,-0.08069992065429688,-0.020437821745872498,-0.006097249686717987
1772810456702428400,2.058428466796875,-0.09926509857177734,0.0012708008289337158,-0.0037569478154182434
1772810456722187800,2.078187744140625,-0.08549118041992188,0.0037123635411262512,0.003523126244544983
1772810456741947100,2.097947021484375,-0.0759124755859375,-0.012946367263793945,0.003616347908973694
1772810456761706500,2.11770654296875,-0.0639333724975586,-0.003665931522846222,-0.006018906831741333
1772810456781465900,2.1374658203125,-0.06872272491455078,-0.022361665964126587,0.012869946658611298
1772810456801225200,2.15722509765625,-0.07590961456298828,-0.013374827802181244,0.005674257874488831
1772810456820984800,2.17698486328125,-0.06872081756591797,-0.00609404593706131,0.008005291223526001
1772810456840744200,2.196744140625,-0.07111644744873047,-0.017657920718193054,0.008486859500408173
1772810456860503600,2.216503662109375,-0.05943870544433594,-0.003231264650821686,-0.003548532724380493
1772810456880263000,2.236262939453125,-0.07620811462402344,0.01128726452589035,0.013304471969604492
1772810456900022300,2.256022216796875,-0.0807027816772461,-0.005427375435829163,0.001472868025302887
1772810456919781600,2.27578173828125,-0.07351398468017578,0.002003386616706848,0.006498761475086212
1772810456939541000,2.295541015625,-0.07830333709716797,0.003941848874092102,0.006783492863178253
1772810456959300600,2.315300537109375,-0.09267807006835938,-0.014562435448169708,-0.01237892359495163
1772810456979060000,2.33506005859375,-0.09028053283691406,-0.010115601122379303,0.006719186902046204
1772810456998819600,2.354819580078125,-0.06662559509277344,-0.002577461302280426,0.0019700080156326294
1772810457018579500,2.374579345703125,-0.08309650421142578,-0.016991063952445984,0.004509083926677704
1772810457038339600,2.394339599609375,-0.07141971588134766,-0.0150827094912529,0.0018575936555862427
1772810457058099700,2.414099609375,-0.083099365234375,-0.005501635372638702,-0.000037692487239837646
1772810457077859800,2.43385986328125,-0.0783071517944336,0.006573811173439026,-0.00025356560945510864
1772810457097620000,2.453619873046875,-0.0878915786743164,-0.02414422482252121,0.016594335436820984
1772810457117379800,2.4733798828125,-0.0950765609741211,0.018647044897079468,0.004607059061527252
1772810457137140000,2.493139892578125,-0.06213569641113281,0.0044962093234062195,-0.007677607238292694
1772810457156900000,2.512900146484375,-0.07141780853271484,-0.007493048906326294,0.004289373755455017
1772810457176660200,2.53266015625,-0.08309650421142578,-0.00022314488887786865,0.006725087761878967
1772810457196420000,2.552420166015625,-0.0759115219116211,-0.004730559885501862,0.006868414580821991
1772810457216180200,2.57218017578125,-0.0783090591430664,-0.01437106728553772,-0.0001690685749053955
1772810457235940400,2.5919404296875,-0.10436058044433594,-0.010138563811779022,0.016135193407535553
1772810457255700500,2.611700439453125,-0.07112312316894531,0.0017690509557724,0.00868535041809082
1772810457275460600,2.631460693359375,-0.08070659637451172,0.004348263144493103,0.0035337507724761963
1772810457295220500,2.651220458984375,-0.08310127258300781,0.004168696701526642,-0.005893006920814514
1772810457314980600,2.670980712890625,-0.061545372009277344,0.00908699631690979,0.008620992302894592
1772810457334740700,2.69074072265625,-0.07591724395751953,-0.0006696581840515137,0.0014795437455177307
1772810457354500900,2.7105009765625,-0.09238433837890625,0.0039417073130607605,-0.0009201318025588989
1772810457374260700,2.7302607421875,-0.08998966217041016,0.0015258938074111938,-0.008054181933403015
1772810457394020900,2.750020751953125,-0.08040714263916016,-0.007965900003910065,0.006255887448787689
1772810457413781000,2.769781005859375,-0.07591724395751953,-0.003543175756931305,0.016023986041545868
1772810457433541000,2.789541015625,-0.07352161407470703,-0.012834005057811737,-0.00015066564083099365
1772810457453301000,2.809301025390625,-0.06633472442626953,-0.003216750919818878,0.0045783668756484985
1772810457473061000,2.82906103515625,-0.08070850372314453,-0.0056794434785842896,0.009406886994838715
1772810457492821200,2.8488212890625,-0.09957122802734375,0.0038275718688964844,0.009391441941261292
1772810457512581000,2.8685810546875,-0.07591438293457031,-0.024914510548114777,-0.00035034865140914917
1772810457532341000,2.888341064453125,-0.09957027435302734,0.0037047266960144043,0.011764056980609894
1772810457552100900,2.908100830078125,-0.07352256774902344,-0.005788147449493408,-0.007191970944404602
1772810457571860700,2.92786083984375,-0.08999347686767578,-0.007932908833026886,0.007164314389228821
1772810457591620600,2.94762060546875,-0.07831859588623047,-0.014968432486057281,-0.00226699560880661
1772810457611380500,2.96738037109375,-0.08310985565185547,-0.0006671175360679626,-0.0045600757002830505
1772810457631140400,2.987140380859375,-0.08550834655761719,0.0025632530450820923,0.00820806622505188
1772810457650900200,3.006900146484375,-0.06933879852294922,-0.004635229706764221,0.010636292397975922
1772810457670660000,3.02666015625,-0.09029960632324219,-0.011983193457126617,0.010721810162067413
1772810457690420200,3.046420166015625,-0.06934070587158203,-0.016724616289138794,0.006073258817195892
1772810457710180000,3.06618017578125,-0.07383155822753906,0.012143880128860474,0.005906090140342712
1772810457729940000,3.08593994140625,-0.07173633575439453,-0.002141319215297699,0.008636347949504852
1772810457749699800,3.105699951171875,-0.07622623443603516,-0.011676639318466187,0.018232576549053192
1772810457769459700,3.125459716796875,-0.07862472534179688,0.010007999837398529,-0.0031235292553901672
1772810457789219600,3.145219482421875,-0.09988212585449219,0.00503598153591156,0.016017474234104156
1772810457808979500,3.1649794921875,-0.09508991241455078,-0.011789828538894653,-0.00315016508102417
1772810457828739300,3.1847392578125,-0.07592582702636719,-0.0048637911677360535,-0.006650567054748535
1772810457848499200,3.204499267578125,-0.08071708679199219,-0.007618844509124756,-0.0002671852707862854
1772810457868259000,3.224259033203125,-0.08311271667480469,-0.014706537127494812,0.004564881324768066
1772810457888019000,3.24401904296875,-0.08521366119384766,-0.012110799551010132,0.0023669153451919556
1772810457907778800,3.26377880859375,-0.08072185516357422,0.0021358802914619446,-0.007109381258487701
1772810457927538700,3.28353857421875,-0.07592964172363281,-0.0052180215716362,0.0024627670645713806
1772810457947298600,3.303298583984375,-0.08281421661376953,0.008528381586074829,0.0022463053464889526
1772810457967058400,3.323058349609375,-0.08281230926513672,-0.015076205134391785,0.0020815953612327576
1772810457986818600,3.342818603515625,-0.08970355987548828,0.0037116333842277527,-0.004939734935760498
1772810458006579200,3.3625791015625,-0.08760738372802734,0.011071711778640747,0.013799607753753662
1772810458026340600,3.382340576171875,-0.0687417984008789,-0.01997259259223938,0.00007062405347824097
1772810458046102000,3.40210205078125,-0.08041858673095703,-0.012698560953140259,-0.006515316665172577
1772810458065863400,3.421863525390625,-0.07802486419677734,-0.0031830444931983948,0.015225693583488464
1772810458085624600,3.44162451171875,-0.0735321044921875,0.006371326744556427,0.0031870827078819275
1772810458105386000,3.461385986328125,-0.0923929214477539,-0.01763344556093216,0.0005775019526481628
1772810458125147400,3.4811474609375,-0.0807180404663086,-0.005461044609546661,0.0030135437846183777
1772810458144908800,3.50090869140625,-0.07802295684814453,-0.01020573079586029,0.007735811173915863
1772810458164670000,3.520669921875,-0.08281135559082031,0.0018515139818191528,-0.009233281016349792
1772810458184431400,3.540431396484375,-0.08071613311767578,-0.005244404077529907,0.005075134336948395
1772810458204192800,3.56019287109375,-0.0947885513305664,0.004315786063671112,0.005060203373432159
1772810458223954200,3.5799541015625,-0.075927734375,-0.0003926903009414673,-0.0021701306104660034
1772810458243715300,3.59971533203125,-0.09239578247070312,-0.012375719845294952,-0.0073089599609375
1772810458263476700,3.619476806640625,-0.09718894958496094,0.006965763866901398,0.004656501114368439
1772810458283238100,3.639238037109375,-0.09269523620605469,-0.021928571164608,-0.0026357024908065796
1772810458302999600,3.65899951171875,-0.0711355209350586,-0.01000940054655075,0.006982468068599701
1772810458322761000,3.678760986328125,-0.07832527160644531,-0.00024081021547317505,0.004781559109687805
1772810458342522000,3.698522216796875,-0.06634712219238281,0.004628702998161316,0.009502314031124115
1772810458362283500,3.718283447265625,-0.07832527160644531,-0.012248694896697998,-0.004869572818279266
1772810458382045000,3.738044921875,-0.08072090148925781,-0.00018800795078277588,0.0022562816739082336
1772810458401806300,3.757806396484375,-0.08521366119384766,-0.00015694648027420044,-0.0023309364914894104
1772810458421567500,3.7775673828125,-0.07593345642089844,-0.00007319450378417969,-0.009006239473819733
1772810458441329000,3.797328857421875,-0.05706787109375,-0.009660512208938599,0.001310192048549652
1772810458461090300,3.81709033203125,-0.06904315948486328,0.0025440827012062073,-0.0011948496103286743
1772810458480851500,3.8368515625,-0.09030342102050781,0.0027690455317497253,0.0036360546946525574
1772810458500612000,3.856612060546875,-0.080718994140625,0.00010106712579727173,0.001125536859035492
1772810458520372000,3.8763720703125,-0.0831146240234375,-0.004807628691196442,-0.0036148428916931152
1772810458540131800,3.8961318359375,-0.08101749420166016,-0.0071090832352638245,0.017862088978290558
1772810458559891500,3.915891357421875,-0.09029960632324219,0.009626798331737518,0.013098813593387604
1772810458579651300,3.9356513671875,-0.0807180404663086,-0.002574436366558075,-0.0035157576203346252
1772810458599411000,3.955410888671875,-0.08580684661865234,-0.00737471878528595,-0.0011772140860557556
1772810458619170800,3.9751708984375,-0.07622432708740234,0.011753715574741364,0.013367444276809692
1772810458638930400,3.994930419921875,-0.08311080932617188,-0.01056479662656784,0.00771293044090271
1772810458658690000,4.01468994140625,-0.07592487335205078,-0.017693117260932922,0.0029100552201271057
1772810458678450000,4.034449951171875,-0.07831859588623047,-0.015298061072826385,0.005189947783946991
1772810458698209800,4.054209716796875,-0.0995779037475586,-0.0010474622249603271,0.012507699429988861
1772810458717969400,4.073969482421875,-0.08071422576904297,-0.0034610703587532043,0.005309835076332092
1772810458737729300,4.093729248046875,-0.08310985565185547,-0.013043113052845001,0.01964782178401947
1772810458757489000,4.113489013671875,-0.08071327209472656,0.0037525147199630737,-0.001967296004295349
1772810458777248800,4.133248779296875,-0.089996337890625,-0.005789518356323242,0.012381687760353088
1772810458797008400,4.15300830078125,-0.080413818359375,-0.001067914068698883,0.00014929473400115967
1772810458816768300,4.172768310546875,-0.061553001403808594,-0.010345153510570526,0.0023390501737594604
1772810458836527900,4.19252783203125,-0.06155586242675781,-0.007752835750579834,-0.018446072936058044
1772810458856287700,4.212287841796875,-0.0783243179321289,-0.005112223327159882,0.010124385356903076
1772810458876047400,4.23204736328125,-0.12084674835205078,-0.00018527358770370483,-0.001600503921508789
1772810458895807200,4.25180712890625,-0.09240150451660156,0.006920725107192993,0.005668163299560547
1772810458915566800,4.27156689453125,-0.07114410400390625,-0.005013942718505859,-0.008465789258480072
1772810458935326700,4.29132666015625,-0.10168647766113281,-0.0002933293581008911,-0.0012041032314300537
1772810458955086300,4.31108642578125,-0.0948019027709961,0.004628419876098633,0.003808625042438507
1772810458974846200,4.33084619140625,-0.06395912170410156,-0.011985376477241516,0.00560847669839859
1772810458994605800,4.350605712890625,-0.07114601135253906,-0.007150083780288696,0.007714785635471344
1772810459014365200,4.370365234375,-0.1043844223022461,-0.002373702824115753,0.010219499468803406
1772810459034124300,4.390124267578125,-0.09929275512695312,-0.014502614736557007,0.0005546212196350098
1772810459053883600,4.409883544921875,-0.06874752044677734,-0.0024371668696403503,0.019454047083854675
1772810459073643000,4.42964306640625,-0.08791351318359375,-0.004635557532310486,0.007537223398685455
1772810459093402000,4.449402099609375,-0.08551979064941406,-0.014163754880428314,-0.004308462142944336
1772810459113161500,4.469161376953125,-0.08552169799804688,0.0002929419279098511,0.010174483060836792
1772810459132920800,4.4889208984375,-0.09689998626708984,-0.011787988245487213,-0.020914196968078613
1772810459152680000,4.508679931640625,-0.0900115966796875,-0.009345322847366333,0.002954453229904175
1772810459172439300,4.528439208984375,-0.10647964477539062,-0.009349308907985687,0.005208149552345276
1772810459192198700,4.54819873046875,-0.08761405944824219,0.0002133101224899292,-0.004499807953834534
1772810459211957800,4.567957763671875,-0.0780344009399414,-0.0023002251982688904,0.0029619410634040833
1772810459231717000,4.587717041015625,-0.06875133514404297,0.01203552633523941,0.0036292001605033875
1772810459251476500,4.6074765625,-0.07354545593261719,-0.009426042437553406,0.006193071603775024
1772810459271235600,4.627235595703125,-0.07114887237548828,-0.004900671541690826,-0.0008692815899848938
1772810459290995000,4.646994873046875,-0.0971994400024414,-0.007252462208271027,-0.003340974450111389
1772810459310754300,4.66675439453125,-0.08312511444091797,0.004803881049156189,0.01327245682477951
1772810459330513700,4.686513671875,-0.08312511444091797,-0.0168498232960701,0.0012622997164726257
1772810459350272800,4.706272705078125,-0.08791160583496094,-0.009770937263965607,0.010591946542263031
1772810459370032000,4.7260322265625,-0.0926980972290039,0.009102538228034973,-0.001568339765071869
1772810459389791500,4.74579150390625,-0.0903005599975586,-0.012351550161838531,0.010052651166915894
1772810459409550600,4.765550537109375,-0.0639495849609375,-0.016683369874954224,0.00023653358221054077
1772810459429310000,4.78531005859375,-0.08071613311767578,-0.01707637310028076,0.016998864710330963
1772810459449069300,4.8050693359375,-0.0947866439819336,-0.0028213784098625183,0.014395855367183685
1772810459468828400,4.824828369140625,-0.06633853912353516,-0.019577421247959137,0.007065623998641968
1772810459488587800,4.844587890625,-0.09478569030761719,-0.00032679736614227295,0.011558875441551208
1772810459508347600,4.86434765625,-0.08550739288330078,-0.0026332810521125793,0.011469036340713501
1772810459528107800,4.884107666015625,-0.07113075256347656,-0.007430091500282288,-0.01270197331905365
1772810459547868000,4.903867919921875,-0.08310890197753906,0.0021310001611709595,-0.010269120335578918
1772810459567628000,4.9236279296875,-0.08310794830322266,-0.016919568181037903,0.0015201196074485779
1772810459587388200,4.94338818359375,-0.06394290924072266,-0.002560243010520935,0.0014876052737236023
1772810459607148300,4.963148193359375,-0.07352733612060547,-0.007410719990730286,-0.01029515266418457
1772810459626908400,4.982908447265625,-0.08310604095458984,-0.005377054214477539,0.003887169063091278
1772810459646668500,5.00266845703125,-0.07112693786621094,-0.010624326765537262,-0.006415456533432007
1772810459666428700,5.0224287109375,-0.0944833755493164,0.0015882700681686401,0.0030806660652160645
1772810459686188500,5.0421884765625,-0.0896902084350586,-0.010338947176933289,0.014951556921005249
1772810459705948700,5.06194873046875,-0.06364154815673828,-0.003321729600429535,-0.00402773916721344
1772810459725708800,5.081708740234375,-0.054360389709472656,-0.005727514624595642,0.003331214189529419
1772810459745469000,5.101468994140625,-0.07562065124511719,0.008511073887348175,0.0010577291250228882
1772810459765229000,5.12122900390625,-0.07801628112792969,0.0015090927481651306,-0.0014677047729492188
1772810459784989200,5.1409892578125,-0.0849008560180664,0.0014891400933265686,0.0030806586146354675
1772810459804749300,5.160749267578125,-0.08280563354492188,-0.005602024495601654,-0.0017381906509399414
1772810459824509400,5.180509521484375,-0.08520030975341797,-0.007599994540214539,0.020355023443698883
1772810459844269600,5.20026953125,-0.08310222625732422,-0.009595081210136414,0.015899360179901123
1772810459864029700,5.22002978515625,-0.08549880981445312,0.00017555803060531616,-0.0008983835577964783
1772810459883789800,5.239789794921875,-0.07352352142333984,-0.0022333934903144836,0.008844234049320221
1772810459903550000,5.259550048828125,-0.08550167083740234,-0.011411719024181366,0.009097948670387268
1772810459923310000,5.27931005859375,-0.07352447509765625,0.0004937648773193359,0.009558305144309998
1772810459943070000,5.299070068359375,-0.08310604095458984,0.0008769556879997253,0.014191031455993652
1772810459962830000,5.318830078125,-0.09508514404296875,-0.006264127790927887,-0.0023982152342796326
1772810459982590200,5.338590087890625,-0.07382392883300781,0.0007982105016708374,0.011873304843902588
1772810460002350800,5.358350830078125,-0.07831382751464844,-0.006447173655033112,0.009379900991916656
1772810460022112000,5.378112060546875,-0.09029293060302734,-0.004156559705734253,-0.002767205238342285
1772810460041873000,5.397872802734375,-0.08550357818603516,-0.006653010845184326,0.009515240788459778
1772810460061634000,5.417634033203125,-0.07352447509765625,0.007429733872413635,0.01669447124004364
1772810460081395000,5.43739501953125,-0.07352256774902344,-0.006598867475986481,0.018872030079364777
1772810460101156000,5.457156005859375,-0.08549690246582031,-0.009152799844741821,0.004307180643081665
1772810460120917200,5.476917236328125,-0.07831096649169922,-0.01857587695121765,0.009258247911930084
1772810460140678100,5.49667822265625,-0.08549880981445312,-0.006449714303016663,0.013993367552757263
1772810460160439300,5.516439208984375,-0.0759134292602539,0.007789820432662964,0.009000018239021301
1772810460180200400,5.536200439453125,-0.07621383666992188,-0.008879035711288452,0.0042753443121910095
1772810460199961300,5.55596142578125,-0.0950784683227539,-0.0016540810465812683,0.0018957778811454773
1772810460219722500,5.575722412109375,-0.07591438293457031,-0.004205070436000824,0.013364851474761963
1772810460239483400,5.5954833984375,-0.0830984115600586,-0.009399905800819397,0.022576220333576202
1772810460259244500,5.61524462890625,-0.0735177993774414,-0.0164182186126709,0.01054835319519043
1772810460279005700,5.635005615234375,-0.08788681030273438,-0.004556648433208466,0.007903292775154114
1772810460298766600,5.6547666015625,-0.07141590118408203,0.007493115961551666,-0.006643176078796387
1772810460318527700,5.67452783203125,-0.07111740112304688,-0.009121246635913849,0.0005115121603012085
1772810460338288600,5.69428857421875,-0.07830142974853516,-0.009123727679252625,0.005005493760108948
1772810460358049800,5.7140498046875,-0.08758354187011719,0.00043873488903045654,0.009799860417842865
1772810460377811000,5.73381103515625,-0.09237480163574219,-0.00909201055765152,-0.00942995399236679
1772810460397571800,5.75357177734375,-0.10405445098876953,-0.004208892583847046,0.017064817249774933
1772810460417333000,5.7733330078125,-0.09716796875,0.00804293155670166,0.0026061683893203735
1772810460437094100,5.79309423828125,-0.07830619812011719,0.013595737516880035,-0.0039012059569358826
1772810460456855000,5.81285498046875,-0.09267616271972656,-0.003080226480960846,0.012502342462539673
1772810460476616200,5.8326162109375,-0.09267616271972656,0.00413203239440918,-0.0042373910546302795
1772810460496376800,5.852376953125,-0.07141494750976562,0.00400514155626297,0.010136820375919342
1772810460516137000,5.872136962890625,-0.07141780853271484,-0.0123978853225708,-0.006648905575275421
1772810460535896800,5.891896728515625,-0.07621097564697266,-0.01249799132347107,0.012720346450805664
1772810460555657000,5.911656982421875,-0.09746932983398438,-0.0029282942414283752,-0.004071712493896484
1772810460575416800,5.931416748046875,-0.10704898834228516,-0.00792916864156723,0.0029747411608695984
1772810460595177000,5.951177001953125,-0.06692218780517578,-0.010373018682003021,0.010007739067077637
1772810460614936800,5.970936767578125,-0.08099365234375,0.013590365648269653,0.019614674150943756
1772810460634696700,5.99069677734375,-0.09477043151855469,0.003294914960861206,0.003910906612873077
1772810460654456800,6.010456787109375,-0.08758163452148438,-0.008941829204559326,0.0063152313232421875
1772810460674216700,6.030216796875,-0.0875844955444336,-0.013766467571258545,-0.000842556357383728
1772810460693976800,6.049976806640625,-0.08489036560058594,-0.008985146880149841,0.003496795892715454
1772810460713736700,6.06973681640625,-0.0663290023803711,0.007949218153953552,-0.005920350551605225
1772810460733496600,6.08949658203125,-0.082794189453125,-0.006387621164321899,0.0009543672204017639
1772810460753256700,6.109256591796875,-0.08968639373779297,-0.008535414934158325,-0.0011303052306175232
1772810460773016600,6.1290166015625,-0.07082271575927734,-0.02055046707391739,-0.00830233097076416
1772810460792776700,6.148776611328125,-0.0777120590209961,-0.00603889673948288,-0.010821610689163208
1772810460812536600,6.16853662109375,-0.09208488464355469,-0.008080907166004181,0.02450244128704071
1772810460832296400,6.18829638671875,-0.09028816223144531,-0.005255304276943207,-0.004629746079444885
1772810460852056600,6.208056640625,-0.09029006958007812,0.009021155536174774,0.01232050359249115
1772810460871816400,6.22781640625,-0.07831287384033203,0.009030856192111969,0.00028859078884124756
1772810460891576600,6.24757666015625,-0.08070850372314453,-0.014869004487991333,0.00033789128065109253
1772810460911336400,6.26733642578125,-0.08310222625732422,0.009093023836612701,0.005014821887016296
1772810460931096300,6.287096435546875,-0.08789253234863281,0.004162833094596863,0.005004793405532837
1772810460950856400,6.3068564453125,-0.07351970672607422,0.0113515704870224,0.0073854029178619385
1772810460970616300,6.3266162109375,-0.07352066040039062,-0.005329646170139313,0.012203320860862732
1772810460990376400,6.34637646484375,-0.08070755004882812,0.0018270686268806458,0.007448084652423859
1772810461010136000,6.366135986328125,-0.0854959487915039,-0.00014059245586395264,0.012255236506462097
1772810461029896000,6.38589599609375,-0.0735177993774414,-0.01007804274559021,0.00649917870759964
1772810461049655600,6.405655517578125,-0.10196208953857422,-0.007902063429355621,0.004095360636711121
1772810461069415400,6.42541552734375,-0.09208011627197266,0.0033408403396606445,0.006476022303104401
1772810461089175300,6.44517529296875,-0.07561206817626953,-0.015465661883354187,-0.007883518934249878
1772810461108935000,6.464934814453125,-0.08279991149902344,-0.013369739055633545,0.0017970576882362366
1772810461128694800,6.48469482421875,-0.08968830108642578,0.005756907165050507,-0.007864043116569519
1772810461148454400,6.504454345703125,-0.08489608764648438,-0.006133444607257843,-0.0010780394077301025
1772810461168214300,6.52421435546875,-0.07801246643066406,-0.01337142288684845,0.01352497935295105
1772810461187974000,6.543973876953125,-0.08280277252197266,-0.022932447493076324,-0.0007968246936798096
1772810461207733800,6.563733642578125,-0.09447860717773438,-0.00622955709695816,0.011001959443092346
1772810461227493400,6.583493408203125,-0.08998870849609375,-0.0011658519506454468,0.011680901050567627
1772810461247253200,6.603253173828125,-0.08549880981445312,-0.010350964963436127,-0.006768211722373962
1772810461267013000,6.62301318359375,-0.09747314453125,0.006326042115688324,0.0026521533727645874
1772810461286772700,6.642772705078125,-0.08070755004882812,-0.010396413505077362,-0.006762199103832245
1772810461306532600,6.66253271484375,-0.061545372009277344,-0.01752115786075592,0.000525057315826416
1772810461326292200,6.682292236328125,-0.10436534881591797,-0.005661956965923309,0.0007281973958015442
1772810461346052000,6.702052001953125,-0.07352352142333984,-0.0033378824591636658,-0.0064459145069122314
1772810461365811700,6.721811767578125,-0.07352542877197266,-0.005438104271888733,0.01274196058511734
1772810461385571600,6.741571533203125,-0.08789730072021484,0.006346285343170166,-0.0016298741102218628
1772810461405331500,6.76133154296875,-0.05735492706298828,0.008748024702072144,0.0007643476128578186
1772810461425091000,6.781091064453125,-0.08759880065917969,0.0011291727423667908,-0.008893035352230072
1772810461444851000,6.800850830078125,-0.08730125427246094,-0.0112014040350914,0.004775911569595337
1772810461464610600,6.820610595703125,-0.0947866439819336,-0.020713210105895996,0.004762902855873108
1772810461484370400,6.840370361328125,-0.06843757629394531,0.008195549249649048,-0.0001317635178565979
1772810461504129800,6.8601298828125,-0.0684356689453125,0.006015978753566742,0.004393577575683594
1772810461523889400,6.879889404296875,-0.06873226165771484,0.0033798962831497192,-0.000551469624042511
1772810461543648800,6.899648681640625,-0.08041095733642578,0.0007495954632759094,0.011658802628517151
1772810461563408100,6.919408203125,-0.0872945785522461,-0.008838541805744171,-0.015271559357643127
1772810461583167500,6.93916748046875,-0.08011150360107422,0.0009222924709320068,-0.00826583057641983
1772810461602927000,6.958927001953125,-0.0804147720336914,-0.013036109507083893,0.003804996609687805
1772810461622686500,6.9786865234375,-0.08041763305664062,-0.005358785390853882,0.00210580974817276
1772810461642445800,6.99844580078125,-0.08071327209472656,-0.0027337148785591125,0.007817216217517853
1772810461662205200,7.018205078125,-0.09927749633789062,-0.019436180591583252,-0.008985742926597595
1772810461681964800,7.03796484375,-0.09238815307617188,0.006769746541976929,0.0028811022639274597
1772810461701724200,7.05772412109375,-0.07352161407470703,-0.002936415374279022,0.005058892071247101
1772810461721483500,7.0774833984375,-0.09238147735595703,0.004060730338096619,-0.007060475647449493
1772810461741243000,7.097242919921875,-0.07831096649169922,-0.010419033467769623,-0.006892837584018707
1772810461761002200,7.117002197265625,-0.08789348602294922,-0.0032541975378990173,-0.004384957253932953
1772810461780761900,7.136761962890625,-0.07831478118896484,0.001714453101158142,0.007728755474090576
1772810461800521200,7.156521240234375,-0.07352447509765625,0.004385918378829956,0.010100461542606354
1772810461820280600,7.176280517578125,-0.0642404556274414,-0.0050563812255859375,0.0024019628763198853
1772810461840040200,7.196040283203125,-0.08071041107177734,-0.012293383479118347,0.01415078341960907
1772810461859799600,7.215799560546875,-0.08041191101074219,0.006838306784629822,-0.009989522397518158
1772810461879559000,7.235558837890625,-0.08070945739746094,-0.004909224808216095,0.004271060228347778
1772810461899318300,7.255318359375,-0.07801342010498047,0.004234783351421356,0.0043635740876197815
1772810461919078000,7.275077880859375,-0.08280467987060547,-0.002867959439754486,-0.010092750191688538
1772810461938837200,7.294837158203125,-0.06394100189208984,0.008816733956336975,-0.00040783733129501343
1772810461958596600,7.3145966796875,-0.09478282928466797,-0.01961483061313629,0.02598869800567627
1772810461978356000,7.33435595703125,-0.07801342010498047,0.004005111753940582,0.006654664874076843
1772810461998115800,7.35411572265625,-0.08070850372314453,-0.007477059960365295,-0.005466826260089874
1772810462017876200,7.373876220703125,-0.08519935607910156,-0.010226629674434662,-0.0006252527236938477
1772810462037636600,7.39363671875,-0.10166645050048828,-0.016801655292510986,0.006388626992702484
1772810462057397000,7.41339697265625,-0.08040142059326172,0.00222846120595932,0.013183362782001495
1772810462077157400,7.433157470703125,-0.08998298645019531,0.007132977247238159,-0.006072618067264557
1772810462096917800,7.452917724609375,-0.0947732925415039,-0.00699026882648468,0.010514356195926666
1772810462116678400,7.472678466796875,-0.07830524444580078,0.0027155354619026184,-0.006345607340335846
1772810462136438800,7.492438720703125,-0.08069801330566406,0.007463514804840088,0.012583144009113312
1772810462156199200,7.51219921875,-0.09477043151855469,-0.018872588872909546,-0.0017873048782348633
1772810462175959600,7.53195947265625,-0.07830047607421875,-0.004565306007862091,0.015141226351261139
1772810462195720000,7.551719970703125,-0.09027576446533203,0.004822574555873871,0.008132964372634888
1772810462215480300,7.571480224609375,-0.08309078216552734,0.002549491822719574,0.0033849328756332397
1772810462235241000,7.591240966796875,-0.08997440338134766,0.0018679127097129822,-0.011820293962955475
1772810462255001300,7.61100146484375,-0.06632041931152344,-0.007375560700893402,-0.014080852270126343
1772810462274761700,7.63076171875,-0.07829666137695312,-0.0006138458847999573,0.005068384110927582
1772810462294522000,7.650522216796875,-0.07320690155029297,0.0018540769815444946,-0.0020628273487091064
1772810462314282500,7.670282470703125,-0.08069229125976562,0.004062294960021973,0.009889334440231323
1772810462334043000,7.69004296875,-0.08518123626708984,-0.010314039885997772,0.007321164011955261
1772810462353803300,7.70980322265625,-0.09475898742675781,0.001476973295211792,-0.009931877255439758
1772810462373564000,7.72956396484375,-0.08966827392578125,-0.0009432807564735413,-0.005481190979480743
1772810462393324300,7.74932421875,-0.07109928131103516,0.003655172884464264,0.003783509135246277
1772810462413084700,7.769084716796875,-0.07319259643554688,-0.02267199009656906,0.0035684481263160706
1772810462432845000,7.788844970703125,-0.08996009826660156,-0.014932014048099518,0.002065122127532959
1772810462452605400,7.80860546875,-0.1040353775024414,-0.012637779116630554,0.002566888928413391
1772810462472365800,7.82836572265625,-0.054627418518066406,-0.010248370468616486,-0.002408444881439209
1772810462492126500,7.84812646484375,-0.052231788635253906,-0.007807642221450806,0.01184815913438797
1772810462511886800,7.867886962890625,-0.06660175323486328,0.006626926362514496,-0.005048803985118866
1772810462531647500,7.8876474609375,-0.09235477447509766,0.013805046677589417,-0.007257670164108276
1772810462551408000,7.907408203125,-0.03816032409667969,0.004344195127487183,0.00009759515523910522
1772810462571168800,7.927168701171875,-0.09714794158935547,0.013713642954826355,-0.009397715330123901
1772810462590929400,7.946929443359375,-0.08547019958496094,-0.0006338730454444885,0.014487653970718384
1772810462610689800,7.966689697265625,-0.052234649658203125,-0.010065458714962006,-0.021380819380283356
1772810462630450400,7.986450439453125,-0.0803823471069336,-0.002797052264213562,-0.0004560127854347229
1772810462650211000,8.006211181640625,-0.0899658203125,-0.0001742243766784668,0.006732173264026642
1772810462669971700,8.0259716796875,-0.07559394836425781,0.004474170506000519,-0.002672627568244934
1772810462689732400,8.045732421875,-0.0758962631225586,0.006732814013957977,0.0070639923214912415
1772810462709493000,8.065492919921875,-0.06391620635986328,-0.005064278841018677,-0.0025999024510383606
1772810462729253400,8.08525341796875,-0.08308219909667969,0.001596897840499878,-0.007308788597583771
1772810462749014000,8.105013916015626,-0.0735006332397461,-0.010034672915935516,0.002334900200366974
1772810462768774700,8.124774658203124,-0.08966827392578125,-0.01009049266576767,-0.002590648829936981
1772810462788535300,8.144535400390625,-0.09206008911132812,0.006389923393726349,-0.007660701870918274
1772810462808296000,8.1642958984375,-0.08966827392578125,0.011178605258464813,-0.007473587989807129
1772810462828056600,8.184056640625,-0.09206104278564453,-0.005150876939296722,0.006537206470966339
1772810462847817200,8.203817138671875,-0.08756828308105469,-0.019104503095149994,-0.005567915737628937
1772810462867577600,8.22357763671875,-0.07828903198242188,0.007304161787033081,-0.012555427849292755
1772810462887338200,8.243338134765626,-0.09235954284667969,0.014379814267158508,0.013776719570159912
1772810462907099000,8.263098876953125,-0.06631183624267578,0.007252626121044159,-0.010036483407020569
1772810462926859500,8.282859619140625,-0.061519622802734375,-0.007028236985206604,0.006525814533233643
1772810462946620200,8.3026201171875,-0.07559585571289062,0.012237034738063812,-0.0004910379648208618
1772810462966380500,8.322380615234374,-0.07110214233398438,0.014169767498970032,-0.0005777925252914429
1772810462986141200,8.34214111328125,-0.07349586486816406,0.0048508793115615845,0.00650402158498764
1772810463005901000,8.361901123046875,-0.07828712463378906,-0.023918330669403076,0.001723647117614746
1772810463025660400,8.381660400390626,-0.08786869049072266,0.00005797296762466431,-0.0003552734851837158
1772810463045420000,8.401419921875,-0.09265995025634766,-0.01908835768699646,0.004789434373378754
1772810463065179400,8.421179443359375,-0.07589435577392578,-0.007020160555839539,-0.004662670195102692
1772810463084938800,8.440938720703125,-0.09266090393066406,-0.021319672465324402,-0.0024018362164497375
1772810463104698400,8.460698486328125,-0.07828617095947266,-0.004670754075050354,-0.009808965027332306
1772810463124457700,8.480457763671875,-0.09505176544189453,-0.007128037512302399,0.006802462041378021
1772810463144217000,8.500217041015626,-0.07109928131103516,0.00013330578804016113,0.002176821231842041
1772810463163976700,8.519976806640624,-0.07109832763671875,0.009458675980567932,0.007070071995258331
1772810463183736000,8.539736083984375,-0.08547306060791016,-0.011996544897556305,0.0022881776094436646
1772810463203495700,8.55949560546875,-0.08068275451660156,-0.0021785274147987366,0.01180536299943924
1772810463223255000,8.579255126953125,-0.08307933807373047,0.004865579307079315,0.004581712186336517
1772810463243014400,8.599014404296875,-0.094757080078125,-0.0047840699553489685,0.006727784872055054
1772810463262774000,8.61877392578125,-0.07829093933105469,0.007354438304901123,0.01161012053489685
1772810463282533400,8.638533447265624,-0.05703258514404297,-0.009265244007110596,-0.0051304250955581665
1772810463302292700,8.658292724609375,-0.09955406188964844,-0.021169133484363556,0.00699981302022934
1772810463322052400,8.67805224609375,-0.10644340515136719,-0.009353213012218475,0.0024242103099823
1772810463341811700,8.697811767578125,-0.08548259735107422,-0.00930575281381607,-0.009517095983028412
1772810463361571000,8.717571044921876,-0.06632041931152344,-0.0020403340458869934,-0.007037028670310974
1772810463381330700,8.73733056640625,-0.09237003326416016,0.007392480969429016,0.0026052817702293396
1772810463401090000,8.757090087890624,-0.0806894302368164,-0.004753440618515015,-0.004866398870944977
1772810463420849700,8.776849609375,-0.0758962631225586,-0.014430947601795197,-0.002255067229270935
1772810463440609000,8.796609130859375,-0.07589912414550781,-0.004711754620075226,0.005440138280391693
1772810463460368400,8.816368408203125,-0.10404300689697266,-0.016675405204296112,0.019469797611236572
1772810463480128000,8.8361279296875,-0.08068466186523438,-0.0023251697421073914,-0.007106408476829529
1772810463499887600,8.8558876953125,-0.054633140563964844,-0.011908940970897675,0.004928313195705414
1772810463519648000,8.87564794921875,-0.05462932586669922,0.0023279041051864624,-0.012157022953033447
1772810463539408400,8.895408447265625,-0.08786582946777344,0.004838958382606506,0.002019248902797699
1772810463559168800,8.915168701171876,-0.06870174407958984,-0.007251963019371033,-0.00030869990587234497
1772810463578929000,8.934928955078124,-0.059418678283691406,0.009518608450889587,-0.0050726234912872314
1772810463598689300,8.954689208984375,-0.0854654312133789,0.0021953731775283813,0.011425420641899109
1772810463618449700,8.97444970703125,-0.07828044891357422,0.0070451125502586365,-0.012536115944385529
1772810463638210000,8.9942099609375,-0.06390571594238281,-0.00027129054069519043,-0.01547820121049881
1772810463657970200,9.01397021484375,-0.08516693115234375,-0.00030059367418289185,0.008524000644683838
1772810463677730600,9.03373046875,-0.06630134582519531,-0.014768853783607483,0.003687754273414612
1772810463697491000,9.053490966796875,-0.07588672637939453,-0.00998329371213913,-0.01755523681640625
1772810463717251300,9.073251220703124,-0.07827949523925781,0.018595509231090546,0.010870702564716339
1772810463737011500,9.093011474609375,-0.0992422103881836,-0.01473921537399292,-0.015169486403465271
1772810463756771800,9.112771728515625,-0.08995914459228516,-0.0027812644839286804,-0.0008842721581459045
1772810463776532200,9.1325322265625,-0.08277606964111328,0.006512247025966644,-0.010273687541484833
1772810463796292600,9.152292724609374,-0.06630611419677734,-0.014685899019241333,-0.012676618993282318
1772810463816053000,9.172052978515625,-0.08038043975830078,-0.010146558284759521,0.011214770376682281
1772810463835813000,9.191813232421875,-0.08546924591064453,-0.009697742760181427,-0.005679287016391754
1772810463855573500,9.211573486328126,-0.08067989349365234,0.006624825298786163,-0.007937870919704437
1772810463875334000,9.231333984375,-0.08038043975830078,-0.004964478313922882,0.008823223412036896
1772810463895094300,9.25109423828125,-0.07589054107666016,0.006824791431427002,-0.005470268428325653
1772810463914854400,9.2708544921875,-0.06151771545410156,0.002353489398956299,-0.0031047165393829346
1772810463934614800,9.29061474609375,-0.0851736068725586,0.01117781549692154,-0.017317213118076324
1772810463954375200,9.310375244140625,-0.0827789306640625,-0.002658739686012268,0.016143448650836945
1772810463974135600,9.330135498046875,-0.085174560546875,-0.01656658947467804,-0.005541443824768066
1772810463993895700,9.349895751953126,-0.047141075134277344,0.008981086313724518,-0.0009905248880386353
1772810464013655800,9.36965576171875,-0.0920553207397461,-0.005159318447113037,0.00843050330877304
1772810464033416000,9.389416015625,-0.08756160736083984,-0.012147173285484314,0.013800941407680511
1772810464053176000,9.409176025390625,-0.08067703247070312,-0.012093819677829742,-0.00045277178287506104
1772810464072936200,9.428936279296876,-0.06899738311767578,-0.005078539252281189,-0.0004874095320701599
1772810464092696300,9.4486962890625,-0.08067893981933594,-0.0001085624098777771,-0.002706587314605713
1772810464112456700,9.468456787109375,-0.07828044891357422,0.011656105518341064,-0.012448646128177643
1772810464132216600,9.488216552734375,-0.0902557373046875,0.001990370452404022,-0.0006104111671447754
1772810464151977000,9.50797705078125,-0.09504222869873047,0.011412538588047028,0.01592712104320526
1772810464171737000,9.527737060546874,-0.07827472686767578,0.004241384565830231,-0.005553260445594788
1772810464191497200,9.547497314453125,-0.08546638488769531,-0.016745470464229584,0.011458612978458405
1772810464211257300,9.56725732421875,-0.07588672637939453,-0.00721711665391922,-0.007669970393180847
1772810464231017500,9.587017578125,-0.08067798614501953,-0.007183633744716644,-0.006884559988975525
1772810464250777600,9.606777587890624,-0.07588863372802734,-0.002313874661922455,-0.0020145773887634277
1772810464270537700,9.626537841796875,-0.08546924591064453,-0.011594787240028381,-0.006820447742938995
1772810464290297900,9.6462978515625,-0.09505271911621094,0.012000598013401031,0.0005414411425590515
1772810464310058000,9.66605810546875,-0.08786487579345703,0.0075151920318603516,0.00040546804666519165
1772810464329818000,9.685818115234374,-0.07588863372802734,0.002791665494441986,0.005256861448287964
1772810464349578200,9.705578125,-0.07828235626220703,-0.0017647743225097656,0.007345408201217651
1772810464369338400,9.72533837890625,-0.10702896118164062,0.007768906652927399,-0.0069382041692733765
1772810464389098500,9.745098388671876,-0.07378864288330078,-0.006614819169044495,0.004789963364601135
1772810464408858600,9.764858642578124,-0.08067607879638672,-0.0019497200846672058,0.0072395652532577515
1772810464428618800,9.78461865234375,-0.0642080307006836,0.009831756353378296,0.009137734770774841
1772810464448379000,9.80437890625,-0.09235572814941406,0.00002545863389968872,-0.00829162448644638
1772810464468139000,9.824138916015626,-0.06390857696533203,-0.0001023411750793457,0.003695949912071228
1772810464487899100,9.843899169921874,-0.06391048431396484,-0.004805818200111389,0.0038110166788101196
1772810464507659500,9.863659423828125,-0.09475135803222656,-0.009497009217739105,0.015717439353466034
1772810464527420000,9.883419921875,-0.09474849700927734,0.0024466440081596375,-0.001285739243030548
1772810464547180300,9.90318017578125,-0.08516693115234375,0.0115804523229599,0.003413386642932892
1772810464566940700,9.922940673828125,-0.0920562744140625,0.004459746181964874,-0.003589816391468048
1772810464586701000,9.942701171875,-0.08277511596679688,-0.009516432881355286,0.0011685416102409363
1772810464606461400,9.96246142578125,-0.08516693115234375,-0.00010623037815093994,0.007994018495082855
1772810464626221800,9.982221923828124,-0.08516693115234375,-0.0020187944173812866,0.005203515291213989
1772810464645982200,10.001982177734375,-0.08307552337646484,-0.008963637053966522,-0.0013492777943611145
1772810464665742800,10.021742919921875,-0.07828712463378906,-0.00632331520318985,-0.0012213513255119324
1772810464685503200,10.041503173828126,-0.0803842544555664,-0.006335444748401642,-0.0010946020483970642
1772810464705263600,10.061263671875,-0.06391716003417969,0.015158429741859436,-0.0033057332038879395
1772810464725024000,10.08102392578125,-0.07110595703125,-0.013375192880630493,-0.0007324665784835815
1772810464744784400,10.100784423828125,-0.08997154235839844,0.00839313119649887,-0.003151148557662964
1772810464764544800,10.120544677734374,-0.075897216796875,-0.020433135330677032,0.013552896678447723
1772810464784305200,10.14030517578125,-0.0878753662109375,0.0034316256642341614,-0.005472272634506226
1772810464804065500,10.1600654296875,-0.09236431121826172,0.005783893167972565,-0.005695164203643799
1772810464823826000,10.179825927734376,-0.08757495880126953,-0.02038777619600296,0.006636850535869598
1772810464843586300,10.19958642578125,-0.09506034851074219,-0.00836479663848877,0.01893724501132965
1772810464863346700,10.2193466796875,-0.07829093933105469,0.0010838210582733154,0.004367440938949585
1772810464883107300,10.239107421875,-0.09954452514648438,-0.013335362076759338,0.003964722156524658
1772810464902867700,10.25886767578125,-0.07588863372802734,-0.023146718740463257,-0.012801028788089752
1772810464922628000,10.278628173828125,-0.08308124542236328,-0.01096317172050476,-0.0028813928365707397
1772810464942388500,10.298388427734375,-0.08787155151367188,-0.008471734821796417,0.011431939899921417
1772810464962148900,10.31814892578125,-0.06392097473144531,0.005859300494194031,-0.0025007501244544983
1772810464981909200,10.3379091796875,-0.08548450469970703,-0.001506216824054718,0.007598839700222015
1772810465001669000,10.357669189453125,-0.09955883026123047,-0.0015815645456314087,0.0005341991782188416
1772810465021428200,10.37742822265625,-0.07830047607421875,0.0031235963106155396,-0.009097956120967865
1772810465041187300,10.397187255859375,-0.07111358642578125,0.003190435469150543,0.0024403557181358337
1772810465060946400,10.416946533203125,-0.06392669677734375,0.005492798984050751,-0.00227200984954834
1772810465080705500,10.43670556640625,-0.08309173583984375,-0.006493948400020599,-0.009415321052074432
1772810465100465000,10.45646484375,-0.06632518768310547,-0.002181634306907654,0.0005491897463798523
1772810465120224000,10.47622412109375,-0.08279228210449219,0.004562512040138245,0.009920209646224976
1772810465139983000,10.495983154296875,-0.06602287292480469,0.009405732154846191,0.0026446282863616943
1772810465159742200,10.5157421875,-0.08279132843017578,-0.0022841542959213257,-0.009545877575874329
1772810465179501300,10.535501220703125,-0.07350826263427734,0.004862658679485321,-0.019161760807037354
1772810465199260400,10.555260498046875,-0.08279228210449219,-0.002345241606235504,-0.012470521032810211
1772810465219019800,10.575019775390626,-0.0944681167602539,-0.0022107288241386414,0.0018134266138076782
1772810465238779000,10.59477880859375,-0.07829952239990234,-0.004023894667625427,0.0005312412977218628
1772810465258538000,10.6145380859375,-0.08308792114257812,0.012479282915592194,0.010004356503486633
1772810465278297000,10.634297119140625,-0.08069133758544922,0.007794775068759918,-0.009269535541534424
1772810465298056200,10.65405615234375,-0.07590007781982422,0.0006299391388893127,0.007500968873500824
1772810465317815300,10.673815185546875,-0.06152629852294922,-0.00895623117685318,-0.011715345084667206
1772810465337574400,10.693574462890625,-0.0878763198852539,-0.00413176417350769,-0.0045995041728019714
1772810465357333500,10.71333349609375,-0.0854787826538086,0.010342597961425781,-0.0024359524250030518
1772810465377092600,10.733092529296876,-0.0854787826538086,0.005510047078132629,-0.014459401369094849
1772810465396852000,10.75285205078125,-0.12081432342529297,-0.022751130163669586,-0.007080651819705963
1772810465416611000,10.772611083984375,-0.030989646911621094,-0.004724875092506409,-0.0011824369430541992
1772810465436370200,10.7923701171875,-0.10405921936035156,0.013960644602775574,0.006390303373336792
1772810465456129300,10.81212939453125,-0.0522613525390625,-0.009840525686740875,-0.0004643872380256653
1772810465475888400,10.831888427734375,-0.05944538116455078,0.0028772875666618347,-0.006045050919055939
1772810465495647700,10.851647705078125,-0.09447288513183594,0.0031467750668525696,-0.0019488409161567688
