time,seconds_elapsed,z,y,x
1772810821953972000,0.304971923828125,-0.06889533996582031,0.03769173100590706,0.006889788433909416
1772810821973735200,0.324735107421875,-0.06889533996582031,0.011944454163312912,0.006912061013281345
1772810821993498600,0.34449853515625,-0.06410503387451172,-0.014552237465977669,0.03154066577553749
1772810822013262800,0.364262939453125,-0.035658836364746094,0.025794584304094315,0.03396005183458328
1772810822033027300,0.38402734375,-0.06410503387451172,0.018479691818356514,-0.0000990862026810646
1772810822052791800,0.403791748046875,-0.07608413696289062,0.0018828455358743668,0.009806585498154163
1772810822072556000,0.42355615234375,-0.08297157287597656,0.013432331383228302,0.028890781104564667
1772810822092320500,0.443320556640625,-0.07129383087158203,0.010505495592951775,-0.016794400289654732
1772810822112085000,0.4630849609375,-0.05931568145751953,-0.0011867526918649673,-0.0071877529844641685
1772810822131849200,0.48284912109375,-0.06889724731445312,-0.003358956426382065,0.0360557995736599
1772810822151613700,0.50261376953125,-0.07368850708007812,-0.001132650300860405,-0.004591079428792
1772810822171378200,0.522378173828125,-0.07578468322753906,0.010922517627477646,-0.009201213717460632
1772810822191142400,0.542142333984375,-0.08057594299316406,-0.01036081649363041,0.012330574914813042
1772810822210907000,0.561906982421875,-0.07578468322753906,0.008581405505537987,0.014801086857914925
1772810822230671400,0.58167138671875,-0.05482292175292969,0.02308216318488121,-0.016519777476787567
1772810822250435600,0.601435546875,-0.07368850708007812,0.0038932953029870987,0.009905832819640636
1772810822270200000,0.621199951171875,-0.07338905334472656,-0.012546906247735023,0.015071303583681583
1772810822289964300,0.64096435546875,-0.07129287719726562,0.021262377500534058,0.0010252827778458595
1772810822309728800,0.660728759765625,-0.07129192352294922,0.009311221539974213,0.006286958232522011
1772810822329493200,0.6804931640625,-0.054823875427246094,-0.012167198583483696,0.023130575194954872
1772810822349257500,0.700257568359375,-0.08566474914550781,0.009211905300617218,-0.003345973789691925
1772810822369022000,0.72002197265625,-0.06410598754882812,0.025893807411193848,-0.013001330196857452
1772810822388786400,0.739786376953125,-0.06200981140136719,0.021204359829425812,-0.006095742806792259
1772810822408550700,0.759550537109375,-0.07129192352294922,-0.00005378015339374542,0.02017499879002571
1772810822428315100,0.779315185546875,-0.06680011749267578,0.021358750760555267,0.010515403002500534
1772810822448079600,0.79907958984375,-0.05991363525390625,-0.026048259809613228,0.0034591834992170334
1772810822467843800,0.81884375,-0.07368755340576172,0.009832009673118591,0.025040850043296814
1772810822487608300,0.8386083984375,-0.07638263702392578,0.019411666318774223,0.001815812662243843
1772810822507371300,0.858371337890625,-0.06889724731445312,0.0001979134976863861,-0.007840186357498169
1772810822527134000,0.878134033203125,-0.062308311462402344,0.0002512577921152115,0.013330218382179737
1772810822546896600,0.897896728515625,-0.07877826690673828,0.0002529080957174301,-0.0008600736036896706
1772810822566659600,0.91765966796875,-0.05751800537109375,0.01217745617032051,-0.015201620757579803
1772810822586422000,0.937422119140625,-0.07159137725830078,0.014674175530672073,-0.0007497910410165787
1772810822606184700,0.957184814453125,-0.07159233093261719,0.004937976598739624,0.008960964158177376
1772810822625947600,0.97694775390625,-0.06710052490234375,0.004886902868747711,-0.000644659623503685
1772810822645710300,0.99671044921875,-0.07877922058105469,0.028783906251192093,0.01604354940354824
1772810822665473000,1.01647314453125,-0.07189178466796875,0.009670894593000412,-0.01211307942867279
1772810822685235700,1.036235595703125,-0.06710052490234375,0.012013522908091545,-0.007331114262342453
1772810822704998400,1.055998291015625,-0.06919670104980469,0.012063989415764809,-0.00714349839836359
1772810822724761000,1.075760986328125,-0.07638359069824219,-0.00704360194504261,0.0024679070338606834
1772810822744523800,1.095523681640625,-0.08836078643798828,-0.016721049323678017,0.0026004277169704437
1772810822764286500,1.115286376953125,-0.06919670104980469,0.0024440959095954895,0.007418535649776459
1772810822784049200,1.135049072265625,-0.06949615478515625,0.02415265329182148,-0.011762939393520355
1772810822803811800,1.154811767578125,-0.06440544128417969,0.0023885145783424377,0.005086234770715237
1772810822823574500,1.174574462890625,-0.0787801742553711,0.01920419931411743,-0.004412433132529259
1772810822843337200,1.194337158203125,-0.07638359069824219,0.01935476064682007,-0.016404714435338974
1772810822863100000,1.214099853515625,-0.0811758041381836,-0.0047509316354990005,0.0031283926218748093
1772810822882862600,1.233862548828125,-0.0691976547241211,0.002333749085664749,0.01932099647819996
1772810822902625300,1.253625244140625,-0.05751991271972656,-0.01682112365961075,0.002633851021528244
1772810822922388000,1.273387939453125,-0.06710147857666016,0.009527606889605522,0.00016463082283735275
1772810822942150700,1.293150634765625,-0.05272960662841797,0.009474575519561768,0.03127196431159973
1772810822961913300,1.312913330078125,-0.0715932846069336,-0.0026542693376541138,-0.012224717997014523
1772810822981676000,1.332676025390625,-0.066802978515625,0.025979507714509964,0.011702392250299454
1772810823001438000,1.35243798828125,-0.07159423828125,0.004368914291262627,-0.014612180180847645
1772810823021198800,1.37219873046875,-0.066802978515625,-0.012237049639225006,-0.0026039276272058487
1772810823040960000,1.3919599609375,-0.0644063949584961,0.009372258558869362,0.014085487462580204
1772810823060721000,1.411720947265625,-0.06201171875,0.0022388212382793427,-0.0004118550568819046
1772810823080481800,1.431481689453125,-0.0739889144897461,-0.004994498565793037,0.004046285524964333
1772810823100243000,1.451242919921875,-0.08836078643798828,0.01895405538380146,0.02791520394384861
1772810823120003800,1.47100390625,-0.0787801742553711,0.006820956245064735,-0.005588947795331478
1772810823139765000,1.490764892578125,-0.07189369201660156,-0.0028604939579963684,-0.001025564968585968
1772810823159526000,1.51052587890625,-0.06710052490234375,-0.002702046185731888,0.02305111661553383
1772810823179287000,1.530287109375,-0.07848167419433594,-0.009984441101551056,-0.007694821804761887
1772810823199048000,1.5500478515625,-0.05752086639404297,0.004285313189029694,-0.005215230397880077
1772810823218808800,1.569808837890625,-0.08327198028564453,0.025937411934137344,0.016366492956876755
1772810823238570000,1.589570068359375,-0.06231212615966797,-0.024559229612350464,0.011496537365019321
1772810823258331000,1.609330810546875,-0.076385498046875,0.016157761216163635,0.004285814240574837
1772810823278091800,1.629091796875,-0.085968017578125,0.011662343516945839,0.00002019573003053665
1772810823297853000,1.64885302734375,-0.07428932189941406,0.004826867952942848,-0.00010440219193696976
1772810823317613800,1.66861376953125,-0.055126190185546875,0.007220961153507233,0.024074409157037735
1772810823337374700,1.688374755859375,-0.05512523651123047,0.02642410807311535,-0.012027742341160774
1772810823357136000,1.708135986328125,-0.07189369201660156,-0.00471208430826664,-0.01932832971215248
1772810823376896800,1.727896728515625,-0.06710243225097656,0.002320287749171257,0.014776507392525673
1772810823396658000,1.747657958984375,-0.08626651763916016,0.019080083817243576,-0.00695524737238884
1772810823416418800,1.767418701171875,-0.07668495178222656,-0.005024416372179985,-0.014104009605944157
1772810823436179700,1.7871796875,-0.06470775604248047,-0.005070436745882034,0.012218269519507885
1772810823455940900,1.80694091796875,-0.06949806213378906,0.01908193714916706,-0.018778130412101746
1772810823475701800,1.82670166015625,-0.06231117248535156,-0.005218455567955971,-0.0054769814014434814
1772810823495463000,1.846462890625,-0.07129478454589844,-0.0009717214852571487,-0.0016049016267061234
1772810823515224600,1.866224609375,-0.07848167419433594,-0.006107611581683159,-0.001574074849486351
1772810823534986200,1.885986328125,-0.07129478454589844,-0.008521130308508873,-0.00887974537909031
1772810823554748000,1.905747802734375,-0.07129478454589844,0.013212744146585464,0.005777164362370968
1772810823574509800,1.925509765625,-0.09285354614257812,-0.0034734755754470825,-0.006568428128957748
1772810823594271500,1.945271484375,-0.06410884857177734,0.01076561026275158,0.00971708633005619
1772810823614033200,1.965033203125,-0.09734535217285156,0.010838329792022705,0.009688965044915676
1772810823633794800,1.984794921875,-0.06650352478027344,-0.0013683270663022995,0.0024787290021777153
1772810823653556500,2.004556396484375,-0.07608509063720703,0.015675755217671394,0.007449319586157799
1772810823673318400,2.024318359375,-0.07608604431152344,0.013431107625365257,-0.01306922361254692
1772810823693080000,2.044080078125,-0.0835714340209961,0.011381343007087708,0.014303024858236313
1772810823712841700,2.063841796875,-0.06470680236816406,0.009735334664583206,0.009587107226252556
1772810823732603400,2.083603271484375,-0.05751991271972656,0.009833937510848045,-0.006940086372196674
1772810823752365000,2.103364990234375,-0.0883626937866211,0.0024417396634817123,-0.004769334569573402
1772810823772127000,2.123126953125,-0.050334930419921875,0.0166555717587471,0.005331302061676979
1772810823791888600,2.142888671875,-0.08147621154785156,0.01665729470551014,0.00046240631490945816
1772810823811650300,2.162650390625,-0.06740188598632812,0.009529313072562218,0.0005393074825406075
1772810823831412000,2.182411865234375,-0.05303001403808594,-0.00019384361803531647,-0.001933128573000431
1772810823851173600,2.202173583984375,-0.06949901580810547,-0.002728646621108055,-0.004300628788769245
1772810823870935600,2.221935546875,-0.06231212615966797,-0.0030638016760349274,0.009532935917377472
1772810823890697200,2.241697265625,-0.0787820816040039,0.015750838443636894,-0.0028180424124002457
1772810823910459000,2.261458984375,-0.05752086639404297,-0.00309714674949646,-0.005181989632546902
1772810823930220500,2.281220458984375,-0.055126190185546875,0.004099821671843529,0.014152447693049908
1772810823949982200,2.300982177734375,-0.04584503173828125,0.018121324479579926,-0.00003839004784822464
1772810823969744000,2.320743896484375,-0.09525108337402344,-0.005918024107813835,-0.007295082323253155
1772810823989505800,2.340505859375,-0.07638740539550781,-0.005496842786669731,-0.01433921791613102
1772810824009267700,2.360267822265625,-0.0859689712524414,0.020345088094472885,-0.019087310880422592
1772810824029029600,2.380029541015625,-0.0883646011352539,-0.006037820130586624,0.012019842863082886
1772810824048791600,2.39979150390625,-0.05752277374267578,-0.014942934736609459,-0.0025298474356532097
1772810824068553700,2.4195537109375,-0.08117866516113281,0.01799408718943596,-0.004738986492156982
1772810824088315600,2.439315673828125,-0.05991840362548828,0.013154521584510803,0.007156648673117161
1772810824108077600,2.45907763671875,-0.05991840362548828,0.008473590016365051,0.007280902937054634
1772810824127839700,2.47883984375,-0.05991935729980469,0.0177446398884058,-0.004510544240474701
1772810824147601700,2.4986015625,-0.08597087860107422,0.0057763755321502686,-0.009162917733192444
1772810824167363600,2.518363525390625,-0.09285640716552734,0.010623835027217865,0.007471614517271519
1772810824187125800,2.538125732421875,-0.06950092315673828,0.0011995043605566025,-0.002287265844643116
1772810824206887700,2.5578876953125,-0.09525203704833984,0.010590052232146263,0.01236037164926529
1772810824226649600,2.577649658203125,-0.08806610107421875,0.020116489380598068,0.007486673071980476
1772810824246411800,2.597411865234375,-0.08357429504394531,0.015480617061257362,0.004958951845765114
1772810824266173700,2.617173583984375,-0.07189559936523438,-0.0010765716433525085,0.012007083743810654
1772810824285935600,2.636935546875,-0.036263465881347656,0.025017306208610535,-0.014539884403347969
1772810824305697800,2.65669775390625,-0.09046173095703125,0.010597025975584984,0.002305135130882263
1772810824325459700,2.676459716796875,-0.07878494262695312,-0.001571493223309517,-0.004798319190740585
1772810824345221600,2.6962216796875,-0.06470966339111328,0.01041020080447197,0.007405978627502918
1772810824364983800,2.71598388671875,-0.06710529327392578,0.005576394498348236,0.01185163576155901
1772810824384745700,2.735745849609375,-0.08088016510009766,0.003088776022195816,0.011713109910488129
1772810824404507600,2.755507568359375,-0.0647115707397461,0.015014316886663437,-0.007468010298907757
1772810824424269800,2.775269775390625,-0.08806705474853516,0.0029451269656419754,0.009061631746590137
1772810824444031700,2.79503173828125,-0.07159900665283203,0.0076910462230443954,-0.002731015905737877
1772810824463793700,2.814793701171875,-0.06920337677001953,-0.006970860064029694,0.011606304906308651
1772810824483555800,2.834555908203125,-0.0647115707397461,0.01034853421151638,0.017212793231010437
1772810824503318000,2.854318115234375,-0.0814809799194336,-0.0040062181651592255,0.01477863173931837
1772810824523080700,2.874080810546875,-0.062317848205566406,0.024677462875843048,0.00800432451069355
1772810824542843100,2.893843017578125,-0.0647134780883789,0.0030261073261499405,-0.013255729340016842
1772810824562605800,2.913605712890625,-0.067108154296875,0.019788768142461777,0.008323196321725845
1772810824582368300,2.9333681640625,-0.0814809799194336,0.007972413673996925,0.003556465730071068
1772810824602131000,2.953130859375,-0.09076309204101562,0.003192346543073654,-0.013170869089663029
1772810824621893600,2.9728935546875,-0.053035736083984375,0.007885968312621117,0.00596266146749258
1772810824641656000,2.992656005859375,-0.0695037841796875,0.0054474808275699615,0.0010952381417155266
1772810824661418800,3.012418701171875,-0.08866691589355469,0.00790039636194706,0.001069800928235054
1772810824681181200,3.03218115234375,-0.0599212646484375,0.012248333543539047,0.010120554827153683
1772810824700944000,3.05194384765625,-0.0742940902709961,0.0027807187288999557,0.01981196179986
1772810824720706600,3.07170654296875,-0.08357810974121094,0.004978690296411514,0.010247137397527695
1772810824740469000,3.091468994140625,-0.09076309204101562,0.012217830866575241,0.019783800467848778
1772810824760231700,3.111231689453125,-0.055130958557128906,0.021738728508353233,0.015210169367492199
1772810824779994000,3.130994140625,-0.09046363830566406,0.0028441734611988068,0.007733271457254887
1772810824799756800,3.1507568359375,-0.0718984603881836,-0.01170840673148632,0.007906824350357056
1772810824819519500,3.17051953125,-0.059922218322753906,-0.004709241911768913,0.0007988233119249344
1772810824839282000,3.190281982421875,-0.08327770233154297,0.0000956803560256958,0.02215440198779106
1772810824859044600,3.210044677734375,-0.05063915252685547,0.009783856570720673,0.007490493357181549
1772810824878807000,3.22980712890625,-0.08597278594970703,-0.0016301143914461136,-0.006795259192585945
1772810824898569700,3.24956982421875,-0.059922218322753906,0.005461137741804123,0.002553648315370083
1772810824918332400,3.26933251953125,-0.0838766098022461,0.003127889707684517,-0.0024652285501360893
1772810824938094800,3.2890947265625,-0.0671072006225586,0.0007456429302692413,0.009322591125965118
1772810824957857500,3.308857421875,-0.08387470245361328,0.017611218616366386,0.0050488850101828575
1772810824977620000,3.328619873046875,-0.059920310974121094,0.007982553914189339,0.007359893061220646
1772810824997382400,3.34838232421875,-0.0647125244140625,0.005439881235361099,-0.009525076486170292
1772810825017144600,3.36814453125,-0.08836746215820312,-0.0018852390348911285,0.00944813247770071
1772810825036906500,3.387906494140625,-0.08627033233642578,0.01269327662885189,-0.0028603607788681984
1772810825056668400,3.40766845703125,-0.0790853500366211,-0.0017150528728961945,0.009185361675918102
1772810825076430600,3.4274306640625,-0.08118057250976562,0.007727498188614845,0.004169659689068794
1772810825096192500,3.447192626953125,-0.08567142486572266,-0.006870947778224945,0.0037484057247638702
1772810825115954400,3.466954345703125,-0.07399368286132812,0.0027734972536563873,-0.010883186012506485
1772810825135716600,3.486716552734375,-0.07878494262695312,0.007517863065004349,0.005802144296467304
1772810825155478500,3.506478515625,-0.05991935729980469,0.005181679502129555,-0.006398691795766354
1772810825175240400,3.526240478515625,-0.07878398895263672,0.010026302188634872,0.0198520515114069
1772810825195002600,3.546002685546875,-0.08327579498291016,0.0004581790417432785,-0.004121597856283188
1772810825214764500,3.5657646484375,-0.07159709930419922,-0.006602773442864418,0.015051302500069141
1772810825234526700,3.585526611328125,-0.057224273681640625,-0.011623501777648926,0.003097366541624069
1772810825254288600,3.60528857421875,-0.09285831451416016,0.0048433151096105576,-0.0016123093664646149
1772810825274050600,3.625050537109375,-0.0647125244140625,-0.007018251344561577,-0.001283573918044567
1772810825293812700,3.644812744140625,-0.06710624694824219,0.019775809720158577,0.00825381651520729
1772810825313574700,3.66457470703125,-0.07429313659667969,0.019661709666252136,-0.0016088541597127914
1772810825333336600,3.684336669921875,-0.07429313659667969,0.000562785193324089,-0.008602457121014595
1772810825353098800,3.7040986328125,-0.06231498718261719,0.0031749624758958817,-0.006326168775558472
1772810825372860700,3.723860595703125,-0.07908344268798828,-0.01829526759684086,0.0032272152602672577
1772810825392622600,3.74362255859375,-0.07908344268798828,0.000881582498550415,-0.0035864561796188354
1772810825412384800,3.763384765625,-0.06231403350830078,0.015248918905854225,0.0011272672563791275
1772810825432146700,3.783146728515625,-0.06949996948242188,0.003332722932100296,0.0035449638962745667
1772810825451908600,3.80290869140625,-0.07189655303955078,-0.013455690816044807,-0.003815913572907448
1772810825471670800,3.8226708984375,-0.07399272918701172,0.005312534049153328,0.005187234841287136
1772810825491432700,3.8424326171875,-0.06890106201171875,-0.00454932264983654,0.00918564759194851
1772810825511196000,3.86219580078125,-0.06680488586425781,0.014361521229147911,-0.012733944691717625
1772810825530959400,3.88195947265625,-0.07608795166015625,0.019346898421645164,-0.0036796489730477333
1772810825550722600,3.90172265625,-0.07129669189453125,0.009265784174203873,-0.0013980744406580925
1772810825570485800,3.92148583984375,-0.04314994812011719,-0.0003945492208003998,0.001203605905175209
1772810825590249200,3.941249267578125,-0.05722522735595703,-0.007849359884858131,-0.008262562565505505
1772810825610012400,3.961012451171875,-0.07848453521728516,-0.007685279473662376,-0.0012794695794582367
1772810825629775600,3.980775634765625,-0.08567047119140625,0.0018411148339509964,-0.003668895922601223
1772810825649539000,4.0005390625,-0.08088016510009766,-0.0076285116374492645,0.0008225254714488983
1772810825669302300,4.02030224609375,-0.08327579498291016,-0.0071309152990579605,0.00416337326169014
1772810825689065700,4.040065673828125,-0.06740474700927734,-0.008994022384285927,-0.00411080289632082
1772810825708829000,4.059828857421875,-0.07908439636230469,-0.0021414831280708313,0.0029696132987737656
1772810825728592100,4.079592041015625,-0.08627128601074219,-0.01646711677312851,-0.006499244831502438
1772810825748355300,4.099355224609375,-0.07189750671386719,0.00745009258389473,-0.0036019841209053993
1772810825768118800,4.119118896484375,-0.07189655303955078,-0.006435032933950424,-0.015556481666862965
1772810825787882000,4.138882080078125,-0.08387470245361328,0.0010220743715763092,-0.015430704690515995
1772810825807645400,4.1586455078125,-0.07908439636230469,0.0010451246052980423,0.006482171826064587
1772810825827408600,4.17840869140625,-0.08866596221923828,0.0010163895785808563,0.0017411625012755394
1772810825847171800,4.198171875,-0.06501007080078125,0.000987708568572998,-0.002291719429194927
1772810825866935300,4.217935302734375,-0.08866500854492188,-0.015630751848220825,-0.00005063973367214203
1772810825886698500,4.237698486328125,-0.07429313659667969,0.009583882987499237,-0.0016375947743654251
1772810825906462000,4.2574619140625,-0.07429313659667969,-0.002221379429101944,0.002995048649609089
1772810825926225200,4.27722509765625,-0.07878494262695312,0.004786211997270584,0.0030944310128688812
1772810825945988400,4.29698828125,-0.07429218292236328,-0.004661247134208679,-0.0040849847719073296
1772810825965751800,4.316751708984375,-0.062315940856933594,0.004834655672311783,-0.006470125168561935
1772810825985515000,4.336514892578125,-0.07159709930419922,0.014471707865595818,0.015172142535448074
1772810826005277200,4.356277099609375,-0.08117961883544922,0.0002775229513645172,0.008180727250874043
1772810826025038600,4.37603857421875,-0.09045982360839844,0.01017877645790577,-0.001603870652616024
1772810826044800300,4.39580029296875,-0.09764766693115234,-0.006658218801021576,-0.0020433375611901283
1772810826064562000,4.41556201171875,-0.07189559936523438,-0.009067151695489883,-0.002193310298025608
1772810826084323300,4.4353232421875,-0.0835733413696289,0.0006416905671358109,0.0009043682366609573
1772810826104085000,4.4550849609375,-0.05991840362548828,-0.006562313064932823,0.008182593621313572
1772810826123846400,4.474846435546875,-0.08357429504394531,0.003039700910449028,-0.003942085430026054
1772810826143608000,4.494608154296875,-0.07878303527832031,0.017462028190493584,0.005528800189495087
1772810826163369700,4.51436962890625,-0.08117866516113281,0.010129546746611595,-0.011118766851723194
1772810826183131100,4.534131103515625,-0.05991840362548828,0.007901031523942947,-0.0018435362726449966
1772810826202892800,4.553892822265625,-0.07159614562988281,0.005572982132434845,0.005438614636659622
1772810826222654200,4.573654296875,-0.07908153533935547,-0.008761921897530556,0.0008024265989661217
1772810826242415900,4.593415771484375,-0.0787820816040039,-0.006229205057024956,-0.008765074424445629
1772810826262177500,4.613177490234375,-0.07878303527832031,-0.008793087676167488,0.0010228129103779793
1772810826281939000,4.63293896484375,-0.07878303527832031,-0.013538768514990807,-0.006906148046255112
1772810826301700600,4.65270068359375,-0.08327388763427734,0.0009089633822441101,-0.018852468580007553
1772810826321462300,4.672462158203125,-0.06920051574707031,-0.004160678014159203,0.0025493018329143524
1772810826341223700,4.6922236328125,-0.07848358154296875,0.010168883949518204,-0.004526061937212944
1772810826360985300,4.7119853515625,-0.09525203704833984,-0.00687389075756073,0.007285832427442074
1772810826380746800,4.731746826171875,-0.08088016510009766,0.00023364461958408356,-0.00691946130245924
1772810826400508400,4.75150830078125,-0.08357429504394531,-0.009463485330343246,-0.006752525456249714
1772810826420270000,4.77127001953125,-0.06471061706542969,0.007421020418405533,0.0051153842359781265
1772810826440031500,4.791031494140625,-0.08088016510009766,0.00010368973016738892,-0.0020674215629696846
1772810826459793200,4.810793212890625,-0.08806705474853516,-0.000026654452085494995,0.007348828017711639
1772810826479554800,4.830554931640625,-0.08357524871826172,0.00010092183947563171,-0.009197157807648182
1772810826499317000,4.85031689453125,-0.08357429504394531,0.0001252591609954834,-0.006944350898265839
1772810826519079000,4.870078857421875,-0.06680583953857422,0.0024895109236240387,-0.006828843615949154
1772810826538840800,4.8898408203125,-0.06231498718261719,0.007086949422955513,-0.011548087932169437
1772810826558602800,4.909602783203125,-0.06920242309570312,-0.004703449085354805,0.005264344625174999
1772810826578364700,4.92936474609375,-0.08357620239257812,-0.002228284254670143,-0.004258099012076855
1772810826598126800,4.949126953125,-0.09046173095703125,0.005026021972298622,0.0003782743588089943
1772810826617888800,4.968888671875,-0.08327579498291016,-0.006967123597860336,0.0002238936722278595
1772810826637650700,4.988650634765625,-0.07189655303955078,-0.0024059507995843887,0.0023580482229590416
1772810826657412600,5.00841259765625,-0.08567237854003906,0.014363059774041176,-0.00949929840862751
1772810826677174500,5.028174560546875,-0.08117961883544922,-0.01184004731476307,0.0004332279786467552
1772810826696936700,5.047936767578125,-0.047942161560058594,0.014407208189368248,0.0008352827280759811
1772810826716698600,5.06769873046875,-0.07878398895263672,0.007284590974450111,0.000989397056400776
1772810826736460500,5.08746044921875,-0.07189655303955078,-0.004011079668998718,0.005874864757061005
1772810826756222500,5.107222412109375,-0.0647115707397461,-0.002093622460961342,0.00128939189016819
1772810826775984400,5.126984375,-0.07639026641845703,0.028620963916182518,0.0011850204318761826
1772810826795746600,5.14674658203125,-0.08597278594970703,0.007672082632780075,0.00846142042428255
1772810826815508500,5.166508544921875,-0.0599212646484375,-0.0020368415862321854,0.0033046547323465347
1772810826835270400,5.1862705078125,-0.0599212646484375,0.0051651690155267715,-0.025293715298175812
1772810826855032300,5.2060322265625,-0.0742940902709961,-0.0020448118448257446,-0.010952490381896496
1772810826874794200,5.225794189453125,-0.07429313659667969,0.005115935578942299,0.00830113235861063
1772810826894556200,5.24555615234375,-0.05543041229248047,-0.0000015310943126678467,0.0013207029551267624
1772810826914318300,5.265318359375,-0.057525634765625,-0.016376547515392303,-0.01048267725855112
1772810826934080300,5.285080322265625,-0.08327674865722656,0.018845412880182266,-0.008123577572405338
1772810826953842200,5.30484228515625,-0.0718984603881836,0.006829073652625084,-0.008159940131008625
1772810826973604000,5.32460400390625,-0.0647125244140625,0.013809137046337128,0.003862617537379265
1772810826993366000,5.344365966796875,-0.076690673828125,-0.0029811616986989975,0.0013110190629959106
1772810827013128200,5.364128173828125,-0.08357715606689453,-0.0077858418226242065,0.003906749188899994
1772810827032890400,5.383890380859375,-0.0718994140625,-0.012375814840197563,-0.005716024897992611
1772810827052652500,5.403652587890625,-0.0742950439453125,0.009243413805961609,0.001572348177433014
1772810827072414700,5.423414794921875,-0.055130958557128906,-0.0023029278963804245,-0.017260819673538208
1772810827092177000,5.443177001953125,-0.0766897201538086,-0.009046407416462898,0.002302069216966629
1772810827111939000,5.46293896484375,-0.0718984603881836,0.007784482091665268,0.0020419182255864143
1772810827131701000,5.482700927734375,-0.06261634826660156,0.005300765857100487,-0.012256454676389694
1772810827151463700,5.502463623046875,-0.07159900665283203,0.0025224946439266205,-0.002813025377690792
1772810827171226600,5.5222265625,-0.10094356536865234,0.008449126034975052,-0.0006374400109052658
1772810827190989600,5.541989501953125,-0.07549285888671875,0.007407316938042641,0.006693522445857525
1772810827210752500,5.56175244140625,-0.08806896209716797,-0.0031458716839551926,0.014402561821043491
1772810827230515500,5.581515380859375,-0.07219982147216797,0.0051699671894311905,0.009775392711162567
1772810827250278400,5.6012783203125,-0.07758903503417969,-0.00041060522198677063,0.02184385061264038
1772810827270041600,5.62104150390625,-0.06890487670898438,-0.0012433230876922607,0.014516288414597511
1772810827289804500,5.640804443359375,-0.07639217376708984,0.0045038629323244095,0.0001499820500612259
1772810827309567500,5.6605673828125,-0.09166336059570312,0.024715743958950043,0.01202889159321785
1772810827329330400,5.680330322265625,-0.08986663818359375,0.009482761844992638,0.01943395286798477
1772810827349093400,5.70009326171875,-0.07639122009277344,0.025470245629549026,0.009531809948384762
1772810827368856300,5.719856201171875,-0.0695028305053711,0.016842277720570564,-0.008149199187755585
1772810827388619500,5.73961962890625,-0.0742950439453125,0.00010889768600463867,-0.007843339815735817
1772810827408382500,5.759382568359375,-0.0695028305053711,-0.02132437936961651,-0.0031167007982730865
1772810827428145400,5.7791455078125,-0.06022071838378906,0.0050513241440057755,-0.0031817909330129623
1772810827447908400,5.798908447265625,-0.0695028305053711,0.014692522585391998,-0.000855310820043087
1772810827467671300,5.81867138671875,-0.08836746215820312,0.005135789513587952,0.0040117790922522545
1772810827487434200,5.838434326171875,-0.0671072006225586,0.01721934601664543,-0.014936511404812336
1772810827507198500,5.858198486328125,-0.0718984603881836,0.012439845129847527,-0.002612598240375519
1772810827526962700,5.877962646484375,-0.076690673828125,-0.0019976049661636353,0.014265014789998531
1772810827546727200,5.89772705078125,-0.067108154296875,-0.0021136365830898285,-0.00963894184678793
1772810827566491400,5.917491455078125,-0.0742940902709961,0.005080940201878548,0.014385299757122993
1772810827586256000,5.937255859375,-0.062317848205566406,0.019263068214058876,0.000324225053191185
1772810827606020000,5.95702001953125,-0.06501197814941406,-0.0023599956184625626,0.012261726893484592
1772810827625784600,5.97678466796875,-0.0647134780883789,0.000019041821360588074,0.0002160239964723587
1772810827645548800,5.996548828125,-0.076690673828125,0.014451183378696442,0.002383517101407051
1772810827665313300,6.016313232421875,-0.0790863037109375,0.0003091767430305481,-0.0023162132129073143
1772810827685077800,6.036077880859375,-0.0718994140625,-0.0042424872517585754,-0.004358705133199692
1772810827704842000,6.055842041015625,-0.0671072006225586,-0.013505419716238976,0.012214521877467632
1772810827724606500,6.0756064453125,-0.0838766098022461,0.010361669585108757,0.011968767270445824
1772810827744370700,6.09537060546875,-0.06022071838378906,0.0007101930677890778,-0.00007679592818021774
1772810827764135200,6.11513525390625,-0.0742950439453125,0.007267186418175697,-0.00791547168046236
1772810827783899400,6.1348994140625,-0.06740760803222656,0.012018473818898201,0.01370402704924345
1772810827803664000,6.154663818359375,-0.0742950439453125,0.0120302215218544,-0.0030754022300243378
1772810827823428000,6.174427978515625,-0.08148193359375,0.009444944560527802,0.02794298157095909
1772810827843192600,6.194192626953125,-0.10274124145507812,-0.00035931356251239777,-0.005754546262323856
1772810827862957000,6.21395703125,-0.067108154296875,0.007106918841600418,-0.008253244683146477
1772810827882721300,6.23372119140625,-0.05303478240966797,0.007179964333772659,-0.01293149869889021
1772810827902485800,6.25348583984375,-0.0718994140625,0.011828005313873291,-0.010480750352144241
1772810827922250000,6.27325,-0.067108154296875,0.006903529167175293,-0.008138228207826614
1772810827942014500,6.293014404296875,-0.0790863037109375,-0.0002990253269672394,0.010935263708233833
1772810827961778700,6.31277880859375,-0.0718994140625,-0.004993323236703873,-0.0056836651638150215
1772810827981543200,6.332543212890625,-0.05572986602783203,0.0046662259846925735,0.008501309901475906
1772810828001306400,6.352306396484375,-0.076690673828125,0.009370530024170876,-0.00826751533895731
1772810828021068300,6.372068359375,-0.048244476318359375,0.009387021884322166,0.0010891184210777283
1772810828040830200,6.391830322265625,-0.0766897201538086,0.0045704226940870285,-0.008647511713206768
1772810828060592000,6.411592041015625,-0.09315776824951172,0.011769074946641922,0.0033589787781238556
1772810828080354000,6.43135400390625,-0.0742950439453125,0.009338555857539177,-0.00617555994540453
1772810828100116000,6.451115966796875,-0.0718994140625,0.004367632791399956,0.0010953890159726143
1772810828119878000,6.4708779296875,-0.0742950439453125,-0.0005078855901956558,-0.015637343749403954
1772810828139639800,6.490639892578125,-0.0718994140625,0.013992387801408768,0.015588909387588501
1772810828159401700,6.510401611328125,-0.06261634826660156,-0.0048338882625103,-0.015217146836221218
1772810828179163600,6.53016357421875,-0.06261539459228516,0.009468939155340195,0.015998244285583496
1772810828198925600,6.549925537109375,-0.06022167205810547,0.00465213879942894,0.011374319903552532
1772810828218687500,6.5696875,-0.0790863037109375,0.002534579485654831,-0.0006699441000819206
1772810828238449400,6.589449462890625,-0.06501102447509766,-0.004308674484491348,0.008774320594966412
1772810828258211300,6.60921142578125,-0.06022071838378906,-0.009097585454583168,0.00390744861215353
1772810828277973200,6.62897314453125,-0.06052112579345703,0.00031256861984729767,0.020463503897190094
1772810828297735200,6.648735107421875,-0.06261634826660156,0.019224802032113075,0.01349151972681284
1772810828317497000,6.6684970703125,-0.06740760803222656,-0.006828531622886658,-0.0006898334249854088
1772810828337259000,6.688259033203125,-0.0742950439453125,0.0004953611642122269,0.0017370721325278282
1772810828357021000,6.70802099609375,-0.05812549591064453,-0.0018613766878843307,0.006703872233629227
1772810828376782800,6.727782958984375,-0.05812549591064453,0.002804035320878029,-0.005021721124649048
1772810828396544800,6.747544677734375,-0.05333423614501953,0.024296803399920464,-0.002380293793976307
1772810828416306700,6.767306640625,-0.06052112579345703,0.010093173012137413,-0.009110430255532265
1772810828436068600,6.787068603515625,-0.07219886779785156,-0.006781022995710373,-0.006470625288784504
1772810828455830500,6.80683056640625,-0.07459449768066406,-0.021178359165787697,0.003036441281437874
1772810828475592400,6.826592529296875,-0.07219886779785156,0.012264851480722427,0.007742954418063164
1772810828495354400,6.846354248046875,-0.07220077514648438,0.00011609122157096863,0.0031873593106865883
1772810828515115500,6.866115478515625,-0.07459640502929688,-0.0022398028522729874,0.005914762616157532
1772810828534877000,6.885876953125,-0.05573272705078125,0.00975244864821434,-0.018173767253756523
1772810828554638300,6.905638427734375,-0.06261920928955078,-0.011901812627911568,0.012924130074679852
1772810828574399500,6.9253994140625,-0.0886697769165039,-0.0070609357208013535,-0.003647047095000744
1772810828594161000,6.945160888671875,-0.06052207946777344,0.02401340939104557,-0.0011115269735455513
1772810828613922000,6.964922119140625,-0.06741046905517578,-0.007335558533668518,0.015710249543190002
1772810828633683500,6.984683349609375,-0.060523033142089844,-0.0023496411740779877,-0.008346766233444214
1772810828653444900,7.00444482421875,-0.07669258117675781,0.00002926960587501526,0.0035545015707612038
1772810828673206000,7.0242060546875,-0.055731773376464844,0.00474211759865284,-0.00806083157658577
1772810828692967400,7.043967529296875,-0.07220172882080078,0.011938674375414848,0.003994928672909737
1772810828712728800,7.063728759765625,-0.06980609893798828,-0.002496996894478798,-0.014947296120226383
1772810828732490000,7.083489990234375,-0.05812835693359375,0.007002105936408043,0.0016465159133076668
1772810828752251400,7.10325146484375,-0.06052398681640625,-0.00020029954612255096,0.009056148119270802
1772810828772012800,7.1230126953125,-0.05812835693359375,0.01661977730691433,0.004788629710674286
1772810828791774000,7.14277392578125,-0.07938957214355469,-0.004749579355120659,-0.0023552216589450836
1772810828811535400,7.162535400390625,-0.08208370208740234,0.012183338403701782,0.004704776220023632
1772810828831296800,7.182296875,-0.07968711853027344,0.010204179212450981,0.0021875882521271706
1772810828851058000,7.202057861328125,-0.06291866302490234,0.010097667574882507,0.023653514683246613
1772810828870819300,7.2218193359375,-0.06291961669921875,0.005296390503644943,-0.0025205062702298164
1772810828890580700,7.241580810546875,-0.05124187469482422,0.002878354862332344,-0.007361104711890221
1772810828910342000,7.261341796875,-0.07489776611328125,0.005143286660313606,-0.0001366492360830307
1772810828930103300,7.281103271484375,-0.06771087646484375,0.0003354772925376892,0.004527886398136616
1772810828949864700,7.30086474609375,-0.058127403259277344,0.012527769431471825,0.011675555258989334
1772810828969625900,7.3206259765625,-0.05812835693359375,0.02149996906518936,-0.0005512991920113564
1772810828989387300,7.34038720703125,-0.06741046905517578,0.00719854049384594,-0.014854343608021736
1772810829009148200,7.360148193359375,-0.07010650634765625,0.019169926643371582,-0.005223206244409084
1772810829028909000,7.379908935546875,-0.07010555267333984,-0.007129380479454994,-0.002834849990904331
1772810829048670200,7.399670166015625,-0.08418083190917969,0.01433093473315239,0.004379716701805592
1772810829068431000,7.41943115234375,-0.07699394226074219,-0.014451246708631516,0.004510986618697643
1772810829088192000,7.43919189453125,-0.06531524658203125,-0.007368093356490135,0.01404911931604147
1772810829107953000,7.458952880859375,-0.06771087646484375,0.006818726658821106,-0.007565638050436974
1772810829127713800,7.4787138671875,-0.06741142272949219,-0.01223195530474186,-0.0026423055678606033
1772810829147474700,7.498474609375,-0.06501579284667969,0.006900187581777573,0.004661139100790024
1772810829167235800,7.51823583984375,-0.08418083190917969,-0.009522896260023117,-0.0019986405968666077
1772810829186996700,7.537996826171875,-0.07010746002197266,0.012148316949605942,-0.013661094009876251
1772810829206757600,7.557757568359375,-0.04645252227783203,0.00015409104526042938,0.019704405218362808
1772810829226518500,7.5775185546875,-0.07729434967041016,0.02154642716050148,0.007685371674597263
1772810829246279400,7.597279541015625,-0.07489967346191406,0.006918236613273621,-0.01156191062182188
1772810829266040300,7.617040283203125,-0.060527801513671875,-0.007592225447297096,0.01730765588581562
1772810829285801200,7.63680126953125,-0.05333900451660156,0.011735646054148674,0.004984237253665924
1772810829305562400,7.656562255859375,-0.0817861557006836,-0.007428063079714775,-0.011679875664412975
1772810829325323300,7.6763232421875,-0.06052684783935547,0.014169810339808464,0.005175529047846794
1772810829345084200,7.696084228515625,-0.07250404357910156,0.0021366234868764877,0.01000267919152975
1772810829364845000,7.715844970703125,-0.03926563262939453,-0.007991379126906395,0.011892648413777351
1772810829384606000,7.73560595703125,-0.06771183013916016,0.008792798966169357,-0.0004078168421983719
1772810829404366800,7.755366943359375,-0.07250308990478516,0.006366699934005737,0.006841595284640789
1772810829424127700,7.775127685546875,-0.0674123764038086,-0.010394852608442307,-0.00748777948319912
1772810829443889000,7.794888916015625,-0.0698080062866211,0.004107216373085976,0.01172793097794056
1772810829463649800,7.81464990234375,-0.07729434967041016,0.0039786845445632935,0.011882823891937733
1772810829483410700,7.83441064453125,-0.081787109375,-0.000929737463593483,-0.00006780028343200684
1772810829503172400,7.85417236328125,-0.07489967346191406,0.008616510778665543,-0.004975740797817707
1772810829522934500,7.8739345703125,-0.06771278381347656,-0.0010825879871845245,0.002129579894244671
1772810829542696700,7.89369677734375,-0.06292152404785156,0.0037865135818719864,0.004025991074740887
1772810829562459000,7.913458984375,-0.07010746002197266,0.013919642195105553,0.017034683376550674
1772810829582221000,7.933220947265625,-0.07010746002197266,0.011584911495447159,0.0001893388107419014
1772810829601983200,7.952983154296875,-0.07729434967041016,0.006762446835637093,0.004893038421869278
1772810829621745400,7.972745361328125,-0.056034088134765625,0.018681207671761513,0.011666849255561829
1772810829641507600,7.992507568359375,-0.07010746002197266,0.006758308038115501,-0.019239965826272964
1772810829661269800,8.012269775390624,-0.06561565399169922,-0.004660462960600853,-0.0044469572603702545
1772810829681032000,8.032031982421875,-0.06352043151855469,0.0025383569300174713,-0.004596631973981857
1772810829700794000,8.051794189453124,-0.051543235778808594,0.009703205898404121,0.010121365077793598
1772810829720556300,8.071556396484375,-0.08448219299316406,-0.0024055931717157364,-0.004247769713401794
1772810829740318500,8.091318359375,-0.07968997955322266,0.009756818413734436,0.00034281425178050995
1772810829760080600,8.11108056640625,-0.08897113800048828,0.002260025590658188,0.013256597332656384
1772810829779842800,8.1308427734375,-0.07250022888183594,0.00015754252672195435,0.010656747035682201
1772810829799605000,8.15060498046875,-0.053338050842285156,0.002112004905939102,0.013068853877484798
1772810829819367200,8.1703671875,-0.08867073059082031,-0.00047756731510162354,0.010965405032038689
1772810829839129300,8.19012939453125,-0.06531524658203125,-0.0028998255729675293,0.0008292775601148605
1772810829858891800,8.209891845703124,-0.05812835693359375,0.009006086736917496,-0.004099884070456028
1772810829878654000,8.229654052734375,-0.07250213623046875,0.01617354154586792,-0.00139655452221632
1772810829898416000,8.249416015625,-0.09106731414794922,-0.0006442535668611526,-0.006063731387257576
1772810829918178300,8.26917822265625,-0.06771183013916016,-0.017749520018696785,0.0110672852024436
1772810829937940500,8.2889404296875,-0.0841827392578125,0.010851606726646423,-0.008051206357777119
1772810829957702700,8.30870263671875,-0.07010746002197266,0.025637831538915634,0.009290168061852455
1772810829977464800,8.32846484375,-0.05364036560058594,0.011486826464533806,0.0004691584035754204
1772810829997227000,8.34822705078125,-0.06082439422607422,0.0022860169410705566,-0.0037783943116664886
1772810830016989700,8.36798974609375,-0.05633544921875,0.012071635574102402,0.013751275837421417
1772810830036752100,8.387752197265625,-0.07250499725341797,0.002313295379281044,-0.0028266562148928642
1772810830056514800,8.407514892578124,-0.0587310791015625,0.011903144419193268,0.0044303759932518005
1772810830076277200,8.42727734375,-0.07280445098876953,0.014249294996261597,0.01660432107746601
1772810830096040000,8.4470400390625,-0.056336402893066406,0.006978599354624748,0.0026153801009058952
1772810830115802400,8.46680224609375,-0.070709228515625,-0.007702428847551346,0.00019629811868071556
1772810830135565000,8.48656494140625,-0.07759666442871094,0.00918320007622242,0.010288963094353676
1772810830155327700,8.50632763671875,-0.058732032775878906,0.014079982414841652,-0.028150703758001328
1772810830175090200,8.526090087890625,-0.0635223388671875,-0.000154031440615654,0.01419906597584486
1772810830194852900,8.545852783203125,-0.06561756134033203,-0.007339738309383392,-0.01479372289031744
1772810830214615300,8.565615234375,-0.09646034240722656,0.02128823660314083,0.011557724326848984
1772810830234378000,8.5853779296875,-0.07520008087158203,0.014035476371645927,0.016101310029625893
1772810830254140400,8.605140380859375,-0.08687877655029297,-0.0003870949149131775,0.0014242008328437805
1772810830273903000,8.624903076171876,-0.06561756134033203,0.001936132088303566,0.0011408887803554535
1772810830293665500,8.64466552734375,-0.0707082748413086,-0.005151212215423584,-0.006105935201048851
1772810830313428200,8.66442822265625,-0.07520008087158203,0.0044040922075510025,0.006236516870558262
1772810830333191000,8.68419091796875,-0.0539398193359375,0.009157193824648857,-0.0005686832591891289
1772810830352953300,8.703953369140624,-0.08927345275878906,-0.002623463049530983,0.011359600350260735
1772810830372716000,8.723716064453125,-0.08927345275878906,0.01865209825336933,-0.007786409929394722
1772810830392478500,8.743478515625,-0.0635213851928711,-0.002848079428076744,0.011360187083482742
1772810830412241200,8.7632412109375,-0.061127662658691406,0.01615828648209572,0.011467459611594677
1772810830432003600,8.783003662109374,-0.049149513244628906,0.011530444025993347,-0.005463918671011925
1772810830451766300,8.802766357421875,-0.070709228515625,0.008942795917391777,0.02071310207247734
1772810830471529000,8.822529052734374,-0.07280540466308594,-0.010109812021255493,0.020849205553531647
1772810830491291400,8.84229150390625,-0.070709228515625,0.011354945600032806,0.00441095232963562
1772810830511054300,8.862054443359375,-0.061127662658691406,0.0042288098484277725,-0.0052099814638495445
1772810830530817000,8.881817138671876,-0.070709228515625,-0.0029497891664505005,0.0021875137463212013
1772810830550580000,8.901580078125,-0.05154609680175781,0.011414431035518646,0.002388227730989456
1772810830570343000,8.921343017578126,-0.0635223388671875,0.00427054800093174,-0.004776366055011749
1772810830590105600,8.941105712890625,-0.0731048583984375,0.004347499459981918,0.0023837508633732796
1772810830609868500,8.96086865234375,-0.0635232925415039,-0.010240772739052773,0.0050245653837919235
1772810830629631500,8.980631591796875,-0.08478355407714844,0.00427793525159359,-0.001992042176425457
1772810830649394200,9.000394287109375,-0.053943634033203125,0.030384471639990807,0.0007937559857964516
1772810830669157000,9.0201572265625,-0.06352615356445312,0.01564827188849449,-0.0036478089168667793
1772810830688920000,9.039920166015625,-0.08239078521728516,0.0036461520940065384,-0.003557165153324604
1772810830708682800,9.059682861328126,-0.07520484924316406,0.0321781262755394,0.006010026205331087
1772810830728445700,9.07944580078125,-0.05424213409423828,-0.0035896822810173035,-0.013421513140201569
1772810830748208600,9.099208740234374,-0.06801605224609375,0.001439843326807022,0.005810472182929516
1772810830767971300,9.118971435546875,-0.06562042236328125,-0.005944706499576569,0.0022922451607882977
1772810830787734300,9.138734375,-0.09167098999023438,-0.003769509494304657,0.0045191203244030476
1772810830807497200,9.158497314453125,-0.07250690460205078,0.017902037128806114,-0.007638474926352501
1772810830827260200,9.17826025390625,-0.06532096862792969,0.022622082382440567,-0.00047395750880241394
1772810830847022800,9.19802294921875,-0.07280635833740234,-0.001448722556233406,-0.012598372995853424
1772810830866785800,9.217785888671875,-0.06771659851074219,0.005501622334122658,-0.0006422922015190125
1772810830886548500,9.237548583984376,-0.055739402770996094,0.02474684827029705,0.016070503741502762
1772810830906311400,9.2573115234375,-0.07490348815917969,-0.01589236594736576,0.008367389440536499
1772810830926074400,9.277074462890624,-0.06052970886230469,0.013073490932583809,0.003628607839345932
1772810830945837000,9.296837158203125,-0.07220745086669922,0.001190144568681717,-0.010708831250667572
1772810830965600000,9.31660009765625,-0.0659189224243164,0.0137269776314497,-0.013606483116745949
1772810830985363000,9.336363037109376,-0.07041168212890625,0.013635942712426186,-0.013252307660877705
1772810831005124900,9.356124755859375,-0.07999324798583984,0.006918003782629967,0.001146506518125534
1772810831024886500,9.375886474609375,-0.0755014419555664,0.00009102746844291687,-0.010560516268014908
1772810831044648200,9.395648193359374,-0.0635232925415039,0.014422554522752762,-0.007936976850032806
1772810831064410000,9.41541015625,-0.0826883316040039,0.02404283545911312,-0.007905464619398117
1772810831084171800,9.435171875,-0.070709228515625,-0.006881138309836388,0.00864790752530098
1772810831103933400,9.454933349609375,-0.0539398193359375,0.010166168212890625,-0.008036092855036259
1772810831123695000,9.474695068359376,-0.0707082748413086,0.019899897277355194,-0.010753896087408066
1772810831143456800,9.494456787109375,-0.0707082748413086,0.024624481797218323,0.001336266752332449
1772810831163218400,9.514218505859375,-0.0731039047241211,-0.0020263101905584335,-0.0064205932430922985
1772810831182980000,9.53397998046875,-0.04465770721435547,0.012763390317559242,-0.011326339095830917
1772810831202741800,9.55374169921875,-0.0754995346069336,0.012880656868219376,-0.010791396722197533
1772810831222503400,9.57350341796875,-0.08238601684570312,0.012997640296816826,0.0011958149261772633
1772810831242265000,9.59326513671875,-0.06831169128417969,0.01540067233145237,0.005932836327701807
1772810831262026800,9.61302685546875,-0.0802907943725586,0.024863610044121742,0.0014603063464164734
1772810831281788400,9.632788330078125,-0.049149513244628906,-0.008606558665633202,0.004064733628183603
1772810831301550000,9.652550048828125,-0.0683126449584961,0.01062832958996296,-0.007983354851603508
1772810831321311700,9.672311767578124,-0.056334495544433594,0.001192064955830574,-0.010341234505176544
1772810831341073400,9.692073486328125,-0.0683126449584961,-0.0013611521571874619,-0.003186310175806284
1772810831360835000,9.7118349609375,-0.06352043151855469,0.005907686427235603,0.0065464964136481285
1772810831380596700,9.7315966796875,-0.06591606140136719,0.0034975409507751465,0.0042050485499203205
1772810831400358400,9.7513583984375,-0.0707082748413086,0.008262120187282562,0.0015606777742505074
1772810831420120000,9.7711201171875,-0.07070732116699219,0.006103597581386566,0.001723975408822298
1772810831439881700,9.7908818359375,-0.08028888702392578,0.030169375240802765,0.016033491119742393
1772810831459643400,9.810643310546874,-0.053938865661621094,-0.0009611807763576508,0.00907924771308899
1772810831479405000,9.830405029296875,-0.04465770721435547,0.003490786999464035,-0.00047201989218592644
1772810831499167000,9.8501669921875,-0.07999038696289062,0.005880247801542282,-0.0006284951232373714
1772810831518929400,9.869929443359375,-0.061126708984375,-0.013308389112353325,0.004267234820872545
1772810831538691800,9.88969189453125,-0.08717727661132812,-0.006164340302348137,0.011591838672757149
1772810831558454300,9.909454345703125,-0.05184459686279297,0.0055864229798316956,-0.007807302754372358
1772810831578216400,9.929216552734376,-0.0707082748413086,0.005566505715250969,-0.000614706426858902
1772810831597979000,9.948978759765625,-0.0731039047241211,0.01983232982456684,-0.012339874170720577
1772810831617741300,9.9687412109375,-0.07579898834228516,0.01037350669503212,-0.002735747955739498
1772810831637503700,9.988503662109375,-0.052143096923828125,0.0032761190086603165,0.011314653791487217
1772810831657266200,10.00826611328125,-0.06621551513671875,0.003962332382798195,-0.010203853249549866
1772810831677028400,10.0280283203125,-0.05693340301513672,0.00633600726723671,0.0014754580333828926
1772810831696790800,10.047790771484374,-0.05932807922363281,0.0014838334172964096,-0.010459987446665764
1772810831716553200,10.06755322265625,-0.06172466278076172,0.013561703264713287,0.0065720342099666595
1772810831736315600,10.087315673828124,-0.06861209869384766,0.008757514879107475,0.007059131748974323
1772810831756078000,10.107078125,-0.07789325714111328,0.0038579385727643967,-0.01744619570672512
1772810831775840500,10.126840576171874,-0.07549762725830078,0.010763635858893394,-0.0011655669659376144
1772810831795602700,10.146602783203125,-0.056633949279785156,0.008341381326317787,0.010697604157030582
1772810831815365000,10.166365234375,-0.06621456146240234,0.015534376725554466,-0.006400972604751587
1772810831835127600,10.18612744140625,-0.061423301696777344,-0.008353697136044502,0.005371960811316967
1772810831854890000,10.205889892578124,-0.06860923767089844,0.01555585116147995,0.007505337707698345
1772810831874652400,10.22565234375,-0.07789230346679688,0.003615178167819977,0.007501913234591484
1772810831894414800,10.245414794921874,-0.07549667358398438,0.008585089817643166,0.0026163021102547646
1772810831914177000,10.265177001953125,-0.06381797790527344,0.0014407653361558914,-0.014049515128135681
1772810831933939500,10.284939453125,-0.07549667358398438,0.013378489762544632,-0.002206125296652317
1772810831953702000,10.304701904296875,-0.08028793334960938,0.013338891789317131,-0.012144834734499454
1772810831973464300,10.32446435546875,-0.042557716369628906,0.020725220441818237,0.01139392051845789
1772810831993226800,10.344226806640625,-0.06830787658691406,0.004250047728419304,-0.0031103137880563736
1772810832012989000,10.363989013671874,-0.06591320037841797,0.006571419537067413,-0.0009034732356667519
1772810832032751400,10.38375146484375,-0.05663108825683594,0.020988374948501587,-0.00820927508175373
1772810832052513800,10.403513671875,-0.04944419860839844,0.023318856954574585,-0.006041260436177254
1772810832072276000,10.42327587890625,-0.06830787658691406,0.0017491485923528671,-0.0037758778780698776
1772810832092038400,10.443038330078124,-0.07549381256103516,0.00412825308740139,0.003108179196715355
1772810832111800800,10.46280078125,-0.05183982849121094,0.008890556171536446,-0.003898373804986477
1772810832131563300,10.482563232421874,-0.0727996826171875,0.006524490192532539,-0.0014316430315375328
1772810832151325400,10.502325439453125,-0.07789039611816406,0.013773409649729729,-0.015501859597861767
1772810832171088000,10.522087890625,-0.07549381256103516,0.006914403289556503,-0.0010700570419430733
1772810832190850300,10.541850341796875,-0.08267974853515625,0.030795419588685036,0.015519239939749241
1772810832210612700,10.56161279296875,-0.047046661376953125,0.02190539240837097,-0.005752135068178177
1772810832230375000,10.581375,-0.08507537841796875,0.028661945834755898,-0.005124793387949467
1772810832250137300,10.601137451171875,-0.05692768096923828,0.019581763073801994,0.01137160137295723
1772810832269899800,10.620899658203125,-0.07100105285644531,0.005344243720173836,0.0018520476296544075
1772810832289662200,10.640662109375,-0.0757913589477539,0.012492913752794266,-0.0006813080981373787
1772810832309424400,10.66042431640625,-0.07339668273925781,0.007573701441287994,0.0046813758090138435
1772810832329186800,10.680186767578125,-0.07818984985351562,0.007342305034399033,0.005044516175985336
1772810832348949200,10.69994921875,-0.05932426452636719,0.01682377979159355,-0.002017899416387081
1772810832368711400,10.71971142578125,-0.06591320037841797,0.01846405118703842,-0.012100568041205406
1772810832388473900,10.739473876953125,-0.07789230346679688,0.018153665587306023,0.007318237796425819
1772810832408236300,10.759236328125,-0.06351947784423828,0.0036105401813983917,0.002535746432840824
1772810832427998700,10.778998779296876,-0.04974651336669922,0.00577874481678009,-0.00883544608950615
1772810832447761200,10.79876123046875,-0.09436225891113281,0.008147435262799263,-0.013061638921499252
1772810832467523300,10.8185234375,-0.05423736572265625,0.029985597357153893,0.007781177759170532
1772810832487285800,10.83828564453125,-0.07070159912109375,0.023764662444591522,-0.008609729818999767
