time,seconds_elapsed,z,y,x
1772810427269980200,0.303980224609375,-0.02947521209716797,0.008536010980606079,0.0048040226101875305
1772810427289740300,0.323740234375,-0.07169532775878906,-0.02258506417274475,-0.00008258223533630371
1772810427309500700,0.343500732421875,-0.07918071746826172,-0.008295230567455292,-0.007261335849761963
1772810427329260800,0.3632607421875,-0.08367156982421875,-0.0014924928545951843,0.014357633888721466
1772810427349021200,0.383021240234375,-0.10013866424560547,-0.006510473787784576,-0.005407996475696564
1772810427368781300,0.40278125,-0.09086036682128906,0.005588807165622711,-0.005389116704463959
1772810427388541700,0.422541748046875,-0.08607006072998047,0.0006641820073127747,-0.0028834566473960876
1772810427408301800,0.4423017578125,-0.08577251434326172,-0.0016096755862236023,-0.019538775086402893
1772810427428062000,0.46206201171875,-0.10463905334472656,0.00809498131275177,-0.012292422354221344
1772810427447822300,0.481822265625,-0.07888984680175781,-0.0013630315661430359,-0.00020454823970794678
1772810427467582500,0.50158251953125,-0.07649993896484375,0.008444152772426605,-0.0022305920720100403
1772810427487342800,0.5213427734375,-0.08129119873046875,0.0012271329760551453,0.004962161183357239
1772810427507101700,0.541101806640625,-0.09056949615478516,0.003333047032356262,-0.019086837768554688
1772810427526860300,0.5608603515625,-0.057328224182128906,-0.020702213048934937,0.0021697506308555603
1772810427546618600,0.58061865234375,-0.0764932632446289,-0.011150665581226349,-0.009695857763290405
1772810427566377200,0.600377197265625,-0.08128929138183594,0.010634370148181915,0.00009966641664505005
1772810427586135800,0.6201357421875,-0.07410144805908203,-0.008454486727714539,0.0000024512410163879395
1772810427605894100,0.63989404296875,-0.07619857788085938,0.010679014027118683,0.012087099254131317
1772810427625652700,0.65965283203125,-0.09057044982910156,0.008146412670612335,0.01927899569272995
1772810427645411300,0.679411376953125,-0.07859325408935547,0.0007331296801567078,-0.007063470780849457
1772810427665169700,0.699169677734375,-0.059729576110839844,-0.0015355423092842102,-0.004713602364063263
1772810427684928300,0.71892822265625,-0.07650089263916016,-0.0013729855418205261,0.0004475340247154236
1772810427704686800,0.738686767578125,-0.09057426452636719,-0.0019096806645393372,0.007247298955917358
1772810427724445400,0.758445556640625,-0.07889652252197266,-0.011065840721130371,0.002307809889316559
1772810427744203800,0.778203857421875,-0.09566307067871094,-0.01299375295639038,0.00650535523891449
1772810427763962400,0.79796240234375,-0.060329437255859375,-0.005889430642127991,-0.01259690523147583
1772810427783721000,0.817720947265625,-0.09086990356445312,-0.0010776892304420471,0.00147295743227005
1772810427803479300,0.837479248046875,-0.07230567932128906,-0.010378263890743256,0.006166055798530579
1772810427823238000,0.85723779296875,-0.08847332000732422,0.004221685230731964,-0.005566209554672241
1772810427842996500,0.87699658203125,-0.0839834213256836,-0.00039659440517425537,-0.012740828096866608
1772810427862755000,0.896755126953125,-0.1076364517211914,-0.0029275044798851013,0.0015365108847618103
1772810427882513400,0.916513427734375,-0.08667278289794922,-0.0051045045256614685,-0.0010585859417915344
1772810427902272000,0.93627197265625,-0.09116172790527344,-0.004989787936210632,0.003583647310733795
1772810427922030600,0.956030517578125,-0.08876991271972656,-0.004813790321350098,0.004095792770385742
1772810427941789000,0.975788818359375,-0.09804916381835938,-0.0006515458226203918,-0.0018448010087013245
1772810427961547500,0.995547607421875,-0.07918834686279297,0.0016107335686683655,0.0009175091981887817
1772810427981306000,1.01530615234375,-0.07439327239990234,0.003920070827007294,0.01024693250656128
1772810428001065000,1.03506494140625,-0.07678794860839844,-0.005691938102245331,0.005410119891166687
1772810428020824300,1.05482421875,-0.07918071746826172,0.020618677139282227,-0.01405065506696701
1772810428040583700,1.074583740234375,-0.07678508758544922,-0.0153399258852005,-0.006803542375564575
1772810428060343000,1.094343017578125,-0.09565067291259766,-0.008183762431144714,-0.006690159440040588
1772810428080102400,1.114102294921875,-0.07918071746826172,-0.008365392684936523,-0.00428742915391922
1772810428099861800,1.13386181640625,-0.08157920837402344,0.008525505661964417,0.010242648422718048
1772810428119621000,1.15362109375,-0.07439422607421875,-0.0008819401264190674,-0.006464146077632904
1772810428139380500,1.17338037109375,-0.078887939453125,-0.0038534626364707947,0.007468335330486298
1772810428159139800,1.193139892578125,-0.08846759796142578,0.0006440654397010803,-0.006841041147708893
1772810428178899500,1.2128994140625,-0.06481075286865234,0.007742628455162048,-0.009276241064071655
1772810428198658800,1.232658935546875,-0.06930351257324219,-0.006399855017662048,0.007443957030773163
1772810428218418200,1.252418212890625,-0.048043251037597656,-0.013716556131839752,0.00021357089281082153
1772810428238177500,1.272177490234375,-0.09086036682128906,-0.006507188081741333,-0.007417410612106323
1772810428257937000,1.29193701171875,-0.0929555892944336,-0.004192963242530823,-0.010049879550933838
1772810428277696300,1.3116962890625,-0.09325122833251953,-0.006720200181007385,-0.0031650736927986145
1772810428297455600,1.33145556640625,-0.08127689361572266,-0.006543412804603577,-0.017523065209388733
1772810428317215000,1.351215087890625,-0.08337020874023438,-0.006673984229564667,-0.008086510002613068
1772810428336974300,1.370974365234375,-0.07887744903564453,0.00043044984340667725,0.01641462743282318
1772810428356733700,1.390733642578125,-0.08366870880126953,0.002948842942714691,-0.007633686065673828
1772810428376493000,1.4104931640625,-0.0932464599609375,0.005570307374000549,-0.005591362714767456
1772810428396252400,1.43025244140625,-0.07647705078125,0.01282406598329544,-0.005789116024971008
1772810428416011800,1.45001171875,-0.0716867446899414,-0.0012702718377113342,0.0036951377987861633
1772810428435771100,1.469771240234375,-0.0740823745727539,-0.019858337938785553,-0.001036129891872406
1772810428455530500,1.489530517578125,-0.08366680145263672,-0.005607694387435913,-0.0058171674609184265
1772810428475289900,1.509289794921875,-0.08127117156982422,-0.0007443800568580627,0.0037181302905082703
1772810428495049500,1.529049560546875,-0.0860605239868164,-0.012797325849533081,0.0011732056736946106
1772810428514809300,1.548809326171875,-0.09084796905517578,-0.005445040762424469,-0.008499860763549805
1772810428534569000,1.56856884765625,-0.07677173614501953,-0.013008370995521545,0.008013956248760223
1772810428554328800,1.588328857421875,-0.08605480194091797,-0.0012039467692375183,-0.008796297013759613
1772810428574088700,1.608088623046875,-0.0977334976196289,0.0011091753840446472,-0.003842473030090332
1772810428593848600,1.6278486328125,-0.057610511779785156,-0.0036096349358558655,0.012978672981262207
1772810428613608200,1.647608154296875,-0.0716848373413086,-0.0011381134390830994,-0.0043635740876197815
1772810428633368000,1.6673681640625,-0.06928825378417969,-0.010648027062416077,0.0027106627821922302
1772810428653128000,1.6871279296875,-0.10222434997558594,0.003577306866645813,-0.006954096257686615
1772810428672887800,1.7068876953125,-0.06688976287841797,0.008424624800682068,-0.007139772176742554
1772810428692647700,1.726647705078125,-0.05970573425292969,0.008532732725143433,-0.011836975812911987
1772810428712407300,1.7464072265625,-0.0881509780883789,0.015820547938346863,-0.0023718103766441345
1772810428732167200,1.766167236328125,-0.0881500244140625,-0.0057334452867507935,0.007086649537086487
1772810428751927000,1.785927001953125,-0.08366107940673828,0.0015643015503883362,0.007221251726150513
1772810428771687000,1.80568701171875,-0.07407855987548828,-0.003023013472557068,-0.008890926837921143
1772810428791446800,1.82544677734375,-0.07198143005371094,-0.012444600462913513,-0.020239755511283875
1772810428811206400,1.845206298828125,-0.07437705993652344,0.001984618604183197,-0.0011595934629440308
1772810428830966300,1.86496630859375,-0.09324264526367188,-0.0004035830497741699,-0.008219599723815918
1772810428850726100,1.88472607421875,-0.08156394958496094,0.009025424718856812,-0.0058026984333992004
1772810428870486000,1.904486083984375,-0.08156681060791016,-0.017305731773376465,-0.010363228619098663
1772810428890246000,1.924245849609375,-0.07437896728515625,-0.022123634815216064,-0.01762571930885315
1772810428910005800,1.944005859375,-0.08605670928955078,-0.0006592422723770142,0.008703552186489105
1772810428929765400,1.963765380859375,-0.08845138549804688,-0.007833853363990784,-0.0009299293160438538
1772810428949525200,1.983525146484375,-0.07916736602783203,0.004042334854602814,0.003826543688774109
1772810428969285000,2.00328515625,-0.07437610626220703,-0.0035342201590538025,0.008646488189697266
1772810428989045000,2.023044921875,-0.08365821838378906,0.005798056721687317,-0.0040277838706970215
1772810429008805000,2.04280517578125,-0.09533309936523438,0.005699813365936279,0.004780903458595276
1772810429028565500,2.0625654296875,-0.06688690185546875,-0.0014283433556556702,-0.0024035274982452393
1772810429048325600,2.08232568359375,-0.08126068115234375,0.0009232759475708008,-0.009547300636768341
1772810429068086000,2.1020859375,-0.07647037506103516,0.003373749554157257,-0.002340376377105713
1772810429087846400,2.121846435546875,-0.07886600494384766,-0.01587739586830139,0.0025529563426971436
1772810429107606800,2.141606689453125,-0.07886219024658203,-0.008828721940517426,-0.007298953831195831
1772810429127367000,2.161366943359375,-0.09293460845947266,0.01771993190050125,-0.0026604533195495605
1772810429147127300,2.181127197265625,-0.08125877380371094,0.01307995617389679,-0.009769231081008911
1772810429166887700,2.2008876953125,-0.08125877380371094,0.00364801287651062,-0.007051818072795868
1772810429186647800,2.220647705078125,-0.07646942138671875,0.011080302298069,-0.006223298609256744
1772810429206408200,2.240408203125,-0.08365821838378906,0.011129803955554962,0.008667238056659698
1772810429226168600,2.26016845703125,-0.060303688049316406,-0.00318310409784317,-0.008075959980487823
1772810429245929000,2.279928955078125,-0.07677364349365234,-0.003017224371433258,-0.0081043541431427
1772810429265689000,2.299689208984375,-0.07197952270507812,-0.0029551461338996887,-0.008390173316001892
1772810429285449500,2.319449462890625,-0.07407569885253906,0.001894049346446991,0.0035500749945640564
1772810429305209900,2.3392099609375,-0.0695810317993164,0.006532512605190277,-0.0013768896460533142
1772810429324970200,2.35897021484375,-0.08605194091796875,-0.0008023679256439209,-0.0011508166790008545
1772810429344730400,2.37873046875,-0.07916545867919922,-0.012867353856563568,-0.010653339326381683
1772810429364490800,2.39849072265625,-0.07676887512207031,0.008534803986549377,-0.0058896467089653015
1772810429384251100,2.418251220703125,-0.08605098724365234,0.0006531551480293274,0.003211483359336853
1772810429404011300,2.43801123046875,-0.09563159942626953,0.010287128388881683,-0.004058472812175751
1772810429423771600,2.457771728515625,-0.08125877380371094,-0.011307947337627411,0.007775790989398956
1772810429443532000,2.477531982421875,-0.08605194091796875,-0.001718856394290924,0.0008137300610542297
1772810429463292400,2.49729248046875,-0.07646751403808594,-0.013779595494270325,-0.004059717059135437
1772810429483052500,2.517052490234375,-0.10251808166503906,-0.009077265858650208,-0.001645117998123169
1772810429502813700,2.536813720703125,-0.08844375610351562,-0.0018290802836418152,-0.006620094180107117
1772810429522575400,2.556575439453125,-0.09084033966064453,0.002864658832550049,0.010310731828212738
1772810429542337300,2.576337158203125,-0.06688308715820312,-0.002019070088863373,0.0006418973207473755
1772810429562099000,2.596098876953125,-0.09323501586914062,-0.018608517944812775,-0.0016830191016197205
1772810429581860900,2.61586083984375,-0.08335399627685547,0.0006708279252052307,-0.004795201122760773
1772810429601622500,2.63562255859375,-0.08814620971679688,-0.01852528750896454,-0.002292521297931671
1772810429621384400,2.655384521484375,-0.08844375610351562,-0.0016961172223091125,-0.0072472915053367615
1772810429641146000,2.67514599609375,-0.08125877380371094,-0.0016369745135307312,-0.002402864396572113
1772810429660908000,2.694907958984375,-0.06928062438964844,-0.006517000496387482,-0.0023318156599998474
1772810429680669700,2.714669677734375,-0.06688880920410156,0.007852569222450256,0.002786189317703247
1772810429700431600,2.734431640625,-0.09293937683105469,0.00774933397769928,-0.006772004067897797
1772810429720193300,2.754193359375,-0.08605194091796875,-0.0159769207239151,0.0025671645998954773
1772810429739955000,2.773954833984375,-0.09264087677001953,-0.006227165460586548,-0.014202885329723358
1772810429759716900,2.793716796875,-0.0929403305053711,-0.008556827902793884,-0.0170779749751091
1772810429779478500,2.813478515625,-0.08365821838378906,0.003323949873447418,0.00979294627904892
1772810429799240400,2.833240478515625,-0.08844947814941406,-0.0014630407094955444,-0.01888096332550049
1772810429819002000,2.853002197265625,-0.07407379150390625,0.020083926618099213,-0.004795633256435394
1772810429838764000,2.872763916015625,-0.07886505126953125,-0.011089377105236053,-0.011901922523975372
1772810429858525700,2.892525634765625,-0.09533405303955078,0.005473390221595764,-0.006912499666213989
1772810429878287600,2.91228759765625,-0.07407665252685547,0.0006355941295623779,-0.001964658498764038
1772810429898049300,2.93204931640625,-0.09054183959960938,-0.016314461827278137,-0.006816409528255463
1772810429917811200,2.951811279296875,-0.07886409759521484,-0.0211324542760849,0.002660989761352539
1772810429937572900,2.97157275390625,-0.07407188415527344,-0.016211502254009247,0.009717218577861786
1772810429957334500,2.99133447265625,-0.08575439453125,-0.016085147857666016,0.009964145720005035
1772810429977096400,3.011096435546875,-0.08844852447509766,-0.0016006678342819214,0.008073493838310242
1772810429996857900,3.03085791015625,-0.08605384826660156,-0.005779966711997986,-0.006275095045566559
1772810430016617700,3.05061767578125,-0.08126544952392578,-0.0008241534233093262,-0.008593663573265076
1772810430036377600,3.070377685546875,-0.08605194091796875,0.020566880702972412,0.006233200430870056
1772810430056137500,3.090137451171875,-0.06988048553466797,0.006146356463432312,-0.0035171955823898315
1772810430075897300,3.1098974609375,-0.08126163482666016,-0.0008800551295280457,-0.0034612268209457397
1772810430095657000,3.129656982421875,-0.0674905776977539,0.003966756165027618,-0.010413125157356262
1772810430115416800,3.149416748046875,-0.09563446044921875,-0.005757100880146027,-0.015324696898460388
1772810430135176700,3.1691767578125,-0.08156490325927734,0.0037268102169036865,-0.005443893373012543
1772810430154936600,3.1889365234375,-0.08366107940673828,0.020477294921875,0.0017923489212989807
1772810430174696200,3.2086962890625,-0.10042953491210938,-0.0037667155265808105,0.003953456878662109
1772810430194456000,3.2284560546875,-0.08126354217529297,-0.0039511993527412415,-0.006213374435901642
1772810430214216000,3.2482158203125,-0.07407855987548828,-0.0014423206448554993,0.008218571543693542
1772810430233975800,3.267975830078125,-0.06239795684814453,-0.008766226470470428,-0.0038401558995246887
1772810430253735700,3.287735595703125,-0.08366107940673828,0.022562459111213684,0.0058559849858284
1772810430273495600,3.30749560546875,-0.07887077331542969,-0.003572218120098114,-0.015769749879837036
1772810430293255200,3.327255126953125,-0.07647418975830078,0.0036695674061775208,0.0008081644773483276
1772810430313015000,3.34701513671875,-0.08605670928955078,-0.0033514872193336487,-0.011293351650238037
1772810430332775000,3.36677490234375,-0.09803199768066406,-0.003390856087207794,-0.0041374266147613525
1772810430352534500,3.386534423828125,-0.09534072875976562,-0.0007237941026687622,-0.02069433033466339
1772810430372294400,3.40629443359375,-0.08606147766113281,0.013692304491996765,0.0057692453265190125
1772810430392054300,3.42605419921875,-0.057613372802734375,-0.007902860641479492,-0.0038929954171180725
1772810430411814100,3.445814208984375,-0.0740804672241211,0.011150360107421875,0.0031858906149864197
1772810430431574000,3.465573974609375,-0.0860586166381836,-0.007594645023345947,-0.0016361922025680542
1772810430451334000,3.485333984375,-0.0860605239868164,-0.005538783967494965,-0.003800109028816223
1772810430471093500,3.505093505859375,-0.07647991180419922,0.013821221888065338,0.0034016743302345276
1772810430490853400,3.524853271484375,-0.08127021789550781,-0.014251388609409332,0.0008703693747520447
1772810430510612700,3.54461279296875,-0.0764780044555664,0.004158675670623779,0.010427586734294891
1772810430530371800,3.564371826171875,-0.081268310546875,0.00660271942615509,-0.006434984505176544
1772810430550131200,3.584131103515625,-0.07198524475097656,0.009187914431095123,-0.011243045330047607
1772810430569890600,3.603890625,-0.08845233917236328,0.008882291615009308,0.007548227906227112
1772810430589650000,3.62364990234375,-0.0764760971069336,-0.0004874318838119507,-0.014394722878932953
1772810430609409000,3.643408935546875,-0.09294509887695312,0.001808851957321167,0.004885457456111908
1772810430629168400,3.66316845703125,-0.0668954849243164,-0.005313031375408173,-0.002207554876804352
1772810430648927700,3.682927734375,-0.05970573425292969,-0.0032589808106422424,-0.005484268069267273
1772810430668687000,3.70268701171875,-0.07168197631835938,-0.003549903631210327,-0.0007936134934425354
1772810430688446200,3.7224462890625,-0.06210136413574219,0.006182335317134857,0.01843913644552231
1772810430708205600,3.74220556640625,-0.07857131958007812,-0.0012048929929733276,-0.010220982134342194
1772810430727965000,3.76196484375,-0.09294319152832031,-0.008427999913692474,0.006559498608112335
1772810430747724300,3.781724365234375,-0.08096599578857422,-0.0015470758080482483,0.0019238069653511047
1772810430767483400,3.8014833984375,-0.09293842315673828,0.005678631365299225,0.0024036020040512085
1772810430787242800,3.82124267578125,-0.07407569885253906,-0.0013056844472885132,-0.0017136931419372559
1772810430807002000,3.841002197265625,-0.06688976287841797,0.020230993628501892,0.005622193217277527
1772810430826761200,3.86076123046875,-0.055512428283691406,0.006009384989738464,-0.008821137249469757
1772810430846520600,3.8805205078125,-0.08605194091796875,0.005799815058708191,-0.008892185986042023
1772810430866280000,3.900280029296875,-0.06928443908691406,0.008084923028945923,-0.006363607943058014
1772810430886039300,3.920039306640625,-0.0767669677734375,0.010264255106449127,0.010256938636302948
1772810430905798400,3.93979833984375,-0.09083938598632812,0.0007874295115470886,0.005325399339199066
1772810430925557800,3.959557861328125,-0.07407093048095703,-0.01810108870267868,0.002844393253326416
1772810430945317000,3.979317138671875,-0.09801959991455078,0.005501501262187958,0.007198989391326904
1772810430965076500,3.999076416015625,-0.0716705322265625,-0.003772430121898651,-0.004769667983055115
1772810430984835600,4.018835693359375,-0.08843612670898438,-0.011392340064048767,0.002330176532268524
1772810431004595700,4.038595703125,-0.07166767120361328,0.0008897259831428528,-0.0024895966053009033
1772810431024355800,4.05835595703125,-0.0908346176147461,0.0077201128005981445,0.012195535004138947
1772810431044116500,4.078116455078125,-0.06478118896484375,-0.004344835877418518,0.0023888424038887024
1772810431063876600,4.097876708984375,-0.08124923706054688,0.007573015987873077,-0.023977115750312805
1772810431083637000,4.117636962890625,-0.09082889556884766,-0.0038458406925201416,-0.0002416372299194336
1772810431103397600,4.137397705078125,-0.09322357177734375,0.0031430572271347046,0.002152658998966217
1772810431123157800,4.15715771484375,-0.08604049682617188,-0.006126172840595245,-0.00006765127182006836
1772810431142918400,4.17691845703125,-0.07196617126464844,-0.006319306790828705,-0.0047602578997612
1772810431162678800,4.1966787109375,-0.06957054138183594,0.010439284145832062,0.007506854832172394
1772810431182439000,4.21643896484375,-0.08124828338623047,-0.009459525346755981,-0.0005055442452430725
1772810431202199600,4.236199462890625,-0.09082984924316406,0.009540721774101257,-0.010053195059299469
1772810431221959700,4.255959716796875,-0.08603763580322266,0.004591658711433411,-0.007728807628154755
1772810431241720000,4.275719970703125,-0.07166481018066406,-0.012255728244781494,-0.0004191771149635315
1772810431261480700,4.295480712890625,-0.0929250717163086,-0.014678075909614563,-0.009914159774780273
1772810431281240800,4.31524072265625,-0.07406044006347656,0.00926777720451355,-0.0003629252314567566
1772810431301001200,4.335001220703125,-0.08124542236328125,-0.017003551125526428,0.013753369450569153
1772810431320761900,4.354761962890625,-0.08333683013916016,0.018203578889369965,-0.01580537110567093
1772810431340522000,4.37452197265625,-0.08333778381347656,-0.007627800107002258,0.0007773935794830322
1772810431360282400,4.394282470703125,-0.08573246002197266,-0.0008388832211494446,-0.003935515880584717
1772810431380042800,4.414042724609375,-0.07165813446044922,-0.014089606702327728,-0.00040660053491592407
1772810431399803100,4.43380322265625,-0.0836334228515625,0.009646274149417877,-0.00010433793067932129
1772810431419563500,4.4535634765625,-0.0836334228515625,0.009686700999736786,-0.004619501531124115
1772810431439324000,4.473323974609375,-0.10040283203125,-0.02131529152393341,-0.0117679163813591
1772810431459084300,4.493084228515625,-0.08603096008300781,-0.0021431148052215576,-0.009338527917861938
1772810431478845000,4.512844970703125,-0.0788412094116211,-0.004630252718925476,-0.004778079688549042
1772810431498605000,4.53260498046875,-0.07465171813964844,0.007340513169765472,-0.011719867587089539
1772810431518365000,4.552364990234375,-0.10040092468261719,-0.004625424742698669,0.002462640404701233
1772810431538124500,4.57212451171875,-0.07674312591552734,-0.014130018651485443,0.004561915993690491
1772810431557884400,4.591884521484375,-0.07674026489257812,-0.004691697657108307,-0.012373052537441254
1772810431577644300,4.611644287109375,-0.0929098129272461,0.006576038897037506,0.015873581171035767
1772810431597404200,4.631404052734375,-0.07404327392578125,-0.010324783623218536,0.0157649964094162
1772810431617164000,4.6511640625,-0.08601856231689453,0.006333746016025543,0.012967497110366821
1772810431636924000,4.670923828125,-0.08122920989990234,-0.015095919370651245,0.007886067032814026
1772810431656683800,4.690683837890625,-0.08362579345703125,-0.007944092154502869,0.005553588271141052
1772810431676443400,4.710443359375,-0.09051227569580078,-0.0057428330183029175,-0.003795132040977478
1772810431696203300,4.730203369140625,-0.07643795013427734,-0.017479538917541504,-0.006555050611495972
1772810431715963100,4.749963134765625,-0.06475830078125,-0.0055921003222465515,-0.025676824152469635
1772810431735723000,4.769722900390625,-0.06206512451171875,-0.015143781900405884,0.0006595924496650696
1772810431755483000,4.78948291015625,-0.09320449829101562,-0.020054496824741364,-0.004174679517745972
1772810431775242500,4.809242431640625,-0.062358856201171875,-0.008109226822853088,-0.006499111652374268
1772810431795002400,4.82900244140625,-0.09529685974121094,-0.0008654817938804626,-0.006870873272418976
1772810431814762200,4.84876220703125,-0.06445789337158203,-0.005745731294155121,0.0005931630730628967
1772810431834522000,4.868522216796875,-0.0764322280883789,-0.005836807191371918,-0.004375860095024109
1772810431854282000,4.888281982421875,-0.06954479217529297,-0.005769975483417511,-0.006843939423561096
1772810431874041900,4.908041748046875,-0.07883167266845703,-0.012827783823013306,0.0030112937092781067
1772810431893801700,4.9278017578125,-0.10488128662109375,-0.0009988173842430115,0.0006340742111206055
1772810431913561300,4.947561279296875,-0.08122825622558594,-0.001095794141292572,-0.023107849061489105
1772810431933321200,4.9673212890625,-0.09050846099853516,-0.01309949904680252,-0.0016802847385406494
1772810431953081000,4.9870810546875,-0.07164382934570312,-0.01551760733127594,-0.011274188756942749
1772810431972841000,5.006841064453125,-0.0860147476196289,-0.013396695256233215,-0.004565007984638214
1772810431992600600,5.0266005859375,-0.08331680297851562,-0.004154890775680542,-0.002683095633983612
1772810432012360000,5.04635986328125,-0.09050369262695312,0.01259603351354599,0.004497021436691284
1772810432032119000,5.066119140625,-0.0740365982055664,-0.01128491759300232,-0.004952438175678253
1772810432051878100,5.085878173828125,-0.07853221893310547,0.015198744833469391,-0.01665579527616501
1772810432071637200,5.10563720703125,-0.08302497863769531,0.007951714098453522,-0.0069904327392578125
1772810432091396600,5.125396728515625,-0.07613468170166016,0.005343273282051086,0.007021762430667877
1772810432111155700,5.14515576171875,-0.0830221176147461,0.0028939619660377502,0.0019492954015731812
1772810432130914800,5.164914794921875,-0.08541584014892578,-0.0019386261701583862,-0.007704339921474457
1772810432150674000,5.184673828125,-0.09020423889160156,0.00748000293970108,-0.005486108362674713
1772810432170433300,5.204433349609375,-0.0952901840209961,-0.011619538068771362,-0.00710548460483551
1772810432190192400,5.2241923828125,-0.06444931030273438,-0.001835368573665619,-0.008566439151763916
1772810432209951500,5.243951416015625,-0.08601188659667969,0.0007472783327102661,-0.0012359842658042908
1772810432229710600,5.263710693359375,-0.07163715362548828,0.01274602860212326,-0.006177268922328949
1772810432249469700,5.2834697265625,-0.088104248046875,-0.008649609982967377,-0.006380729377269745
1772810432269229000,5.30322900390625,-0.06954097747802734,0.0013769567012786865,-0.006325073540210724
1772810432288988200,5.32298828125,-0.08122062683105469,-0.005608446896076202,-0.0014371275901794434
1772810432308747300,5.342747314453125,-0.06924152374267578,0.0017226412892341614,-0.005729317665100098
1772810432328506400,5.36250634765625,-0.0812215805053711,-0.005408249795436859,0.003940507769584656
1772810432348265700,5.382265625,-0.06714534759521484,0.020999573171138763,-0.015459977090358734
1772810432368024800,5.40202490234375,-0.078826904296875,-0.026913054287433624,0.0034439191222190857
1772810432387784000,5.421783935546875,-0.05068016052246094,-0.008246362209320068,-0.008670143783092499
1772810432407543000,5.44154296875,-0.097991943359375,-0.005797691643238068,-0.015732228755950928
1772810432427302400,5.461302490234375,-0.06924724578857422,-0.020041324198246002,-0.0013108700513839722
1772810432447061500,5.4810615234375,-0.07403850555419922,-0.012839891016483307,0.0010760501027107239
1772810432466820600,5.500820556640625,-0.0860128402709961,0.0015737637877464294,0.010271400213241577
1772810432486579700,5.520579833984375,-0.0764303207397461,-0.005547024309635162,-0.006519585847854614
1772810432506340000,5.540340087890625,-0.08601188659667969,-0.00789712369441986,0.0005835592746734619
1772810432526101000,5.56010107421875,-0.0836181640625,-0.012817151844501495,0.0008580386638641357
1772810432545862000,5.57986181640625,-0.06924247741699219,0.003872312605381012,0.0006717219948768616
1772810432565622800,5.599622802734375,-0.07163810729980469,-0.008149191737174988,-0.011292345821857452
1772810432585383400,5.619383544921875,-0.069244384765625,-0.003545023500919342,0.007081866264343262
1772810432605144300,5.639144287109375,-0.09050559997558594,-0.0035070255398750305,-0.014729641377925873
1772810432624905200,5.6589052734375,-0.08122444152832031,-0.0060422420501708984,-0.009928524494171143
1772810432644666000,5.678666015625,-0.09050750732421875,0.003731854259967804,-0.0028475597500801086
1772810432664427000,5.698427001953125,-0.08541584014892578,-0.0105661079287529,-0.005319483578205109
1772810432684188000,5.71818798828125,-0.09260368347167969,-0.01046133041381836,-0.012464053928852081
1772810432703948800,5.73794873046875,-0.08092975616455078,0.0018151476979255676,-0.017230473458766937
1772810432723709700,5.757709716796875,-0.08781623840332031,0.01131768524646759,-0.009981758892536163
1772810432743470300,5.77747021484375,-0.07613468170166016,-0.019741594791412354,0.025637023150920868
1772810432763231200,5.797231201171875,-0.09260368347167969,-0.022000469267368317,0.010833807289600372
1772810432782992100,5.8169921875,-0.07613372802734375,-0.009557239711284637,-0.005009636282920837
1772810432802753000,5.8367529296875,-0.08811187744140625,0.026060886681079865,-0.0024872124195098877
1772810432822514000,5.856513916015625,-0.05966472625732422,0.012007810175418854,-0.007373392581939697
1772810432842274800,5.87627490234375,-0.06924629211425781,0.00002206861972808838,-0.009808391332626343
1772810432862035700,5.89603564453125,-0.08841323852539062,-0.01199369877576828,0.0000767931342124939
1772810432881796600,5.915796630859375,-0.06924724578857422,0.004654265940189362,0.000018864870071411133
1772810432901557200,5.93555712890625,-0.0860137939453125,-0.012201741337776184,-0.004925094544887543
1772810432921318100,5.955318115234375,-0.0740346908569336,-0.009742915630340576,0.004382908344268799
1772810432941079000,5.9750791015625,-0.0716390609741211,-0.00006610900163650513,-0.0004135817289352417
1772810432960840000,5.99483984375,-0.07883071899414062,-0.0047018080949783325,-0.007283002138137817
1772810432980600800,6.014600830078125,-0.08122539520263672,0.0025234967470169067,-0.004988193511962891
1772810433000361200,6.034361328125,-0.07643699645996094,0.0025610923767089844,-0.007169619202613831
1772810433020120600,6.05412060546875,-0.08122730255126953,0.00015917420387268066,-0.0168306827545166
1772810433039880000,6.0738798828125,-0.07404232025146484,0.005036957561969757,-0.009581789374351501
1772810433059639300,6.093639404296875,-0.07643699645996094,-0.016497425734996796,-0.019186116755008698
1772810433079398700,6.113398681640625,-0.08123016357421875,0.0026527419686317444,-0.01188010722398758
1772810433099158000,6.133157958984375,-0.05967140197753906,0.00031022727489471436,-0.011838212609291077
1772810433118917400,6.15291748046875,-0.08122920989990234,-0.011715501546859741,0.009567968547344208
1772810433138676700,6.1726767578125,-0.09050559997558594,0.007437102496623993,0.0019819363951683044
1772810433158436000,6.19243603515625,-0.09290313720703125,0.012440703809261322,-0.007615670561790466
1772810433178195500,6.212195556640625,-0.0788259506225586,-0.004326671361923218,-0.002537965774536133
1772810433197954800,6.231954833984375,-0.0788278579711914,0.00762910395860672,-0.0023346319794654846
1772810433217714200,6.251714111328125,-0.08362007141113281,-0.004337087273597717,-0.0045485720038414
1772810433237473500,6.2714736328125,-0.08122730255126953,-0.006686612963676453,0.007537126541137695
1772810433257233000,6.29123291015625,-0.07643318176269531,-0.0042918771505355835,-0.0047468096017837524
1772810433276992300,6.3109921875,-0.07882881164550781,0.0005417466163635254,0.00008864700794219971
1772810433296751600,6.330751708984375,-0.0668478012084961,-0.01580243557691574,0.00928538292646408
1772810433316511200,6.35051123046875,-0.10966777801513672,-0.0017872825264930725,-0.012256219983100891
1772810433336270600,6.3702705078125,-0.08361530303955078,0.0010020136833190918,-0.010003574192523956
1772810433356030000,6.390030029296875,-0.0836172103881836,-0.0035822317004203796,-0.005107074975967407
1772810433375789300,6.409789306640625,-0.09050464630126953,-0.003427550196647644,-0.010236755013465881
1772810433395548700,6.429548583984375,-0.08841133117675781,0.001210719347000122,-0.012863017618656158
1772810433415308000,6.44930810546875,-0.09290218353271484,0.006032995879650116,-0.0032818540930747986
1772810433435067400,6.4690673828125,-0.07643413543701172,-0.0058374181389808655,0.015843331813812256
1772810433454826800,6.48882666015625,-0.07164955139160156,-0.0008851960301399231,-0.014889881014823914
1772810433474586000,6.508586181640625,-0.08602333068847656,-0.005528450012207031,-0.005278058350086212
1772810433494345700,6.528345703125,-0.07883644104003906,0.003932580351829529,-0.0029341354966163635
1772810433514106400,6.5481064453125,-0.06925392150878906,0.008698761463165283,-0.0028323233127593994
1772810433533867000,6.567866943359375,-0.08362674713134766,0.010959573090076447,0.0067295655608177185
1772810433553627600,6.587627685546875,-0.09081077575683594,0.00859193503856659,-0.0006703808903694153
1772810433573388300,6.60738818359375,-0.06925201416015625,0.006578527390956879,-0.009888403117656708
1772810433593149000,6.62714892578125,-0.050689697265625,0.0020231232047080994,-0.009420998394489288
1772810433612909600,6.64690966796875,-0.06925487518310547,0.0063905268907547,-0.009254097938537598
1772810433632670200,6.666670166015625,-0.06476497650146484,-0.005127601325511932,-0.016116410493850708
1772810433652431000,6.68643115234375,-0.09081745147705078,-0.005009181797504425,-0.02288893610239029
1772810433672191700,6.706191650390625,-0.08362960815429688,-0.0025151073932647705,-0.011204361915588379
1772810433691952400,6.725952392578125,-0.08153438568115234,-0.00008837133646011353,-0.01110909879207611
1772810433711713000,6.745713134765625,-0.0836324691772461,-0.00013352185487747192,-0.018139518797397614
1772810433731473700,6.7654736328125,-0.09321212768554688,-0.00015100836753845215,-0.008675865828990936
1772810433751234300,6.785234375,-0.07883834838867188,-0.007381901144981384,-0.013600699603557587
1772810433770995000,6.804994873046875,-0.0482940673828125,-0.017274856567382812,-0.009526140987873077
1772810433790755600,6.824755615234375,-0.0881195068359375,-0.008036695420742035,-0.0076170191168785095
1772810433810516200,6.84451611328125,-0.0788431167602539,0.006673850119113922,-0.01930215209722519
1772810433830277000,6.864277099609375,-0.09291648864746094,-0.005515195429325104,-0.011866539716720581
1772810433850037800,6.884037841796875,-0.06207561492919922,0.011173464357852936,-0.011850416660308838
1772810433869798400,6.90379833984375,-0.086029052734375,-0.0007481053471565247,-0.007181838154792786
1772810433889559000,6.92355908203125,-0.07614707946777344,0.0065607428550720215,-0.021747514605522156
1772810433909319700,6.943319580078125,-0.08812236785888672,-0.0007876455783843994,-0.005027212202548981
1772810433929080300,6.963080322265625,-0.07404899597167969,-0.005422115325927734,-0.007516056299209595
1772810433948841000,6.982841064453125,-0.0716552734375,0.006494008004665375,-0.009719058871269226
1772810433968601600,7.0026015625,-0.0812368392944336,0.01568382978439331,-0.01961784064769745
1772810433988362200,7.0223623046875,-0.0692605972290039,-0.01994532346725464,-0.007193364202976227
1772810434008121600,7.04212158203125,-0.0788431167602539,-0.0032158419489860535,-0.007116228342056274
1772810434027880700,7.061880615234375,-0.08573246002197266,0.015420019626617432,-0.018758408725261688
1772810434047639800,7.081639892578125,-0.08124065399169922,0.008523248136043549,-0.001955293118953705
1772810434067398700,7.101398681640625,-0.07405281066894531,0.010656729340553284,-0.00931934267282486
1772810434087157800,7.12115771484375,-0.06446647644042969,-0.003907561302185059,0.004548460245132446
1772810434106916600,7.14091650390625,-0.0788412094116211,-0.003991030156612396,-0.012352608144283295
1772810434126675700,7.16067578125,-0.09770679473876953,-0.002041064202785492,-0.0049683526158332825
1772810434146434800,7.180434814453125,-0.09501266479492188,0.0004694312810897827,-0.00736401230096817
1772810434166193700,7.200193603515625,-0.08573150634765625,-0.013569749891757965,-0.016774483025074005
1772810434185952800,7.219952880859375,-0.09322071075439453,0.0036559998989105225,-0.008181154727935791
1772810434205711600,7.239711669921875,-0.06717109680175781,0.001409381628036499,-0.0103679820895195
1772810434225470700,7.259470703125,-0.07884883880615234,0.0042067766189575195,-0.015374906361103058
1772810434245229800,7.279229736328125,-0.09082794189453125,-0.002811804413795471,0.0018531829118728638
1772810434264988700,7.29898876953125,-0.09082508087158203,0.0016727745532989502,-0.007558383047580719
1772810434284747800,7.318747802734375,-0.08124351501464844,-0.00554453581571579,-0.009923912584781647
1772810434304506600,7.338506591796875,-0.08842658996582031,0.003934346139431,-0.010151654481887817
1772810434324265700,7.358265625,-0.0860300064086914,0.003831535577774048,-0.012563087046146393
1772810434344024600,7.378024658203125,-0.09111881256103516,0.008610799908638,-0.007951885461807251
1772810434363783700,7.39778369140625,-0.09320926666259766,-0.0011149495840072632,0.0013771802186965942
1772810434383542800,7.417542724609375,-0.09770488739013672,-0.01843465119600296,-0.004438146948814392
1772810434403301600,7.437301513671875,-0.07165718078613281,-0.0013968050479888916,0.0005156993865966797
1772810434423060700,7.457060791015625,-0.09082412719726562,0.0011087581515312195,-0.006493821740150452
1772810434442819600,7.476819580078125,-0.08363819122314453,0.013114869594573975,-0.01135280728340149
1772810434462578700,7.49657861328125,-0.08812999725341797,-0.003529094159603119,-0.011241123080253601
1772810434482337800,7.516337890625,-0.08094310760498047,-0.005954854190349579,-0.013803884387016296
1772810434502097200,7.53609716796875,-0.06686592102050781,-0.005934558808803558,-0.009189240634441376
1772810434521857000,7.55585693359375,-0.0902252197265625,-0.003720782697200775,-0.014515727758407593
1772810434541617200,7.5756171875,-0.07375717163085938,-0.017748571932315826,-0.004809819161891937
1772810434561377000,7.595376953125,-0.07375717163085938,0.005603902041912079,-0.016741536557674408
1772810434581137200,7.61513720703125,-0.07166385650634766,-0.0033101290464401245,-0.008228011429309845
1772810434600897000,7.63489697265625,-0.08125019073486328,0.0014361068606376648,-0.010201811790466309
1772810434620657200,7.6546572265625,-0.08604240417480469,-0.0033520013093948364,-0.009889945387840271
1772810434640417000,7.6744169921875,-0.07196807861328125,-0.0055815353989601135,-0.00021710246801376343
1772810434660177200,7.69417724609375,-0.06927108764648438,-0.005255311727523804,-0.0006472617387771606
1772810434679937000,7.71393701171875,-0.10280609130859375,-0.012249961495399475,-0.00816955417394638
1772810434699697000,7.73369677734375,-0.09322452545166016,-0.009874902665615082,-0.01471644639968872
1772810434719457000,7.75345703125,-0.09801673889160156,-0.009640701115131378,-0.0027234703302383423
1772810434739217000,7.773216796875,-0.07196903228759766,0.016629211604595184,-0.01918180286884308
1772810434758977000,7.79297705078125,-0.07196998596191406,0.01904328167438507,-0.009518608450889587
1772810434778737000,7.81273681640625,-0.08095073699951172,-0.0054354071617126465,-0.013406060636043549
1772810434798497000,7.8324970703125,-0.07616424560546875,0.013406075537204742,-0.02080371230840683
1772810434818257000,7.8522568359375,-0.08574485778808594,-0.010866761207580566,-0.0065110474824905396
1772810434838016800,7.872016845703125,-0.10221576690673828,-0.0011728405952453613,0.0032278746366500854
1772810434857777000,7.89177685546875,-0.059693336486816406,0.0057517364621162415,-0.013655617833137512
1772810434877536800,7.911536865234375,-0.064483642578125,0.005749017000198364,0.0055040642619132996
1772810434897297000,7.931296875,-0.06658172607421875,-0.010778464376926422,0.012670047581195831
1772810434917056800,7.951056884765625,-0.06448650360107422,0.0014095902442932129,-0.00402754545211792
1772810434936817000,7.97081689453125,-0.09023761749267578,0.015703357756137848,-0.004680372774600983
1772810434956576800,7.99057666015625,-0.07377243041992188,-0.0032934024930000305,0.0002461373805999756
1772810434976337000,8.0103369140625,-0.0929403305053711,0.011762924492359161,-0.005411997437477112
1772810434996097000,8.030096923828125,-0.07198143005371094,0.021798141300678253,0.012793034315109253
1772810435015858000,8.04985791015625,-0.09084320068359375,0.00009128451347351074,0.007889829576015472
1772810435035618800,8.069618896484375,-0.09354591369628906,0.006650485098361969,-0.01010625809431076
1772810435055380000,8.0893798828125,-0.0839691162109375,0.004253953695297241,-0.016637153923511505
1772810435075140900,8.109140869140624,-0.08846473693847656,0.004250556230545044,-0.003980062901973724
1772810435094901800,8.12890185546875,-0.07439136505126953,-0.017014361917972565,-0.011080190539360046
1772810435114663000,8.148662841796876,-0.0770864486694336,-0.0026278048753738403,-0.003926992416381836
1772810435134423800,8.168423828125,-0.07948017120361328,0.00012656301259994507,0.003003425896167755
1772810435154185000,8.18818505859375,-0.07947921752929688,0.007305033504962921,-0.0015277042984962463
1772810435173945900,8.20794580078125,-0.07439136505126953,0.009193740785121918,0.0004822462797164917
1772810435193706800,8.227706787109375,-0.06929779052734375,-0.010641127824783325,-0.007832355797290802
1772810435213468000,8.247468017578125,-0.09085559844970703,-0.008322261273860931,-0.005569867789745331
1772810435233228800,8.267228759765626,-0.07169437408447266,-0.005955293774604797,-0.0029011815786361694
1772810435252989700,8.28698974609375,-0.08127689361572266,-0.008374914526939392,-0.010055556893348694
1772810435272750800,8.306750732421875,-0.06929779052734375,0.001057460904121399,0.0043169185519218445
1772810435292511700,8.32651171875,-0.08606529235839844,-0.011043526232242584,-0.002904176712036133
1772810435312273000,8.34627294921875,-0.06929683685302734,-0.011010296642780304,-0.01966911554336548
1772810435332033800,8.36603369140625,-0.08606433868408203,-0.001314595341682434,-0.005429461598396301
1772810435351794700,8.385794677734374,-0.07408809661865234,-0.005929283797740936,0.0017107576131820679
1772810435371555800,8.405555908203125,-0.06930065155029297,-0.003169335424900055,-0.00519484281539917
1772810435391316700,8.425316650390625,-0.10283851623535156,-0.005192779004573822,0.00921572744846344
1772810435411078000,8.445077880859374,-0.0932626724243164,-0.009749352931976318,-0.009554058313369751
1772810435430838800,8.4648388671875,-0.08607769012451172,0.007010132074356079,0.012491166591644287
1772810435450599700,8.484599609375,-0.08607673645019531,0.004562094807624817,-0.001622416079044342
1772810435470360800,8.50436083984375,-0.08847236633300781,0.0020145028829574585,-0.013507641851902008
1772810435490121700,8.524121826171875,-0.06720924377441406,-0.0005239546298980713,-0.016115881502628326
1772810435509882000,8.543882080078125,-0.08158302307128906,0.009044334292411804,-0.004119575023651123
1772810435529642500,8.563642578125,-0.10284137725830078,0.006848104298114777,0.000471360981464386
1772810435549402600,8.583402587890625,-0.07919025421142578,0.004454359412193298,0.007933497428894043
1772810435569163000,8.6031630859375,-0.09326457977294922,-0.00067920982837677,-0.006507694721221924
1772810435588923400,8.62292333984375,-0.07200336456298828,-0.013022668659687042,-0.004442252218723297
1772810435608683500,8.64268359375,-0.06931114196777344,0.003949500620365143,-0.001928664743900299
1772810435628444000,8.66244384765625,-0.09057140350341797,-0.005666777491569519,-0.012099802494049072
1772810435648204300,8.682204345703125,-0.07889556884765625,0.006305120885372162,0.0024088844656944275
1772810435667964700,8.701964599609376,-0.07171249389648438,0.006243564188480377,0.00040666013956069946
1772810435687724800,8.721724853515624,-0.08608818054199219,0.01335480809211731,0.0031647756695747375
1772810435707485200,8.741485107421875,-0.09536933898925781,0.0013837292790412903,0.003061644732952118
1772810435727245600,8.76124560546875,-0.07650947570800781,0.015779666602611542,0.005791716277599335
1772810435747005700,8.781005615234376,-0.07890605926513672,0.0015117153525352478,-0.0038004443049430847
1772810435766766000,8.80076611328125,-0.07651138305664062,-0.0007703453302383423,0.001057349145412445
1772810435786526500,8.8205263671875,-0.08130073547363281,0.0016774460673332214,-0.006366327404975891
1772810435806286600,8.84028662109375,-0.0836944580078125,0.004068940877914429,0.007889427244663239
1772810435826047000,8.860046875,-0.08818721771240234,-0.010273844003677368,-0.011191345751285553
1772810435845807400,8.879807373046875,-0.09746742248535156,0.006435215473175049,0.003022618591785431
1772810435865567700,8.899567626953125,-0.08339405059814453,0.015285953879356384,0.002421744167804718
1772810435885328000,8.919327880859376,-0.062132835388183594,0.0007104277610778809,0.009797148406505585
1772810435905088300,8.939088134765624,-0.08339881896972656,0.005394645035266876,-0.004083029925823212
1772810435924848400,8.958848388671875,-0.09058475494384766,0.0029955580830574036,-0.0016417354345321655
1772810435944608800,8.97860888671875,-0.08579444885253906,-0.025784932076931,-0.0016336962580680847
1772810435964369200,8.998369140625,-0.0902853012084961,0.002856343984603882,-0.0015735030174255371
1772810435984129500,9.018129638671875,-0.08339977264404297,0.007734864950180054,0.017606452107429504
1772810436003889200,9.03788916015625,-0.08339977264404297,-0.008953116834163666,-0.013585485517978668
1772810436023648500,9.0576484375,-0.07621192932128906,-0.0017583221197128296,-0.0017010420560836792
1772810436043408000,9.077407958984375,-0.07381534576416016,0.005317583680152893,0.003072097897529602
1772810436063167200,9.097167236328126,-0.0974721908569336,0.007751956582069397,0.0008336305618286133
1772810436082926600,9.116926513671874,-0.06932640075683594,0.014858648180961609,-0.001399412751197815
1772810436102686000,9.13668603515625,-0.09028816223144531,0.012285344302654266,0.0036448612809181213
1772810436122445300,9.1564453125,-0.06454277038574219,-0.006955794990062714,-0.015596523880958557
1772810436142204700,9.17620458984375,-0.08071422576904297,0.00018442422151565552,-0.015415370464324951
1772810436161964000,9.195964111328125,-0.08341217041015625,-0.004690013825893402,-0.0031176209449768066
1772810436181723400,9.215723388671876,-0.0765237808227539,0.010160095989704132,0.01548217236995697
1772810436201482800,9.235482666015624,-0.07173538208007812,0.0006347671151161194,-0.001123681664466858
1772810436221242000,9.2552421875,-0.07652568817138672,-0.0019039809703826904,0.008529171347618103
1772810436241001500,9.27500146484375,-0.07652568817138672,-0.016085252165794373,0.010953359305858612
1772810436260760800,9.2947607421875,-0.08850383758544922,0.017168015241622925,0.006203293800354004
1772810436280520400,9.3145205078125,-0.07682132720947266,0.0004977434873580933,0.017935439944267273
1772810436300279600,9.334279541015626,-0.0837087631225586,0.0008524209260940552,-0.010480418801307678
1772810436320039000,9.354038818359374,-0.07412528991699219,-0.0159744992852211,-0.007864370942115784
1772810436339798300,9.37379833984375,-0.08131217956542969,0.005938917398452759,-0.0130167156457901
1772810436359558000,9.393557861328125,-0.07921504974365234,0.003590494394302368,-0.00826697051525116
1772810436379317000,9.41331689453125,-0.07172870635986328,-0.00433214008808136,-0.0015679225325584412
1772810436399076400,9.433076416015625,-0.05765342712402344,0.010076649487018585,0.0054025426506996155
1772810436418836000,9.4528359375,-0.07441997528076172,0.002990327775478363,0.00041043758392333984
1772810436438595300,9.47259521484375,-0.08849430084228516,-0.004128269851207733,-0.0020272955298423767
1772810436458354700,9.492354736328124,-0.08849143981933594,-0.00904574990272522,0.00021719187498092651
1772810436478113800,9.51211376953125,-0.09777069091796875,0.005218073725700378,0.009572528302669525
1772810436497873200,9.531873046875,-0.08369636535644531,0.01700509339570999,0.0023847147822380066
1772810436517631700,9.5516318359375,-0.0669240951538086,-0.0045875683426856995,-0.00499136745929718
1772810436537390600,9.571390625,-0.0836944580078125,0.005040310323238373,-0.0001957416534423828
1772810436557149400,9.5911494140625,-0.0741119384765625,-0.011898308992385864,0.004691258072853088
1772810436576908000,9.610907958984376,-0.0717172622680664,-0.0024030283093452454,0.0018650218844413757
1772810436596667000,9.6306669921875,-0.0836944580078125,0.0023357942700386047,-0.0005398839712142944
1772810436616425500,9.650425537109374,-0.081298828125,0.004673771560192108,0.011414356529712677
1772810436636184300,9.670184326171874,-0.0812997817993164,0.007262952625751495,0.008950486779212952
1772810436655943000,9.68994287109375,-0.07890033721923828,-0.014561176300048828,-0.005544744431972504
1772810436675701800,9.70970166015625,-0.07171249389648438,-0.007350064814090729,-0.00803481787443161
1772810436695460400,9.72946044921875,-0.07410812377929688,0.004672065377235413,-0.0176704004406929
1772810436715219200,9.74921923828125,-0.08129501342773438,-0.000058628618717193604,0.008609987795352936
1772810436734977800,9.768977783203125,-0.062427520751953125,-0.00223502516746521,0.003505401313304901
1772810436754736600,9.788736572265625,-0.06482505798339844,-0.018846385180950165,-0.0036158785223960876
1772810436774495500,9.80849560546875,-0.07889747619628906,0.00022627413272857666,0.005880303680896759
1772810436794254000,9.828254150390626,-0.09776115417480469,0.014617808163166046,0.0034502819180488586
1772810436814013000,9.848012939453126,-0.08128929138183594,-0.0020880475640296936,0.0006966590881347656
1772810436833771500,9.867771484375,-0.06691455841064453,0.0074823349714279175,0.0005965158343315125
1772810436853530400,9.8875302734375,-0.08817386627197266,-0.001983270049095154,-0.001981697976589203
1772810436873289000,9.9072890625,-0.08577823638916016,0.002806447446346283,-0.006766945123672485
1772810436893047800,9.9270478515625,-0.06931018829345703,0.007586076855659485,-0.00191555917263031
1772810436912806400,9.946806396484375,-0.07649803161621094,0.010119140148162842,0.000482313334941864
1772810436932565200,9.966565185546875,-0.08129310607910156,0.010151058435440063,-0.006373576819896698
1772810436952324000,9.986323974609375,-0.06691837310791016,-0.009034767746925354,-0.008794218301773071
1772810436972082700,10.006082763671875,-0.07171058654785156,-0.0017327368259429932,0.001036621630191803
1772810436991841500,10.025841552734375,-0.05554008483886719,0.012617520987987518,-0.001156046986579895
1772810437011602000,10.045601806640626,-0.06930828094482422,0.010156892240047455,-0.008768074214458466
1772810437031362800,10.06536279296875,-0.07889175415039062,-0.0019137933850288391,0.005750596523284912
1772810437051123500,10.08512353515625,-0.07649517059326172,-0.011666625738143921,-0.008596062660217285
1772810437070884000,10.104884033203126,-0.0956563949584961,0.0074815526604652405,0.0008348822593688965
1772810437090645000,10.12464501953125,-0.09086322784423828,0.005127072334289551,0.01973354071378708
1772810437110405600,10.144405517578125,-0.1049346923828125,0.00984792411327362,0.014805510640144348
1772810437130166300,10.164166259765626,-0.06241416931152344,-0.006945915520191193,-0.0019899606704711914
1772810437149927200,10.18392724609375,-0.07678794860839844,0.0024284422397613525,0.005394741892814636
1772810437169687800,10.203687744140625,-0.09774971008300781,0.00019343942403793335,0.005070537328720093
1772810437189448400,10.223448486328126,-0.08846759796142578,0.012149952352046967,-0.004781059920787811
1772810437209209300,10.243209228515624,-0.0812835693359375,-0.0021075457334518433,0.009726263582706451
1772810437228970000,10.262969970703125,-0.0788888931274414,0.007563650608062744,0.00503116101026535
1772810437248730600,10.282730712890626,-0.09296417236328125,0.0003811195492744446,-0.013937652111053467
1772810437268491500,10.302491455078124,-0.07170486450195312,0.01904834806919098,0.0005422160029411316
1772810437288252200,10.322252197265625,-0.07380390167236328,-0.009265929460525513,0.0031257793307304382
1772810437308013000,10.342012939453125,-0.07170677185058594,0.016748368740081787,0.0031230226159095764
1772810437327773700,10.361773681640624,-0.07889652252197266,0.002480253577232361,-0.0038793161511421204
1772810437347534300,10.381534423828125,-0.07171154022216797,0.006907470524311066,0.00045634061098098755
1772810437367295200,10.401295166015625,-0.07410812377929688,-0.01894179731607437,-0.01072133332490921
1772810437387055900,10.421055908203124,-0.0884847640991211,0.007241256535053253,-0.00007142871618270874
1772810437406816500,10.44081640625,-0.0812978744506836,-0.01453348994255066,-0.0000308305025100708
1772810437426577400,10.460577392578125,-0.06962299346923828,-0.007424496114253998,0.0075538307428359985
1772810437446338000,10.480338134765624,-0.07651138305664062,-0.002929605543613434,-0.004150286316871643
1772810437466098700,10.5000986328125,-0.08130168914794922,-0.00486253947019577,0.007914811372756958
1772810437485859600,10.519859619140625,-0.0648345947265625,-0.004947289824485779,-0.0014001056551933289
1772810437505620000,10.539619873046876,-0.05076026916503906,-0.002691984176635742,0.0033868327736854553
1772810437525380400,10.55938037109375,-0.08370113372802734,-0.0003416910767555237,0.0018485039472579956
1772810437545140500,10.579140380859375,-0.07891082763671875,-0.0051469579339027405,-0.019622884690761566
1772810437564900900,10.59890087890625,-0.05765247344970703,-0.004999682307243347,-0.0027640163898468018
1772810437584661200,10.6186611328125,-0.07681560516357422,0.0015631914138793945,-0.0010881051421165466
1772810437604421600,10.638421630859375,-0.07412242889404297,-0.010252095758914948,-0.005833826959133148
1772810437624181800,10.658181640625,-0.08609580993652344,0.027931705117225647,0.010783210396766663
1772810437643942100,10.677942138671876,-0.07441234588623047,0.01132955402135849,-0.006651923060417175
1772810437663702500,10.69770263671875,-0.0765066146850586,0.006699129939079285,0.009753309190273285
