time,seconds_elapsed,z,y,x
1772810889125327600,0.30432763671875,-0.061049461364746094,-0.004067044705152512,0.01037006638944149
1772810889145088500,0.324088623046875,-0.04697608947753906,0.005641825497150421,-0.003565877676010132
1772810889164849400,0.343849365234375,-0.08021163940429688,0.02034701034426689,-0.020363381132483482
1772810889184610300,0.3636103515625,-0.08260822296142578,-0.010874003171920776,0.003717321902513504
1772810889204371200,0.38337109375,-0.058953285217285156,0.01060490682721138,-0.00508786179125309
1772810889224132000,0.403132080078125,-0.07063102722167969,0.010731108486652374,-0.0003770645707845688
1772810889243893200,0.422893310546875,-0.05416297912597656,0.0009656250476837158,0.009175078943371773
1772810889263654100,0.442654052734375,-0.07302570343017578,0.008330218493938446,0.009353332221508026
1772810889283415000,0.4624150390625,-0.07781791687011719,0.010593339800834656,-0.009735427796840668
1772810889303176000,0.482176025390625,-0.054162025451660156,0.025091007351875305,-0.00023373588919639587
1772810889322936800,0.501936767578125,-0.06374454498291016,0.00819035992026329,0.023483799770474434
1772810889342697700,0.52169775390625,-0.08021259307861328,-0.008502159267663956,-0.010132016614079475
1772810889362459000,0.541458984375,-0.06583881378173828,0.0034986548125743866,-0.00771193765103817
1772810889382219800,0.5612197265625,-0.06823539733886719,-0.003767557442188263,0.02615433931350708
1772810889401980700,0.580980712890625,-0.06104755401611328,0.013229362666606903,-0.007461311295628548
1772810889421741600,0.600741455078125,-0.08021163940429688,0.01101093739271164,-0.014622824266552925
1772810889441502500,0.62050244140625,-0.08021068572998047,-0.007818743586540222,0.006958633661270142
1772810889461263400,0.640263427734375,-0.05865001678466797,0.004233300685882568,-0.002702513709664345
1772810889481024300,0.660024169921875,-0.0799093246459961,0.037994831800460815,-0.0004381556063890457
1772810889500785200,0.67978515625,-0.058648109436035156,-0.009944044053554535,0.0017674695700407028
1772810889520545800,0.6995458984375,-0.07302188873291016,0.0067748017609119415,0.013706715777516365
1772810889540306700,0.719306640625,-0.09458065032958984,0.01870083063840866,-0.017364075407385826
1772810889560067300,0.7390673828125,-0.06583499908447266,0.004278939217329025,-0.012503163889050484
1772810889579828200,0.758828125,-0.06583499908447266,0.004332650452852249,0.006416382268071175
1772810889599588900,0.7785888671875,-0.058948516845703125,0.01625845953822136,-0.005699388682842255
1772810889619349500,0.798349609375,-0.07541942596435547,0.011158760637044907,-0.0008409097790718079
1772810889639110100,0.818110107421875,-0.08021068572998047,0.015897605568170547,-0.0033242199569940567
1772810889658871000,0.83787109375,-0.05655479431152344,0.013554371893405914,0.018144231289625168
1772810889678631700,0.857631591796875,-0.06613731384277344,0.011004481464624405,-0.010222768411040306
1772810889698392300,0.877392333984375,-0.06134510040283203,0.018241167068481445,-0.01728723756968975
1772810889718153200,0.8971533203125,-0.07062911987304688,0.018085110932588577,-0.005086708813905716
1772810889737913900,0.916913818359375,-0.08500289916992188,-0.010758008807897568,-0.009859524667263031
1772810889757674500,0.936674560546875,-0.06374359130859375,-0.008511986583471298,-0.00250193290412426
1772810889777435400,0.956435302734375,-0.061348915100097656,0.010600365698337555,-0.0072243716567754745
1772810889797196000,0.976196044921875,-0.0682363510131836,0.0033124499022960663,-0.007259495556354523
1772810889816956700,0.995956787109375,-0.0802154541015625,0.005503438413143158,-0.00009801238775253296
1772810889836717600,1.015717529296875,-0.0778207778930664,0.0007154680788516998,-0.005016736686229706
1772810889856478200,1.035478271484375,-0.0730295181274414,-0.0065180398523807526,-0.00036615878343582153
1772810889876238800,1.05523876953125,-0.0634469985961914,-0.0017229542136192322,-0.007533768191933632
1772810889895999700,1.074999755859375,-0.05626106262207031,0.005516503006219864,-0.00996238924562931
1772810889915760400,1.094760498046875,-0.056260108947753906,0.0007797889411449432,0.006663734093308449
1772810889935521000,1.11452099609375,-0.05626106262207031,-0.020873233675956726,-0.0027476493269205093
1772810889955282000,1.134281982421875,-0.0778207778930664,0.029125899076461792,-0.0002849940210580826
1772810889975042600,1.15404248046875,-0.05626106262207031,-0.011290986090898514,-0.002612769603729248
1772810889994803500,1.173803466796875,-0.05416584014892578,0.005375467240810394,0.0047838203608989716
1772810890014566700,1.193566650390625,-0.07303047180175781,0.002827320247888565,0.0035075917840003967
1772810890034329600,1.21332958984375,-0.044884681701660156,0.003128349781036377,-0.020012276247143745
1772810890054092500,1.233092529296875,-0.08261394500732422,-0.006148647516965866,0.027747461572289467
1772810890073855500,1.25285546875,-0.05895805358886719,0.0056750960648059845,0.006046846508979797
1772810890093618700,1.27261865234375,-0.07542705535888672,0.003436736762523651,-0.015438597649335861
1772810890113381600,1.292381591796875,-0.05686187744140625,0.02249128371477127,0.008785663172602654
1772810890133144600,1.31214453125,-0.07782363891601562,-0.006248984485864639,0.015929050743579865
1772810890152907500,1.331907470703125,-0.0637502670288086,0.012706376612186432,-0.0004620905965566635
1772810890172670500,1.35167041015625,-0.0709381103515625,0.00796705111861229,0.004652341827750206
1772810890192433700,1.37143359375,-0.08740806579589844,-0.0022716671228408813,0.009310007095336914
1772810890212196600,1.391196533203125,-0.06614875793457031,-0.00974993035197258,0.006628014147281647
1772810890231959600,1.41095947265625,-0.07543277740478516,0.009155135601758957,-0.0050729066133499146
1772810890251722500,1.430722412109375,-0.05896282196044922,0.004468400031328201,-0.0029193125665187836
1772810890271485700,1.450485595703125,-0.07303714752197266,-0.012291114777326584,0.03067035786807537
1772810890291248600,1.47024853515625,-0.07543373107910156,0.011402972042560577,-0.014873845502734184
1772810890311011600,1.490011474609375,-0.06824588775634766,0.011503871530294418,0.013828886672854424
1772810890330774500,1.5097744140625,-0.07064247131347656,0.004215173423290253,-0.00037388503551483154
1772810890350537700,1.529537841796875,-0.07333850860595703,-0.012749776244163513,-0.0004604533314704895
1772810890370300700,1.54930078125,-0.06585121154785156,0.013700142502784729,0.0020527150481939316
1772810890390063600,1.569063720703125,-0.06854724884033203,-0.00037010014057159424,-0.006746746599674225
1772810890409826600,1.58882666015625,-0.06375598907470703,0.007115192711353302,0.0008053183555603027
1772810890429589800,1.60858984375,-0.07094287872314453,0.009560417383909225,0.005660157650709152
1772810890449352700,1.628352783203125,-0.08262157440185547,-0.002309240400791168,-0.0038527119904756546
1772810890469115600,1.64811572265625,-0.08022689819335938,0.016745366156101227,0.003346869722008705
1772810890488878600,1.667878662109375,-0.08741283416748047,0.007007867097854614,0.008509645238518715
1772810890508640500,1.687640625,-0.06854915618896484,0.0070077888667583466,-0.003500601276755333
1772810890528402400,1.70740234375,-0.059266090393066406,0.007058188319206238,0.010983549058437347
1772810890548164000,1.7271640625,-0.07124519348144531,0.014136575162410736,0.020981965586543083
1772810890567925800,1.74692578125,-0.06884956359863281,0.007001437246799469,-0.0006120931357145309
1772810890587687700,1.766687744140625,-0.07813358306884766,0.01123126596212387,-0.0031869765371084213
1772810890607449300,1.786449462890625,-0.06375980377197266,-0.007976401597261429,0.027653774246573448
1772810890627211000,1.8062109375,-0.0754384994506836,0.001360088586807251,-0.005761018022894859
1772810890646973000,1.825972900390625,-0.0778341293334961,0.01343558356165886,-0.008136862888932228
1772810890666734600,1.845734619140625,-0.0778341293334961,0.006248939782381058,0.015927638858556747
1772810890686496300,1.865496337890625,-0.06585502624511719,-0.005722265690565109,-0.003374820575118065
1772810890706258200,1.885258056640625,-0.08022880554199219,0.020876210182905197,-0.008042311295866966
1772810890726019800,1.905019775390625,-0.058669090270996094,0.0065029822289943695,-0.003335803747177124
1772810890745781500,1.924781494140625,-0.06585407257080078,0.006656557321548462,0.02067207172513008
1772810890765543400,1.94454345703125,-0.07543659210205078,0.013682287186384201,-0.0011296812444925308
1772810890785305000,1.96430517578125,-0.08022880554199219,0.030382107943296432,0.001279938966035843
1772810890805066800,1.984066650390625,-0.09460067749023438,0.004630539566278458,0.011364184319972992
1772810890824828400,2.003828369140625,-0.05926799774169922,0.016600042581558228,0.011475134640932083
1772810890844590300,2.02359033203125,-0.06166362762451172,0.004571102559566498,-0.007668111473321915
1772810890864352000,2.04335205078125,-0.06855106353759766,0.0020222924649715424,-0.0027572419494390488
1772810890884113700,2.06311376953125,-0.07124614715576172,-0.0052085258066654205,0.009178420528769493
1772810890903875600,2.08287548828125,-0.07573699951171875,0.0021344535052776337,0.004543943330645561
1772810890923637200,2.10263720703125,-0.06645393371582031,0.006975498050451279,0.007042998448014259
1772810890943399000,2.12239892578125,-0.07813358306884766,0.0043733566999435425,0.026357490569353104
1772810890963160800,2.142160888671875,-0.06406021118164062,-0.010040387511253357,-0.0022157039493322372
1772810890982922500,2.161922607421875,-0.06645584106445312,0.01380431279540062,0.012266796082258224
1772810891002684000,2.181683837890625,-0.06885051727294922,0.011506892740726471,0.011778092011809349
1772810891022445300,2.2014453125,-0.0850210189819336,-0.002911895513534546,-0.005125571042299271
1772810891042206700,2.221206787109375,-0.06855201721191406,0.006564907729625702,-0.009894052520394325
1772810891061968100,2.240968017578125,-0.06405925750732422,0.013898711651563644,0.006884004920721054
1772810891081729500,2.2607294921875,-0.0778360366821289,-0.0006252788007259369,-0.00018365122377872467
1772810891101490700,2.28049072265625,-0.06166553497314453,0.015927523374557495,0.009406574070453644
1772810891121252000,2.300252197265625,-0.07574081420898438,-0.010617807507514954,0.014252882450819016
1772810891141013500,2.320013427734375,-0.06855487823486328,-0.0035804659128189087,0.00686907023191452
1772810891160775000,2.33977490234375,-0.05687713623046875,0.02749021351337433,0.002142995595932007
1772810891180536300,2.359536376953125,-0.07783699035644531,0.01571003720164299,-0.010017449036240578
1772810891200297500,2.37929736328125,-0.07574081420898438,0.0011856332421302795,0.007360225543379784
1772810891220059000,2.399058837890625,-0.06645774841308594,-0.0013071224093437195,0.019029440358281136
1772810891239820300,2.4188203125,-0.06885337829589844,0.0010411664843559265,-0.007399659603834152
1772810891259581700,2.438581787109375,-0.08053302764892578,0.017593298107385635,-0.00029885396361351013
1772810891279343000,2.458343017578125,-0.08532428741455078,0.02468297630548477,0.02352748066186905
1772810891299104500,2.4781044921875,-0.0946054458618164,-0.0039060525596141815,-0.002589793875813484
1772810891318865700,2.49786572265625,-0.08053302764892578,0.0055138543248176575,0.0020671039819717407
1772810891338627000,2.517626953125,-0.10898017883300781,-0.011350065469741821,0.004275217652320862
1772810891358388500,2.537388427734375,-0.054482460021972656,-0.006555303931236267,0.019016820937395096
1772810891378150000,2.55714990234375,-0.09460639953613281,-0.004106581211090088,-0.0025169532746076584
1772810891397911300,2.576911376953125,-0.08263015747070312,0.0023733340203762054,0.01550980657339096
1772810891417672700,2.596672607421875,-0.07544517517089844,-0.0002820901572704315,0.013125969097018242
1772810891437433900,2.616433837890625,-0.07784080505371094,0.0260426327586174,-0.0036674831062555313
1772810891457195300,2.6361953125,-0.06825828552246094,0.016444046050310135,-0.0060849543660879135
1772810891476956700,2.655956787109375,-0.06586265563964844,0.00675075501203537,-0.00590098462998867
1772810891496718000,2.675718017578125,-0.07305049896240234,-0.010113619267940521,-0.013000573962926865
1772810891516480500,2.69548046875,-0.08263301849365234,0.01856115832924843,0.0060259755700826645
1772810891536242700,2.71524267578125,-0.06825828552246094,0.016354389488697052,0.010375211015343666
1772810891556005000,2.735005126953125,-0.08502769470214844,0.0021328553557395935,-0.00884873978793621
1772810891575767600,2.754767578125,-0.08023643493652344,-0.012230303138494492,0.0008590910583734512
1772810891595529700,2.77452978515625,-0.09191513061523438,0.006770160049200058,0.0012322347611188889
1772810891615292200,2.794292236328125,-0.08263301849365234,0.0066584572196006775,0.0032453592866659164
1772810891635054300,2.814054443359375,-0.07305049896240234,-0.0004779994487762451,0.010238584131002426
1772810891654816800,2.833816650390625,-0.08472728729248047,0.006700057536363602,-0.011286012828350067
1772810891674579000,2.853578857421875,-0.08502769470214844,0.006536882370710373,-0.0186885017901659
1772810891694341400,2.87334130859375,-0.07305049896240234,0.004135433584451675,-0.004339275881648064
1772810891714103600,2.893103515625,-0.08023738861083984,0.008915651589632034,0.00994420237839222
1772810891733866000,2.912865966796875,-0.07784080505371094,0.004273112863302231,0.002777840942144394
1772810891753628200,2.932628173828125,-0.06346797943115234,0.025205951184034348,0.004778686910867691
1772810891773390600,2.952390625,-0.06586265563964844,-0.000990409404039383,0.012028003111481667
1772810891793153000,2.972153076171875,-0.06136894226074219,-0.010057605803012848,0.002664031460881233
1772810891812915200,2.991915283203125,-0.061069488525390625,0.016572654247283936,-0.011220118030905724
1772810891832677600,3.011677734375,-0.07065200805664062,0.014211900532245636,-0.0017166193574666977
1772810891852439800,3.031439697265625,-0.08023357391357422,0.002436593174934387,0.0004954952746629715
1772810891872202200,3.0512021484375,-0.09191131591796875,-0.0071910060942173,0.00072508305311203
1772810891891964400,3.07096435546875,-0.06346416473388672,0.009772039949893951,-0.020942263305187225
1772810891911726800,3.090726806640625,-0.07304763793945312,0.00960465520620346,-0.01366671733558178
1772810891931489000,3.110489013671875,-0.06825542449951172,-0.009241551160812378,0.0007286500185728073
1772810891951251500,3.13025146484375,-0.0874166488647461,0.015004616230726242,0.00028646737337112427
1772810891971014000,3.150013916015625,-0.08741474151611328,0.010561428964138031,0.009674325585365295
1772810891990776000,3.169776123046875,-0.0706472396850586,0.005711067467927933,0.009388884529471397
1772810892010537500,3.189537353515625,-0.08472156524658203,0.005651317536830902,-0.002912994474172592
1772810892030299100,3.209299072265625,-0.0586700439453125,0.0007027871906757355,0.018443115055561066
1772810892050060500,3.229060546875,-0.0778341293334961,0.01021970808506012,0.018084954470396042
1772810892069822000,3.248822021484375,-0.07543754577636719,0.0052763931453228,0.008413765579462051
1772810892089583400,3.268583251953125,-0.06585693359375,0.011889513581991196,-0.000886404886841774
1772810892109344800,3.2883447265625,-0.0730428695678711,0.0048503875732421875,-0.00590556301176548
1772810892129106200,3.308106201171875,-0.06825065612792969,0.002449803054332733,0.0034884754568338394
1772810892148867800,3.327867919921875,-0.08681583404541016,0.004992619156837463,0.015729503706097603
1772810892168629200,3.347629150390625,-0.07783317565917969,0.0025920793414115906,-0.0009630788117647171
1772810892188390700,3.367390625,-0.07543754577636719,0.0005963556468486786,0.0018040090799331665
1772810892208152000,3.387152099609375,-0.05178260803222656,0.01769314706325531,-0.00031960755586624146
1772810892227913500,3.40691357421875,-0.07304191589355469,0.010544080287218094,-0.00487467460334301
1772810892247675000,3.4266748046875,-0.07783222198486328,-0.010849520564079285,-0.00011220388114452362
1772810892267436500,3.4464365234375,-0.0919046401977539,0.018079254776239395,-0.0000889170914888382
1772810892287198000,3.466197998046875,-0.08741283416748047,-0.008262760937213898,0.00945388525724411
1772810892306959400,3.48595947265625,-0.08501911163330078,-0.0010766535997390747,0.007434658706188202
1772810892326720800,3.505720703125,-0.05866718292236328,0.001418374478816986,-0.011794745922088623
1772810892346482200,3.525482177734375,-0.08022785186767578,-0.015384647995233536,0.002598663792014122
1772810892366243600,3.54524365234375,-0.07064628601074219,0.006165117025375366,-0.004352753981947899
1772810892386005000,3.5650048828125,-0.07304000854492188,-0.0007642954587936401,-0.004221310839056969
1772810892405766700,3.5847666015625,-0.08980846405029297,-0.0006619282066822052,0.00238691084086895
1772810892425528000,3.604528076171875,-0.08501720428466797,0.009216144680976868,0.01899952068924904
1772810892445289500,3.62428955078125,-0.08501434326171875,0.004521258175373077,-0.007523808628320694
1772810892465051000,3.64405078125,-0.09429645538330078,-0.00011628866195678711,-0.014822885394096375
1772810892484812300,3.663812255859375,-0.05177783966064453,0.004667133092880249,-0.017378712072968483
1772810892504574000,3.683573974609375,-0.06824493408203125,0.016827967017889023,-0.00048286281526088715
1772810892524335400,3.70333544921875,-0.09189891815185547,0.03136543929576874,0.011606192216277122
1772810892544097000,3.723096923828125,-0.07543087005615234,0.01223551481962204,0.004333902150392532
1772810892563858400,3.7428583984375,-0.08261871337890625,0.014558937400579453,-0.0003813207149505615
1772810892583620000,3.7626201171875,-0.07063961029052734,-0.004600834101438522,0.008799634873867035
1772810892603381800,3.7823818359375,-0.09160041809082031,0.009808972477912903,0.011255066841840744
1772810892623143200,3.80214306640625,-0.08501243591308594,-0.0070552341639995575,-0.0008529685437679291
1772810892642904800,3.82190478515625,-0.0915994644165039,0.01224534958600998,0.008791962638497353
1772810892662666200,3.841666259765625,-0.08471393585205078,-0.004673786461353302,0.008699964731931686
1772810892682428000,3.861427978515625,-0.07303524017333984,-0.0001842193305492401,-0.01271669752895832
1772810892702189600,3.881189453125,-0.07063961029052734,-0.007063522934913635,-0.0032614637166261673
1772810892721951000,3.900950927734375,-0.07542991638183594,0.004709385335445404,-0.020341040566563606
1772810892741712600,3.920712646484375,-0.0939931869506836,0.011837087571620941,0.003529498353600502
1772810892761474000,3.94047412109375,-0.08021926879882812,0.00275532528758049,0.0037536751478910446
1772810892781235700,3.960235595703125,-0.09878349304199219,0.028713621199131012,-0.010581932961940765
1772810892800997400,3.979997314453125,-0.08231544494628906,0.00001737847924232483,0.005551151931285858
1772810892820758800,3.9997587890625,-0.07063674926757812,0.02388569340109825,0.01253645308315754
1772810892840520400,4.0195205078125,-0.06824207305908203,-0.0048033371567726135,-0.01340971514582634
1772810892860281900,4.03928173828125,-0.09638786315917969,-0.0045921653509140015,-0.011027306318283081
1772810892880043500,4.05904345703125,-0.06345081329345703,0.00492902472615242,-0.004122346639633179
1772810892899805200,4.07880517578125,-0.07303142547607422,0.01713927462697029,-0.0042470358312129974
1772810892919566600,4.098566650390625,-0.07512760162353516,0.022052649408578873,-0.025385895743966103
1772810892939328300,4.118328369140625,-0.08470916748046875,0.019576162099838257,0.003326728940010071
1772810892959089700,4.138089599609375,-0.0772237777709961,0.0076894499361515045,-0.013347547501325607
1772810892978851300,4.157851318359375,-0.0796194076538086,0.002841312438249588,-0.013253312557935715
1772810892998613000,4.177613037109375,-0.061054229736328125,0.02451718971133232,-0.008480226621031761
1772810893018375400,4.19737548828125,-0.07303047180175781,-0.0016276873648166656,-0.005847310647368431
1772810893038137900,4.217137939453125,-0.05626201629638672,-0.0015259385108947754,-0.01075565442442894
1772810893057900000,4.236900146484375,-0.08201217651367188,0.02252453938126564,0.0011965613812208176
1772810893077662500,4.256662353515625,-0.0754251480102539,0.005749151110649109,-0.005689792335033417
1772810893097424600,4.276424560546875,-0.07512664794921875,0.0008549541234970093,-0.008194627240300179
1772810893117187000,4.29618701171875,-0.07991790771484375,0.00569036602973938,0.0133784469217062
1772810893136949200,4.31594921875,-0.06344985961914062,0.000744987279176712,-0.007979758083820343
1772810893156711700,4.335711669921875,-0.09638690948486328,0.0007966756820678711,0.004076479002833366
1772810893176473900,4.355473876953125,-0.06344985961914062,-0.003987230360507965,0.01112532988190651
1772810893196236300,4.375236328125,-0.058658599853515625,0.000751890242099762,0.003966102376580238
1772810893215998500,4.39499853515625,-0.09159564971923828,0.00538114458322525,-0.001151369884610176
1772810893235761000,4.414760986328125,-0.08710479736328125,-0.004038501530885696,0.0014820266515016556
1772810893255523300,4.4345234375,-0.07512760162353516,0.007928185164928436,-0.022457268089056015
1772810893275285500,4.454285400390625,-0.08920001983642578,0.0006389208137989044,0.011096339672803879
1772810893295048000,4.4740478515625,-0.07752418518066406,0.002980150282382965,0.011269232258200645
1772810893314810000,4.49381005859375,-0.0868062973022461,-0.006693705916404724,0.00416133739054203
1772810893334572500,4.513572509765625,-0.05866050720214844,0.026700444519519806,0.0017970409244298935
1772810893354334700,4.533334716796875,-0.089202880859375,-0.002040378749370575,0.006612710654735565
1772810893374097200,4.55309716796875,-0.10597038269042969,0.005397539585828781,-0.002930896356701851
1772810893393859300,4.572859375,-0.061054229736328125,0.024576611816883087,0.004386197775602341
1772810893413621800,4.592621826171875,-0.07512855529785156,0.0006224662065505981,-0.000565679743885994
1772810893433384000,4.612384033203125,-0.07512855529785156,0.0030666887760162354,-0.005509290844202042
1772810893453146400,4.632146484375,-0.07962226867675781,0.03160977363586426,0.004100147634744644
1772810893472908800,4.65190869140625,-0.06075572967529297,0.01746947690844536,0.004076996818184853
1772810893492671000,4.6716708984375,-0.070037841796875,-0.018484070897102356,0.013516737148165703
1772810893512433400,4.691433349609375,-0.08471012115478516,0.005814079195261002,0.007550079375505447
1772810893532195600,4.711195556640625,-0.0829153060913086,0.027723558247089386,0.006376367062330246
1772810893551958000,4.7309580078125,-0.07123756408691406,0.008971717208623886,-0.00009021908044815063
1772810893571720400,4.750720458984375,-0.08082008361816406,0.007283750921487808,0.001165594905614853
1772810893591483000,4.77048291015625,-0.08860588073730469,0.02453644573688507,-0.0025175511837005615
1772810893611245300,4.790245361328125,-0.058063507080078125,0.00827758014202118,0.013091892004013062
1772810893631007500,4.810007568359375,-0.08920669555664062,-0.0008315965533256531,0.019264444708824158
1772810893650770000,4.82977001953125,-0.07064151763916016,0.023453041911125183,0.03249800205230713
1772810893670532400,4.849532470703125,-0.08980560302734375,0.021947622299194336,0.0024551227688789368
1772810893690294800,4.869294677734375,-0.08292007446289062,0.0008067823946475983,0.029911497607827187
1772810893710057000,4.889056884765625,-0.07184028625488281,0.0074227117002010345,0.008267471566796303
1772810893729819400,4.9088193359375,-0.0703439712524414,-0.01038077101111412,-0.007257871329784393
1772810893749581800,4.928581787109375,-0.09160423278808594,0.00866711512207985,0.00898243859410286
1772810893769344300,4.94834423828125,-0.06795024871826172,0.003716427832841873,0.0019297581166028976
1772810893789106400,4.9681064453125,-0.07723236083984375,0.0038148127496242523,-0.007502604275941849
1772810893808868900,4.987868896484375,-0.09160423278808594,0.008448652923107147,0.01422162726521492
1772810893828631300,5.00763134765625,-0.07004547119140625,0.015610575675964355,0.011737380176782608
1772810893848393700,5.027393798828125,-0.06315898895263672,-0.0013089030981063843,0.002186400815844536
1772810893868156000,5.047156005859375,-0.07753276824951172,0.0005294457077980042,0.013864532113075256
1772810893887918300,5.06691845703125,-0.07244300842285156,0.0005298517644405365,0.006906773895025253
1772810893907680800,5.0866806640625,-0.08232498168945312,0.00545792281627655,-0.004831850528717041
1772810893927443200,5.106443115234375,-0.08232593536376953,0.012923739850521088,0.0075184982270002365
1772810893947205400,5.126205322265625,-0.08232498168945312,-0.0015485137701034546,0.014558866620063782
1772810893966967800,5.1459677734375,-0.08921146392822266,0.00568147748708725,0.0004258379340171814
1772810893986730200,5.165730224609375,-0.08442115783691406,-0.008778128772974014,-0.006766697391867638
1772810894006491400,5.185491455078125,-0.0658559799194336,-0.008710771799087524,0.005884043872356415
1772810894026252000,5.205251953125,-0.0730428695678711,0.0007675476372241974,0.008195079863071442
1772810894046012700,5.2250126953125,-0.08711719512939453,-0.00890052318572998,0.020069511607289314
1772810894065773600,5.244773681640625,-0.08472156524658203,0.01482342928647995,0.019707437604665756
1772810894085534200,5.2645341796875,-0.07513999938964844,-0.018029864877462387,0.0077513437718153
1772810894105294800,5.284294921875,-0.09160804748535156,-0.006339583545923233,0.009863931685686111
1772810894125055500,5.304055419921875,-0.08442211151123047,0.007721893489360809,0.006798518821597099
1772810894144816000,5.323816162109375,-0.08442211151123047,0.0028754286468029022,0.00890178233385086
1772810894164576800,5.34357666015625,-0.06795310974121094,0.0028719529509544373,0.011311832815408707
1772810894184337400,5.36333740234375,-0.07274436950683594,-0.004254058003425598,-0.005464697256684303
1772810894204098000,5.38309814453125,-0.08681869506835938,-0.016510721296072006,0.006637893617153168
1772810894223859000,5.40285888671875,-0.07484149932861328,0.0002069510519504547,0.00879347138106823
1772810894243619600,5.42261962890625,-0.07244586944580078,0.0021969377994537354,0.013593440875411034
1772810894263380200,5.442380126953125,-0.08442306518554688,-0.0003924258053302765,0.0013382509350776672
1772810894283140900,5.462140869140625,-0.07484149932861328,-0.0027816258370876312,-0.008143944665789604
1772810894302901500,5.481901611328125,-0.08202838897705078,0.016302987933158875,0.001417679712176323
1772810894322662100,5.501662109375,-0.08921337127685547,0.014688268303871155,0.001995304599404335
1772810894342422800,5.5214228515625,-0.07753562927246094,-0.004465971142053604,-0.009775439277291298
1772810894362183700,5.54118359375,-0.07993030548095703,0.010045379400253296,0.009147923439741135
1772810894381944300,5.5609443359375,-0.07993125915527344,0.014811649918556213,0.007033057510852814
1772810894401705000,5.580705078125,-0.070648193359375,-0.006837286055088043,-0.0026137419044971466
1772810894421465600,5.600465576171875,-0.05627632141113281,0.007420621812343597,-0.0002862755209207535
1772810894441226200,5.620226318359375,-0.08711814880371094,0.00730544701218605,0.009961454197764397
1772810894460987000,5.63998681640625,-0.0778360366821289,-0.004661973565816879,0.0028555337339639664
1772810894480747500,5.65974755859375,-0.0754404067993164,0.01213720440864563,0.010160138830542564
1772810894500509000,5.679509033203125,-0.06585884094238281,0.004840277135372162,-0.006716322153806686
1772810894520271000,5.69927099609375,-0.07723808288574219,-0.005331430584192276,-0.020473230630159378
1772810894540033500,5.719033447265625,-0.08442306518554688,0.01146705448627472,-0.008551383391022682
1772810894559796000,5.7387958984375,-0.07963275909423828,-0.029151279479265213,-0.0037733353674411774
1772810894579558100,5.75855810546875,-0.07723712921142578,0.018723219633102417,0.008014421910047531
1772810894599320600,5.778320556640625,-0.08172988891601562,0.0041360557079315186,0.015153825283050537
1772810894619082800,5.798082763671875,-0.08891582489013672,-0.0030963756144046783,0.009778281673789024
1772810894638845200,5.81784521484375,-0.07484245300292969,-0.0010508373379707336,0.014470377936959267
1772810894658607400,5.837607421875,-0.08651924133300781,0.013255126774311066,-0.016609368845820427
1772810894678369800,5.857369873046875,-0.06286430358886719,0.008396223187446594,0.0026846230030059814
1772810894698132000,5.877132080078125,-0.07693862915039062,0.015449747443199158,0.0026076938956975937
1772810894717894400,5.896894287109375,-0.06106853485107422,0.004660379141569138,0.006715018302202225
1772810894737656600,5.916656494140625,-0.08442306518554688,0.002517368644475937,0.004341898486018181
1772810894757419000,5.9364189453125,-0.07993316650390625,0.007191065698862076,-0.012165157124400139
1772810894777181200,5.95618115234375,-0.06585979461669922,-0.005034953355789185,-0.0002572406083345413
1772810894796943600,5.975943603515625,-0.08232879638671875,-0.007313624024391174,-0.005006697028875351
1772810894816705800,5.995705810546875,-0.09190940856933594,-0.00012770667672157288,-0.004420332610607147
1772810894836468200,6.01546826171875,-0.07783794403076172,0.004968807101249695,0.007668865844607353
1772810894856230400,6.03523046875,-0.08263015747070312,0.002693343907594681,0.017542816698551178
1772810894875992800,6.054992919921875,-0.061069488525390625,0.019508160650730133,0.00536448135972023
1772810894895755000,6.074755126953125,-0.07065105438232422,-0.0021177642047405243,0.014831328764557838
1772810894915517400,6.094517333984375,-0.06825637817382812,-0.005224894732236862,0.002369532361626625
1772810894935279600,6.114279541015625,-0.07993507385253906,0.006720472127199173,0.004566071555018425
1772810894955042000,6.1340419921875,-0.07035255432128906,0.013911876827478409,-0.00005494989454746246
1772810894974804200,6.15380419921875,-0.07304668426513672,-0.012279372662305832,0.000011997297406196594
1772810894994566400,6.17356640625,-0.08472537994384766,0.0019667334854602814,0.03588942438364029
1772810895014327800,6.193327880859375,-0.07274913787841797,-0.010216839611530304,-0.004757259041070938
1772810895034089200,6.213089111328125,-0.07065200805664062,-0.010216515511274338,0.01418803259730339
1772810895053850600,6.2328505859375,-0.06825637817382812,-0.005383148789405823,0.011784911155700684
1772810895073612000,6.252612060546875,-0.07993507385253906,0.013837337493896484,-0.005009939894080162
1772810895093373200,6.272373291015625,-0.06825637817382812,-0.005335360765457153,-0.004932483658194542
1772810895113134600,6.292134521484375,-0.07993507385253906,0.01363757997751236,0.007005194202065468
1772810895132896000,6.31189599609375,-0.0748453140258789,0.013189423829317093,-0.00290655717253685
1772810895152657400,6.331657470703125,-0.0844278335571289,0.0014891065657138824,-0.0005462896078824997
1772810895172418600,6.35141845703125,-0.0700531005859375,-0.0010170675814151764,-0.0006846729665994644
1772810895192180000,6.371179931640625,-0.0796346664428711,-0.010247085243463516,0.00640132836997509
1772810895211941400,6.39094140625,-0.0724477767944336,0.015804670751094818,0.0063530560582876205
1772810895231702800,6.410702880859375,-0.058373451232910156,-0.019952677190303802,-0.00559762679040432
1772810895251464200,6.430464111328125,-0.0604705810546875,0.003923185169696808,0.008474739268422127
1772810895271225600,6.4502255859375,-0.0748434066772461,0.008986670523881912,0.003599591553211212
1772810895290986800,6.46998681640625,-0.09370613098144531,0.0019321106374263763,-0.012920472770929337
1772810895310748200,6.489748046875,-0.07514190673828125,0.004598233848810196,0.006493458524346352
1772810895330509600,6.509509521484375,-0.07514095306396484,0.0001902058720588684,-0.005261421203613281
1772810895350271000,6.52927099609375,-0.08442306518554688,-0.00445609912276268,-0.0002988521009683609
1772810895370032400,6.549032470703125,-0.08442306518554688,0.009877517819404602,-0.007403204217553139
1772810895389793500,6.56879345703125,-0.0658578872680664,0.007550559937953949,0.01204114779829979
1772810895409555000,6.588554931640625,-0.07723808288574219,0.0002407766878604889,-0.0021057985723018646
1772810895429316400,6.60831640625,-0.061066627502441406,0.007392626255750656,-0.009464044123888016
1772810895449077800,6.628077880859375,-0.07034969329833984,0.005070734769105911,0.0073570068925619125
1772810895468839200,6.647839111328125,-0.07034969329833984,-0.004470083862543106,0.0001855064183473587
1772810895488600600,6.6676005859375,-0.05867195129394531,0.005082331597805023,0.012051727622747421
1772810895508362500,6.687362548828125,-0.07723712921142578,0.012172762304544449,-0.009730538353323936
1772810895528124700,6.707124755859375,-0.06106758117675781,0.012231618165969849,-0.009591694921255112
1772810895547886800,6.726886962890625,-0.06555747985839844,-0.004289031028747559,0.007384480908513069
1772810895567649000,6.74664892578125,-0.08202838897705078,0.009940993040800095,-0.011790838092565536
1772810895587411200,6.7664111328125,-0.08921527862548828,0.004862967878580093,-0.007020367309451103
1772810895607173400,6.78617333984375,-0.06106758117675781,-0.011746056377887726,0.017120936885476112
1772810895626935600,6.805935546875,-0.06795406341552734,0.004992548376321793,-0.002022974193096161
1772810895646697700,6.82569775390625,-0.08442306518554688,0.0076628439128398895,0.0026752501726150513
1772810895666460000,6.8454599609375,-0.07514095306396484,-0.0092603899538517,0.007415426895022392
1772810895686222000,6.86522216796875,-0.05867195129394531,0.01708647981286049,0.007261071354150772
1772810895705984300,6.884984375,-0.0706472396850586,0.002946116030216217,-0.004742596298456192
1772810895725746400,6.904746337890625,-0.09160614013671875,-0.020675063133239746,-0.0025843828916549683
1772810895745508600,6.924508544921875,-0.07064533233642578,0.0154636912047863,0.004556842148303986
1772810895765270800,6.944270751953125,-0.08681392669677734,0.0060049258172512054,0.014228129759430885
1772810895785033000,6.964032958984375,-0.06824874877929688,-0.0011983849108219147,0.0022617075592279434
1772810895804795100,6.983795166015625,-0.07543563842773438,-0.005789760500192642,-0.007288554683327675
1772810895824557600,7.0035576171875,-0.06345748901367188,0.025330185890197754,-0.005228355526924133
1772810895844319700,7.02331982421875,-0.08232307434082031,0.006082609295845032,-0.007046051323413849
1772810895864082000,7.04308203125,-0.06345653533935547,0.00874975323677063,-0.009303592145442963
1772810895883849000,7.062848876953125,-0.08022689819335938,0.0062698908150196075,-0.0018398687243461609
1772810895903611100,7.082611083984375,-0.06824874877929688,0.01824088767170906,0.007792731747031212
1772810895923373300,7.102373291015625,-0.06824779510498047,-0.0008887574076652527,0.00485573522746563
1772810895943135500,7.122135498046875,-0.08202362060546875,0.0159294530749321,-0.018888993188738823
1772810895962897700,7.141897705078125,-0.07064342498779297,-0.005482751876115799,0.012447811663150787
1772810895982659800,7.161659912109375,-0.06585216522216797,0.0017319060862064362,-0.004296481609344482
1772810896002421800,7.181421875,-0.07753181457519531,0.025663770735263824,0.012562945485115051
1772810896022183200,7.20118310546875,-0.07274055480957031,0.020912081003189087,-0.001841830089688301
1772810896041944800,7.22094482421875,-0.07753276824951172,-0.01770668849349022,0.005503615364432335
1772810896061706200,7.240706298828125,-0.08681392669677734,-0.005530405789613724,0.0005715824663639069
1772810896081468000,7.260468017578125,-0.06824874877929688,0.003971979022026062,0.0028218477964401245
1772810896101229300,7.280229248046875,-0.06345844268798828,0.008621372282505035,-0.004494884982705116
1772810896120990700,7.29999072265625,-0.06824970245361328,0.0067392438650131226,-0.003820374608039856
1772810896140752400,7.31975244140625,-0.06585407257080078,0.013927765190601349,0.003322787582874298
1772810896160513800,7.339513671875,-0.05627250671386719,-0.0001543685793876648,-0.0015521347522735596
1772810896180275500,7.359275390625,-0.07543468475341797,0.002165701240301132,0.0007033366709947586
1772810896200036900,7.379036865234375,-0.06824874877929688,-0.014641936868429184,-0.01580848917365074
1772810896219798500,7.398798583984375,-0.07303905487060547,0.014362763613462448,0.01530427671968937
1772810896239560000,7.418559814453125,-0.06585121154785156,0.021586041897535324,0.008311482146382332
1772810896259321600,7.438321533203125,-0.08262157440185547,0.00244932621717453,0.01324443519115448
1772810896279083000,7.4580830078125,-0.0871124267578125,0.004763510078191757,-0.013113424181938171
1772810896298844700,7.4778447265625,-0.05866527557373047,0.00966915488243103,0.005950836464762688
1772810896318606000,7.497606201171875,-0.07064151763916016,0.004302121698856354,0.0030685458332300186
1772810896338367700,7.51736767578125,-0.0775299072265625,-0.009964872151613235,0.005323745310306549
1772810896358129200,7.537129150390625,-0.07543468475341797,0.0017829202115535736,0.007522480562329292
1772810896377890800,7.556890869140625,-0.06824779510498047,0.006643019616603851,0.007573019713163376
1772810896397652200,7.57665234375,-0.0871124267578125,0.011286724358797073,-0.0023494549095630646
1772810896417413600,7.59641357421875,-0.06585216522216797,0.013580817729234695,-0.0025357194244861603
1772810896437175300,7.61617529296875,-0.09399890899658203,0.0016324147582054138,0.004913831129670143
1772810896456936700,7.635936767578125,-0.06824874877929688,0.025408338755369186,0.009698903188109398
1772810896476698400,7.655698486328125,-0.06345844268798828,0.02055249735713005,-0.009377043694257736
1772810896496459800,7.675459716796875,-0.07064437866210938,0.008742589503526688,0.009883260354399681
1772810896516221400,7.695221435546875,-0.061061859130859375,0.009002476930618286,0.008187051862478256
1772810896535983000,7.714983154296875,-0.06345844268798828,0.011250369250774384,-0.0012727491557598114
1772810896555744800,7.734744873046875,-0.07304096221923828,0.0160895474255085,-0.0012540128082036972
1772810896575506200,7.754506103515625,-0.06585502624511719,0.006669662892818451,-0.005758039653301239
1772810896595267800,7.774267822265625,-0.08022880554199219,0.011415563523769379,-0.0011044926941394806
1772810896615029500,7.794029541015625,-0.0538787841796875,0.00403493270277977,-0.006027631461620331
1772810896634791200,7.813791259765625,-0.07543754577636719,0.011309873312711716,0.0036517083644866943
1772810896654552800,7.833552734375,-0.08022880554199219,-0.019776679575443268,0.0108153335750103
1772810896674314200,7.853314208984375,-0.0634613037109375,-0.012757718563079834,0.015367722138762474
1772810896694076000,7.873075927734375,-0.06825065612792969,0.011234119534492493,-0.0064325034618377686
1772810896713837600,7.892837646484375,-0.09190559387207031,-0.008148685097694397,-0.0041707586497068405
1772810896733599200,7.91259912109375,-0.058669090270996094,0.022549480199813843,-0.0066418834030628204
1772810896753360600,7.932360595703125,-0.08472156524658203,0.022457990795373917,-0.011404328048229218
1772810896773122300,7.952122314453125,-0.0730428695678711,-0.008704937994480133,-0.0019198469817638397
1772810896792884000,7.971884033203125,-0.060764312744140625,0.0009366869926452637,0.01461072638630867
1772810896812645600,7.991645751953125,-0.08921241760253906,-0.006380099803209305,-0.004439026117324829
1772810896832407000,8.011406982421875,-0.07034778594970703,0.024663791060447693,-0.016429372131824493
1772810896852168700,8.031168701171875,-0.06585693359375,-0.016115568578243256,0.005069216713309288
1772810896871930400,8.050930419921874,-0.08711814880371094,0.012509159743785858,0.014723172411322594
1772810896891692000,8.070692138671875,-0.08232784271240234,0.019455883651971817,-0.006868837401270866
1772810896911453400,8.090453369140626,-0.05627727508544922,-0.007074989378452301,0.017048344016075134
1772810896931215000,8.110215087890625,-0.07514286041259766,-0.0024743229150772095,0.01202574372291565
1772810896950976800,8.129976806640625,-0.08232975006103516,0.004608944058418274,-0.021614139899611473
1772810896970738400,8.149738525390624,-0.07065105438232422,0.006947468966245651,-0.011950945481657982
1772810896990499800,8.169499755859375,-0.07514286041259766,-0.005008284002542496,0.00241781584918499
1772810897010261800,8.18926171875,-0.07783794403076172,-0.005038116127252579,0.004597734659910202
1772810897030023400,8.2090234375,-0.046695709228515625,0.0022564828395843506,-0.009802553802728653
1772810897049785000,8.22878515625,-0.07993412017822266,-0.00028294697403907776,0.011834245175123215
1772810897069547000,8.248547119140625,-0.08442497253417969,0.004559643566608429,0.009419159963726997
1772810897089308700,8.26830859375,-0.061069488525390625,-0.00728762149810791,-0.014449259266257286
1772810897109070300,8.2880703125,-0.07753849029541016,0.018925946205854416,-0.004803378134965897
1772810897128832000,8.30783203125,-0.06795692443847656,-0.005161397159099579,0.007314389571547508
1772810897148594000,8.327593994140624,-0.061069488525390625,0.016421962529420853,0.004651939496397972
1772810897168355600,8.34735546875,-0.05148887634277344,0.023358289152383804,0.001996060833334923
1772810897188117200,8.3671171875,-0.0844259262084961,0.004246614873409271,-0.0029927901923656464
1772810897207879000,8.38687890625,-0.07514381408691406,-0.0030253753066062927,-0.00776330940425396
1772810897227640800,8.406640869140626,-0.07993507385253906,0.001771632581949234,0.004205591976642609
1772810897247402500,8.426402587890625,-0.06825637817382812,0.011234540492296219,-0.0028174910694360733
1772810897267164200,8.4461640625,-0.07514572143554688,0.0014533810317516327,-0.0027054529637098312
1772810897286926000,8.465926025390624,-0.07724189758300781,0.001357540488243103,-0.0027484018355607986
1772810897306687700,8.485687744140625,-0.06346797943115234,0.00598994642496109,-0.017079632729291916
1772810897326449400,8.505449462890626,-0.08472824096679688,0.015340067446231842,-0.0007205456495285034
1772810897346211300,8.52521142578125,-0.0868234634399414,0.017756227403879166,0.013519465923309326
1772810897365973000,8.544972900390626,-0.08233261108398438,-0.008460290729999542,-0.010357018560171127
1772810897385734700,8.564734619140625,-0.07304954528808594,-0.01315806433558464,0.0064505841583013535
1772810897405496300,8.584496337890625,-0.06825828552246094,-0.006153333932161331,-0.0005775410681962967
1772810897425258200,8.60425830078125,-0.05628204345703125,0.022395290434360504,-0.0008317846804857254
1772810897445020000,8.62402001953125,-0.07544612884521484,-0.003935523331165314,-0.0008283667266368866
1772810897464781600,8.643781494140624,-0.05628204345703125,0.01026894524693489,-0.008147845044732094
1772810897484543500,8.66354345703125,-0.08442878723144531,0.0005930177867412567,0.0013299137353897095
1772810897504305000,8.683304931640626,-0.0988006591796875,0.010368019342422485,-0.02038496360182762
1772810897524066000,8.703066162109375,-0.06825828552246094,0.001340281218290329,0.013616738840937614
1772810897543827200,8.7228271484375,-0.07304954528808594,0.008516650646924973,-0.003245921805500984
1772810897563588400,8.74258837890625,-0.0637674331665039,-0.0033906474709510803,-0.017369160428643227
1772810897583349800,8.762349853515625,-0.09430980682373047,-0.010746940970420837,0.0018449053168296814
1772810897603111000,8.78211083984375,-0.07784175872802734,0.008458860218524933,0.01851976290345192
1772810897622872000,8.8018720703125,-0.08951854705810547,-0.0036026276648044586,-0.0032365694642066956
1772810897642633200,8.82163330078125,-0.08023738861083984,0.003586079925298691,-0.005770567804574966
1772810897662394600,8.84139453125,-0.07544517517089844,-0.017920132726430893,0.0016205515712499619
1772810897682155800,8.86115576171875,-0.07304954528808594,-0.01781585067510605,0.02307499758899212
1772810897701917000,8.8809169921875,-0.06825828552246094,0.0012520290911197662,-0.007344696670770645
1772810897721678300,8.90067822265625,-0.07544612884521484,0.017493411898612976,-0.007820045575499535
1772810897741439500,8.920439453125,-0.07784175872802734,0.002969108521938324,-0.008448172360658646
1772810897761200600,8.94020068359375,-0.07275104522705078,0.014921363443136215,-0.013205466791987419
1772810897780961800,8.9599619140625,-0.08712482452392578,0.012557916343212128,0.02303476259112358
1772810897800723200,8.97972314453125,-0.07514762878417969,-0.0018516220152378082,-0.0009157862514257431
1772810897820484400,8.999484375,-0.061074256896972656,0.007464565336704254,0.006463663652539253
1772810897840245500,9.01924560546875,-0.07275390625,0.012133300304412842,0.01117762178182602
1772810897860006700,9.039006591796875,-0.07993888854980469,-0.0020689591765403748,0.006116323173046112
1772810897879768000,9.05876806640625,-0.0775442123413086,0.0025715678930282593,0.006104094907641411
1772810897899529200,9.078529296875,-0.0775442123413086,-0.021372798830270767,0.0013121627271175385
1772810897919290400,9.098290283203125,-0.08442878723144531,-0.006766311824321747,-0.003570782020688057
1772810897939051800,9.1180517578125,-0.05628395080566406,0.02661319449543953,0.005792248994112015
1772810897958813000,9.13781298828125,-0.06347084045410156,0.007236037403345108,-0.025285640731453896
1772810897978574000,9.157573974609376,-0.05628490447998047,-0.02622673287987709,0.017741769552230835
1772810897998335500,9.17733544921875,-0.08682632446289062,0.0191483311355114,-0.006196059286594391
1772810898018097400,9.197097412109375,-0.0727529525756836,0.0023330003023147583,-0.015995800495147705
1772810898037859300,9.216859375,-0.0775442123413086,0.009455397725105286,0.01251518540084362
1772810898057621200,9.236621337890625,-0.08442974090576172,-0.000012509524822235107,0.002825342118740082
1772810898077383200,9.256383056640624,-0.06346893310546875,0.02394622191786766,-0.011414751410484314
1772810898097145300,9.276145263671875,-0.08443069458007812,0.00711953267455101,0.0007177665829658508
1772810898116907300,9.2959072265625,-0.06826114654541016,0.004671763628721237,-0.006398830562829971
1772810898136669200,9.315669189453125,-0.04430675506591797,0.0022809281945228577,0.005567297339439392
1772810898156431000,9.33543115234375,-0.08682632446289062,0.0022860467433929443,-0.016054028645157814
1772810898176193000,9.355193115234375,-0.0823354721069336,-0.000046625733375549316,0.0006640404462814331
1772810898195955000,9.374954833984376,-0.06346988677978516,-0.004918597638607025,-0.01377660408616066
1772810898215716900,9.394716796875,-0.05149269104003906,-0.00967584177851677,-0.01410173811018467
1772810898235478800,9.414478759765625,-0.0655660629272461,0.014203082770109177,-0.004403725266456604
1772810898255240700,9.43424072265625,-0.07754325866699219,-0.000004392117261886597,-0.006729139015078545
1772810898275002600,9.454002685546875,-0.06586456298828125,0.002498313784599304,-0.0018804538995027542
1772810898294764500,9.4737646484375,-0.06347084045410156,-0.00014415010809898376,-0.0018215049058198929
1772810898314526700,9.493526611328125,-0.07065677642822266,-0.025925293564796448,0.010575274005532265
1772810898334288600,9.51328857421875,-0.08263397216796875,0.00461660698056221,0.0009934976696968079
1772810898354050600,9.533050537109375,-0.09161663055419922,0.00944671779870987,-0.003889014944434166
1772810898373812500,9.5528125,-0.0775442123413086,-0.009085755795240402,-0.013436436653137207
1772810898393574400,9.572574462890625,-0.06347084045410156,0.0025107748806476593,-0.0015394221991300583
1772810898413336300,9.59233642578125,-0.08951950073242188,0.021872371435165405,-0.025242328643798828
1772810898433098200,9.61209814453125,-0.05388641357421875,-0.008748490363359451,-0.008470254018902779
1772810898452860200,9.631860107421875,-0.08472919464111328,-0.006137587130069733,0.003636864945292473
1772810898472622000,9.6516220703125,-0.04699993133544922,0.0011420771479606628,-0.0034035909920930862
1772810898492384000,9.671384033203125,-0.06346797943115234,-0.010815497487783432,-0.008036762475967407
1772810898512146000,9.69114599609375,-0.07304954528808594,0.01793081685900688,0.00838414952158928
1772810898531907600,9.710907470703125,-0.08263111114501953,0.001307271420955658,-0.003756282851099968
1772810898551669500,9.73066943359375,-0.07544326782226562,0.008723385632038116,-0.01327100582420826
1772810898571431400,9.750431396484375,-0.05388450622558594,0.013680141419172287,-0.0035423729568719864
1772810898591193000,9.770193115234376,-0.07783889770507812,-0.0053735412657260895,0.0036186911165714264
1772810898610955000,9.789955078125,-0.06107044219970703,0.004191238433122635,-0.010692795738577843
1772810898630716700,9.809716552734375,-0.054183006286621094,0.001783996820449829,-0.010539812967181206
1772810898650478600,9.829478515625,-0.07783889770507812,-0.0031606443226337433,-0.012621507048606873
1772810898670240300,9.849240234375,-0.07304859161376953,0.006347332149744034,0.0017820801585912704
1772810898690002200,9.869002197265624,-0.06346511840820312,-0.0006888993084430695,0.004202811047434807
1772810898709763800,9.888763916015625,-0.08263015747070312,-0.0008895657956600189,0.008758557960391045
1772810898729525800,9.90852587890625,-0.07274723052978516,0.003689222037792206,-0.001188451424241066
1772810898749287400,9.928287353515625,-0.07065105438232422,-0.019871316850185394,-0.01081116870045662
1772810898769049300,9.94804931640625,-0.04909229278564453,0.006208810955286026,-0.006176382303237915
1772810898788811000,9.96781103515625,-0.046695709228515625,-0.0008272528648376465,-0.008865321055054665
1772810898808573000,9.987572998046875,-0.06106758117675781,0.018438495695590973,-0.009210551157593727
1772810898828334600,10.00733447265625,-0.06585693359375,0.0066959448158741,-0.004476509988307953
1772810898848096500,10.027096435546875,-0.0634622573852539,-0.019560445100069046,-0.009157903492450714
1772810898867858200,10.046858154296874,-0.08711719512939453,0.002090390771627426,0.014897694811224937
1772810898887620000,10.0666201171875,-0.06795215606689453,-0.004986822605133057,-0.0020883120596408844
1772810898907381800,10.0863818359375,-0.058669090270996094,0.019264113157987595,-0.0023676101118326187
1772810898927143700,10.106143798828125,-0.06136322021484375,-0.009063191711902618,-0.004675606265664101
1772810898946905600,10.125905517578126,-0.07064437866210938,0.0005621537566184998,-0.007430734112858772
1772810898966667300,10.145667236328125,-0.08262252807617188,0.024397872388362885,0.007011508569121361
1772810898986429200,10.16542919921875,-0.06585311889648438,0.012331269681453705,-0.005072994157671928
1772810899006191900,10.18519189453125,-0.0823221206665039,0.012550689280033112,0.0017811339348554611
1772810899025955000,10.204955078125,-0.06824779510498047,0.0030572600662708282,-0.0006303321570158005
1772810899045718300,10.22471826171875,-0.05178070068359375,-0.004228923469781876,-0.009997915476560593
1772810899065481500,10.2444814453125,-0.05657005310058594,0.014941882342100143,-0.0022758357226848602
1772810899085244700,10.26424462890625,-0.058666229248046875,-0.011438179761171341,-0.000052228569984436035
1772810899105007900,10.2840078125,-0.08980655670166016,-0.0017547644674777985,-0.0048989709466695786
1772810899124771000,10.30377099609375,-0.07064151763916016,-0.006329797208309174,-0.01944582723081112
1772810899144534300,10.3235341796875,-0.07543277740478516,0.015235688537359238,-0.002842852845788002
1772810899164297500,10.34329736328125,-0.07303714752197266,-0.0014325790107250214,-0.002749856561422348
1772810899184060700,10.363060791015625,-0.05686759948730469,-0.010746564716100693,-0.012163303792476654
1772810899203823900,10.382823974609375,-0.047286033630371094,-0.006194587796926498,0.00527721643447876
1772810899223587000,10.402587158203126,-0.08261966705322266,0.0012812651693820953,0.0028571896255016327
1772810899243350300,10.422350341796875,-0.07064151763916016,-0.0010150708258152008,-0.00911414623260498
1772810899263113500,10.442113525390624,-0.08980560302734375,0.022576406598091125,-0.011394485831260681
1772810899282876700,10.461876708984375,-0.059261322021484375,-0.005409017205238342,-0.009354323148727417
1772810899302639900,10.481639892578125,-0.06165790557861328,0.0016627795994281769,0.01210511289536953
1772810899322403000,10.501403076171876,-0.056865692138671875,0.010663840919733047,-0.02443193458020687
1772810899342166300,10.521166259765625,-0.06824493408203125,0.015460468828678131,-0.007455052807927132
1772810899361929500,10.540929443359374,-0.07543182373046875,0.0010783858597278595,-0.005166323855519295
1772810899381692700,10.560692626953125,-0.06375312805175781,0.008236847817897797,-0.0076629407703876495
1772810899401455900,10.580455810546875,-0.05896186828613281,0.01070183515548706,-0.019709764048457146
1772810899421219000,10.600218994140626,-0.07782649993896484,0.0058375634253025055,-0.0029513705521821976
1772810899440982300,10.619982177734375,-0.09459495544433594,0.008154511451721191,0.006442893296480179
1772810899460745500,10.639745361328124,-0.07543087005615234,0.008230213075876236,-0.01031593605875969
1772810899480508700,10.6595087890625,-0.05926322937011719,0.010437432676553726,-0.007814031094312668
1772810899500271400,10.679271240234375,-0.07064151763916016,0.015131447464227676,0.004393275827169418
1772810899520033300,10.699033203125,-0.06585121154785156,0.012593407183885574,-0.017191339284181595
1772810899539795200,10.718795166015624,-0.07064247131347656,0.019825667142868042,0.011559441685676575
1772810899559557000,10.73855712890625,-0.05657672882080078,-0.005155045539140701,-0.00569581426680088
1772810899579319300,10.7583193359375,-0.07095718383789062,-0.003892064094543457,0.020152516663074493
1772810899599081200,10.778081298828125,-0.061079978942871094,-0.006535768508911133,0.001999514177441597
1772810899618843100,10.797843017578124,-0.061377525329589844,0.005524188280105591,-0.007630594074726105
1772810899638605300,10.817605224609375,-0.04490184783935547,0.02081788331270218,-0.021582990884780884
1772810899658367200,10.8373671875,-0.08022689819335938,0.0026218295097351074,-0.007342200726270676
1772810899678129200,10.857129150390625,-0.05417633056640625,0.004998169839382172,-0.009934583678841591
