time,seconds_elapsed,z,y,x
1772810399793841000,0.3228408203125,-0.06976699829101562,-0.0021149441599845886,-0.0032020285725593567
1772810399813603000,0.34260302734375,-0.07455635070800781,0.00010335445404052734,0.0015192553400993347
1772810399833365500,0.362365478515625,-0.09132575988769531,-0.014187097549438477,0.013580769300460815
1772810399853127700,0.382127685546875,-0.08893203735351562,0.004901520907878876,0.018508881330490112
1772810399872889900,0.401889892578125,-0.08414363861083984,-0.006394021213054657,-0.011949189007282257
1772810399892652000,0.421652099609375,-0.09132766723632812,0.013006970286369324,0.00753580778837204
1772810399912414500,0.44141455078125,-0.08413887023925781,-0.01097075641155243,0.0073116496205329895
1772810399932176600,0.4611767578125,-0.09850883483886719,-0.013543300330638885,-0.004683241248130798
1772810399951938800,0.480938720703125,-0.07036399841308594,0.003303341567516327,-0.014125891029834747
1772810399971701200,0.500701171875,-0.06317329406738281,-0.001664675772190094,0.0023660287261009216
1772810399991463400,0.52046337890625,-0.09611034393310547,-0.025742389261722565,0.007241152226924896
1772810400011222800,0.540222900390625,-0.07515335083007812,0.0031326115131378174,-0.0118345245718956
1772810400030982400,0.559982421875,-0.07276058197021484,-0.006375260651111603,0.01740197092294693
1772810400050741800,0.57974169921875,-0.0823354721069336,0.002984464168548584,-0.001949205994606018
1772810400070501000,0.599501220703125,-0.08622360229492188,0.002415187656879425,0.005507215857505798
1772810400090260500,0.619260498046875,-0.09371185302734375,-0.002346150577068329,0.005643196403980255
1772810400110019800,0.639019775390625,-0.0838327407836914,-0.0047646015882492065,-0.00404849648475647
1772810400129779200,0.658779296875,-0.09580707550048828,-0.014520540833473206,0.00516267865896225
1772810400149538600,0.67853857421875,-0.07694149017333984,-0.012044243514537811,-0.0022468939423561096
1772810400169298000,0.6982978515625,-0.07454681396484375,-0.021542012691497803,0.009762421250343323
1772810400189057300,0.718057373046875,-0.06017112731933594,-0.0030511319637298584,-0.014362670481204987
1772810400208816600,0.737816650390625,-0.0931081771850586,0.004215434193611145,-0.00005970895290374756
1772810400228576000,0.757575927734375,-0.07664012908935547,-0.007834486663341522,-0.00007792562246322632
1772810400248335400,0.77733544921875,-0.06465625762939453,0.0016695037484169006,-0.0010537058115005493
1772810400268094700,0.7970947265625,-0.08442115783691406,-0.01386985182762146,-0.001618415117263794
1772810400287854300,0.816854248046875,-0.10089111328125,-0.001758471131324768,0.0056509822607040405
1772810400307613700,0.83661376953125,-0.0865163803100586,-0.013806410133838654,0.003628477454185486
1772810400327373000,0.856373046875,-0.08681488037109375,-0.02590329200029373,-0.005816034972667694
1772810400347132400,0.87613232421875,-0.06555461883544922,-0.004416920244693756,-0.0057813748717308044
1772810400366891800,0.895891845703125,-0.09609794616699219,-0.009125582873821259,0.0038849711418151855
1772810400386651100,0.915651123046875,-0.08442306518554688,-0.01643379032611847,0.008810363709926605
1772810400406410500,0.935410400390625,-0.07963180541992188,-0.0019795894622802734,-0.0031845197081565857
1772810400426169900,0.955169921875,-0.07723522186279297,-0.009184859693050385,-0.0056493207812309265
1772810400445929200,0.97492919921875,-0.07513713836669922,-0.013890139758586884,-0.0007327273488044739
1772810400465688600,0.9946884765625,-0.07962703704833984,-0.004627630114555359,-0.015523187816143036
1772810400485448000,1.014447998046875,-0.0700387954711914,-0.009344853460788727,0.007502228021621704
1772810400505206800,1.034206787109375,-0.0676431655883789,-0.01420389860868454,-0.00928293913602829
1772810400524965000,1.053965087890625,-0.08411216735839844,-0.009732596576213837,-0.011641360819339752
1772810400544723500,1.073723388671875,-0.06075286865234375,-0.011899642646312714,-0.011810541152954102
1772810400564482000,1.09348193359375,-0.07452774047851562,0.006638973951339722,-0.016613423824310303
1772810400584240400,1.113240478515625,-0.07931804656982422,-0.009901516139507294,-0.009493499994277954
1772810400603998700,1.132998779296875,-0.08890056610107422,-0.0075758397579193115,-0.004514329135417938
1772810400623757300,1.15275732421875,-0.08171749114990234,-0.009886011481285095,-0.016299031674861908
1772810400643515600,1.172515625,-0.0772256851196289,-0.01694639027118683,-0.009074978530406952
1772810400663274000,1.19227392578125,-0.06973934173583984,-0.0029447153210639954,0.00023981183767318726
1772810400683032600,1.212032470703125,-0.07213497161865234,-0.01044812798500061,-0.012299694120883942
1772810400702791000,1.231791015625,-0.07902050018310547,-0.0008355453610420227,-0.0031384751200675964
1772810400722549200,1.25154931640625,-0.08141803741455078,-0.005593478679656982,-0.0030022114515304565
1772810400742307800,1.271307861328125,-0.08859920501708984,0.003417380154132843,-0.008221417665481567
1772810400762066200,1.291066162109375,-0.08141231536865234,-0.0012400224804878235,-0.025126315653324127
1772810400781824500,1.310824462890625,-0.07931709289550781,-0.0011567994952201843,-0.015554837882518768
1772810400801583000,1.3305830078125,-0.08350563049316406,-0.005965813994407654,-0.01337704062461853
1772810400821341400,1.350341552734375,-0.08829879760742188,-0.0035905763506889343,-0.01083807647228241
1772810400841100000,1.37010009765625,-0.08859920501708984,0.0035642236471176147,0.0006707608699798584
1772810400860858400,1.3898583984375,-0.0817117691040039,-0.005575530230998993,0.001355499029159546
1772810400880616700,1.40961669921875,-0.08171272277832031,-0.002692177891731262,-0.019366033375263214
1772810400900375300,1.429375244140625,-0.07213211059570312,-0.007499709725379944,-0.014430895447731018
1772810400920133600,1.449133544921875,-0.06763839721679688,-0.019088082015514374,-0.012148469686508179
1772810400939892000,1.46889208984375,-0.09369087219238281,-0.009470738470554352,-0.012108013033866882
1772810400959650600,1.488650634765625,-0.10087776184082031,0.002535887062549591,-0.012067094445228577
1772810400979409000,1.508408935546875,-0.09608650207519531,0.009395435452461243,-0.012128062546253204
1772810400999167700,1.528167724609375,-0.0676412582397461,-0.016366690397262573,-0.009642496705055237
1772810401018927400,1.54792724609375,-0.08171558380126953,-0.001907050609588623,-0.014445170760154724
1772810401038687200,1.567687255859375,-0.09608840942382812,0.014727704226970673,-0.01185242086648941
1772810401058446800,1.58744677734375,-0.0676431655883789,-0.01901666820049286,-0.004979141056537628
1772810401078206700,1.607206787109375,-0.09339427947998047,-0.002616100013256073,-0.029432855546474457
1772810401097966300,1.62696630859375,-0.07692813873291016,-0.004820667207241058,-0.020158223807811737
1772810401117726000,1.646725830078125,-0.08651542663574219,-0.006923958659172058,-0.0198543518781662
1772810401137485800,1.66648583984375,-0.06974506378173828,0.002441808581352234,-0.02251370996236801
1772810401157245400,1.686245361328125,-0.06944656372070312,-0.00726289302110672,-0.007944650948047638
1772810401177005300,1.70600537109375,-0.08621692657470703,-0.009921863675117493,-0.01987587660551071
1772810401196765000,1.725764892578125,-0.08621597290039062,-0.014777377247810364,-0.007910408079624176
1772810401216524500,1.745524658203125,-0.07453536987304688,-0.002820149064064026,-0.0032883062958717346
1772810401236284400,1.765284423828125,-0.07213973999023438,-0.01465599238872528,-0.015324369072914124
1772810401256044000,1.7850439453125,-0.0697469711303711,-0.02414296567440033,-0.012833654880523682
1772810401275803600,1.8048037109375,-0.095794677734375,-0.004396460950374603,-0.010006345808506012
1772810401295563500,1.8245634765625,-0.0886087417602539,-0.004360377788543701,-0.024383127689361572
1772810401315323100,1.8443232421875,-0.06974506378173828,0.0004116669297218323,-0.00039439648389816284
1772810401335083000,1.8640830078125,-0.06974124908447266,-0.004554338753223419,-0.014928139746189117
1772810401354842600,1.883842529296875,-0.08890533447265625,-0.004575185477733612,-0.010145626962184906
1772810401374602200,1.903602294921875,-0.06734466552734375,-0.011824466288089752,-0.012499585747718811
1772810401394362000,1.923362060546875,-0.07932472229003906,-0.004551902413368225,-0.014799647033214569
1772810401414121700,1.943121826171875,-0.07213783264160156,-0.014147117733955383,-0.024432964622974396
1772810401433881600,1.962881591796875,-0.06494998931884766,-0.014260999858379364,-0.0028889402747154236
1772810401453641200,1.98264111328125,-0.0886068344116211,-0.009484454989433289,-0.0051946938037872314
1772810401473400800,2.00240087890625,-0.09100151062011719,-0.0024196431040763855,0.006812483072280884
1772810401493160700,2.02216064453125,-0.07453250885009766,0.014317266643047333,-0.01230745017528534
1772810401512920600,2.041920654296875,-0.07693195343017578,-0.00954718142747879,-0.012110382318496704
1772810401532680700,2.0616806640625,-0.07932853698730469,-0.014246918261051178,-0.004884980618953705
1772810401552440600,2.081440673828125,-0.08891105651855469,-0.019047103822231293,-0.009633287787437439
1772810401572200700,2.10120068359375,-0.09101009368896484,-0.011925213038921356,-0.004494428634643555
1772810401591960600,2.120960693359375,-0.07933616638183594,-0.00439375638961792,-0.0020634904503822327
1772810401611720700,2.140720703125,-0.08651924133300781,-0.009042173624038696,-0.011913098394870758
1772810401631480600,2.16048046875,-0.06975078582763672,-0.004268087446689606,-0.014315441250801086
1772810401651240700,2.18024072265625,-0.07933616638183594,-0.004235230386257172,-0.009327180683612823
1772810401671000800,2.200000732421875,-0.08412647247314453,-0.01606835424900055,-0.009490735828876495
1772810401690760700,2.2197607421875,-0.09340858459472656,0.0006763041019439697,0.007359936833381653
1772810401710520800,2.239520751953125,-0.06975173950195312,-0.011314339935779572,-0.011914178729057312
1772810401730280700,2.25928076171875,-0.07454490661621094,-0.011119410395622253,-0.004741407930850983
1772810401750040800,2.279040771484375,-0.08652400970458984,0.001041710376739502,-0.02385137230157852
1772810401769800700,2.29880078125,-0.09131908416748047,0.005701214075088501,-0.011415548622608185
1772810401789560800,2.318560791015625,-0.0910186767578125,-0.011028818786144257,0.0004420652985572815
1772810401809320700,2.33832080078125,-0.09341812133789062,-0.01577764004468918,-0.004052281379699707
1772810401829080800,2.358080810546875,-0.09581375122070312,-0.0061624422669410706,-0.004064500331878662
1772810401848840700,2.3778408203125,-0.10748958587646484,-0.010860957205295563,-0.018698304891586304
1772810401868600800,2.397600830078125,-0.10060310363769531,-0.008532211184501648,-0.018596239387989044
1772810401888360700,2.417360595703125,-0.0937185287475586,-0.0013678371906280518,-0.023228682577610016
1772810401908120800,2.437120849609375,-0.0721588134765625,-0.02282753586769104,-0.013651207089424133
1772810401927880700,2.456880615234375,-0.084136962890625,-0.022781260311603546,-0.004132099449634552
1772810401947640800,2.476640869140625,-0.0841360092163086,-0.0204438716173172,0.0005917996168136597
1772810401967400700,2.496400634765625,-0.09341716766357422,0.0035908594727516174,-0.001871258020401001
1772810401987160800,2.516160888671875,-0.08892250061035156,-0.01812852919101715,0.0004036128520965576
1772810402006920400,2.53592041015625,-0.0745534896850586,-0.0036177337169647217,-0.02818034589290619
1772810402026679800,2.5556796875,-0.07455635070800781,-0.01066066324710846,-0.00881926715373993
1772810402046439200,2.575439208984375,-0.07455730438232422,-0.010568246245384216,-0.006383985280990601
1772810402066198500,2.595198486328125,-0.079345703125,-0.0009545907378196716,-0.011491499841213226
1772810402085958000,2.6149580078125,-0.09341907501220703,-0.015285521745681763,-0.011496767401695251
1772810402105717500,2.634717529296875,-0.07934379577636719,-0.020077846944332123,-0.011658914387226105
1772810402125476900,2.654476806640625,-0.0793447494506836,0.001459367573261261,-0.009168900549411774
1772810402145236200,2.674236328125,-0.08862781524658203,-0.0034015029668807983,-0.00902249664068222
1772810402164995600,2.69399560546875,-0.08144283294677734,-0.003317221999168396,-0.02099686861038208
1772810402184755000,2.7137548828125,-0.06526851654052734,0.0013995692133903503,-0.009336955845355988
1772810402204514600,2.7335146484375,-0.08652687072753906,-0.020161040127277374,-0.0070556700229644775
1772810402224274000,2.75327392578125,-0.07215404510498047,0.006162092089653015,-0.004672400653362274
1772810402244033300,2.773033203125,-0.08892154693603516,-0.005933769047260284,-0.009471438825130463
1772810402263792600,2.792792724609375,-0.09131431579589844,0.005912654101848602,0.002383984625339508
1772810402283552000,2.812552001953125,-0.07215309143066406,-0.029855377972126007,-0.007157213985919952
1772810402303311600,2.8323115234375,-0.10269546508789062,-0.00815609097480774,0.004799306392669678
1772810402323071000,2.852071044921875,-0.07664299011230469,0.001454666256904602,-0.01691487431526184
1772810402342830300,2.871830322265625,-0.0982046127319336,-0.01776595413684845,-0.004639387130737305
1772810402362589700,2.891589599609375,-0.08173465728759766,0.006264999508857727,-0.014482185244560242
1772810402382349000,2.91134912109375,-0.07934093475341797,-0.010306134819984436,-0.012040950357913971
1772810402402108400,2.9311083984375,-0.06526756286621094,0.013819277286529541,-0.022267110645771027
1772810402421868000,2.950867919921875,-0.0766458511352539,-0.012693747878074646,-0.005510240793228149
1772810402441627400,2.97062744140625,-0.08382797241210938,0.0065451860427856445,-0.0201890766620636
1772810402461386800,2.99038671875,-0.07215404510498047,-0.010233394801616669,-0.014842398464679718
1772810402481146000,3.01014599609375,-0.09132003784179688,-0.005301833152770996,-0.016835831105709076
1772810402500906200,3.02990625,-0.0934133529663086,-0.005214095115661621,-0.014597341418266296
1772810402520667400,3.04966748046875,-0.09131813049316406,0.002102896571159363,-0.012257188558578491
1772810402540428800,3.0694287109375,-0.07454490661621094,-0.010149620473384857,-0.01735474169254303
1772810402560190000,3.08918994140625,-0.09370803833007812,-0.0030037760734558105,-0.010170340538024902
1772810402579951000,3.108951171875,-0.11466503143310547,-0.012466304004192352,-0.0057444944977760315
1772810402599712300,3.128712158203125,-0.09579849243164062,-0.0005345344543457031,-0.015424273908138275
1772810402619473400,3.148473388671875,-0.08412551879882812,-0.00776054710149765,-0.01276686042547226
1772810402639234600,3.168234619140625,-0.0865182876586914,-0.0029093846678733826,-0.01052587479352951
1772810402658996000,3.187995849609375,-0.0937051773071289,-0.017256058752536774,-0.005689635872840881
1772810402678757000,3.207757080078125,-0.09101104736328125,-0.007764063775539398,-0.017606765031814575
1772810402698518300,3.227518310546875,-0.09580039978027344,0.006400570273399353,-0.0031384602189064026
1772810402718279400,3.247279541015625,-0.09789466857910156,-0.015293009579181671,-0.008632004261016846
1772810402738040600,3.26704052734375,-0.09100914001464844,-0.012670211493968964,-0.0039003491401672363
1772810402757802000,3.286802001953125,-0.0745391845703125,-0.0056279972195625305,-0.011084534227848053
1772810402777563100,3.306563232421875,-0.08861255645751953,-0.005462773144245148,-0.011133968830108643
1772810402797324300,3.32632421875,-0.07454299926757812,-0.015024393796920776,-0.018102645874023438
1772810402817085400,3.34608544921875,-0.09580612182617188,-0.007877044379711151,-0.022516459226608276
1772810402836846600,3.3658466796875,-0.05089092254638672,-0.007861658930778503,-0.01776781678199768
1772810402856607700,3.385607666015625,-0.08622264862060547,0.0035188421607017517,-0.005898408591747284
1772810402876369200,3.405369140625,-0.09790229797363281,-0.022252269089221954,-0.017660468816757202
1772810402896130300,3.42513037109375,-0.08143138885498047,-0.0014905259013175964,-0.008183754980564117
1772810402915891500,3.444891357421875,-0.09820079803466797,-0.01793287694454193,-0.015260271728038788
1772810402935652600,3.464652587890625,-0.06736087799072266,-0.013119615614414215,-0.022328771650791168
1772810402955413800,3.484413818359375,-0.0910177230834961,0.008289329707622528,-0.012793689966201782
1772810402975175200,3.504175048828125,-0.0838308334350586,-0.0037825778126716614,-0.008003532886505127
1772810402994936000,3.52393603515625,-0.10748577117919922,-0.008456714451313019,-0.0032190531492233276
1772810403014695700,3.54369580078125,-0.07933998107910156,0.0010764747858047485,-0.012795813381671906
1772810403034455600,3.56345556640625,-0.10029792785644531,-0.01083269715309143,-0.010552600026130676
1772810403054215200,3.583215087890625,-0.07933521270751953,-0.0037406757473945618,0.006094671785831451
1772810403073975000,3.60297509765625,-0.07933712005615234,-0.015197627246379852,-0.009867742657661438
1772810403093734700,3.622734619140625,-0.08173274993896484,0.008803240954875946,-0.01176423579454422
1772810403113494300,3.642494384765625,-0.07214832305908203,-0.005505748093128204,-0.004789434373378754
1772810403133254100,3.662254150390625,-0.08412551879882812,-0.005247198045253754,-0.007186360657215118
1772810403153013800,3.682013671875,-0.08202934265136719,-0.012218452990055084,-0.014210127294063568
1772810403172773600,3.701773681640625,-0.08412361145019531,-0.005125269293785095,-0.012015961110591888
1772810403192533200,3.721533203125,-0.0889129638671875,-0.019518926739692688,-0.024077728390693665
1772810403212293000,3.741293212890625,-0.07723331451416016,-0.01954013854265213,-0.0074143186211586
1772810403232052700,3.761052734375,-0.06316089630126953,-0.019562311470508575,-0.021666333079338074
1772810403251812600,3.7808125,-0.0841217041015625,-0.010115601122379303,0.0005821660161018372
1772810403271572200,3.800572265625,-0.0793304443359375,-0.022760868072509766,-0.0060083940625190735
1772810403291331800,3.820331787109375,-0.07933235168457031,-0.006320849061012268,-0.020468346774578094
1772810403311091700,3.840091796875,-0.09340572357177734,-0.00869971513748169,-0.005995802581310272
1772810403330851300,3.859851318359375,-0.07424354553222656,-0.013415969908237457,-0.0011629462242126465
1772810403350611200,3.879611083984375,-0.07424068450927734,0.010374434292316437,-0.015979349613189697
1772810403370370800,3.899370849609375,-0.06974983215332031,-0.01839183270931244,-0.013825252652168274
1772810403390130700,3.919130615234375,-0.08142566680908203,-0.001670651137828827,-0.009237781167030334
1772810403409890300,3.938890380859375,-0.07663536071777344,-0.011540807783603668,-0.011319980025291443
1772810403429650000,3.95864990234375,-0.09789562225341797,0.0029353126883506775,0.0006456524133682251
1772810403449409800,3.978409912109375,-0.09789752960205078,0.0029892325401306152,-0.020743034780025482
1772810403469169400,3.99816943359375,-0.07454299926757812,-0.0230243057012558,-0.010559625923633575
1772810403488929300,4.01792919921875,-0.09580230712890625,-0.004148460924625397,-0.008113391697406769
1772810403508689400,4.037689453125,-0.08173274993896484,-0.004087135195732117,-0.022362880408763885
1772810403528449500,4.057449462890625,-0.0910177230834961,-0.015282727777957916,0.0017316490411758423
1772810403548210000,4.0772099609375,-0.08862590789794922,-0.003530852496623993,-0.005356788635253906
1772810403567970000,4.096969970703125,-0.06976032257080078,-0.017470724880695343,-0.010299935936927795
1772810403587730400,4.11673046875,-0.06976032257080078,0.008573532104492188,-0.0031202957034111023
1772810403607490600,4.136490478515625,-0.0910196304321289,-0.0034448131918907166,-0.003024764358997345
1772810403627251000,4.1562509765625,-0.09102058410644531,0.003637850284576416,-0.022168487310409546
1772810403647011000,4.176010986328125,-0.0673685073852539,-0.0010466650128364563,0.009209059178829193
1772810403666771500,4.195771484375,-0.0817403793334961,-0.010216988623142242,0.00021469593048095703
1772810403686531800,4.21553173828125,-0.0817413330078125,0.006393842399120331,-0.013995617628097534
1772810403706292000,4.2352919921875,-0.0673675537109375,-0.00078573077917099,-0.021174542605876923
1772810403726052400,4.25505224609375,-0.0841360092163086,-0.010293804109096527,-0.009391523897647858
1772810403745812500,4.2748125,-0.09132194519042969,-0.005437642335891724,-0.020803578197956085
1772810403765572900,4.29457275390625,-0.08173847198486328,-0.0030318647623062134,-0.008928284049034119
1772810403785333000,4.3143330078125,-0.0841360092163086,-0.010301284492015839,-0.008772186934947968
1772810403805093400,4.33409326171875,-0.07245635986328125,0.0016802102327346802,-0.011214964091777802
1772810403824853500,4.353853515625,-0.10090446472167969,-0.01465887576341629,-0.003931313753128052
1772810403844614000,4.37361376953125,-0.07934284210205078,-0.00018869340419769287,-0.008823074400424957
1772810403864374300,4.393374267578125,-0.07664871215820312,0.001662425696849823,-0.00009914487600326538
1772810403884134400,4.413134521484375,-0.09311771392822266,-0.010791346430778503,-0.025028735399246216
1772810403903894800,4.432894775390625,-0.10029888153076172,0.0011353418231010437,0.0009485483169555664
1772810403923655000,4.452655029296875,-0.08353328704833984,-0.02980182319879532,-0.013312205672264099
1772810403943415300,4.472415283203125,-0.07155513763427734,-0.0012031644582748413,-0.008767686784267426
1772810403963175400,4.492175537109375,-0.07874393463134766,-0.01778332144021988,-0.011509031057357788
1772810403982935800,4.511935791015625,-0.08353328704833984,0.01274554431438446,-0.00921478122472763
1772810404002695700,4.53169580078125,-0.07634830474853516,-0.008744850754737854,-0.016283884644508362
1772810404022455000,4.551455078125,-0.08592987060546875,-0.0037855878472328186,-0.011643119156360626
1772810404042214700,4.571214599609375,-0.08353614807128906,-0.013649888336658478,-0.006596371531486511
1772810404061974300,4.590974365234375,-0.07425498962402344,-0.005955196917057037,-0.012916117906570435
1772810404081734000,4.61073388671875,-0.0793466567993164,-0.007735930383205414,-0.01171102374792099
1772810404101493500,4.630493408203125,-0.09341716766357422,0.0016917213797569275,-0.009414702653884888
1772810404121252900,4.6502529296875,-0.0865316390991211,-0.0102657750248909,-0.006967619061470032
1772810404141012500,4.670012451171875,-0.0721597671508789,-0.0077484771609306335,-0.01409265398979187
1772810404160772000,4.689772216796875,-0.08892822265625,0.006462685763835907,-0.011586233973503113
1772810404180531500,4.709531494140625,-0.08863067626953125,-0.005604639649391174,0.0009359046816825867
1772810404200291000,4.729291015625,-0.07485675811767578,-0.005386926233768463,-0.010837972164154053
1772810404220050700,4.74905078125,-0.07455635070800781,-0.002733379602432251,-0.022945791482925415
1772810404239810300,4.768810302734375,-0.0865316390991211,-0.01204383373260498,-0.01101374626159668
1772810404259569700,4.788569580078125,-0.10539913177490234,-0.00524747371673584,-0.00900789350271225
1772810404279329300,4.808329345703125,-0.07694816589355469,-0.005534082651138306,-0.017189376056194305
1772810404299089000,4.8280888671875,-0.09551239013671875,-0.017429232597351074,-0.00043057650327682495
1772810404318848500,4.8478486328125,-0.0721588134765625,-0.012713484466075897,-0.021809689700603485
1772810404338608000,4.867608154296875,-0.08383464813232422,-0.0006196796894073486,-0.01730380207300186
1772810404358367500,4.887367431640625,-0.08862876892089844,0.004335366189479828,-0.0027262941002845764
1772810404378127000,4.907127197265625,-0.07695388793945312,-0.0005947649478912354,-0.0072006285190582275
1772810404397886700,4.92688671875,-0.07216262817382812,-0.005462363362312317,-0.016710415482521057
1772810404417646000,4.94664599609375,-0.07695484161376953,-0.015107497572898865,-0.00951368361711502
1772810404437405700,4.96640576171875,-0.07216167449951172,0.008094385266304016,-0.02390320599079132
1772810404457165300,4.986165283203125,-0.0769500732421875,-0.0012212246656417847,-0.01660250872373581
1772810404476925000,5.005925048828125,-0.09371280670166016,-0.0033489614725112915,0.004778549075126648
1772810404496684300,5.025684326171875,-0.07454872131347656,0.004003994166851044,-0.01447172462940216
1772810404516443100,5.045443115234375,-0.08173561096191406,-0.0007686465978622437,-0.021731846034526825
1772810404536202200,5.0652021484375,-0.0934152603149414,-0.014995843172073364,-0.009590744972229004
1772810404555961000,5.084961181640625,-0.07215404510498047,0.008909627795219421,-0.009684145450592041
1772810404575720000,5.104719970703125,-0.08623027801513672,-0.012559488415718079,0.007219821214675903
1772810404595479000,5.12447900390625,-0.07934761047363281,-0.010131105780601501,-0.016403377056121826
1772810404615238000,5.14423779296875,-0.0697622299194336,-0.000585116446018219,-0.009412229061126709
1772810404634997000,5.1639970703125,-0.10060405731201172,-0.014967501163482666,-0.01184624433517456
1772810404654755800,5.183755859375,-0.10030555725097656,-0.007597796618938446,-0.007100969552993774
1772810404674514700,5.2035146484375,-0.10300159454345703,0.006730496883392334,-0.004551135003566742
1772810404694273800,5.223273681640625,-0.0793466567993164,-0.012344859540462494,-0.006992004811763763
1772810404714032600,5.24303271484375,-0.06976318359375,-0.012461237609386444,-0.007037922739982605
1772810404733791500,5.26279150390625,-0.0721578598022461,-0.007592193782329559,0.007163785398006439
1772810404753550600,5.282550537109375,-0.05538654327392578,-0.0125507190823555,-0.00008018314838409424
1772810404773309400,5.302309326171875,-0.08413505554199219,-0.01266549527645111,-0.014229506254196167
1772810404793068500,5.322068603515625,-0.0673675537109375,-0.0006170198321342468,-0.014057435095310211
1772810404812827400,5.341827392578125,-0.09581470489501953,-0.003042086958885193,0.00035957247018814087
1772810404832586200,5.361586181640625,-0.05568981170654297,-0.010244995355606079,-0.004429839551448822
1772810404852345300,5.381345458984375,-0.0721597671508789,-0.0029846876859664917,-0.004428572952747345
1772810404872104200,5.401104248046875,-0.06287860870361328,0.013570010662078857,-0.013734206557273865
1772810404891863000,5.420863037109375,-0.08174610137939453,-0.00556771457195282,0.0031772106885910034
1772810404911622100,5.4406220703125,-0.08653545379638672,-0.012715406715869904,-0.008945539593696594
1772810404931381000,5.460381103515625,-0.0721597671508789,-0.010338030755519867,-0.023488640785217285
1772810404951140000,5.48014013671875,-0.08384037017822266,-0.007963769137859344,-0.009002834558486938
1772810404970899000,5.49989892578125,-0.07665348052978516,0.006361968815326691,-0.011332333087921143
1772810404990657800,5.51965771484375,-0.08623218536376953,-0.003351360559463501,-0.006691411137580872
1772810405010417400,5.53941748046875,-0.09342193603515625,0.0012446120381355286,-0.008663289248943329
1772810405030177000,5.559177001953125,-0.0865335464477539,-0.017922446131706238,-0.013591080904006958
1772810405049936400,5.578936279296875,-0.09102344512939453,0.0011540800333023071,-0.00655539333820343
1772810405069696000,5.598696044921875,-0.09821414947509766,-0.008451148867607117,-0.006733745336532593
1772810405089455600,5.61845556640625,-0.07455730438232422,-0.0038930177688598633,-0.004286177456378937
1772810405109215200,5.63821533203125,-0.06737232208251953,-0.006466209888458252,0.005588963627815247
1772810405128974800,5.657974853515625,-0.07695865631103516,-0.01147741824388504,-0.013144627213478088
1772810405148734500,5.677734375,-0.090728759765625,-0.004770882427692413,-0.022950053215026855
1772810405168493800,5.697493896484375,-0.084136962890625,0.01393061876296997,-0.01111438125371933
1772810405188253400,5.71725341796875,-0.07456016540527344,0.004407480359077454,-0.022745735943317413
1772810405208013000,5.737012939453125,-0.08833122253417969,-0.0029117539525032043,0.005879148840904236
1772810405227772700,5.756772705078125,-0.08383846282958984,-0.014897696673870087,-0.006299078464508057
1772810405247532300,5.7765322265625,-0.09551334381103516,-0.0175543874502182,0.0008275881409645081
1772810405267291600,5.796291748046875,-0.10748958587646484,-0.005352579057216644,-0.00645861029624939
1772810405287051300,5.81605126953125,-0.07694625854492188,0.002300731837749481,-0.006607815623283386
1772810405306811000,5.835810791015625,-0.0721578598022461,-0.014475345611572266,0.0031681805849075317
1772810405326570500,5.855570556640625,-0.09102344512939453,-0.016874268651008606,-0.015869759023189545
1772810405346330000,5.875330078125,-0.11467933654785156,0.004691354930400848,-0.013404153287410736
1772810405366089700,5.89508984375,-0.084136962890625,-0.019316747784614563,-0.020608365535736084
1772810405385849000,5.91484912109375,-0.08174419403076172,0.0020569488406181335,-0.006074331700801849
1772810405405608700,5.934608642578125,-0.10060787200927734,-0.002816617488861084,-0.010851167142391205
1772810405425368300,5.954368408203125,-0.055393218994140625,0.0017805472016334534,-0.0034570544958114624
1772810405445128000,5.9741279296875,-0.09552192687988281,-0.007523350417613983,-0.015051312744617462
1772810405464887600,5.993887451171875,-0.04581928253173828,-0.005399741232395172,-0.012730717658996582
1772810405484647000,6.01364697265625,-0.06737899780273438,-0.012536279857158661,-0.015556611120700836
1772810405504407000,6.033406982421875,-0.06977367401123047,-0.000646837055683136,-0.005967862904071808
1772810405524167200,6.053167236328125,-0.08115482330322266,-0.0029167160391807556,-0.02025715261697769
1772810405543927300,6.07292724609375,-0.08833885192871094,-0.014952003955841064,-0.02282238006591797
1772810405563687400,6.0926875,-0.08355140686035156,-0.005292125046253204,-0.005894258618354797
1772810405583447600,6.112447509765625,-0.07396507263183594,0.013706862926483154,-0.015658743679523468
1772810405603207700,6.132207763671875,-0.07875823974609375,-0.007821746170520782,-0.008307322859764099
1772810405622967800,6.1519677734375,-0.08594703674316406,-0.01033484935760498,-0.010380350053310394
1772810405642728000,6.17172802734375,-0.08594608306884766,0.0039954036474227905,-0.005740076303482056
1772810405662488000,6.191488037109375,-0.09073543548583984,-0.01049235463142395,-0.010519623756408691
1772810405682248400,6.21124853515625,-0.08834266662597656,-0.0009453222155570984,-0.01274118572473526
1772810405702008600,6.231008544921875,-0.08115863800048828,-0.010491229593753815,-0.0029530301690101624
1772810405721768700,6.250768798828125,-0.08355426788330078,-0.01284492015838623,0.004218339920043945
1772810405741528800,6.27052880859375,-0.07426929473876953,-0.00573478639125824,-0.019909821450710297
1772810405761289000,6.2902890625,-0.09073543548583984,-0.015116758644580841,0.00143393874168396
1772810405781049000,6.310049072265625,-0.09313678741455078,0.004210866987705231,-0.007933318614959717
1772810405800809200,6.329809326171875,-0.07906341552734375,-0.002852320671081543,0.003979474306106567
1772810405820569300,6.3495693359375,-0.09313583374023438,0.006784409284591675,-0.003207653760910034
1772810405840329500,6.36932958984375,-0.07906341552734375,-0.007351189851760864,-0.015315987169742584
1772810405860089900,6.38908984375,-0.08146286010742188,0.012364178895950317,-0.010058924555778503
1772810405879850000,6.40885009765625,-0.08415699005126953,-0.027936838567256927,-0.02190590649843216
1772810405899610000,6.428610107421875,-0.081756591796875,0.0032668262720108032,-0.012770384550094604
1772810405919370200,6.448370361328125,-0.0745697021484375,-0.006079040467739105,-0.005435638129711151
1772810405939130400,6.46813037109375,-0.05780029296875,0.00870668888092041,-0.017498008906841278
1772810405958890500,6.487890380859375,-0.06977081298828125,-0.007823824882507324,-0.013460271060466766
1772810405978650600,6.507650634765625,-0.06976318359375,-0.017198212444782257,-0.01665562391281128
1772810405998411000,6.527410888671875,-0.07454967498779297,-0.009766973555088043,-0.007582664489746094
1772810406018172000,6.547171875,-0.08173274993896484,0.014125734567642212,-0.027061037719249725
1772810406037932800,6.566932861328125,-0.06975364685058594,0.0020560845732688904,-0.00793832540512085
1772810406057693400,6.586693359375,-0.08412551879882812,-0.01472172886133194,-0.003299698233604431
1772810406077454300,6.606454345703125,-0.09580326080322266,0.013957574963569641,-0.012706272304058075
1772810406097215200,6.62621533203125,-0.07933521270751953,-0.012348294258117676,-0.010342441499233246
1772810406116976000,6.64597607421875,-0.07693958282470703,-0.014950864017009735,-0.005468331277370453
1772810406136736800,6.66573681640625,-0.09131240844726562,-0.0008145198225975037,0.004228733479976654
1772810406156497700,6.68549755859375,-0.08172988891601562,-0.0006923452019691467,0.004139363765716553
1772810406176258600,6.705258544921875,-0.08652210235595703,0.006552211940288544,-0.007749907672405243
1772810406196019500,6.72501953125,-0.07693767547607422,-0.007785908877849579,-0.0007982403039932251
1772810406215780000,6.744780029296875,-0.055675506591796875,0.001709073781967163,-0.02254774421453476
1772810406235541000,6.764541015625,-0.10059452056884766,-0.014802075922489166,-0.012713372707366943
1772810406255302000,6.784302001953125,-0.08173370361328125,0.00691850483417511,-0.003001697361469269
1772810406275062800,6.804062744140625,-0.09340667724609375,-0.014798149466514587,-0.0038295090198516846
1772810406294823700,6.82382373046875,-0.08622169494628906,-0.00529111921787262,-0.0013573989272117615
1772810406314584300,6.843584228515625,-0.05777549743652344,-0.012432746589183807,-0.006113588809967041
1772810406334345200,6.86334521484375,-0.09790229797363281,0.006344594061374664,0.0011427924036979675
1772810406354106000,6.883106201171875,-0.09101581573486328,-0.0033168569207191467,0.00843735784292221
1772810406373867000,6.902866943359375,-0.07215023040771484,-0.005785845220088959,-0.010836273431777954
1772810406393627600,6.922627685546875,-0.07214832305908203,0.0037561357021331787,-0.006114400923252106
1772810406413388500,6.942388427734375,-0.06975650787353516,0.00626499205827713,-0.027442656457424164
1772810406433149400,6.9621494140625,-0.07694339752197266,0.001490958034992218,-0.0010693445801734924
1772810406452910300,6.981910400390625,-0.08382987976074219,0.00873062014579773,-0.02993818372488022
1772810406472671000,7.0016708984375,-0.0766458511352539,-0.0008332133293151855,-0.015303455293178558
1772810406492432000,7.021431884765625,-0.07694816589355469,-0.02691125124692917,-0.010314784944057465
1772810406512192000,7.04119189453125,-0.08622932434082031,-0.01030062884092331,-0.0009663775563240051
1772810406531952000,7.0609521484375,-0.07454967498779297,-0.01269899308681488,-0.012999914586544037
1772810406551712500,7.08071240234375,-0.07425403594970703,-0.01748640090227127,-0.0031312331557273865
1772810406571472600,7.10047265625,-0.08383750915527344,-0.002984657883644104,0.004067659378051758
1772810406591232800,7.120232666015625,-0.08144187927246094,-0.014807447791099548,-0.000855766236782074
1772810406610993000,7.139992919921875,-0.07664966583251953,0.021199271082878113,-0.00815652310848236
1772810406630753000,7.1597529296875,-0.09551239013671875,-0.00751195102930069,-0.005882255733013153
1772810406650513200,7.17951318359375,-0.0769500732421875,0.001983143389225006,-0.01998576521873474
1772810406670273300,7.199273193359375,-0.08383941650390625,-0.00935547798871994,-0.007764644920825958
1772810406690033400,7.219033447265625,-0.07216167449951172,-0.004741460084915161,-0.005284957587718964
1772810406709793800,7.238793701171875,-0.07426166534423828,-0.009491972625255585,-0.016998663544654846
1772810406729554000,7.258553955078125,-0.08384513854980469,-0.007011182606220245,-0.014004476368427277
1772810406749314000,7.27831396484375,-0.08414363861083984,-0.004484191536903381,-0.006936565041542053
1772810406769074200,7.29807421875,-0.08174419403076172,0.012172877788543701,-0.0024283230304718018
1772810406788834300,7.317834228515625,-0.060184478759765625,-0.01885528862476349,-0.012015260756015778
1772810406808594400,7.337594482421875,-0.07934856414794922,0.0052108243107795715,-0.009783975780010223
1772810406828354600,7.3573544921875,-0.09581661224365234,-0.00902199000120163,-0.01462465524673462
1772810406848115000,7.377114990234375,-0.06976604461669922,0.0005266815423965454,-0.009842686355113983
1772810406867875000,7.396875,-0.07934856414794922,0.004728503525257111,-0.005617700517177582
1772810406887635200,7.41663525390625,-0.0979146957397461,-0.004824504256248474,-0.015094168484210968
1772810406907395300,7.436395263671875,-0.08863449096679688,-0.002350062131881714,-0.007768742740154266
1772810406927155500,7.456155517578125,-0.07695293426513672,-0.00959765911102295,-0.01526331901550293
1772810406946915600,7.47591552734375,-0.07216644287109375,-0.009313099086284637,-0.026849262416362762
1772810406966675700,7.49567578125,-0.0790548324584961,0.007055848836898804,0.0020682960748672485
1772810406986436000,7.51543603515625,-0.08863449096679688,-0.004995778203010559,-0.002798117697238922
1772810407006196200,7.5351962890625,-0.0907297134399414,-0.007663846015930176,-0.009942799806594849
1772810407025956600,7.55495654296875,-0.07905387878417969,0.0066626667976379395,-0.014474809169769287
1772810407045716700,7.574716796875,-0.0838470458984375,-0.0030487030744552612,-0.002264581620693207
1772810407065477000,7.59447705078125,-0.0790567398071289,0.011564679443836212,-0.011448360979557037
1772810407085237500,7.614237548828125,-0.08414936065673828,-0.009706206619739532,-0.008558794856071472
1772810407104997600,7.63399755859375,-0.07906055450439453,0.014028005301952362,-0.0010892003774642944
1772810407124758000,7.653758056640625,-0.07906436920166016,0.011677071452140808,-0.010368593037128448
1772810407144518100,7.67351806640625,-0.0697793960571289,-0.01945149153470993,-0.0009709075093269348
1772810407164278500,7.693278564453125,-0.08415412902832031,-0.00026722252368927,-0.005728602409362793
1772810407184039000,7.713038818359375,-0.10301399230957031,-0.000402890145778656,-0.025125354528427124
1772810407203799000,7.732799072265625,-0.057801246643066406,-0.0075529515743255615,-0.010552644729614258
1772810407223559400,7.752559326171875,-0.07936477661132812,-0.0027384087443351746,-0.019861601293087006
1772810407243319600,7.772319580078125,-0.0793609619140625,0.011526055634021759,0.011068791151046753
1772810407263080000,7.792079833984375,-0.0889444351196289,0.002010360360145569,-0.022345542907714844
1772810407282840300,7.81184033203125,-0.08175849914550781,-0.007639668881893158,-0.019935309886932373
1772810407302600400,7.831600341796875,-0.07217788696289062,0.006893254816532135,0.001692250370979309
1772810407322360800,7.85136083984375,-0.08894729614257812,-0.007343202829360962,-0.01990330219268799
1772810407342121000,7.871120849609375,-0.08176231384277344,-0.007409892976284027,0.0018274039030075073
1772810407361881300,7.89088134765625,-0.06499290466308594,0.0021878033876419067,-0.019821718335151672
1772810407381641700,7.910641845703125,-0.0910482406616211,-0.007151782512664795,-0.005313284695148468
1772810407401401900,7.93040185546875,-0.06739521026611328,-0.002284631133079529,-0.00024230778217315674
1772810407421162200,7.950162353515625,-0.08416557312011719,-0.004545621573925018,-0.0002735704183578491
1772810407440922400,7.96992236328125,-0.09344673156738281,-0.006913378834724426,-0.005101442337036133
1772810407460682800,7.989682861328125,-0.0865631103515625,0.009960651397705078,0.0022739171981811523
1772810407480443100,8.009443115234374,-0.10752105712890625,0.007359534502029419,0.01418854296207428
1772810407500202800,8.02920263671875,-0.079376220703125,0.004973225295543671,-0.0024508312344551086
1772810407519961900,8.0489619140625,-0.07697772979736328,-0.002343416213989258,-0.0074617937207221985
1772810407539721000,8.068720947265625,-0.10512256622314453,-0.004809379577636719,-0.005087994039058685
1772810407559480000,8.08847998046875,-0.08416748046875,-0.021565251052379608,0.0024262964725494385
1772810407579239200,8.1082392578125,-0.08655929565429688,-0.00014128535985946655,-0.009663090109825134
1772810407598998300,8.127998291015626,-0.08176708221435547,0.00211130827665329,0.002228550612926483
1772810407618757400,8.14775732421875,-0.08655738830566406,-0.007280580699443817,-0.0026384294033050537
1772810407638516500,8.1675166015625,-0.08656024932861328,-0.014518477022647858,-0.01679673045873642
1772810407658275600,8.187275634765625,-0.088958740234375,0.004807047545909882,0.007317662239074707
1772810407678034400,8.207034423828125,-0.0841665267944336,-0.006931178271770477,-0.0072740837931632996
1772810407697793500,8.22679345703125,-0.08626270294189453,0.019085317850112915,0.00247742235660553
1772810407717552600,8.246552734375,-0.06739616394042969,-0.012062206864356995,-0.004830285906791687
1772810407737311700,8.266311767578125,-0.08176898956298828,-0.007288083434104919,-0.0025620758533477783
1772810407757070800,8.28607080078125,-0.07218742370605469,0.007345966994762421,0.006972998380661011
1772810407776830000,8.305829833984374,-0.08866024017333984,0.007501982152462006,0.000014178454875946045
1772810407796589000,8.325589111328124,-0.0721902847290039,-0.002004295587539673,-0.014458902180194855
1772810407816348200,8.34534814453125,-0.08417034149169922,-0.0067616477608680725,-0.026302210986614227
1772810407836107000,8.36510693359375,-0.07219219207763672,0.00028689950704574585,-0.0022682324051856995
1772810407855866400,8.384866455078125,-0.09584617614746094,-0.009203702211380005,-0.007227882742881775
1772810407875625200,8.404625244140625,-0.08177471160888672,0.0050679221749305725,-0.007635660469532013
1772810407895384300,8.42438427734375,-0.10303688049316406,-0.009370706975460052,-0.00019210577011108398
1772810407915143400,8.444143310546876,-0.09345626831054688,-0.0021101534366607666,-0.007260747253894806
1772810407934902500,8.463902587890624,-0.07459259033203125,-0.006970793008804321,-0.009635217487812042
1772810407954661600,8.48366162109375,-0.08627128601074219,-0.006730318069458008,-0.014549635350704193
1772810407974420700,8.503420654296875,-0.08626937866210938,-0.004514880478382111,-0.00022883713245391846
1772810407994179800,8.523179931640625,-0.07219791412353516,0.002382807433605194,0.004808388650417328
1772810408013939500,8.542939453125,-0.0790853500366211,-0.009258061647415161,-0.0071526989340782166
1772810408033699000,8.562698974609376,-0.091064453125,-0.00951877236366272,-0.0023061558604240417
1772810408053458700,8.582458740234374,-0.08177757263183594,0.014017082750797272,-0.012119032442569733
1772810408073218300,8.60221826171875,-0.07698631286621094,0.007273688912391663,0.0005068778991699219
1772810408092978000,8.62197802734375,-0.07698535919189453,-0.0001016855239868164,-0.011496715247631073
1772810408112737500,8.641737548828125,-0.08896636962890625,0.007083319127559662,0.0008394047617912292
1772810408132497400,8.661497314453126,-0.08626937866210938,-0.004815243184566498,-0.006539061665534973
1772810408152257000,8.681257080078124,-0.09135723114013672,0.009446203708648682,-0.006626613438129425
1772810408172016600,8.7010166015625,-0.07459068298339844,0.007307097315788269,-0.009104162454605103
1772810408191776300,8.7207763671875,-0.06979846954345703,-0.004696458578109741,-0.006743714213371277
1772810408211536000,8.740535888671875,-0.06770038604736328,0.00982201099395752,-0.02137470245361328
1772810408231295500,8.76029541015625,-0.07698440551757812,-0.028472691774368286,0.005013696849346161
1772810408251055000,8.78005517578125,-0.0677022933959961,0.0004437193274497986,-0.011830784380435944
1772810408270814700,8.799814697265624,-0.07219314575195312,-0.004372984170913696,0.00009453296661376953
1772810408290574600,8.81957470703125,-0.07698345184326172,-0.002111859619617462,-0.0046342238783836365
1772810408310334200,8.839334228515625,-0.06260871887207031,0.0027902647852897644,-0.014387615025043488
1772810408330093800,8.85909375,-0.08626747131347656,0.0005630180239677429,0.007257342338562012
1772810408349853400,8.878853515625,-0.08386898040771484,-0.0018661245703697205,-0.00013463199138641357
1772810408369613000,8.898613037109374,-0.08417224884033203,-0.01130133867263794,-0.0048122406005859375
1772810408389372700,8.91837255859375,-0.08417224884033203,0.01741880178451538,-0.011971063911914825
1772810408409132300,8.93813232421875,-0.07698631286621094,0.005597136914730072,-0.004721365869045258
1772810408428892000,8.957891845703125,-0.08417510986328125,0.003262035548686981,-0.007101207971572876
1772810408448651800,8.97765185546875,-0.08177947998046875,-0.013458795845508575,-0.009423106908798218
1772810408468411400,8.997411376953124,-0.08177852630615234,-0.004398137331008911,-0.010204523801803589
1772810408488171000,9.0171708984375,-0.08866596221923828,-0.0021359622478485107,-0.010027118027210236
1772810408507930600,9.0369306640625,-0.08148002624511719,-0.014011524617671967,-0.01249714195728302
1772810408527690500,9.0566904296875,-0.08387374877929688,0.0003266185522079468,-0.0056504011154174805
1772810408547450400,9.076450439453126,-0.06950187683105469,-0.004539214074611664,-0.0057824477553367615
1772810408567210200,9.096210205078124,-0.07668876647949219,0.005201719701290131,-0.017924323678016663
1772810408586970000,9.11597021484375,-0.08836555480957031,0.01252744346857071,-0.008477233350276947
1772810408606730000,9.13572998046875,-0.07668685913085938,-0.006754748523235321,-0.010901592671871185
1772810408626489900,9.15548974609375,-0.06710338592529297,0.009953029453754425,-0.010978125035762787
1772810408646249700,9.175249755859374,-0.07429122924804688,-0.0043403878808021545,-0.0037325993180274963
1772810408666009600,9.195009521484375,-0.07908153533935547,-0.0017812922596931458,-0.02259412407875061
1772810408685769500,9.21476953125,-0.07937812805175781,0.00769418478012085,-0.0032782480120658875
1772810408705529300,9.234529296875,-0.07937812805175781,0.005702376365661621,-0.0033734291791915894
1772810408725289200,9.254289306640626,-0.08177566528320312,-0.0013591423630714417,-0.01287505030632019
1772810408745049000,9.274049072265624,-0.07698535919189453,0.012947969138622284,-0.01274251937866211
1772810408764809000,9.29380908203125,-0.07458972930908203,-0.003796324133872986,-0.012763142585754395
1772810408784568600,9.313568603515625,-0.06261157989501953,-0.015771299600601196,-0.010394133627414703
1772810408804328400,9.333328369140625,-0.08417510986328125,0.008078262209892273,-0.014892973005771637
1772810408824088300,9.35308837890625,-0.06740665435791016,-0.0015323534607887268,-0.014457650482654572
1772810408843848200,9.37284814453125,-0.08177947998046875,-0.004004195332527161,-0.014177024364471436
1772810408863608000,9.392608154296875,-0.06500911712646484,-0.011199921369552612,-0.005036883056163788
1772810408883368000,9.412367919921875,-0.07938098907470703,-0.020766206085681915,-0.00786881148815155
1772810408903127800,9.4321279296875,-0.08147525787353516,0.016939565539360046,-0.0056169480085372925
1772810408922887700,9.4518876953125,-0.07698440551757812,-0.006838470697402954,-0.02700752019882202
1772810408942647600,9.4716474609375,-0.09584808349609375,0.000414237380027771,-0.003098025918006897
1772810408962407400,9.491407470703125,-0.07938194274902344,0.017063215374946594,-0.012649506330490112
1772810408982167300,9.511167236328125,-0.09584808349609375,0.002698831260204315,-0.01277400553226471
1772810409001927200,9.53092724609375,-0.06501007080078125,-0.0108780637383461,-0.015029601752758026
1772810409021687600,9.5506875,-0.07908344268798828,-0.011082053184509277,-0.0007593929767608643
1772810409041447700,9.57044775390625,-0.08866310119628906,-0.0015861168503761292,-0.012859627604484558
1772810409061208000,9.5902080078125,-0.09105873107910156,0.012368857860565186,0.0013643726706504822
1772810409080968400,9.609968505859374,-0.09794330596923828,-0.011541247367858887,0.012750975787639618
1772810409100728800,9.629728759765625,-0.09315299987792969,0.007620081305503845,-0.0016195699572563171
1772810409120489000,9.649489013671875,-0.07908058166503906,0.0003940761089324951,0.0009294971823692322
1772810409140249300,9.669249267578126,-0.07668399810791016,0.007525771856307983,-0.006344974040985107
1772810409160009700,9.689009765625,-0.0835714340209961,0.00030402839183807373,-0.02305825799703598
1772810409179769900,9.708769775390625,-0.06710052490234375,0.0002188459038734436,-0.008666083216667175
1772810409199530200,9.7285302734375,-0.0859670639038086,-0.004285089671611786,-0.0111914724111557
1772810409219290600,9.74829052734375,-0.07668685913085938,-0.01610042154788971,-0.016491740942001343
1772810409239050800,9.76805078125,-0.0859689712524414,0.0027723759412765503,-0.002062857151031494
1772810409258811100,9.78781103515625,-0.06979942321777344,0.000642240047454834,0.0009265616536140442
1772810409278571500,9.807571533203125,-0.0955495834350586,0.0033439844846725464,-0.0010233595967292786
1772810409298331600,9.82733154296875,-0.0745859146118164,-0.015671417117118835,-0.020344428718090057
1772810409318092000,9.847092041015625,-0.08626556396484375,0.0038097351789474487,0.005886077880859375
1772810409337852200,9.86685205078125,-0.09105682373046875,-0.008077733218669891,0.003530554473400116
1772810409357612500,9.886612548828126,-0.07219314575195312,-0.008144043385982513,-0.003246314823627472
1772810409377373000,9.906373046875,-0.06979751586914062,-0.0031221359968185425,-0.02943149209022522
1772810409397133000,9.926133056640625,-0.06979751586914062,-0.019977591931819916,-0.012633636593818665
1772810409416893400,9.9458935546875,-0.08416938781738281,-0.003080703318119049,-0.005693264305591583
1772810409436653800,9.96565380859375,-0.0793771743774414,-0.007885172963142395,-0.008122682571411133
1772810409456414200,9.985414306640624,-0.08866214752197266,-0.0029660016298294067,-0.024779871106147766
1772810409476174300,10.00517431640625,-0.07458972930908203,-0.001355774700641632,0.002914443612098694
1772810409495934500,10.0249345703125,-0.0979452133178711,-0.013234555721282959,-0.0018721073865890503
1772810409515693300,10.044693359375,-0.08626556396484375,-0.003989949822425842,-0.011373952031135559
1772810409535452200,10.0644521484375,-0.09315109252929688,0.0031532645225524902,0.000445634126663208
1772810409555211300,10.084211181640624,-0.09105587005615234,0.015107929706573486,-0.011503756046295166
1772810409574970000,10.10397021484375,-0.08626651763916016,0.005529783666133881,0.003065533936023712
1772810409594729000,10.12372900390625,-0.06710529327392578,0.007970064878463745,-0.006241269409656525
1772810409614487800,10.14348779296875,-0.07429027557373047,0.005577877163887024,-0.008771218359470367
1772810409634246700,10.16324658203125,-0.08836746215820312,-0.02065310627222061,-0.02054332196712494
1772810409654005800,10.183005859375,-0.06740856170654297,0.0031592994928359985,0.0036569759249687195
1772810409673764600,10.2027646484375,-0.07939529418945312,0.010158978402614594,-0.011486232280731201
1772810409693523500,10.2225234375,-0.08150100708007812,0.0029592812061309814,-0.00802205502986908
1772810409713282600,10.242282470703126,-0.08869075775146484,-0.011533871293067932,-0.01235373318195343
1772810409733041400,10.26204150390625,-0.0770111083984375,-0.0016868114471435547,0.003957606852054596
1772810409752800300,10.28180029296875,-0.07460498809814453,-0.006097570061683655,0.0034810006618499756
1772810409772559000,10.30155908203125,-0.08867359161376953,-0.017716795206069946,0.0028706789016723633
1772810409792318000,10.32131787109375,-0.06980514526367188,-0.0034847185015678406,-0.011766180396080017
