time,seconds_elapsed,z,y,x
1772810427124278300,0.1582783203125,-0.0003994738217443228,0.0023968429304659367,0.001997369108721614
1772810427134158600,0.16815869140625,-0.0003994738217443228,0.0013315794058144093,-0.00013315794058144093
1772810427144038700,0.17803857421875,-0.0003994738217443228,0.0013315794058144093,0.0003994738217443228
1772810427153918700,0.187918701171875,-0.0009321055840700865,0.0013315794058144093,-0.0011984214652329683
1772810427163798800,0.197798828125,0.00013315794058144093,-0.00026631588116288185,-0.00013315794058144093
1772810427173678800,0.207678955078125,0.0006657897029072046,0.0007989476434886456,0.0003994738217443228
1772810427183559200,0.21755908203125,-0.0009321055840700865,-0.001864211168140173,-0.0022636849898844957
1772810427193439200,0.227439208984375,-0.0014647373463958502,0.0007989476434886456,-0.0006657897029072046
1772810427203319300,0.2373193359375,-0.0009321055840700865,0.00026631588116288185,-0.00013315794058144093
1772810427213199400,0.247199462890625,0.0006657897029072046,0.00026631588116288185,-0.0006657897029072046
1772810427223079400,0.257079345703125,-0.0014647373463958502,0.0007989476434886456,-0.0011984214652329683
1772810427232959700,0.266959716796875,-0.0003994738217443228,-0.00026631588116288185,0.0003994738217443228
1772810427242839800,0.27683984375,-0.0003994738217443228,-0.00026631588116288185,0.0009321055840700865
1772810427252719900,0.286719970703125,0.0027963167522102594,-0.00026631588116288185,-0.0006657897029072046
1772810427262600000,0.296599853515625,-0.0003994738217443228,-0.00026631588116288185,-0.0011984214652329683
1772810427272480300,0.306480224609375,0.0006657897029072046,-0.00026631588116288185,-0.0006657897029072046
1772810427282360300,0.3163603515625,-0.0003994738217443228,-0.0013315794058144093,-0.00013315794058144093
1772810427292240400,0.326240478515625,0.00013315794058144093,0.00026631588116288185,-0.00013315794058144093
1772810427302120400,0.336120361328125,0.0006657897029072046,-0.0007989476434886456,-0.0006657897029072046
1772810427312000500,0.34600048828125,-0.0009321055840700865,0.0007989476434886456,0.0014647373463958502
1772810427321880800,0.355880859375,-0.0009321055840700865,0.0007989476434886456,0.0009321055840700865
1772810427331761000,0.365760986328125,-0.0003994738217443228,-0.00026631588116288185,-0.00013315794058144093
1772810427341641000,0.375640869140625,0.00013315794058144093,-0.0023968429304659367,-0.0006657897029072046
1772810427351521000,0.38552099609375,0.00013315794058144093,-0.0007989476434886456,-0.00013315794058144093
1772810427361401000,0.395401123046875,-0.0014647373463958502,0.0013315794058144093,-0.0006657897029072046
1772810427371281400,0.405281494140625,0.00013315794058144093,0.001864211168140173,-0.0006657897029072046
1772810427381161500,0.415161376953125,0.0006657897029072046,-0.00026631588116288185,0.0014647373463958502
1772810427391041500,0.42504150390625,0.00013315794058144093,0.0013315794058144093,-0.00013315794058144093
1772810427400921600,0.434921630859375,-0.0009321055840700865,0.00026631588116288185,-0.0011984214652329683
1772810427410801700,0.4448017578125,-0.0009321055840700865,0.0007989476434886456,-0.00013315794058144093
1772810427420682000,0.454681884765625,-0.0003994738217443228,-0.0007989476434886456,-0.0011984214652329683
1772810427430562000,0.46456201171875,0.00013315794058144093,0.0013315794058144093,-0.00013315794058144093
1772810427440442000,0.474442138671875,0.00013315794058144093,0.0013315794058144093,-0.00013315794058144093
1772810427450322200,0.484322265625,0.00013315794058144093,-0.00026631588116288185,-0.0011984214652329683
1772810427460202200,0.4942021484375,-0.0003994738217443228,0.00026631588116288185,-0.0006657897029072046
1772810427470082600,0.50408251953125,-0.0003994738217443228,0.003462106455117464,-0.001731053227558732
1772810427479962600,0.513962646484375,0.0011984214652329683,-0.0007989476434886456,0.0009321055840700865
1772810427489842700,0.5238427734375,-0.0003994738217443228,0.0007989476434886456,-0.0006657897029072046
1772810427499722200,0.53372216796875,0.0006657897029072046,-0.0007989476434886456,0.0030626326333731413
1772810427509601500,0.5436015625,-0.0003994738217443228,-0.00026631588116288185,-0.00013315794058144093
1772810427519480800,0.553480712890625,0.0011984214652329683,-0.0007989476434886456,-0.00013315794058144093
1772810427529360100,0.563360107421875,-0.0009321055840700865,-0.0023968429304659367,0.0009321055840700865
1772810427539239400,0.573239501953125,-0.0009321055840700865,0.0029294746927917004,-0.00013315794058144093
1772810427549118700,0.58311865234375,0.0006657897029072046,-0.001864211168140173,0.0003994738217443228
1772810427558998000,0.592998046875,-0.0009321055840700865,0.0013315794058144093,-0.0011984214652329683
1772810427568877300,0.602877197265625,0.0011984214652329683,0.0007989476434886456,-0.0011984214652329683
1772810427578756400,0.61275634765625,0.0027963167522102594,-0.0013315794058144093,-0.0006657897029072046
1772810427588635600,0.6226357421875,-0.0009321055840700865,0.00026631588116288185,-0.00013315794058144093
1772810427598515000,0.632514892578125,0.00013315794058144093,0.00026631588116288185,-0.00013315794058144093
1772810427608394200,0.642394287109375,0.0022636849898844957,0.0007989476434886456,0.0003994738217443228
1772810427618273500,0.6522734375,-0.0009321055840700865,-0.001864211168140173,0.001997369108721614
1772810427628152800,0.66215283203125,-0.0003994738217443228,0.001864211168140173,-0.0006657897029072046
1772810427638032000,0.672031982421875,0.0006657897029072046,-0.0007989476434886456,-0.0006657897029072046
1772810427647911200,0.6819111328125,0.00013315794058144093,0.0007989476434886456,-0.00013315794058144093
1772810427657790500,0.69179052734375,0.0011984214652329683,-0.0013315794058144093,-0.0011984214652329683
1772810427667669800,0.701669677734375,0.001731053227558732,0.0007989476434886456,-0.00013315794058144093
1772810427677549000,0.711549072265625,-0.0003994738217443228,0.0023968429304659367,0.0009321055840700865
1772810427687428400,0.721428466796875,-0.001997369108721614,0.0013315794058144093,0.0003994738217443228
1772810427697307600,0.7313076171875,-0.0003994738217443228,0.001864211168140173,0.0014647373463958502
1772810427707186700,0.741186767578125,0.0006657897029072046,0.00026631588116288185,0.0009321055840700865
1772810427717066000,0.75106591796875,0.0006657897029072046,-0.001864211168140173,-0.0011984214652329683
1772810427726945300,0.7609453125,0.00013315794058144093,0.00026631588116288185,-0.00013315794058144093
1772810427736824600,0.770824462890625,0.0006657897029072046,0.00026631588116288185,0.0009321055840700865
1772810427746704000,0.780703857421875,0.00013315794058144093,-0.00026631588116288185,0.0003994738217443228
1772810427756583200,0.790583251953125,0.00013315794058144093,0.0013315794058144093,-0.00013315794058144093
1772810427766462500,0.80046240234375,-0.0003994738217443228,-0.0007989476434886456,0.0009321055840700865
1772810427776341500,0.810341552734375,-0.0003994738217443228,-0.0007989476434886456,0.0003994738217443228
1772810427786220800,0.820220703125,0.0006657897029072046,-0.0023968429304659367,-0.0006657897029072046
1772810427796100000,0.83010009765625,0.0011984214652329683,-0.0007989476434886456,-0.0011984214652329683
1772810427805979400,0.8399794921875,-0.0003994738217443228,-0.00026631588116288185,-0.001731053227558732
1772810427815858700,0.849858642578125,0.0006657897029072046,-0.003462106455117464,-0.0006657897029072046
1772810427825738000,0.859738037109375,0.0006657897029072046,-0.00026631588116288185,-0.001731053227558732
1772810427835617000,0.869616943359375,-0.0009321055840700865,0.0007989476434886456,-0.001731053227558732
1772810427845496300,0.879496337890625,-0.0014647373463958502,-0.0007989476434886456,-0.00013315794058144093
1772810427855375600,0.889375732421875,-0.001997369108721614,0.00026631588116288185,0.0009321055840700865
1772810427865255000,0.8992548828125,0.0006657897029072046,-0.0013315794058144093,0.0003994738217443228
1772810427875134200,0.90913427734375,0.00013315794058144093,-0.0013315794058144093,0.0009321055840700865
1772810427885013500,0.919013427734375,0.0006657897029072046,-0.0007989476434886456,-0.00013315794058144093
1772810427894892800,0.928892822265625,-0.0003994738217443228,-0.0007989476434886456,0.0003994738217443228
1772810427904772000,0.938772216796875,0.0006657897029072046,-0.0007989476434886456,0.0014647373463958502
1772810427914651100,0.948651123046875,0.0006657897029072046,-0.00026631588116288185,-0.0006657897029072046
1772810427924530400,0.958530517578125,-0.0009321055840700865,0.0023968429304659367,-0.0011984214652329683
1772810427934409700,0.96840966796875,0.00013315794058144093,-0.0029294746927917004,-0.00013315794058144093
1772810427944289000,0.9782890625,0.0011984214652329683,0.00026631588116288185,0.0003994738217443228
1772810427954168300,0.988168212890625,0.0011984214652329683,0.0023968429304659367,0.001997369108721614
1772810427964047600,0.998047607421875,0.0006657897029072046,0.0013315794058144093,-0.0006657897029072046
1772810427973927000,1.007927001953125,-0.0003994738217443228,-0.0007989476434886456,0.0009321055840700865
1772810427983806000,1.017805908203125,-0.0014647373463958502,-0.001864211168140173,-0.00013315794058144093
1772810427993685200,1.027685302734375,-0.0003994738217443228,0.0007989476434886456,-0.0011984214652329683
1772810428003564800,1.037564697265625,0.00013315794058144093,-0.0013315794058144093,0.0014647373463958502
1772810428013444600,1.047444580078125,-0.0009321055840700865,-0.003994738217443228,-0.00013315794058144093
1772810428023324200,1.05732421875,-0.0009321055840700865,0.0007989476434886456,0.0003994738217443228
1772810428033204000,1.067203857421875,0.00013315794058144093,0.00026631588116288185,0.0009321055840700865
1772810428043083800,1.077083740234375,0.00013315794058144093,0.00026631588116288185,-0.0006657897029072046
1772810428052963300,1.08696337890625,-0.0014647373463958502,0.00026631588116288185,0.0003994738217443228
1772810428062843100,1.096843017578125,0.00013315794058144093,0.0007989476434886456,-0.00013315794058144093
1772810428072722700,1.10672265625,0.0011984214652329683,0.00026631588116288185,0.0014647373463958502
1772810428082602500,1.1166025390625,0.0006657897029072046,-0.00026631588116288185,0.0003994738217443228
1772810428092482000,1.12648193359375,0.0011984214652329683,-0.00026631588116288185,-0.0011984214652329683
1772810428102361900,1.13636181640625,0.0006657897029072046,0.001864211168140173,-0.00013315794058144093
1772810428112241400,1.146241455078125,-0.0009321055840700865,0.00026631588116288185,-0.00013315794058144093
1772810428122121200,1.156121337890625,0.00013315794058144093,0.00026631588116288185,-0.001731053227558732
1772810428132001000,1.1660009765625,0.0006657897029072046,0.00026631588116288185,0.0009321055840700865
1772810428141880600,1.175880615234375,0.0006657897029072046,0.0013315794058144093,-0.0011984214652329683
1772810428151760400,1.185760498046875,-0.001997369108721614,-0.00026631588116288185,0.001997369108721614
1772810428161640000,1.195639892578125,-0.0014647373463958502,0.0007989476434886456,0.0009321055840700865
1772810428171519700,1.205519775390625,-0.0009321055840700865,-0.0007989476434886456,0.0009321055840700865
1772810428181399300,1.2153994140625,-0.0009321055840700865,0.00026631588116288185,-0.00013315794058144093
1772810428191279000,1.225279052734375,0.0011984214652329683,0.0007989476434886456,-0.0011984214652329683
1772810428201158700,1.23515869140625,0.00013315794058144093,-0.0013315794058144093,-0.0011984214652329683
1772810428211038500,1.24503857421875,-0.0003994738217443228,0.00026631588116288185,-0.00013315794058144093
1772810428220918000,1.25491796875,-0.0003994738217443228,-0.0007989476434886456,0.0014647373463958502
1772810428230797800,1.2647978515625,0.00013315794058144093,-0.0007989476434886456,0.0003994738217443228
1772810428240677400,1.274677490234375,0.00013315794058144093,-0.0007989476434886456,-0.0006657897029072046
1772810428250557200,1.28455712890625,0.0006657897029072046,0.0013315794058144093,0.001997369108721614
1772810428260436700,1.294436767578125,-0.0003994738217443228,-0.0007989476434886456,-0.0011984214652329683
1772810428270316500,1.304316650390625,0.0006657897029072046,-0.0013315794058144093,0.0009321055840700865
1772810428280196000,1.314196044921875,-0.0003994738217443228,-0.001864211168140173,0.0003994738217443228
1772810428290076000,1.324075927734375,0.00013315794058144093,-0.0007989476434886456,-0.00013315794058144093
1772810428299955700,1.333955810546875,-0.0009321055840700865,0.0007989476434886456,-0.001731053227558732
1772810428309835300,1.343835205078125,0.0006657897029072046,0.00026631588116288185,0.0009321055840700865
1772810428319715000,1.353715087890625,0.0006657897029072046,-0.001864211168140173,0.0003994738217443228
1772810428329594600,1.3635947265625,0.0011984214652329683,0.00026631588116288185,0.0003994738217443228
1772810428339474400,1.373474365234375,0.00013315794058144093,-0.0007989476434886456,0.0003994738217443228
1772810428349354000,1.38335400390625,0.00013315794058144093,-0.0013315794058144093,-0.0011984214652329683
1772810428359233800,1.39323388671875,0.0006657897029072046,0.00026631588116288185,-0.00013315794058144093
1772810428369113300,1.40311328125,0.0011984214652329683,-0.00026631588116288185,-0.001731053227558732
1772810428378993200,1.4129931640625,0.0006657897029072046,-0.003462106455117464,-0.0006657897029072046
1772810428388872700,1.422872802734375,0.0006657897029072046,-0.0013315794058144093,-0.0006657897029072046
1772810428398752500,1.43275244140625,0.0006657897029072046,-0.0007989476434886456,-0.00013315794058144093
1772810428408632000,1.442632080078125,0.0006657897029072046,-0.00026631588116288185,-0.0011984214652329683
1772810428418512000,1.452511962890625,-0.0009321055840700865,-0.0007989476434886456,-0.001731053227558732
1772810428428391400,1.462391357421875,-0.0009321055840700865,0.00026631588116288185,-0.00013315794058144093
1772810428438271200,1.472271240234375,0.00013315794058144093,0.00026631588116288185,0.0003994738217443228
1772810428448150800,1.48215087890625,0.00013315794058144093,-0.00026631588116288185,-0.001731053227558732
1772810428458030600,1.492030517578125,-0.0003994738217443228,0.00026631588116288185,-0.00013315794058144093
1772810428467910400,1.501910400390625,0.0006657897029072046,-0.0007989476434886456,0.0003994738217443228
1772810428477790000,1.5117900390625,-0.0003994738217443228,0.00026631588116288185,-0.0011984214652329683
1772810428487669800,1.521669677734375,0.0006657897029072046,-0.00026631588116288185,0.0009321055840700865
1772810428497549300,1.53154931640625,0.0006657897029072046,-0.0013315794058144093,-0.00013315794058144093
1772810428507429400,1.541429443359375,-0.0003994738217443228,-0.0013315794058144093,-0.00013315794058144093
1772810428517309200,1.55130908203125,-0.0009321055840700865,0.00026631588116288185,0.0014647373463958502
1772810428527189200,1.561189208984375,-0.0009321055840700865,-0.001864211168140173,0.0003994738217443228
1772810428537069000,1.571069091796875,0.00013315794058144093,-0.0007989476434886456,0.0003994738217443228
1772810428546948900,1.580948974609375,0.0006657897029072046,0.0007989476434886456,-0.00013315794058144093
1772810428556829000,1.590828857421875,0.001731053227558732,-0.0013315794058144093,-0.0011984214652329683
1772810428566708700,1.600708740234375,0.0006657897029072046,0.0013315794058144093,0.0009321055840700865
1772810428576588500,1.610588623046875,0.0006657897029072046,0.00026631588116288185,-0.00013315794058144093
1772810428586468600,1.620468505859375,0.0006657897029072046,0.0007989476434886456,-0.0006657897029072046
1772810428596348400,1.630348388671875,-0.001997369108721614,-0.00026631588116288185,-0.00013315794058144093
1772810428606228500,1.640228515625,-0.0014647373463958502,0.0013315794058144093,-0.0006657897029072046
1772810428625988400,1.65998828125,0.0006657897029072046,-0.0013315794058144093,0.0009321055840700865
1772810428635868200,1.6698681640625,-0.0009321055840700865,-0.0007989476434886456,-0.0011984214652329683
1772810428645748000,1.679748046875,0.0006657897029072046,-0.00013315794058144093,0.0010652635246515274
1772810428655628000,1.6896279296875,0.0011984214652329683,-0.0006657897029072046,0.0005326317623257637
1772810428665507800,1.6995078125,0.0006657897029072046,-0.0006657897029072046,0
1772810428675387600,1.7093876953125,0.0011984214652329683,-0.0011984214652329683,-0.0005326317623257637
1772810428685267700,1.719267822265625,0.00013315794058144093,0.0003994738217443228,0
1772810428695147500,1.7291474609375,0.00013315794058144093,0.0003994738217443228,-0.0010652635246515274
1772810428705027600,1.739027587890625,-0.0003994738217443228,-0.0006657897029072046,0
1772810428714907400,1.748907470703125,-0.0009321055840700865,-0.00013315794058144093,0.0005326317623257637
1772810428734667300,1.768667236328125,-0.0014647373463958502,-0.0011984214652329683,0
1772810428744547000,1.778547119140625,0.00013315794058144093,-0.0011984214652329683,0.0005326317623257637
1772810428754427100,1.78842724609375,0.00013315794058144093,0.0025300008710473776,-0.0010652635246515274
1772810428774187000,1.80818701171875,0.0006657897029072046,-0.00013315794058144093,0.0010652635246515274
1772810428793946600,1.827946533203125,0.0006657897029072046,-0.00013315794058144093,0
1772810428803826700,1.83782666015625,0.0006657897029072046,-0.001731053227558732,0
1772810428813706500,1.84770654296875,-0.001997369108721614,0.0009321055840700865,-0.0005326317623257637
1772810428823586300,1.85758642578125,-0.0009321055840700865,0.0003994738217443228,-0.0005326317623257637
1772810428833466400,1.86746630859375,0.0006657897029072046,0.0009321055840700865,0.0005326317623257637
1772810428843346200,1.87734619140625,-0.0003994738217443228,-0.0011984214652329683,0.0005326317623257637
1772810428853226200,1.887226318359375,0.0006657897029072046,0.0014647373463958502,0.0010652635246515274
1772810428863106000,1.89710595703125,0.0011984214652329683,0.0003994738217443228,0.0010652635246515274
1772810428872986000,1.906986083984375,-0.0003994738217443228,0.001997369108721614,-0.0010652635246515274
1772810428882866000,1.916865966796875,0.001731053227558732,0.0003994738217443228,0.0010652635246515274
1772810428892745700,1.926745849609375,0.0011984214652329683,-0.0011984214652329683,-0.0005326317623257637
1772810428902625800,1.936625732421875,-0.0003994738217443228,-0.00013315794058144093,0.0005326317623257637
1772810428912505600,1.946505615234375,-0.0009321055840700865,0.0009321055840700865,0
1772810428932265500,1.966265380859375,0.0011984214652329683,-0.0006657897029072046,0
1772810428942145300,1.976145263671875,0.00013315794058144093,-0.0006657897029072046,0.0010652635246515274
1772810428952025300,1.986025390625,-0.0025300008710473776,0.0003994738217443228,0
1772810428961905200,1.9959052734375,0.0006657897029072046,-0.001731053227558732,-0.0005326317623257637
1772810428971785000,2.005784912109375,0.0006657897029072046,0.0009321055840700865,0.0010652635246515274
1772810428981665000,2.0156650390625,-0.001997369108721614,0.0009321055840700865,0
1772810429001425000,2.0354248046875,-0.0009321055840700865,-0.00013315794058144093,0.0010652635246515274
1772810429011305200,2.04530517578125,0.0011984214652329683,-0.0011984214652329683,-0.0005326317623257637
1772810429021185300,2.055185302734375,-0.0009321055840700865,0.0003994738217443228,0.0010652635246515274
1772810429050825700,2.08482568359375,0.00013315794058144093,-0.00013315794058144093,0.0005326317623257637
1772810429060705800,2.094705810546875,-0.0014647373463958502,0.0009321055840700865,-0.0005326317623257637
1772810429070586000,2.104586181640625,-0.0003994738217443228,0.0003994738217443228,-0.0005326317623257637
1772810429080466200,2.114466064453125,0.0006657897029072046,-0.001731053227558732,0.0005326317623257637
1772810429090346200,2.12434619140625,-0.0014647373463958502,0.001997369108721614,0.0005326317623257637
1772810429100226600,2.1342265625,0.0006657897029072046,-0.0011984214652329683,0.0005326317623257637
1772810429110106600,2.144106689453125,0.00013315794058144093,-0.0006657897029072046,0.0005326317623257637
1772810429129867000,2.163866943359375,0.00013315794058144093,-0.0011984214652329683,-0.0010652635246515274
1772810429139747000,2.1737470703125,-0.0009321055840700865,0.0009321055840700865,-0.0005326317623257637
1772810429149627400,2.18362744140625,-0.0003994738217443228,-0.00013315794058144093,-0.0010652635246515274
1772810429159507500,2.193507568359375,0.00013315794058144093,0.0009321055840700865,0
1772810429169387500,2.203387451171875,0.0006657897029072046,-0.0006657897029072046,0.001597895286977291
1772810429179267800,2.213267822265625,-0.0003994738217443228,0.0003994738217443228,0.0005326317623257637
1772810429189148000,2.22314794921875,-0.0003994738217443228,0.001997369108721614,0
1772810429199028000,2.233028076171875,-0.0003994738217443228,0.0009321055840700865,0.0005326317623257637
1772810429208908300,2.242908203125,-0.0003994738217443228,0.0014647373463958502,-0.0010652635246515274
1772810429218788400,2.252788330078125,-0.0003994738217443228,-0.0006657897029072046,0
1772810429228668700,2.262668701171875,-0.0009321055840700865,0.0009321055840700865,-0.0005326317623257637
1772810429238548700,2.272548828125,0.0006657897029072046,-0.0006657897029072046,-0.0010652635246515274
1772810429248428800,2.2824287109375,0.0006657897029072046,0.0003994738217443228,-0.0005326317623257637
1772810429258309000,2.29230908203125,0.00013315794058144093,-0.0027963167522102594,0
1772810429268189200,2.302189208984375,0.0006657897029072046,-0.00013315794058144093,-0.0005326317623257637
1772810429278069200,2.3120693359375,0.001731053227558732,-0.0006657897029072046,0
1772810429287949600,2.321949462890625,-0.0009321055840700865,0.0003994738217443228,-0.0005326317623257637
1772810429297829600,2.33182958984375,0.00013315794058144093,-0.0011984214652329683,0.001597895286977291
1772810429307709700,2.341709716796875,0.00013315794058144093,-0.00013315794058144093,0
1772810429317590000,2.351590087890625,-0.0003994738217443228,0.0003994738217443228,0.001597895286977291
1772810429327470000,2.361469970703125,-0.0009321055840700865,0.001997369108721614,0
1772810429337350400,2.371350341796875,0.00013315794058144093,0.0009321055840700865,0.0010652635246515274
1772810429347230500,2.38123046875,-0.001997369108721614,-0.00013315794058144093,0
1772810429357110500,2.391110595703125,-0.001997369108721614,-0.0006657897029072046,0.0010652635246515274
1772810429366990800,2.400990966796875,-0.0003994738217443228,0.0003994738217443228,0.0005326317623257637
1772810429376871000,2.410870849609375,-0.0003994738217443228,0.0014647373463958502,0.0005326317623257637
1772810429386751000,2.4207509765625,0.0006657897029072046,-0.00013315794058144093,0.0005326317623257637
1772810429396631300,2.43063134765625,0.00013315794058144093,0.0003994738217443228,0
1772810429406511400,2.440511474609375,0.001731053227558732,-0.0011984214652329683,-0.0005326317623257637
1772810429426271700,2.460271728515625,-0.0003994738217443228,-0.0011984214652329683,0
1772810429436151800,2.47015185546875,0.00013315794058144093,0.0014647373463958502,0.0005326317623257637
1772810429446032100,2.4800322265625,-0.0014647373463958502,0.0009321055840700865,-0.0005326317623257637
1772810429455912200,2.489912109375,0.00013315794058144093,-0.0006657897029072046,0
1772810429465792300,2.499792236328125,0.0006657897029072046,-0.00013315794058144093,0.0010652635246515274
1772810429475672600,2.509672607421875,-0.0003994738217443228,-0.0011984214652329683,0
1772810429485552600,2.519552734375,0.00013315794058144093,0.0014647373463958502,0.0010652635246515274
1772810429495432700,2.5294326171875,0.0006657897029072046,-0.0006657897029072046,-0.0005326317623257637
1772810429505313800,2.539313720703125,0.0006657897029072046,-0.0011984214652329683,0
1772810429515194600,2.549194580078125,0.0006657897029072046,-0.001731053227558732,0.0005326317623257637
1772810429525075500,2.559075439453125,0.0006657897029072046,0.003595264395698905,0.0005326317623257637
1772810429534956300,2.568956298828125,0.00013315794058144093,-0.001731053227558732,0
1772810429544837400,2.57883740234375,0.0011984214652329683,0.0009321055840700865,0.0010652635246515274
1772810429554718200,2.58871826171875,-0.0009321055840700865,0.0003994738217443228,0
1772810429574480000,2.60847998046875,0.0011984214652329683,-0.00013315794058144093,0
1772810429584360700,2.618360595703125,0.001731053227558732,-0.0011984214652329683,-0.0005326317623257637
1772810429594241800,2.62824169921875,-0.0003994738217443228,-0.00013315794058144093,-0.0005326317623257637
1772810429614003500,2.64800341796875,-0.0009321055840700865,-0.001731053227558732,-0.0005326317623257637
1772810429623884300,2.65788427734375,0.00013315794058144093,-0.0006657897029072046,0
1772810429633765400,2.667765380859375,-0.0009321055840700865,0.0014647373463958502,0
1772810429653527000,2.687527099609375,0.00013315794058144093,0.0009321055840700865,0.0010652635246515274
1772810429663407900,2.697407958984375,0.0006657897029072046,-0.00013315794058144093,0
1772810429673288700,2.707288818359375,-0.001997369108721614,0.0025300008710473776,0.0005326317623257637
1772810429683169800,2.717169677734375,-0.0009321055840700865,0.0009321055840700865,-0.0005326317623257637
1772810429693050600,2.727050537109375,0.0006657897029072046,0.0025300008710473776,-0.0005326317623257637
1772810429702931500,2.736931396484375,-0.0003994738217443228,-0.0022636849898844957,0.001597895286977291
1772810429712812300,2.746812255859375,0.00013315794058144093,-0.0006657897029072046,-0.001597895286977291
1772810429722693400,2.756693359375,-0.0003994738217443228,-0.001731053227558732,-0.0005326317623257637
1772810429732574200,2.76657421875,-0.0014647373463958502,0.0009321055840700865,0.0010652635246515274
1772810429742455000,2.776455078125,-0.0014647373463958502,-0.00013315794058144093,-0.002130527049303055
1772810429752336000,2.7863359375,0.0022636849898844957,-0.00013315794058144093,0
1772810429772097800,2.806097900390625,0.0006657897029072046,-0.0006657897029072046,0.002130527049303055
1772810429781978600,2.815978515625,-0.0003994738217443228,0.0009321055840700865,-0.0005326317623257637
1772810429801740500,2.835740478515625,-0.0025300008710473776,-0.00013315794058144093,0
1772810429811621400,2.845621337890625,0.00013315794058144093,-0.0027963167522102594,-0.0005326317623257637
1772810429821502200,2.855502197265625,0.00013315794058144093,-0.00013315794058144093,0.0005326317623257637
1772810429831383000,2.865383056640625,0.0006657897029072046,-0.0006657897029072046,-0.0010652635246515274
1772810429851145000,2.88514501953125,-0.001997369108721614,0.0014647373463958502,0.0010652635246515274
1772810429861025800,2.89502587890625,-0.0003994738217443228,0.0003994738217443228,0.0010652635246515274
1772810429880787500,2.914787353515625,0.0006657897029072046,0.0014647373463958502,0.0005326317623257637
1772810429890668300,2.924668212890625,-0.0009321055840700865,-0.0011984214652329683,0.001597895286977291
1772810429900549400,2.93454931640625,0.00013315794058144093,0.0003994738217443228,0.0005326317623257637
1772810429910430200,2.94443017578125,-0.0003994738217443228,0.0003994738217443228,0
1772810429930192000,2.96419189453125,0.001731053227558732,-0.001731053227558732,-0.0005326317623257637
1772810429940073000,2.974072998046875,0.00013315794058144093,-0.00013315794058144093,-0.0005326317623257637
1772810429949953800,2.983953857421875,-0.0009321055840700865,0.0014647373463958502,0
1772810429969715500,3.003715576171875,0.0011984214652329683,0.0014647373463958502,-0.0005326317623257637
1772810429979596500,3.013596435546875,-0.0014647373463958502,-0.0022636849898844957,-0.0005326317623257637
1772810429989477400,3.023477294921875,0.0006657897029072046,0.0003994738217443228,0
1772810429999358000,3.03335791015625,-0.0009321055840700865,-0.00013315794058144093,0
1772810430009237800,3.04323779296875,0.00013315794058144093,0.0003994738217443228,0
1772810430019117800,3.053117919921875,0.001731053227558732,0.0003994738217443228,-0.001597895286977291
1772810430028997600,3.06299755859375,0.00013315794058144093,-0.00013315794058144093,-0.0005326317623257637
1772810430048757500,3.082757568359375,0.0022636849898844957,-0.00013315794058144093,0.0010652635246515274
1772810430058637300,3.09263720703125,-0.0009321055840700865,-0.001731053227558732,-0.0005326317623257637
1772810430068517400,3.102517333984375,0.00013315794058144093,0.0003994738217443228,-0.0010652635246515274
1772810430088277200,3.12227734375,-0.0003994738217443228,0.0025300008710473776,0
1772810430098157000,3.132156982421875,0.001731053227558732,-0.00013315794058144093,-0.0005326317623257637
1772810430108037000,3.142037109375,0.001731053227558732,-0.00013315794058144093,0.0010652635246515274
1772810430127796700,3.161796630859375,0.0006657897029072046,0.001997369108721614,0
1772810430137676800,3.1716767578125,0.00013315794058144093,0.0009321055840700865,0.0010652635246515274
1772810430147556600,3.181556640625,-0.0003994738217443228,0.0014647373463958502,0.0005326317623257637
1772810430167316500,3.20131640625,0.00013315794058144093,-0.00013315794058144093,0
1772810430177196300,3.2111962890625,-0.0009321055840700865,0.0009321055840700865,0
1772810430187076000,3.221076171875,-0.0003994738217443228,-0.00013315794058144093,-0.001597895286977291
1772810430196956200,3.2309560546875,0.0006657897029072046,-0.0027963167522102594,0.0005326317623257637
1772810430206836000,3.2408359375,0.00013315794058144093,-0.00013315794058144093,0.0005326317623257637
1772810430216716000,3.250716064453125,0.0011984214652329683,0.0009321055840700865,-0.001597895286977291
1772810430226595800,3.260595947265625,0.001731053227558732,-0.0011984214652329683,0.0005326317623257637
1772810430236476000,3.270475830078125,-0.0014647373463958502,0.0003994738217443228,0.0010652635246515274
1772810430246355700,3.280355712890625,-0.0003994738217443228,0.0009321055840700865,-0.0005326317623257637
1772810430256235500,3.290235595703125,0.00013315794058144093,0.0003994738217443228,-0.001597895286977291
1772810430266115600,3.300115478515625,-0.0009321055840700865,-0.0006657897029072046,-0.001597895286977291
1772810430275995400,3.309995361328125,-0.0009321055840700865,-0.00013315794058144093,-0.0005326317623257637
1772810430285875200,3.319875244140625,0.0006657897029072046,-0.0006657897029072046,0
1772810430295755300,3.32975537109375,0.00013315794058144093,-0.0011984214652329683,-0.0005326317623257637
1772810430305635000,3.339635009765625,0.0006657897029072046,-0.00013315794058144093,-0.001597895286977291
1772810430315515100,3.34951513671875,-0.0009321055840700865,-0.0011984214652329683,0
1772810430325395000,3.35939501953125,0.0006657897029072046,-0.0011984214652329683,0.0005326317623257637
1772810430335274800,3.369274658203125,0.0006657897029072046,0.0009321055840700865,0
1772810430345154800,3.37915478515625,0.001731053227558732,0.0003994738217443228,-0.0005326317623257637
1772810430355034600,3.38903466796875,0.0011984214652329683,0.0014647373463958502,-0.0010652635246515274
1772810430374794500,3.40879443359375,0.0006657897029072046,0.0009321055840700865,0
1772810430384674300,3.41867431640625,-0.0009321055840700865,0.0003994738217443228,0
1772810430394554400,3.428554443359375,0.00013315794058144093,-0.0011984214652329683,0
1772810430414314200,3.448314208984375,0.00013315794058144093,-0.0011984214652329683,0.0005326317623257637
1772810430424194000,3.458194091796875,0.00013315794058144093,-0.00013315794058144093,0
1772810430443954000,3.477953857421875,0.0006657897029072046,0.0014647373463958502,0.0005326317623257637
1772810430453833700,3.487833740234375,-0.0003994738217443228,0.0009321055840700865,0
1772810430463713500,3.497713623046875,0.0011984214652329683,0.0003994738217443228,-0.002130527049303055
1772810430473593600,3.507593505859375,0.0006657897029072046,-0.00013315794058144093,0
1772810430483473400,3.517473388671875,0.0006657897029072046,0.0003994738217443228,-0.0005326317623257637
1772810430493353500,3.527353515625,0.00013315794058144093,-0.001731053227558732,0
1772810430503233000,3.53723291015625,0.00013315794058144093,-0.0011984214652329683,0
1772810430513112600,3.547112548828125,-0.0003994738217443228,0.0009321055840700865,0.001597895286977291
1772810430532872000,3.566871826171875,0.001731053227558732,-0.0011984214652329683,-0.0010652635246515274
1772810430542751700,3.576751708984375,-0.0003994738217443228,0.0009321055840700865,0.0010652635246515274
1772810430552631300,3.58663134765625,0.0006657897029072046,-0.0011984214652329683,0
1772810430562510800,3.5965107421875,-0.0014647373463958502,0.0003994738217443228,0
1772810430572390700,3.606390625,-0.0003994738217443228,-0.001731053227558732,0
1772810430582270200,3.616270263671875,0.001731053227558732,0.0003994738217443228,-0.0010652635246515274
1772810430602029600,3.636029541015625,0.00013315794058144093,0.0003994738217443228,0.001597895286977291
1772810430611909000,3.6459091796875,0.001731053227558732,0.0009321055840700865,-0.0005326317623257637
1772810430621788700,3.65578857421875,0.00013315794058144093,0.0014647373463958502,-0.0005326317623257637
1772810430631668500,3.66566845703125,0.0006657897029072046,-0.00013315794058144093,-0.0005326317623257637
1772810430651427800,3.685427734375,0.00013315794058144093,-0.0011984214652329683,-0.0010652635246515274
1772810430661307400,3.695307373046875,0.0011984214652329683,0.0003994738217443228,0.0010652635246515274
1772810430681066800,3.715066650390625,-0.0014647373463958502,0.0014647373463958502,-0.0010652635246515274
1772810430690946300,3.7249462890625,-0.0014647373463958502,-0.0006657897029072046,-0.0010652635246515274
1772810430700825900,3.734825927734375,0.0006657897029072046,0.0003994738217443228,0.0010652635246515274
1772810430710705700,3.74470556640625,-0.0003994738217443228,-0.00013315794058144093,0.001597895286977291
1772810430730464800,3.76446484375,-0.0003994738217443228,-0.0006657897029072046,0.0005326317623257637
1772810430740344600,3.774344482421875,-0.0009321055840700865,0.0014647373463958502,0.0010652635246515274
1772810430760104000,3.79410400390625,0.0006657897029072046,-0.0006657897029072046,0.0010652635246515274
1772810430769983500,3.8039833984375,-0.0003994738217443228,0.0003994738217443228,0.0010652635246515274
1772810430779863000,3.813863037109375,-0.0003994738217443228,-0.0006657897029072046,0.0010652635246515274
1772810430789742800,3.823742919921875,-0.0003994738217443228,0.0009321055840700865,-0.0005326317623257637
1772810430809502000,3.843501953125,0.0011984214652329683,0.0009321055840700865,0.0005326317623257637
1772810430819381800,3.8533818359375,0.00013315794058144093,-0.00013315794058144093,-0.0005326317623257637
1772810430829261300,3.86326123046875,-0.0003994738217443228,-0.0006657897029072046,-0.0010652635246515274
1772810430839141000,3.87314111328125,0.0006657897029072046,-0.0006657897029072046,0.001597895286977291
1772810430849020700,3.883020751953125,-0.0003994738217443228,-0.00013315794058144093,0.0005326317623257637
1772810430858900200,3.892900146484375,-0.0003994738217443228,0.001997369108721614,0.0005326317623257637
1772810430868780000,3.902780029296875,-0.0003994738217443228,-0.0006657897029072046,0.0005326317623257637
1772810430878659600,3.91265966796875,0.0006657897029072046,-0.0006657897029072046,0.0005326317623257637
1772810430888539100,3.9225390625,-0.0009321055840700865,-0.0006657897029072046,0.001597895286977291
1772810430898419000,3.9324189453125,-0.0009321055840700865,0.0003994738217443228,-0.0005326317623257637
1772810430918178000,3.952177978515625,-0.0014647373463958502,-0.0006657897029072046,0.0010652635246515274
1772810430928057900,3.962057861328125,0.00013315794058144093,-0.00013315794058144093,-0.0005326317623257637
1772810430937937400,3.9719375,0.00013315794058144093,-0.0011984214652329683,0.0005326317623257637
1772810430947817200,3.981817138671875,0.0006657897029072046,-0.001731053227558732,0
1772810430967576300,4.001576416015625,0.00013315794058144093,0.0003994738217443228,0
1772810430977456000,4.0114560546875,0.00013315794058144093,-0.00013315794058144093,0.0010652635246515274
1772810430987335700,4.021335693359375,0.0006657897029072046,-0.0006657897029072046,0.0005326317623257637
1772810430997215500,4.031215576171875,-0.0003994738217443228,0.0003994738217443228,0.0005326317623257637
1772810431016976000,4.050975830078125,0.0011984214652329683,0.001997369108721614,0.0005326317623257637
1772810431026856000,4.06085595703125,0.00013315794058144093,0.0014647373463958502,0
1772810431036736300,4.070736328125,0.001731053227558732,-0.00013315794058144093,0.0010652635246515274
1772810431046616300,4.0806162109375,0.001731053227558732,-0.001731053227558732,0
1772810431056496600,4.09049658203125,0.00013315794058144093,-0.00013315794058144093,-0.0005326317623257637
1772810431076257000,4.110257080078125,-0.0003994738217443228,-0.0011984214652329683,0
1772810431086137000,4.12013720703125,0.0006657897029072046,-0.0011984214652329683,0.0010652635246515274
1772810431096017400,4.130017333984375,-0.0003994738217443228,0.0003994738217443228,-0.0005326317623257637
1772810431105897500,4.1398974609375,0.0006657897029072046,-0.00013315794058144093,-0.0010652635246515274
1772810431115777800,4.14977783203125,-0.0003994738217443228,0.0003994738217443228,0
1772810431135538200,4.1695380859375,-0.0009321055840700865,0.001997369108721614,0.0010652635246515274
1772810431145418200,4.179418212890625,-0.0003994738217443228,-0.0011984214652329683,0.0005326317623257637
1772810431165178600,4.1991787109375,0.0011984214652329683,0.0003994738217443228,0
1772810431175059000,4.209058837890625,0.0006657897029072046,-0.00013315794058144093,0.0010652635246515274
1772810431184939000,4.21893896484375,0.00013315794058144093,0.0009321055840700865,0.0005326317623257637
1772810431194819300,4.2288193359375,0.00013315794058144093,-0.001731053227558732,0.0005326317623257637
1772810431214579700,4.248579833984375,0.0006657897029072046,-0.0011984214652329683,0
1772810431224459800,4.258459716796875,-0.0014647373463958502,0.0003994738217443228,0.001597895286977291
1772810431234340000,4.268340087890625,0.00013315794058144093,-0.00013315794058144093,0.0010652635246515274
1772810431244220200,4.27822021484375,0.001731053227558732,0.0014647373463958502,0
1772810431254100500,4.2881005859375,0.00013315794058144093,0.0003994738217443228,0
1772810431263980500,4.29798046875,-0.0009321055840700865,0.0003994738217443228,0.0005326317623257637
1772810431273860900,4.30786083984375,-0.0003994738217443228,-0.00013315794058144093,0
1772810431283741000,4.317740966796875,0.0006657897029072046,-0.00013315794058144093,0
1772810431293621200,4.327621337890625,-0.0003994738217443228,-0.00013315794058144093,0
1772810431303501300,4.337501220703125,-0.0014647373463958502,-0.0022636849898844957,-0.0005326317623257637
1772810431313381600,4.347381591796875,0.00013315794058144093,0.0009321055840700865,0.0010652635246515274
1772810431323261700,4.35726171875,-0.0003994738217443228,-0.003328948514536023,0
1772810431333142000,4.36714208984375,-0.0009321055840700865,-0.0011984214652329683,-0.001597895286977291
1772810431343022000,4.37702197265625,-0.0014647373463958502,-0.0006657897029072046,-0.0005326317623257637
1772810431352902400,4.38690234375,-0.0009321055840700865,0.0014647373463958502,0
1772810431372662800,4.406662841796875,0.0011984214652329683,-0.00013315794058144093,0.0010652635246515274
1772810431382542800,4.41654296875,0.00013315794058144093,-0.0006657897029072046,0
1772810431392423000,4.4264228515625,-0.0003994738217443228,0.0009321055840700865,0
1772810431412183600,4.44618359375,-0.0003994738217443228,-0.0011984214652329683,0
1772810431422063600,4.456063720703125,-0.0003994738217443228,0.0009321055840700865,-0.0005326317623257637
1772810431431944000,4.46594384765625,-0.0003994738217443228,0.0003994738217443228,-0.0026631588116288185
1772810431441824000,4.475823974609375,0.00013315794058144093,-0.00013315794058144093,0.001597895286977291
1772810431451704300,4.485704345703125,0.0011984214652329683,0.0009321055840700865,0.0005326317623257637
1772810431461584400,4.49558447265625,-0.0003994738217443228,-0.0006657897029072046,-0.0005326317623257637
1772810431471464700,4.505464599609375,-0.0009321055840700865,-0.0011984214652329683,0.0010652635246515274
1772810431481344800,4.5153447265625,0.0011984214652329683,-0.0011984214652329683,0
1772810431491225000,4.52522509765625,0.0011984214652329683,0.0014647373463958502,0
1772810431501105000,4.53510498046875,-0.0009321055840700865,0.0009321055840700865,0
1772810431510985000,4.54498486328125,0.00013315794058144093,-0.0006657897029072046,0.0005326317623257637
1772810431520864800,4.55486474609375,0.00013315794058144093,-0.0011984214652329683,-0.0005326317623257637
1772810431530744800,4.564744873046875,-0.0009321055840700865,-0.0022636849898844957,0.0005326317623257637
1772810431540624600,4.574624755859375,0.0006657897029072046,-0.0006657897029072046,-0.0010652635246515274
1772810431550504400,4.58450439453125,0.00013315794058144093,-0.0011984214652329683,0.0010652635246515274
1772810431560384500,4.594384521484375,-0.0003994738217443228,-0.0006657897029072046,0.0005326317623257637
1772810431570264300,4.604264404296875,0.00013315794058144093,0.0003994738217443228,0.0005326317623257637
1772810431580144400,4.614144287109375,-0.0014647373463958502,0.0009321055840700865,0.0005326317623257637
1772810431590024200,4.624024169921875,0.0006657897029072046,-0.0011984214652329683,0.0005326317623257637
1772810431599904300,4.633904296875,0.0011984214652329683,0.0003994738217443228,0.0010652635246515274
1772810431609784000,4.6437841796875,-0.0009321055840700865,0.0003994738217443228,0.0010652635246515274
1772810431619664000,4.653663818359375,0.00013315794058144093,-0.0011984214652329683,0
1772810431629544000,4.6635439453125,-0.0014647373463958502,0.0009321055840700865,0
1772810431639423700,4.673423828125,0.00013315794058144093,-0.0006657897029072046,-0.0010652635246515274
1772810431649303800,4.6833037109375,0.0006657897029072046,-0.0011984214652329683,0.001597895286977291
1772810431659183600,4.69318359375,-0.0003994738217443228,0.001997369108721614,-0.0010652635246515274
1772810431669063700,4.703063720703125,-0.0003994738217443228,-0.00013315794058144093,0.0005326317623257637
1772810431688823300,4.7228232421875,0.0011984214652329683,-0.001731053227558732,-0.0010652635246515274
1772810431698703400,4.732703369140625,-0.0003994738217443228,-0.0006657897029072046,-0.0005326317623257637
1772810431708583200,4.742583251953125,0.0006657897029072046,-0.0011984214652329683,0.0005326317623257637
1772810431728343000,4.762343017578125,0.0006657897029072046,0.001997369108721614,-0.0010652635246515274
1772810431738223000,4.77222314453125,-0.0003994738217443228,-0.0027963167522102594,0.0005326317623257637
1772810431748103000,4.78210302734375,0.0006657897029072046,0.0003994738217443228,0.001597895286977291
1772810431757982700,4.791982666015625,-0.0003994738217443228,-0.00013315794058144093,0.0005326317623257637
1772810431777742600,4.81174267578125,0.001731053227558732,-0.00013315794058144093,0
1772810431787622400,4.821622314453125,0.0011984214652329683,-0.0006657897029072046,-0.0005326317623257637
1772810431797502500,4.83150244140625,-0.0009321055840700865,-0.00013315794058144093,0
1772810431807382300,4.84138232421875,-0.0009321055840700865,0.001997369108721614,0.0005326317623257637
1772810431817262300,4.851262451171875,0.0011984214652329683,0.0009321055840700865,0.0005326317623257637
1772810431827142100,4.86114208984375,-0.0014647373463958502,0.0003994738217443228,0.0010652635246515274
1772810431837022200,4.871022216796875,0.00013315794058144093,-0.0022636849898844957,0
1772810431846902000,4.880902099609375,0.001731053227558732,-0.00013315794058144093,-0.0010652635246515274
1772810431856781800,4.89078173828125,-0.0003994738217443228,-0.0006657897029072046,0.0005326317623257637
1772810431866662000,4.900661865234375,-0.0003994738217443228,0.0014647373463958502,-0.0005326317623257637
1772810431876541700,4.910541748046875,0.0006657897029072046,0.0014647373463958502,-0.0005326317623257637
1772810431886421800,4.920421875,0.0006657897029072046,0.0009321055840700865,0.0005326317623257637
1772810431896301600,4.930301513671875,0.00013315794058144093,-0.0006657897029072046,0.0010652635246515274
1772810431906181600,4.940181640625,-0.0003994738217443228,-0.00013315794058144093,-0.0005326317623257637
1772810431916061400,4.9500615234375,0.0006657897029072046,0.001997369108721614,0.001597895286977291
1772810431925941200,4.959941162109375,0.0006657897029072046,0.0003994738217443228,0.0005326317623257637
1772810431935821300,4.9698212890625,-0.0009321055840700865,-0.001731053227558732,0
1772810431945701000,4.979701171875,0.00013315794058144093,-0.0011984214652329683,0.0005326317623257637
1772810431965461000,4.9994609375,-0.0009321055840700865,-0.00013315794058144093,-0.0005326317623257637
1772810431975341000,5.009341064453125,-0.0003994738217443228,-0.001731053227558732,0.0005326317623257637
1772810431985220900,5.019220947265625,-0.0003994738217443228,-0.00013315794058144093,0
1772810431995100700,5.0291005859375,-0.0009321055840700865,-0.001731053227558732,0.0005326317623257637
1772810432014859800,5.04885986328125,0.00013315794058144093,0.0003994738217443228,-0.0005326317623257637
1772810432034619100,5.068619140625,-0.0003994738217443228,0.0003994738217443228,0
1772810432044498700,5.078498779296875,0.00013315794058144093,0.0009321055840700865,-0.001597895286977291
1772810432054378200,5.088378173828125,-0.0014647373463958502,0.0014647373463958502,0.0005326317623257637
1772810432074137300,5.108137451171875,0.00013315794058144093,0.0009321055840700865,0
1772810432093896400,5.127896484375,-0.0003994738217443228,-0.0006657897029072046,0.0010652635246515274
1772810432103776000,5.13777587890625,-0.0003994738217443228,-0.00013315794058144093,0
1772810432113655800,5.14765576171875,-0.0009321055840700865,0.0003994738217443228,0.0005326317623257637
1772810432123535400,5.157535400390625,0.0022636849898844957,-0.0006657897029072046,0.0010652635246515274
1772810432133415000,5.167414794921875,0.00013315794058144093,-0.00013315794058144093,-0.0005326317623257637
1772810432143294500,5.17729443359375,-0.0003994738217443228,-0.00013315794058144093,0.0005326317623257637
1772810432153174000,5.187174072265625,0.0006657897029072046,-0.001731053227558732,0.0010652635246515274
1772810432163053600,5.197053466796875,-0.0009321055840700865,-0.0006657897029072046,0.0010652635246515274
1772810432172933000,5.20693310546875,0.00013315794058144093,-0.0006657897029072046,0.001597895286977291
1772810432182812700,5.216812744140625,0.00013315794058144093,0.0009321055840700865,0
1772810432192692200,5.226692138671875,-0.0014647373463958502,-0.0006657897029072046,0.0010652635246515274
1772810432212451600,5.24645166015625,-0.0003994738217443228,-0.0010652635246515274,-0.0013315794058144093
1772810432222331100,5.2563310546875,-0.0009321055840700865,-0.0010652635246515274,0.00026631588116288185
1772810432232210700,5.266210693359375,0.00013315794058144093,-0.0005326317623257637,-0.0007989476434886456
1772810432242090200,5.27609033203125,0.0022636849898844957,0,-0.0007989476434886456
1772810432251969800,5.2859697265625,-0.0009321055840700865,-0.002130527049303055,-0.0007989476434886456
1772810432261849300,5.295849365234375,-0.0003994738217443228,0.0005326317623257637,0.00026631588116288185
1772810432271729000,5.30572900390625,0.0006657897029072046,0,-0.001864211168140173
1772810432281608400,5.3156083984375,0.0006657897029072046,-0.001597895286977291,0.00026631588116288185
1772810432291488300,5.32548828125,0.001731053227558732,0.0026631588116288185,0.0007989476434886456
1772810432301367800,5.335367919921875,0.0006657897029072046,-0.001597895286977291,0.00026631588116288185
1772810432311247400,5.345247314453125,-0.0003994738217443228,0.0005326317623257637,-0.001864211168140173
1772810432321127000,5.355126953125,0.0011984214652329683,0.0005326317623257637,-0.0007989476434886456
1772810432331006500,5.36500634765625,0.0006657897029072046,0.0005326317623257637,0.00026631588116288185
1772810432340886000,5.374885986328125,-0.0003994738217443228,-0.003195790573954582,-0.00026631588116288185
1772810432350765600,5.384765625,-0.0009321055840700865,0.0005326317623257637,-0.0007989476434886456
1772810432360645000,5.39464501953125,-0.0009321055840700865,0,-0.001864211168140173
1772810432370525000,5.40452490234375,-0.0003994738217443228,0.0005326317623257637,-0.0007989476434886456
1772810432380404500,5.414404541015625,0.00013315794058144093,0,0.0007989476434886456
1772810432390284000,5.424283935546875,0.0011984214652329683,0.001597895286977291,0.0013315794058144093
1772810432410043100,5.444043212890625,-0.0009321055840700865,0.0010652635246515274,0.00026631588116288185
1772810432419922700,5.453922607421875,-0.0003994738217443228,0,-0.00026631588116288185
1772810432439681800,5.473681884765625,0.0006657897029072046,-0.0005326317623257637,0.0007989476434886456
1772810432449561300,5.483561279296875,-0.0009321055840700865,0.0005326317623257637,-0.0007989476434886456
1772810432459441000,5.49344091796875,-0.0003994738217443228,-0.0005326317623257637,-0.0007989476434886456
1772810432469320700,5.50332080078125,0.00013315794058144093,-0.003195790573954582,0.00026631588116288185
1772810432479200300,5.5132001953125,0.0006657897029072046,0,-0.0007989476434886456
1772810432489079800,5.523079833984375,-0.0003994738217443228,0,0.00026631588116288185
1772810432498959600,5.532959716796875,-0.0014647373463958502,0,-0.00026631588116288185
1772810432508840200,5.542840087890625,0.00013315794058144093,-0.0010652635246515274,-0.00026631588116288185
1772810432528600800,5.562600830078125,-0.0009321055840700865,0.002130527049303055,0.00026631588116288185
1772810432538481400,5.5724814453125,-0.0003994738217443228,-0.0005326317623257637,0.0013315794058144093
1772810432548361700,5.58236181640625,-0.0009321055840700865,-0.0010652635246515274,0.00026631588116288185
1772810432558242300,5.5922421875,0.00013315794058144093,0.0005326317623257637,0.00026631588116288185
1772810432568122600,5.60212255859375,0.00013315794058144093,-0.0005326317623257637,0.00026631588116288185
1772810432578003200,5.612003173828125,-0.0003994738217443228,0,-0.0007989476434886456
1772810432587883500,5.621883544921875,-0.0003994738217443228,0.0005326317623257637,-0.00026631588116288185
1772810432607644400,5.64164453125,-0.0003994738217443228,0.0005326317623257637,-0.00026631588116288185
1772810432617524700,5.651524658203125,0.0006657897029072046,0.0005326317623257637,-0.0013315794058144093
1772810432627405300,5.6614052734375,0.0006657897029072046,-0.0005326317623257637,-0.00026631588116288185
1772810432637285600,5.67128564453125,0.0011984214652329683,-0.001597895286977291,-0.0013315794058144093
1772810432657046500,5.691046630859375,0.0006657897029072046,0,0.00026631588116288185
1772810432666927000,5.700927001953125,-0.0003994738217443228,0,-0.0007989476434886456
1772810432676807400,5.710807373046875,0.00013315794058144093,-0.0005326317623257637,-0.00026631588116288185
1772810432686688000,5.72068798828125,0.0011984214652329683,0,-0.0007989476434886456
1772810432696568300,5.730568359375,0.00013315794058144093,0.0005326317623257637,-0.001864211168140173
1772810432706448600,5.74044873046875,0.00013315794058144093,-0.0005326317623257637,-0.0013315794058144093
1772810432716329200,5.7503291015625,0.0006657897029072046,0,0.0007989476434886456
1772810432726209500,5.76020947265625,0.00013315794058144093,0.0005326317623257637,-0.00026631588116288185
1772810432736090000,5.770090087890625,0.001731053227558732,-0.0005326317623257637,0.0007989476434886456
1772810432745970400,5.779970458984375,-0.0003994738217443228,-0.002130527049303055,-0.0013315794058144093
1772810432755851000,5.78985107421875,0.0011984214652329683,0,-0.00026631588116288185
1772810432765731300,5.7997314453125,-0.0009321055840700865,-0.0010652635246515274,-0.0007989476434886456
1772810432775611600,5.809611572265625,-0.0003994738217443228,-0.0010652635246515274,0.00026631588116288185
1772810432785492200,5.8194921875,0.0006657897029072046,0.0005326317623257637,0.0007989476434886456
1772810432795372500,5.82937255859375,0.0006657897029072046,0.0026631588116288185,0.00026631588116288185
1772810432805253000,5.839253173828125,0.0006657897029072046,-0.0005326317623257637,-0.00026631588116288185
1772810432815133400,5.849133544921875,-0.0009321055840700865,0,0.0007989476434886456
1772810432825014000,5.859013916015625,-0.0003994738217443228,-0.0010652635246515274,-0.0013315794058144093
1772810432834894300,5.868894287109375,-0.0009321055840700865,0.0010652635246515274,-0.0007989476434886456
1772810432844775000,5.87877490234375,0.00013315794058144093,-0.001597895286977291,0.0007989476434886456
1772810432854655200,5.8886552734375,-0.0003994738217443228,0.0010652635246515274,-0.00026631588116288185
1772810432864535600,5.89853564453125,-0.0009321055840700865,0.002130527049303055,0.0007989476434886456
1772810432874416000,5.908416015625,-0.0009321055840700865,0,0.00026631588116288185
1772810432884296400,5.91829638671875,0.00013315794058144093,-0.0005326317623257637,0.0007989476434886456
1772810432894177000,5.928177001953125,-0.0003994738217443228,-0.003195790573954582,0.0013315794058144093
1772810432904057300,5.938057373046875,0.0006657897029072046,0.001597895286977291,-0.00026631588116288185
1772810432913938000,5.94793798828125,0.0011984214652329683,-0.0005326317623257637,-0.0007989476434886456
1772810432923818200,5.957818359375,-0.0003994738217443228,-0.002130527049303055,0.00026631588116288185
1772810432933698600,5.967698486328125,-0.0014647373463958502,0,-0.0007989476434886456
1772810432943579100,5.9775791015625,0.0006657897029072046,0,-0.00026631588116288185
1772810432953459500,5.98745947265625,0.00013315794058144093,0.002130527049303055,-0.00026631588116288185
1772810432963340000,5.997340087890625,-0.0009321055840700865,0.0010652635246515274,-0.0013315794058144093
1772810432973220400,6.007220458984375,0.00013315794058144093,0.0005326317623257637,-0.00026631588116288185
1772810432983101000,6.017100830078125,-0.0003994738217443228,-0.001597895286977291,-0.00026631588116288185
1772810432992981200,6.026981201171875,0.0006657897029072046,0.0005326317623257637,-0.00026631588116288185
1772810433002861000,6.036861083984375,-0.001997369108721614,0.001597895286977291,-0.00026631588116288185
1772810433012740900,6.046740966796875,0.0006657897029072046,-0.0010652635246515274,0.00026631588116288185
1772810433022620400,6.056620361328125,0.0006657897029072046,0,-0.00026631588116288185
1772810433032500200,6.066500244140625,0.0006657897029072046,-0.0005326317623257637,-0.00026631588116288185
1772810433042379800,6.0763798828125,0.00013315794058144093,0.0010652635246515274,-0.0007989476434886456
1772810433052259600,6.086259521484375,0.0006657897029072046,0.0005326317623257637,0.00026631588116288185
1772810433062139100,6.09613916015625,0.00013315794058144093,-0.0010652635246515274,-0.00026631588116288185
1772810433072019000,6.10601904296875,0.00013315794058144093,0,-0.00026631588116288185
1772810433091778300,6.1257783203125,-0.0009321055840700865,0.0010652635246515274,-0.0013315794058144093
1772810433101657900,6.135657958984375,-0.0009321055840700865,0,-0.0007989476434886456
1772810433121417500,6.15541748046875,-0.0003994738217443228,-0.001597895286977291,-0.00026631588116288185
1772810433131297000,6.165297119140625,0.0011984214652329683,-0.002130527049303055,0.0013315794058144093
1772810433141176800,6.1751767578125,-0.0014647373463958502,-0.001597895286977291,-0.0007989476434886456
1772810433151056400,6.185056396484375,-0.0003994738217443228,0.0005326317623257637,-0.001864211168140173
1772810433170815700,6.204815673828125,0.0006657897029072046,-0.0010652635246515274,-0.0007989476434886456
1772810433190575000,6.2245751953125,0.00013315794058144093,0.0005326317623257637,-0.00026631588116288185
1772810433200455000,6.234454833984375,0.0006657897029072046,0.001597895286977291,0.00026631588116288185
1772810433210334500,6.24433447265625,0.00013315794058144093,0.0010652635246515274,0.0013315794058144093
1772810433220214300,6.25421435546875,-0.0003994738217443228,0,-0.001864211168140173
1772810433230093800,6.26409375,-0.0003994738217443228,0,0.00026631588116288185
1772810433249853200,6.283853271484375,-0.0003994738217443228,-0.0010652635246515274,0.00026631588116288185
1772810433259733000,6.29373291015625,-0.0009321055840700865,-0.002130527049303055,-0.00026631588116288185
1772810433269612500,6.303612548828125,0.00013315794058144093,0.001597895286977291,0.00026631588116288185
1772810433279492400,6.313492431640625,-0.0003994738217443228,-0.0010652635246515274,-0.0007989476434886456
1772810433289372200,6.3233720703125,0.00013315794058144093,-0.001597895286977291,-0.0007989476434886456
1772810433299251700,6.333251708984375,-0.001997369108721614,-0.002130527049303055,-0.00026631588116288185
1772810433309131500,6.343131591796875,-0.001997369108721614,0,-0.00026631588116288185
1772810433319011000,6.353010986328125,0.00013315794058144093,0,0.0007989476434886456
1772810433328891000,6.362890869140625,-0.0003994738217443228,-0.0005326317623257637,-0.0007989476434886456
1772810433338770400,6.3727705078125,0.0011984214652329683,-0.0010652635246515274,-0.00026631588116288185
1772810433348650200,6.382650146484375,0.0006657897029072046,0.0005326317623257637,-0.0013315794058144093
1772810433358529800,6.39252978515625,0.00013315794058144093,0.0005326317623257637,-0.0007989476434886456
1772810433368409600,6.40240966796875,0.00013315794058144093,-0.0010652635246515274,-0.0007989476434886456
1772810433378289400,6.412289306640625,0.0006657897029072046,0.0005326317623257637,-0.0007989476434886456
1772810433388169000,6.4221689453125,0.001731053227558732,-0.0005326317623257637,-0.00026631588116288185
1772810433398048800,6.432048828125,0.00013315794058144093,0.0010652635246515274,-0.0013315794058144093
1772810433407928300,6.44192822265625,-0.0003994738217443228,-0.0005326317623257637,0.00026631588116288185
1772810433417808100,6.45180810546875,0.00013315794058144093,0.0005326317623257637,-0.0007989476434886456
1772810433427687700,6.461687744140625,-0.0003994738217443228,-0.0005326317623257637,-0.00026631588116288185
1772810433437567500,6.4715673828125,0.00013315794058144093,0.0005326317623257637,-0.0007989476434886456
1772810433447447000,6.481447021484375,-0.0003994738217443228,0.003195790573954582,-0.00026631588116288185
1772810433457326800,6.491326904296875,0.0011984214652329683,0.0005326317623257637,-0.0013315794058144093
1772810433467206400,6.501206298828125,0.0006657897029072046,0,-0.00026631588116288185
1772810433477086200,6.511086181640625,0.00013315794058144093,0.0005326317623257637,-0.0013315794058144093
1772810433486965800,6.5209658203125,0.00013315794058144093,0.0005326317623257637,0.0007989476434886456
1772810433496845600,6.530845458984375,-0.001997369108721614,-0.0010652635246515274,0.00026631588116288185
1772810433516606200,6.550606201171875,-0.0009321055840700865,0.0005326317623257637,0.0007989476434886456
1772810433526486500,6.560486572265625,-0.0009321055840700865,-0.0005326317623257637,0.001864211168140173
1772810433536367000,6.5703671875,-0.0003994738217443228,0.0005326317623257637,-0.0007989476434886456
1772810433546247400,6.580247314453125,0.0006657897029072046,-0.0010652635246515274,-0.0007989476434886456
1772810433566008000,6.600008056640625,0.0006657897029072046,0.0005326317623257637,0.00026631588116288185
1772810433575888400,6.609888427734375,-0.0003994738217443228,0,-0.0013315794058144093
1772810433585768700,6.619768798828125,-0.0009321055840700865,0,0.0007989476434886456
1772810433595649000,6.62964892578125,0.00013315794058144093,0.001597895286977291,-0.00026631588116288185
1772810433605529300,6.639529296875,-0.0003994738217443228,0.0010652635246515274,0.00026631588116288185
1772810433615409700,6.64940966796875,0.00013315794058144093,0.0005326317623257637,0.0007989476434886456
1772810433635170300,6.66917041015625,0.0011984214652329683,0.0010652635246515274,-0.00026631588116288185
1772810433645050600,6.679050537109375,0.0006657897029072046,0.0010652635246515274,-0.0007989476434886456
1772810433654931000,6.688930908203125,0.0006657897029072046,0,-0.0007989476434886456
1772810433674691600,6.708691650390625,-0.0009321055840700865,-0.002130527049303055,-0.00026631588116288185
1772810433694452200,6.7284521484375,-0.0009321055840700865,0.0010652635246515274,-0.00026631588116288185
1772810433704332500,6.73833251953125,0.00013315794058144093,0,0.00026631588116288185
1772810433714212900,6.748212890625,0.0006657897029072046,0,-0.00026631588116288185
1772810433733973800,6.767973876953125,0.0011984214652329683,-0.0005326317623257637,-0.0007989476434886456
1772810433743854000,6.77785400390625,-0.0009321055840700865,-0.0010652635246515274,0.00026631588116288185
1772810433753734400,6.787734375,0.0006657897029072046,-0.0005326317623257637,0.00026631588116288185
1772810433763614700,6.79761474609375,-0.0003994738217443228,-0.0010652635246515274,0.0007989476434886456
1772810433773495000,6.8074951171875,-0.0003994738217443228,0,-0.00026631588116288185
1772810433793255700,6.827255615234375,-0.0009321055840700865,0.0005326317623257637,-0.00026631588116288185
1772810433813016300,6.847016357421875,-0.0003994738217443228,0.002130527049303055,-0.0023968429304659367
1772810433822896600,6.856896728515625,0.0006657897029072046,0.001597895286977291,0.00026631588116288185
1772810433832777000,6.86677685546875,0.0011984214652329683,0.0010652635246515274,0.001864211168140173
1772810433842657300,6.8766572265625,0.0011984214652329683,-0.0005326317623257637,-0.0007989476434886456
1772810433852537600,6.88653759765625,0.0011984214652329683,0.0005326317623257637,0.0013315794058144093
1772810433862418000,6.89641796875,0.00013315794058144093,-0.0005326317623257637,-0.00026631588116288185
1772810433872298200,6.90629833984375,-0.0003994738217443228,-0.0010652635246515274,-0.0007989476434886456
1772810433892059100,6.92605908203125,0.00013315794058144093,-0.0010652635246515274,-0.001864211168140173
1772810433901939500,6.935939453125,-0.0014647373463958502,0,0.0013315794058144093
1772810433911819800,6.94581982421875,0.0006657897029072046,-0.0005326317623257637,0.00026631588116288185
1772810433931580400,6.965580322265625,-0.0014647373463958502,-0.0005326317623257637,-0.00026631588116288185
1772810433941460700,6.975460693359375,-0.0009321055840700865,0.0010652635246515274,0.00026631588116288185
1772810433951341000,6.985341064453125,0.0006657897029072046,0.0005326317623257637,0.00026631588116288185
1772810433971101700,7.005101806640625,-0.0003994738217443228,0,0.00026631588116288185
1772810433990862300,7.0248623046875,-0.0014647373463958502,0.0005326317623257637,-0.00026631588116288185
1772810434000742100,7.0347421875,0.00013315794058144093,-0.0005326317623257637,0
1772810434010621700,7.04462158203125,-0.001997369108721614,0.0010652635246515274,0.0005326317623257637
1772810434020501200,7.054501220703125,0.0006657897029072046,0.001597895286977291,0.0010652635246515274
1772810434030380800,7.064380859375,0.0006657897029072046,0.0010652635246515274,0.0005326317623257637
1772810434050139600,7.0841396484375,0.001731053227558732,0,0
1772810434060019200,7.094019287109375,0.0006657897029072046,-0.002130527049303055,0.0005326317623257637
1772810434069898800,7.103898681640625,-0.0003994738217443228,0,-0.0010652635246515274
1772810434079778300,7.1137783203125,-0.0009321055840700865,0,0.0010652635246515274
1772810434089657600,7.12365771484375,-0.0003994738217443228,-0.002130527049303055,0.0010652635246515274
1772810434099537200,7.133537109375,0.0006657897029072046,0.0005326317623257637,0.0005326317623257637
1772810434109416700,7.143416748046875,0.0006657897029072046,0.0005326317623257637,0.0005326317623257637
1772810434129175800,7.16317578125,-0.0009321055840700865,0.0010652635246515274,0.0010652635246515274
1772810434139055000,7.17305517578125,0.0006657897029072046,-0.001597895286977291,-0.001597895286977291
1772810434148934700,7.1829345703125,0.001731053227558732,0.0005326317623257637,0.0005326317623257637
1772810434168693800,7.20269384765625,-0.0009321055840700865,0.0010652635246515274,0.0005326317623257637
1772810434178573300,7.2125732421875,0.001731053227558732,0.001597895286977291,-0.0005326317623257637
1772810434188452600,7.22245263671875,-0.0009321055840700865,-0.0005326317623257637,-0.0010652635246515274
1772810434208211700,7.242211669921875,0.001731053227558732,0.001597895286977291,0.0005326317623257637
1772810434218091300,7.25209130859375,0.0006657897029072046,-0.0010652635246515274,-0.0010652635246515274
1772810434227970800,7.261970703125,-0.0003994738217443228,-0.001597895286977291,0
1772810434237850000,7.27185009765625,-0.0003994738217443228,0.0010652635246515274,0
1772810434247729700,7.281729736328125,-0.0003994738217443228,0.0005326317623257637,-0.001597895286977291
1772810434257609200,7.291609130859375,0.0011984214652329683,-0.0010652635246515274,0.0010652635246515274
1772810434267488800,7.30148876953125,-0.001997369108721614,-0.0005326317623257637,0.002130527049303055
1772810434277368000,7.3113681640625,0.00013315794058144093,0.0010652635246515274,0.0005326317623257637
1772810434287247600,7.32124755859375,0.0006657897029072046,-0.0010652635246515274,0
1772810434307006700,7.3410068359375,0.00013315794058144093,-0.0010652635246515274,-0.0005326317623257637
1772810434316886300,7.35088623046875,0.0006657897029072046,0.0005326317623257637,0
1772810434326765600,7.360765625,0.00013315794058144093,-0.0010652635246515274,0.0010652635246515274
1772810434336645000,7.37064501953125,0.0006657897029072046,0,0
1772810434346524700,7.380524658203125,-0.0014647373463958502,-0.002130527049303055,0
1772810434356404200,7.390404296875,0.00013315794058144093,-0.0010652635246515274,0
1772810434366283800,7.40028369140625,0.0006657897029072046,-0.001597895286977291,0.001597895286977291
1772810434376163000,7.4101630859375,-0.0003994738217443228,0.0010652635246515274,-0.0010652635246515274
1772810434386042600,7.420042724609375,0.00013315794058144093,0.0005326317623257637,0.0010652635246515274
1772810434395922200,7.429922119140625,0.00013315794058144093,0.0005326317623257637,-0.0010652635246515274
1772810434405801700,7.4398017578125,0.00013315794058144093,0.0010652635246515274,-0.001597895286977291
1772810434415681300,7.449681396484375,0.0006657897029072046,0,-0.0005326317623257637
1772810434425560600,7.459560546875,0.0006657897029072046,0.001597895286977291,-0.0005326317623257637
1772810434435440000,7.469440185546875,-0.0003994738217443228,-0.0010652635246515274,-0.001597895286977291
1772810434445319700,7.479319580078125,-0.0014647373463958502,0,0.0010652635246515274
1772810434455199200,7.48919921875,0.0011984214652329683,0.0010652635246515274,-0.0005326317623257637
1772810434465078800,7.499078857421875,0.0011984214652329683,-0.0005326317623257637,0
1772810434474958000,7.5089580078125,0.00013315794058144093,-0.0010652635246515274,-0.0010652635246515274
1772810434484837600,7.518837646484375,-0.0003994738217443228,-0.0005326317623257637,0
1772810434494717200,7.52871728515625,0.0011984214652329683,-0.0010652635246515274,0.0010652635246515274
1772810434504597200,7.53859716796875,-0.0009321055840700865,-0.0005326317623257637,0
1772810434514477000,7.54847705078125,0.00013315794058144093,-0.0010652635246515274,0
1772810434524357000,7.558357177734375,0.0006657897029072046,0.0005326317623257637,-0.0010652635246515274
1772810434534237200,7.5682373046875,-0.0003994738217443228,-0.0005326317623257637,0.0005326317623257637
1772810434544117200,7.5781171875,-0.0009321055840700865,0.001597895286977291,-0.0005326317623257637
1772810434553997000,7.5879970703125,0.0006657897029072046,0.0010652635246515274,0.0005326317623257637
1772810434573757200,7.607757080078125,0.0011984214652329683,0.0010652635246515274,-0.0010652635246515274
1772810434583637000,7.617636962890625,0.0006657897029072046,0,0.0005326317623257637
1772810434593517000,7.62751708984375,-0.0009321055840700865,0.0010652635246515274,0
1772810434613277200,7.647277099609375,0.0011984214652329683,0.002130527049303055,0.001597895286977291
1772810434633037000,7.667037109375,-0.0009321055840700865,0.002130527049303055,0.001597895286977291
1772810434642917000,7.676917236328125,-0.0009321055840700865,-0.0005326317623257637,0
1772810434652797000,7.686796875,0.0006657897029072046,-0.001597895286977291,-0.0010652635246515274
1772810434662677000,7.696677001953125,-0.0009321055840700865,-0.003728422336280346,-0.002130527049303055
1772810434672557000,7.70655712890625,0.0006657897029072046,-0.0010652635246515274,-0.001597895286977291
1772810434692317000,7.72631689453125,0.0011984214652329683,0.0010652635246515274,0.0010652635246515274
1772810434712077000,7.7460771484375,-0.0014647373463958502,-0.0005326317623257637,-0.0010652635246515274
1772810434721956900,7.755956787109375,0.00013315794058144093,0.0005326317623257637,-0.0010652635246515274
1772810434731837000,7.7658369140625,0.0006657897029072046,0,0.0005326317623257637
1772810434751597000,7.78559716796875,0.0006657897029072046,0.001597895286977291,0.0005326317623257637
1772810434771357000,7.80535693359375,0.0006657897029072046,-0.001597895286977291,-0.0005326317623257637
1772810434781237000,7.815237060546875,-0.0003994738217443228,-0.0010652635246515274,0
1772810434791117000,7.825116943359375,0.001731053227558732,0.0005326317623257637,0.0005326317623257637
1772810434810877000,7.844876953125,0.0006657897029072046,-0.0010652635246515274,0
1772810434820757000,7.854757080078125,0.00013315794058144093,0,0.0005326317623257637
1772810434830636800,7.86463671875,0.00013315794058144093,0,-0.0005326317623257637
1772810434850397000,7.88439697265625,0.001731053227558732,0,0.001597895286977291
1772810434860277000,7.894277099609375,-0.0009321055840700865,-0.001597895286977291,0.0010652635246515274
1772810434870156800,7.90415673828125,0.0011984214652329683,0.0005326317623257637,-0.0005326317623257637
1772810434880036900,7.914036865234375,0.0006657897029072046,-0.0005326317623257637,0.0005326317623257637
1772810434889917000,7.9239169921875,0.001731053227558732,-0.0005326317623257637,0
1772810434899796700,7.933796630859375,0.00013315794058144093,0.0005326317623257637,-0.002130527049303055
1772810434909676800,7.9436767578125,0.0006657897029072046,0,-0.001597895286977291
1772810434929437000,7.96343701171875,-0.0014647373463958502,0,0.0005326317623257637
1772810434939316700,7.973316650390625,-0.0003994738217443228,-0.0010652635246515274,0
1772810434959076900,7.993076904296875,-0.0003994738217443228,0.0010652635246515274,-0.001597895286977291
1772810434968956700,8.002956787109374,-0.0003994738217443228,0.002130527049303055,0.0005326317623257637
1772810434978836700,8.012836669921874,0.0006657897029072046,0.0010652635246515274,-0.001597895286977291
1772810434988716800,8.022716796875,-0.0003994738217443228,0.001597895286977291,0.0010652635246515274
1772810434998596900,8.032596923828125,-0.0003994738217443228,0.0010652635246515274,0
1772810435008477400,8.0424775390625,-0.0003994738217443228,-0.002130527049303055,0.0005326317623257637
1772810435018358000,8.05235791015625,0.00013315794058144093,0.0010652635246515274,0.0010652635246515274
1772810435028238300,8.06223828125,-0.0009321055840700865,0.009587371721863747,0.00426105409860611
1772810435038119000,8.072118896484374,0.0006657897029072046,0.002130527049303055,0.002130527049303055
1772810435047999500,8.08199951171875,0.0006657897029072046,0.0010652635246515274,0.0005326317623257637
1772810435057879800,8.0918798828125,0.00013315794058144093,0.002130527049303055,-0.0005326317623257637
1772810435067760400,8.101760498046875,-0.001997369108721614,0.0026631588116288185,0
1772810435077641000,8.111640869140626,0.0006657897029072046,0.0010652635246515274,0
1772810435087521500,8.121521484375,-0.0009321055840700865,-0.0010652635246515274,0
1772810435097401900,8.13140185546875,0.0006657897029072046,0.001597895286977291,0.0005326317623257637
1772810435117162800,8.151162841796875,-0.0009321055840700865,-0.0005326317623257637,0
1772810435127043300,8.161043212890625,0.001731053227558732,-0.0005326317623257637,0.0005326317623257637
1772810435136924000,8.170923828125,-0.0014647373463958502,-0.002130527049303055,-0.0010652635246515274
1772810435146804500,8.180804443359374,0.00013315794058144093,-0.002130527049303055,-0.0005326317623257637
1772810435156684800,8.190684814453125,0.0006657897029072046,0.001597895286977291,0.0005326317623257637
1772810435166565400,8.2005654296875,0.0006657897029072046,0.0005326317623257637,-0.0010652635246515274
1772810435176446000,8.210446044921875,0.0011984214652329683,0.001597895286977291,0
1772810435186326300,8.220326171875,-0.0003994738217443228,-0.001597895286977291,0.0005326317623257637
1772810435196206800,8.230206787109376,-0.0009321055840700865,-0.0010652635246515274,0.0005326317623257637
1772810435206087400,8.24008740234375,-0.0003994738217443228,0.0005326317623257637,0.0005326317623257637
1772810435215967700,8.2499677734375,0.00013315794058144093,-0.002130527049303055,0.0005326317623257637
1772810435225848300,8.259848388671875,0.0006657897029072046,0.0010652635246515274,0
1772810435235729000,8.26972900390625,0.0006657897029072046,0.001597895286977291,0.0005326317623257637
1772810435245609200,8.279609130859376,-0.0003994738217443228,0,0.0005326317623257637
1772810435255489800,8.28948974609375,0.0006657897029072046,0,0
1772810435265370400,8.299370361328124,0.00013315794058144093,0.0005326317623257637,0.0005326317623257637
1772810435275250700,8.309250732421875,-0.0003994738217443228,-0.0005326317623257637,0.0010652635246515274
1772810435285131300,8.31913134765625,0.00013315794058144093,0,0
1772810435295011800,8.32901171875,-0.001997369108721614,-0.0005326317623257637,0.001597895286977291
1772810435304892400,8.338892333984376,0.00013315794058144093,0.0010652635246515274,0
1772810435314772700,8.348772705078124,-0.0003994738217443228,-0.001597895286977291,0
1772810435324653300,8.3586533203125,-0.0009321055840700865,-0.001597895286977291,0
1772810435334534000,8.368533935546875,0.0006657897029072046,0,-0.0010652635246515274
1772810435344414200,8.378414306640625,0.00013315794058144093,0.0005326317623257637,-0.002130527049303055
1772810435354294800,8.388294677734375,-0.0003994738217443228,-0.0010652635246515274,0.0005326317623257637
1772810435364175400,8.39817529296875,-0.0009321055840700865,0.001597895286977291,-0.0005326317623257637
1772810435374055700,8.4080556640625,-0.0009321055840700865,0.0010652635246515274,0
1772810435383936300,8.417936279296875,-0.0003994738217443228,0,-0.0005326317623257637
1772810435393816800,8.42781689453125,0.001731053227558732,0.0005326317623257637,0
1772810435403697200,8.437697265625,-0.001997369108721614,0.001597895286977291,-0.0005326317623257637
1772810435413577700,8.44757763671875,-0.0003994738217443228,0.002130527049303055,-0.001597895286977291
1772810435423458300,8.457458251953126,-0.0014647373463958502,0.0010652635246515274,0
1772810435433339000,8.4673388671875,0.0011984214652329683,0.0010652635246515274,0
1772810435443219200,8.47721923828125,0.0011984214652329683,-0.0005326317623257637,0
1772810435453099800,8.487099853515625,0.0006657897029072046,0,0.0005326317623257637
1772810435462980000,8.49697998046875,0.00013315794058144093,0.0026631588116288185,0.0005326317623257637
1772810435472860700,8.506860595703126,-0.0003994738217443228,-0.002130527049303055,0.0010652635246515274
1772810435482741200,8.5167412109375,0.0006657897029072046,-0.0010652635246515274,0.0005326317623257637
1772810435492621800,8.526621826171874,0.001731053227558732,-0.001597895286977291,0.0010652635246515274
1772810435502502000,8.536501953125,-0.0003994738217443228,0,0.0005326317623257637
1772810435512382200,8.54638232421875,0.00013315794058144093,0,-0.0005326317623257637
1772810435522262300,8.55626220703125,0.00013315794058144093,-0.0026631588116288185,-0.0010652635246515274
1772810435532142300,8.566142333984375,0.0011984214652329683,0.0005326317623257637,-0.0010652635246515274
1772810435542022700,8.576022705078126,-0.0003994738217443228,0.0005326317623257637,0
1772810435551902700,8.58590283203125,0.0011984214652329683,0.0005326317623257637,0.0005326317623257637
1772810435571663000,8.6056630859375,0.00013315794058144093,0.001597895286977291,0.0005326317623257637
1772810435591423200,8.62542333984375,-0.0009321055840700865,-0.0010652635246515274,0.0005326317623257637
1772810435611183600,8.64518359375,-0.0014647373463958502,0,-0.001597895286977291
1772810435630944000,8.664944091796874,-0.0003994738217443228,-0.0005326317623257637,0.0005326317623257637
1772810435650704100,8.6847041015625,0.0006657897029072046,0.002130527049303055,-0.0005326317623257637
1772810435670464500,8.704464599609375,-0.0003994738217443228,0.0026631588116288185,0
1772810435680344600,8.714344482421875,0.0011984214652329683,0.0026631588116288185,0.0005326317623257637
1772810435690225000,8.724224853515626,-0.0009321055840700865,0.0010652635246515274,0
1772810435700105000,8.73410498046875,0.0011984214652329683,0,0.0005326317623257637
1772810435709985300,8.7439853515625,0.0006657897029072046,-0.0010652635246515274,-0.0005326317623257637
1772810435719865300,8.753865234375,-0.0009321055840700865,0.002130527049303055,0.0010652635246515274
1772810435729745400,8.763745361328125,0.00013315794058144093,0.0010652635246515274,-0.0005326317623257637
1772810435739625500,8.77362548828125,-0.0009321055840700865,0.0005326317623257637,-0.001597895286977291
1772810435759385900,8.7933857421875,0.0006657897029072046,0.0005326317623257637,-0.0005326317623257637
1772810435769266200,8.80326611328125,0.0006657897029072046,0.00026631588116288185,-0.0005326317623257637
1772810435779146200,8.813146240234374,0.00013315794058144093,-0.0007989476434886456,0
1772810435789026300,8.8230263671875,-0.001997369108721614,-0.001864211168140173,-0.0005326317623257637
1772810435808786700,8.84278662109375,0.00013315794058144093,-0.0007989476434886456,-0.0005326317623257637
1772810435818666800,8.852666748046875,-0.0003994738217443228,0.001864211168140173,-0.0010652635246515274
1772810435828547000,8.862547119140626,-0.0003994738217443228,-0.0013315794058144093,0.0010652635246515274
1772810435838427100,8.87242724609375,0.0006657897029072046,-0.001864211168140173,0.0005326317623257637
1772810435848307200,8.88230712890625,0.0006657897029072046,0.00026631588116288185,0
1772810435858187500,8.8921875,0.00013315794058144093,0.0013315794058144093,0.0005326317623257637
1772810435868067600,8.902067626953125,0.0006657897029072046,-0.0013315794058144093,0.0005326317623257637
1772810435877947600,8.91194775390625,-0.0003994738217443228,0.0023968429304659367,0
1772810435887828000,8.921827880859375,-0.0009321055840700865,-0.00026631588116288185,0.002130527049303055
1772810435897708000,8.9317080078125,0.00013315794058144093,0.001864211168140173,0.0005326317623257637
1772810435907588400,8.94158837890625,0.0006657897029072046,0.0023968429304659367,0.0005326317623257637
1772810435917468400,8.951468505859374,0.00013315794058144093,0.0007989476434886456,0.0005326317623257637
1772810435927348500,8.961348388671874,-0.0009321055840700865,0.00026631588116288185,-0.0005326317623257637
1772810435937228500,8.971228515625,-0.0003994738217443228,-0.00026631588116288185,0
1772810435947108900,8.98110888671875,0.0006657897029072046,0.00026631588116288185,0.0010652635246515274
1772810435966869200,9.000869140625,-0.0009321055840700865,-0.0007989476434886456,0
1772810435976749300,9.010749267578126,-0.0009321055840700865,0.0007989476434886456,0
1772810435996509400,9.030509521484374,-0.0009321055840700865,0.00026631588116288185,-0.001597895286977291
1772810436006389200,9.04038916015625,-0.0003994738217443228,0.0007989476434886456,0.0010652635246515274
1772810436026148600,9.060148681640625,-0.0003994738217443228,-0.0007989476434886456,-0.0005326317623257637
1772810436045908000,9.079907958984375,0.0006657897029072046,0.00026631588116288185,0.0005326317623257637
1772810436055787500,9.08978759765625,0.0006657897029072046,0.00026631588116288185,0
1772810436065667300,9.099667236328125,-0.0009321055840700865,0.0013315794058144093,-0.0005326317623257637
1772810436075547000,9.109546875,0.0006657897029072046,-0.00026631588116288185,0
1772810436085426700,9.1194267578125,0.00013315794058144093,0.001864211168140173,0.0005326317623257637
1772810436095306200,9.12930615234375,-0.0003994738217443228,0.0013315794058144093,0.0010652635246515274
1772810436105186000,9.13918603515625,0.0006657897029072046,0.0013315794058144093,0.0005326317623257637
1772810436115065600,9.149065673828124,0.001731053227558732,0.0013315794058144093,-0.0005326317623257637
1772810436134825000,9.168824951171874,0.0006657897029072046,0.001864211168140173,0
1772810436144704800,9.178704833984375,0.0006657897029072046,0.0007989476434886456,0.0010652635246515274
1772810436154584300,9.188584228515625,-0.0003994738217443228,0.0013315794058144093,-0.0005326317623257637
1772810436174344000,9.208343994140625,-0.0014647373463958502,0.00026631588116288185,-0.0010652635246515274
1772810436184223500,9.218223388671875,-0.0014647373463958502,-0.0007989476434886456,0.0010652635246515274
1772810436194103000,9.22810302734375,0.0006657897029072046,0.0023968429304659367,0.0005326317623257637
1772810436203982800,9.23798291015625,-0.0003994738217443228,-0.0007989476434886456,-0.0005326317623257637
1772810436213862400,9.2478623046875,0.0011984214652329683,0.0007989476434886456,0.0010652635246515274
1772810436233622000,9.2676220703125,0.001731053227558732,-0.0007989476434886456,0.0010652635246515274
1772810436253381400,9.28738134765625,-0.0003994738217443228,0.0007989476434886456,0
1772810436263261000,9.297260986328125,0.00013315794058144093,-0.00026631588116288185,-0.0005326317623257637
1772810436273140700,9.307140625,0.00013315794058144093,-0.0013315794058144093,-0.0005326317623257637
1772810436283020300,9.317020263671875,-0.0003994738217443228,-0.0007989476434886456,0.0026631588116288185
1772810436292899800,9.32689990234375,-0.0009321055840700865,0.00026631588116288185,-0.0010652635246515274
1772810436302779600,9.336779541015625,0.00013315794058144093,-0.00026631588116288185,0.0005326317623257637
1772810436312659500,9.346659423828125,-0.0009321055840700865,-0.00026631588116288185,0.001597895286977291
1772810436332418800,9.366418701171876,-0.0014647373463958502,-0.0029294746927917004,-0.0010652635246515274
1772810436342298400,9.37629833984375,-0.0003994738217443228,-0.00026631588116288185,-0.001597895286977291
1772810436362057700,9.3960576171875,0.00013315794058144093,0.00026631588116288185,0
1772810436371937500,9.4059375,-0.0003994738217443228,0.00026631588116288185,0.0005326317623257637
1772810436381817000,9.415817138671875,0.0006657897029072046,0.0007989476434886456,0.0010652635246515274
1772810436391697000,9.42569677734375,0.001731053227558732,-0.0023968429304659367,0.0010652635246515274
1772810436401576400,9.435576416015625,0.00013315794058144093,0.00026631588116288185,-0.001597895286977291
1772810436411456300,9.445456298828125,-0.0014647373463958502,-0.00026631588116288185,-0.0010652635246515274
1772810436421335800,9.455335693359375,-0.0009321055840700865,-0.001864211168140173,0
1772810436431215600,9.465215576171875,-0.0003994738217443228,-0.0013315794058144093,-0.001597895286977291
1772810436441095200,9.47509521484375,0.00013315794058144093,0.0007989476434886456,0.0010652635246515274
1772810436450975000,9.48497509765625,-0.0003994738217443228,-0.001864211168140173,0.0010652635246515274
1772810436460854500,9.4948544921875,0.00013315794058144093,0.00026631588116288185,0.0005326317623257637
1772810436470734300,9.504734375,0.0006657897029072046,-0.0007989476434886456,0.0005326317623257637
1772810436480614000,9.51461376953125,0.00013315794058144093,-0.0013315794058144093,0.0005326317623257637
1772810436490493700,9.52449365234375,-0.0003994738217443228,0.0007989476434886456,0.0005326317623257637
1772810436500373200,9.534373291015624,0.00013315794058144093,-0.0007989476434886456,0.0010652635246515274
1772810436510252500,9.54425244140625,0.00013315794058144093,-0.00026631588116288185,0.0005326317623257637
1772810436530011100,9.56401123046875,0.0006657897029072046,0.0007989476434886456,-0.001597895286977291
1772810436539890700,9.573890625,-0.0003994738217443228,-0.0007989476434886456,0.0010652635246515274
1772810436549770000,9.58377001953125,0.0006657897029072046,0.00026631588116288185,0.0005326317623257637
1772810436569528600,9.603528564453125,0.001731053227558732,0.0007989476434886456,0.0005326317623257637
1772810436579408100,9.613408203125,0.00013315794058144093,0.0013315794058144093,0.0005326317623257637
1772810436589287400,9.623287353515625,0.00013315794058144093,-0.0013315794058144093,0
1772810436599166700,9.633166748046875,0.0006657897029072046,0.0007989476434886456,0.0005326317623257637
1772810436609046300,9.64304638671875,-0.0003994738217443228,0.0007989476434886456,-0.0005326317623257637
1772810436618925600,9.652925537109375,-0.0003994738217443228,-0.0007989476434886456,0.0010652635246515274
1772810436628804900,9.662804931640625,-0.0009321055840700865,-0.0007989476434886456,-0.001597895286977291
1772810436638684200,9.67268408203125,-0.0003994738217443228,0.00026631588116288185,-0.0005326317623257637
1772810436648563700,9.682563720703126,0.00013315794058144093,0.00026631588116288185,0.0010652635246515274
1772810436658443000,9.692443115234376,0.00013315794058144093,-0.0007989476434886456,0.001597895286977291
1772810436668322300,9.702322265625,0.001731053227558732,-0.0007989476434886456,0
1772810436678201600,9.71220166015625,0.00013315794058144093,-0.0013315794058144093,0.0005326317623257637
1772810436688081200,9.7220810546875,-0.0009321055840700865,-0.001864211168140173,0.0005326317623257637
1772810436707839700,9.74183984375,0.00013315794058144093,-0.001864211168140173,0
1772810436727598600,9.7615986328125,0.001731053227558732,-0.0013315794058144093,-0.001597895286977291
1772810436737478000,9.771477783203125,-0.0014647373463958502,-0.001864211168140173,-0.0005326317623257637
1772810436747357200,9.781357177734375,0.0011984214652329683,0.0013315794058144093,0
1772810436757236700,9.79123681640625,-0.0009321055840700865,-0.0007989476434886456,-0.0010652635246515274
1772810436767116000,9.801115966796875,0.0006657897029072046,-0.00026631588116288185,-0.0005326317623257637
1772810436776995300,9.810995361328125,0.0006657897029072046,-0.0007989476434886456,0.002130527049303055
1772810436796754200,9.830754150390625,0.0011984214652329683,-0.00026631588116288185,-0.0005326317623257637
1772810436806633500,9.840633544921875,-0.0009321055840700865,-0.0029294746927917004,-0.0005326317623257637
1772810436816512800,9.8505126953125,0.00013315794058144093,-0.0007989476434886456,0
1772810436826392300,9.860392333984375,0.0006657897029072046,-0.0023968429304659367,-0.0005326317623257637
1772810436836271600,9.870271728515625,-0.0003994738217443228,0.0013315794058144093,0.0005326317623257637
1772810436846151000,9.88015087890625,-0.0003994738217443228,0.00026631588116288185,-0.0010652635246515274
1772810436856030200,9.8900302734375,0.00013315794058144093,-0.0023968429304659367,-0.0005326317623257637
1772810436865909800,9.89990966796875,0.00013315794058144093,0.00026631588116288185,0.0005326317623257637
1772810436885668400,9.91966845703125,0.00013315794058144093,0.00026631588116288185,-0.0010652635246515274
1772810436895547600,9.929547607421876,0.0006657897029072046,0.00026631588116288185,0.0010652635246515274
1772810436905427200,9.93942724609375,0.00013315794058144093,0.00026631588116288185,-0.0010652635246515274
1772810436915306500,9.949306396484374,0.0011984214652329683,-0.00026631588116288185,-0.0005326317623257637
1772810436925185800,9.959185791015624,-0.0009321055840700865,0.0013315794058144093,-0.0005326317623257637
1772810436935065300,9.9690654296875,0.00013315794058144093,0.001864211168140173,0
1772810436944944600,9.978944580078124,-0.0009321055840700865,-0.00026631588116288185,0
1772810436974582800,10.008582763671875,0.0006657897029072046,0.00026631588116288185,-0.0005326317623257637
1772810436984462000,10.018462158203125,0.0011984214652329683,-0.00026631588116288185,0.0005326317623257637
1772810437004221700,10.0382216796875,0.001731053227558732,-0.001864211168140173,0
1772810437014102000,10.04810205078125,0.0011984214652329683,-0.001864211168140173,0
1772810437023982300,10.057982421875,0.00013315794058144093,0.00026631588116288185,0
1772810437033862700,10.067862548828124,-0.0009321055840700865,0.0013315794058144093,0.001597895286977291
1772810437053623600,10.08762353515625,0.0011984214652329683,0.0007989476434886456,0.001597895286977291
1772810437063504000,10.09750390625,-0.0009321055840700865,-0.0013315794058144093,0
1772810437073384200,10.10738427734375,-0.0014647373463958502,-0.00026631588116288185,0
1772810437083264500,10.117264404296876,-0.0009321055840700865,-0.0013315794058144093,-0.0005326317623257637
1772810437093144800,10.127144775390626,-0.001997369108721614,-0.001864211168140173,0
1772810437103025200,10.137025146484374,0.0006657897029072046,0.0007989476434886456,-0.0005326317623257637
1772810437112905700,10.14690576171875,-0.0003994738217443228,-0.001864211168140173,0.0010652635246515274
1772810437122786000,10.1567861328125,-0.0009321055840700865,-0.0013315794058144093,0.0010652635246515274
1772810437132666400,10.166666259765625,0.0006657897029072046,0.0007989476434886456,-0.0010652635246515274
1772810437142546700,10.176546630859375,-0.0009321055840700865,0.0007989476434886456,0.0005326317623257637
1772810437152427000,10.186427001953126,0.0006657897029072046,0.001864211168140173,0.002130527049303055
1772810437172188000,10.20618798828125,0.0011984214652329683,-0.0007989476434886456,-0.0010652635246515274
1772810437182068200,10.216068115234375,0.0011984214652329683,0.001864211168140173,-0.001597895286977291
1772810437191948500,10.225948486328125,0.0011984214652329683,-0.0013315794058144093,0.0005326317623257637
1772810437201828900,10.235828857421875,-0.001997369108721614,-0.00026631588116288185,0.0010652635246515274
1772810437211709200,10.245709228515626,0.0006657897029072046,0.0007989476434886456,-0.0005326317623257637
1772810437221589800,10.25558984375,0.00013315794058144093,0.0007989476434886456,-0.0010652635246515274
1772810437231470000,10.265469970703125,-0.0009321055840700865,0.00026631588116288185,-0.0005326317623257637
1772810437251230700,10.285230712890625,0.0006657897029072046,0.0013315794058144093,0
1772810437270991400,10.304991455078126,0.00013315794058144093,0.00026631588116288185,0.0005326317623257637
1772810437290752300,10.324752197265624,0.0006657897029072046,0.001864211168140173,-0.0005326317623257637
1772810437300632600,10.334632568359375,0.00013315794058144093,-0.00026631588116288185,0.0010652635246515274
1772810437310513000,10.344512939453125,-0.0009321055840700865,0.00026631588116288185,-0.0010652635246515274
1772810437330273500,10.3642734375,-0.0009321055840700865,-0.00026631588116288185,-0.0010652635246515274
1772810437340154000,10.374154052734376,0.00013315794058144093,0.0023968429304659367,0.0005326317623257637
1772810437350034400,10.384034423828124,-0.0003994738217443228,0.00026631588116288185,0
1772810437369795000,10.403795166015625,-0.0003994738217443228,0.00026631588116288185,0.0010652635246515274
1772810437389556000,10.423555908203125,0.00013315794058144093,0.001864211168140173,0.0010652635246515274
1772810437409316600,10.443316650390624,0.0011984214652329683,-0.00026631588116288185,0.001597895286977291
1772810437419197000,10.453197021484375,0.00013315794058144093,0.0007989476434886456,0.001597895286977291
1772810437429077200,10.4630771484375,0.00013315794058144093,0.003462106455117464,-0.0005326317623257637
1772810437448838100,10.482838134765625,-0.0009321055840700865,-0.003462106455117464,0
1772810437458718500,10.492718505859376,-0.0003994738217443228,0.001864211168140173,-0.0005326317623257637
1772810437468598800,10.502598876953124,0.00013315794058144093,-0.0007989476434886456,0.002130527049303055
1772810437478479000,10.51247900390625,-0.0003994738217443228,0.00026631588116288185,0.0010652635246515274
1772810437488359400,10.522359375,-0.0003994738217443228,0.0023968429304659367,0
1772810437498239700,10.53223974609375,0.0006657897029072046,0.0013315794058144093,-0.0005326317623257637
1772810437508120000,10.5421201171875,0.00013315794058144093,-0.0013315794058144093,0.002130527049303055
1772810437518000000,10.552000244140626,-0.0003994738217443228,0.0029294746927917004,0
1772810437527880200,10.561880126953126,-0.0003994738217443228,-0.00026631588116288185,0.0005326317623257637
1772810437537760500,10.571760498046874,-0.0003994738217443228,0.00026631588116288185,0.0010652635246515274
1772810437547640600,10.581640625,-0.0003994738217443228,0.00013315794058144093,-0.0006657897029072046
1772810437557520600,10.591520751953125,-0.0003994738217443228,-0.0009321055840700865,0.0003994738217443228
1772810437567401000,10.60140087890625,0.00013315794058144093,0.001731053227558732,-0.001731053227558732
1772810437577281000,10.611281005859375,-0.0009321055840700865,-0.0003994738217443228,0.0009321055840700865
1772810437587161000,10.6211611328125,0.0006657897029072046,-0.0009321055840700865,-0.0006657897029072046
1772810437597041400,10.63104150390625,0.001731053227558732,-0.0014647373463958502,0.0003994738217443228
1772810437606921500,10.64092138671875,-0.0003994738217443228,0.001731053227558732,-0.001731053227558732
1772810437616801800,10.6508017578125,0.00013315794058144093,-0.0003994738217443228,0.0009321055840700865
1772810437626681900,10.660681884765625,-0.0003994738217443228,-0.0009321055840700865,-0.00013315794058144093
1772810437636562000,10.67056201171875,0.0006657897029072046,-0.0014647373463958502,-0.0006657897029072046
1772810437646442200,10.680442138671875,-0.0003994738217443228,-0.003595264395698905,-0.00013315794058144093
1772810437656322300,10.690322265625,0.00013315794058144093,-0.003595264395698905,-0.001731053227558732
