time,seconds_elapsed,z,y,x
1772810540230506200,0.18450634765625,-0.0030626326333731413,-0.00013315794058144093,0.00026631588116288185
1772810540240385800,0.1943857421875,-0.0009321055840700865,-0.0006657897029072046,-0.00026631588116288185
1772810540250265000,0.20426513671875,-0.0003994738217443228,0.0009321055840700865,-0.0007989476434886456
1772810540260144400,0.214144287109375,-0.0014647373463958502,-0.00013315794058144093,-0.0007989476434886456
1772810540270023700,0.224023681640625,0.00013315794058144093,-0.00013315794058144093,0.0007989476434886456
1772810540279903000,0.233903076171875,-0.0003994738217443228,-0.00013315794058144093,-0.001731053227558732
1772810540289782300,0.2437822265625,-0.001997369108721614,-0.00026631588116288185,0.0009321055840700865
1772810540299661600,0.25366162109375,-0.0009321055840700865,0.00026631588116288185,-0.001731053227558732
1772810540309541000,0.263541015625,0.001731053227558732,-0.0007989476434886456,0.0003994738217443228
1772810540319420400,0.27342041015625,-0.0003994738217443228,0.0013315794058144093,0.0009321055840700865
1772810540329299700,0.2832998046875,0.0011984214652329683,-0.0007989476434886456,0.0005326317623257637
1772810540339179000,0.293178955078125,0.00013315794058144093,-0.0007989476434886456,-0.0010652635246515274
1772810540349058300,0.303058349609375,0.0007989476434886456,-0.0007989476434886456,0
1772810540358937600,0.3129375,-0.001864211168140173,0.0007989476434886456,0
1772810540368817200,0.322817138671875,-0.0007989476434886456,0.0013315794058144093,0.0005326317623257637
1772810540378696400,0.332696533203125,0.00026631588116288185,0.0007989476434886456,-0.0014647373463958502
1772810540388575700,0.34257568359375,0.0007989476434886456,0.00026631588116288185,0.0006657897029072046
1772810540398455000,0.352455078125,0.00026631588116288185,0.0023968429304659367,0.00013315794058144093
1772810540408334300,0.362334228515625,0.0007989476434886456,0.00026631588116288185,0.0006657897029072046
1772810540418213600,0.372213623046875,-0.00026631588116288185,-0.0007989476434886456,0.00013315794058144093
1772810540428093000,0.382093017578125,0.00026631588116288185,0.0013315794058144093,0.00026631588116288185
1772810540437972200,0.39197216796875,-0.0003994738217443228,-0.00026631588116288185,0.0026631588116288185
1772810540447851800,0.401851806640625,-0.0003994738217443228,-0.0006657897029072046,-0.0013315794058144093
1772810540457731000,0.41173095703125,0.001731053227558732,-0.00013315794058144093,-0.0023968429304659367
1772810540467610400,0.4216103515625,-0.0003994738217443228,0.0003994738217443228,0.0013315794058144093
1772810540477489700,0.43148974609375,-0.0009321055840700865,-0.00013315794058144093,-0.0007989476434886456
1772810540487369000,0.441368896484375,0.0006657897029072046,0.0003994738217443228,0.0007989476434886456
1772810540497248500,0.45124853515625,-0.0009321055840700865,0.0009321055840700865,-0.0007989476434886456
1772810540507128800,0.46112890625,0.0011984214652329683,-0.0011984214652329683,0.00026631588116288185
1772810540517009200,0.471009033203125,-0.0003994738217443228,0.0014647373463958502,0.0007989476434886456
1772810540526889700,0.4808896484375,0.00013315794058144093,0.0009321055840700865,-0.0013315794058144093
1772810540536770000,0.49077001953125,0.00013315794058144093,-0.00013315794058144093,-0.00026631588116288185
1772810540546650400,0.500650390625,0.00013315794058144093,-0.001731053227558732,0.0007989476434886456
1772810540556530700,0.51053076171875,-0.0025300008710473776,0.001997369108721614,-0.00026631588116288185
1772810540566411300,0.520411376953125,-0.0003994738217443228,0.0009321055840700865,0.0007989476434886456
1772810540576291600,0.53029150390625,-0.0003994738217443228,0.0009321055840700865,-0.0007989476434886456
1772810540586172000,0.540171875,0.00013315794058144093,-0.0022636849898844957,0.0007989476434886456
1772810540596052200,0.55005224609375,-0.0003994738217443228,0.0003994738217443228,-0.00026631588116288185
1772810540605932500,0.5599326171875,0.0011984214652329683,0.0003994738217443228,-0.00026631588116288185
1772810540615812900,0.569812744140625,-0.001997369108721614,-0.0006657897029072046,0.00026631588116288185
1772810540625693400,0.579693359375,0.0006657897029072046,0.0009321055840700865,0.00026631588116288185
1772810540635573800,0.58957373046875,-0.0003994738217443228,0.0003994738217443228,0.0013315794058144093
1772810540645454000,0.5994541015625,-0.0003994738217443228,-0.00013315794058144093,-0.0007989476434886456
1772810540655334400,0.60933447265625,0.00013315794058144093,-0.00013315794058144093,-0.0007989476434886456
1772810540665215000,0.619215087890625,0.0011984214652329683,0.0014647373463958502,-0.0007989476434886456
1772810540675095300,0.62909521484375,-0.0003994738217443228,0.0003994738217443228,-0.00026631588116288185
1772810540684975600,0.6389755859375,-0.0009321055840700865,-0.0006657897029072046,-0.0013315794058144093
1772810540694856000,0.64885595703125,0.00013315794058144093,0.0014647373463958502,0.0007989476434886456
1772810540704736300,0.658736328125,0.00013315794058144093,0.0003994738217443228,0.00026631588116288185
1772810540714616600,0.668616455078125,-0.0009321055840700865,-0.0006657897029072046,0.00026631588116288185
1772810540724497200,0.6784970703125,-0.0009321055840700865,-0.001731053227558732,-0.00026631588116288185
1772810540734377500,0.68837744140625,-0.0003994738217443228,-0.001731053227558732,-0.001864211168140173
1772810540744257800,0.6982578125,-0.0014647373463958502,0.0009321055840700865,0.00026631588116288185
1772810540754138000,0.70813818359375,0.00013315794058144093,-0.0006657897029072046,-0.00026631588116288185
1772810540764018400,0.718018310546875,-0.00026631588116288185,-0.001864211168140173,0.0003994738217443228
1772810540773899000,0.72789892578125,-0.00026631588116288185,-0.00026631588116288185,-0.0011984214652329683
1772810540783779300,0.737779296875,-0.00026631588116288185,0.0013315794058144093,-0.00013315794058144093
1772810540793659600,0.74765966796875,0.0007989476434886456,-0.00026631588116288185,0.0003994738217443228
1772810540803540000,0.7575400390625,0.0007989476434886456,0.0007989476434886456,0.0003994738217443228
1772810540813420300,0.767420166015625,0.001864211168140173,-0.0013315794058144093,0.0009321055840700865
1772810540823300600,0.777300537109375,0.00026631588116288185,-0.001864211168140173,-0.0006657897029072046
1772810540833181200,0.78718115234375,-0.0007989476434886456,-0.0013315794058144093,-0.00013315794058144093
1772810540843061500,0.7970615234375,-0.0007989476434886456,0.0013315794058144093,-0.00013315794058144093
1772810540852941800,0.80694189453125,0.00026631588116288185,-0.0007989476434886456,0.0009321055840700865
1772810540862822100,0.816822265625,0.0007989476434886456,0.0007989476434886456,0.0003994738217443228
1772810540872702700,0.82670263671875,0.00026631588116288185,-0.0007989476434886456,-0.00013315794058144093
1772810540882583000,0.8365830078125,0.0013315794058144093,0.0013315794058144093,-0.00013315794058144093
1772810540892463400,0.84646337890625,-0.00026631588116288185,0.0007989476434886456,0.0003994738217443228
1772810540902343700,0.85634375,-0.00026631588116288185,0.0007989476434886456,-0.00013315794058144093
1772810540912224000,0.86622412109375,0.0007989476434886456,0.0007989476434886456,-0.0006657897029072046
1772810540922104300,0.876104248046875,-0.0007989476434886456,0.001864211168140173,-0.0006657897029072046
1772810540931985000,0.88598486328125,0.0007989476434886456,-0.00026631588116288185,-0.0006657897029072046
1772810540941865200,0.895865234375,-0.00026631588116288185,0.0013315794058144093,-0.0006657897029072046
1772810540951745500,0.90574560546875,-0.0007989476434886456,0.0007989476434886456,-0.00013315794058144093
1772810540961625900,0.9156259765625,-0.0007989476434886456,0.0007989476434886456,0.0003994738217443228
1772810540971506200,0.925506103515625,0.00026631588116288185,-0.001864211168140173,0.0003994738217443228
1772810540981386500,0.935386474609375,-0.00026631588116288185,0.0007989476434886456,-0.001731053227558732
1772810540991267000,0.94526708984375,0.00026631588116288185,-0.00026631588116288185,-0.0006657897029072046
1772810541001147400,0.9551474609375,-0.0013315794058144093,0.00026631588116288185,0.0003994738217443228
1772810541011027700,0.96502783203125,-0.00026631588116288185,-0.001864211168140173,0.0009321055840700865
1772810541020908300,0.974908203125,0.00026631588116288185,0.0007989476434886456,0.0003994738217443228
1772810541030788600,0.98478857421875,-0.00026631588116288185,-0.0013315794058144093,-0.00013315794058144093
1772810541040669200,0.994669189453125,0.0013315794058144093,0.0007989476434886456,-0.0006657897029072046
1772810541050549500,1.004549560546875,-0.00026631588116288185,0.0013315794058144093,-0.0006657897029072046
1772810541060430000,1.01443017578125,0.0013315794058144093,-0.001864211168140173,0.0009321055840700865
1772810541070310400,1.024310302734375,-0.0007989476434886456,0.00026631588116288185,-0.0006657897029072046
1772810541080191000,1.03419091796875,-0.00026631588116288185,-0.0007989476434886456,-0.0011984214652329683
1772810541090071300,1.0440712890625,-0.00026631588116288185,0.00026631588116288185,-0.0006657897029072046
1772810541099951900,1.053951904296875,-0.0013315794058144093,-0.0007989476434886456,-0.00013315794058144093
1772810541109832200,1.063832275390625,0.0013315794058144093,0.0013315794058144093,0.0003994738217443228
1772810541119712800,1.073712646484375,0.0013315794058144093,-0.0013315794058144093,-0.00013315794058144093
1772810541129593000,1.083593017578125,-0.0007989476434886456,0.001864211168140173,-0.0006657897029072046
1772810541139473700,1.0934736328125,0.00026631588116288185,0.00026631588116288185,0.0003994738217443228
1772810541149354000,1.10335400390625,-0.0013315794058144093,0.00026631588116288185,-0.0006657897029072046
1772810541159234600,1.113234619140625,0.00026631588116288185,0.001864211168140173,-0.0006657897029072046
1772810541169115000,1.123114990234375,0.0007989476434886456,0.001864211168140173,0.0003994738217443228
1772810541178995200,1.1329951171875,0.0007989476434886456,-0.0013315794058144093,0.0009321055840700865
1772810541188875800,1.142875732421875,0.0007989476434886456,-0.0023968429304659367,-0.0027963167522102594
1772810541198756000,1.152756103515625,0.00026631588116288185,-0.00026631588116288185,-0.00013315794058144093
1772810541208636700,1.16263671875,-0.0013315794058144093,0.00026631588116288185,0.0009321055840700865
1772810541218517000,1.17251708984375,0.00026631588116288185,-0.00026631588116288185,0.0003994738217443228
1772810541228397600,1.1823974609375,0.0013315794058144093,0.00026631588116288185,-0.001864211168140173
1772810541238278000,1.19227783203125,0.00026631588116288185,-0.0007989476434886456,0.0007989476434886456
1772810541248158500,1.202158447265625,-0.00026631588116288185,-0.0007989476434886456,-0.00013315794058144093
1772810541258038800,1.212038818359375,-0.00026631588116288185,0.00026631588116288185,-0.0006657897029072046
1772810541267919400,1.22191943359375,-0.0013315794058144093,-0.0013315794058144093,0.0003994738217443228
1772810541277799700,1.231799560546875,0.00026631588116288185,-0.0013315794058144093,0.0014647373463958502
1772810541287680000,1.241679931640625,0.00026631588116288185,0.00026631588116288185,0.0003994738217443228
1772810541297560600,1.251560546875,0.00026631588116288185,-0.0007989476434886456,-0.0006657897029072046
1772810541307441000,1.26144091796875,0.0023968429304659367,0.0007989476434886456,0.0003994738217443228
1772810541317321500,1.271321533203125,0.00026631588116288185,-0.0007989476434886456,-0.0006657897029072046
1772810541327201800,1.281201904296875,-0.0007989476434886456,-0.001864211168140173,0.0003994738217443228
1772810541337082400,1.291082275390625,0.00026631588116288185,-0.001864211168140173,-0.00013315794058144093
1772810541346962700,1.300962646484375,0.00026631588116288185,-0.001864211168140173,0.0003994738217443228
1772810541356843300,1.31084326171875,-0.0007989476434886456,-0.00026631588116288185,0.0003994738217443228
1772810541366723600,1.3207236328125,0.001864211168140173,0.00026631588116288185,0.0009321055840700865
1772810541376604200,1.330604248046875,0.00026631588116288185,0.0007989476434886456,-0.00013315794058144093
1772810541386484500,1.340484375,-0.00026631588116288185,0.00026631588116288185,0.0003994738217443228
1772810541396365000,1.350364990234375,-0.00026631588116288185,0.00026631588116288185,-0.00013315794058144093
1772810541406245400,1.360245361328125,-0.0007989476434886456,0.00026631588116288185,-0.00013315794058144093
1772810541416126000,1.3701259765625,0.0007989476434886456,0.0013315794058144093,0.0014647373463958502
1772810541426006300,1.38000634765625,0.00026631588116288185,0.00026631588116288185,-0.00013315794058144093
1772810541435886800,1.389886962890625,0.00026631588116288185,-0.0023968429304659367,-0.0011984214652329683
1772810541445767200,1.39976708984375,0.0007989476434886456,0.00026631588116288185,-0.0011984214652329683
1772810541455647500,1.4096474609375,0.0007989476434886456,-0.00026631588116288185,0.0003994738217443228
1772810541465528000,1.419528076171875,0.00026631588116288185,0.0007989476434886456,0.0009321055840700865
1772810541475408400,1.429408447265625,0.0023968429304659367,0.0007989476434886456,0.0003994738217443228
1772810541485289000,1.4392890625,0.0013315794058144093,0.0013315794058144093,-0.00013315794058144093
1772810541495169300,1.449169189453125,0.00026631588116288185,0.0007989476434886456,0.0003994738217443228
1772810541505049000,1.459049072265625,-0.00026631588116288185,-0.0013315794058144093,-0.0006657897029072046
1772810541514929000,1.468928955078125,0.001864211168140173,0.0013315794058144093,0.0009321055840700865
1772810541524808700,1.47880859375,0.00026631588116288185,-0.001864211168140173,0.0009321055840700865
1772810541534688500,1.4886884765625,-0.0007989476434886456,0.001864211168140173,-0.00013315794058144093
1772810541544568300,1.498568359375,0.00026631588116288185,-0.0029294746927917004,-0.0011984214652329683
1772810541554448100,1.5084482421875,0.001864211168140173,0.00026631588116288185,-0.00013315794058144093
1772810541564328200,1.518328125,0.0007989476434886456,0.0007989476434886456,-0.0006657897029072046
1772810541574207700,1.528207763671875,-0.0013315794058144093,0.0013315794058144093,-0.0006657897029072046
1772810541584087800,1.538087890625,-0.0007989476434886456,-0.0013315794058144093,0.0003994738217443228
1772810541593967600,1.547967529296875,0.00026631588116288185,-0.0007989476434886456,0.0003994738217443228
1772810541603847400,1.557847412109375,0.0007989476434886456,-0.00026631588116288185,-0.00013315794058144093
1772810541623607000,1.57760693359375,0.001864211168140173,0.001864211168140173,-0.0006657897029072046
1772810541633486800,1.58748681640625,0.0013315794058144093,-0.001864211168140173,-0.0011984214652329683
1772810541643366700,1.59736669921875,0.0007989476434886456,-0.0007989476434886456,-0.00013315794058144093
1772810541653246500,1.60724658203125,-0.0007989476434886456,-0.00026631588116288185,-0.0011984214652329683
1772810541663126300,1.617126220703125,-0.0013315794058144093,0.0013315794058144093,-0.00013315794058144093
1772810541673006000,1.627006103515625,-0.001864211168140173,-0.001864211168140173,0.0003994738217443228
1772810541682886000,1.636885986328125,0.00026631588116288185,-0.0007989476434886456,0.0009321055840700865
1772810541692765700,1.646765625,-0.00026631588116288185,0.0013315794058144093,-0.00013315794058144093
1772810541702645500,1.6566455078125,-0.00026631588116288185,0.00026631588116288185,0.0009321055840700865
1772810541712525300,1.666525390625,0.0013315794058144093,-0.0013315794058144093,-0.0011984214652329683
1772810541722405000,1.676405029296875,0.001864211168140173,0.00026631588116288185,0.0003994738217443228
1772810541732285200,1.68628515625,-0.00026631588116288185,-0.00026631588116288185,0.0003994738217443228
1772810541742164700,1.696164794921875,0.00026631588116288185,0.0029294746927917004,-0.001731053227558732
1772810541752044800,1.706044921875,0.0007989476434886456,-0.00026631588116288185,-0.00013315794058144093
1772810541761924600,1.715924560546875,0.0013315794058144093,-0.0007989476434886456,0.0003994738217443228
1772810541771804400,1.725804443359375,-0.00026631588116288185,0.0007989476434886456,-0.001731053227558732
1772810541781684200,1.735684326171875,-0.0007989476434886456,0.00026631588116288185,0.0003994738217443228
1772810541791564000,1.74556396484375,0.00026631588116288185,-0.0007989476434886456,-0.0006657897029072046
1772810541801443800,1.75544384765625,-0.0013315794058144093,-0.0013315794058144093,-0.0011984214652329683
1772810541811323600,1.76532373046875,-0.00026631588116288185,-0.00026631588116288185,-0.00013315794058144093
1772810541821203500,1.775203369140625,0.0013315794058144093,0.001864211168140173,-0.00013315794058144093
1772810541831083300,1.785083251953125,0.00026631588116288185,-0.001864211168140173,-0.00013315794058144093
1772810541840963000,1.794963134765625,-0.00026631588116288185,-0.001864211168140173,-0.00013315794058144093
1772810541850843000,1.8048427734375,-0.00026631588116288185,0.0007989476434886456,-0.00013315794058144093
1772810541860722700,1.81472265625,-0.00026631588116288185,-0.00026631588116288185,-0.00013315794058144093
1772810541870602500,1.8246025390625,-0.0013315794058144093,-0.0013315794058144093,-0.00013315794058144093
1772810541880482300,1.834482421875,-0.00026631588116288185,-0.00026631588116288185,0.0003994738217443228
1772810541890362000,1.844362060546875,-0.0007989476434886456,0.0007989476434886456,-0.0006657897029072046
1772810541900242000,1.854241943359375,0.0007989476434886456,0.0023968429304659367,-0.0006657897029072046
1772810541910122000,1.8641220703125,-0.0007989476434886456,0.0013315794058144093,-0.00013315794058144093
1772810541920001800,1.874001708984375,0.00026631588116288185,0.0007989476434886456,0.0003994738217443228
1772810541929881600,1.883881591796875,-0.00026631588116288185,-0.0007989476434886456,0.0003994738217443228
1772810541939761400,1.893761474609375,0.0023968429304659367,-0.001864211168140173,-0.0011984214652329683
1772810541949641200,1.90364111328125,0.00026631588116288185,0.00026631588116288185,-0.0006657897029072046
1772810541959521000,1.91352099609375,0.001864211168140173,0.0007989476434886456,-0.0006657897029072046
1772810541969400800,1.92340087890625,-0.00026631588116288185,-0.0013315794058144093,0.0003994738217443228
1772810541979280600,1.93328076171875,0.001864211168140173,0.00026631588116288185,-0.0006657897029072046
1772810541989160400,1.943160400390625,-0.00026631588116288185,0.00026631588116288185,-0.001731053227558732
1772810541999040300,1.953040283203125,0.00026631588116288185,-0.0007989476434886456,0.0025300008710473776
1772810542008920300,1.96292041015625,0.00026631588116288185,-0.0007989476434886456,-0.001731053227558732
1772810542028680400,1.982680419921875,-0.00026631588116288185,-0.0023968429304659367,0.004127896390855312
1772810542038560500,1.992560546875,-0.0023968429304659367,0.0013315794058144093,0.00026631588116288185
1772810542048440600,2.002440673828125,0.00026631588116288185,0.00026631588116288185,-0.0022636849898844957
1772810542058320600,2.012320556640625,0.0007989476434886456,-0.00026631588116288185,0.001997369108721614
1772810542068200400,2.022200439453125,-0.00026631588116288185,0.0013315794058144093,-0.0011984214652329683
1772810542078080500,2.03208056640625,0.0007989476434886456,0.0007989476434886456,-0.0022636849898844957
1772810542087960600,2.041960693359375,0.0007989476434886456,0.00026631588116288185,0.0009321055840700865
1772810542097840600,2.051840576171875,0.0013315794058144093,0.00026631588116288185,-0.00013315794058144093
1772810542107720700,2.061720703125,0.0007989476434886456,0.0013315794058144093,-0.0006657897029072046
1772810542117600800,2.071600830078125,0.0013315794058144093,0.00026631588116288185,0.0009321055840700865
1772810542127480800,2.081480712890625,-0.00026631588116288185,-0.0007989476434886456,-0.00013315794058144093
1772810542137361000,2.09136083984375,0.00026631588116288185,0.001864211168140173,0.0003994738217443228
1772810542147241000,2.101240966796875,0.0013315794058144093,-0.001864211168140173,-0.00013315794058144093
1772810542157120800,2.111120849609375,0.00026631588116288185,-0.0023968429304659367,0.0003994738217443228
1772810542167000800,2.121000732421875,0.00026631588116288185,-0.0007989476434886456,0.0009321055840700865
1772810542176881000,2.130880859375,-0.00026631588116288185,-0.00026631588116288185,-0.0011984214652329683
1772810542186761000,2.140760986328125,-0.00026631588116288185,-0.0007989476434886456,-0.0011984214652329683
1772810542196641000,2.15064111328125,0.0007989476434886456,0.0013315794058144093,-0.00013315794058144093
1772810542206521000,2.16052099609375,0.00026631588116288185,-0.00026631588116288185,0.0003994738217443228
1772810542216401200,2.170401123046875,-0.0007989476434886456,-0.0013315794058144093,-0.0006657897029072046
1772810542226281200,2.18028125,0.0007989476434886456,0.00026631588116288185,0.0009321055840700865
1772810542236161000,2.1901611328125,0.0007989476434886456,-0.00026631588116288185,0.0003994738217443228
1772810542246041000,2.200041015625,0.00026631588116288185,0.0013315794058144093,0.0014647373463958502
1772810542255921200,2.209921142578125,0.0013315794058144093,0.001864211168140173,-0.0006657897029072046
1772810542265801200,2.21980126953125,-0.0007989476434886456,0.00026631588116288185,0.0009321055840700865
1772810542275681300,2.229681396484375,-0.0013315794058144093,-0.00026631588116288185,-0.0006657897029072046
1772810542285561300,2.239561279296875,-0.0007989476434886456,0.00026631588116288185,-0.0006657897029072046
1772810542295441400,2.24944140625,-0.00026631588116288185,0.0029294746927917004,-0.0006657897029072046
1772810542305321500,2.259321533203125,-0.00026631588116288185,-0.00026631588116288185,-0.00013315794058144093
1772810542315201500,2.269201416015625,0.00026631588116288185,-0.0007989476434886456,0.0014647373463958502
1772810542325081300,2.279081298828125,-0.0013315794058144093,0.00026631588116288185,-0.00013315794058144093
1772810542334961400,2.28896142578125,0.0013315794058144093,-0.00026631588116288185,-0.00013315794058144093
1772810542344841500,2.298841552734375,-0.0007989476434886456,-0.00026631588116288185,-0.00013315794058144093
1772810542354721500,2.308721435546875,0.00026631588116288185,-0.0013315794058144093,-0.00013315794058144093
1772810542364601600,2.3186015625,-0.0013315794058144093,-0.00026631588116288185,0.0003994738217443228
1772810542374481700,2.328481689453125,0.00026631588116288185,-0.0013315794058144093,0.0003994738217443228
1772810542384361700,2.33836181640625,0.00026631588116288185,0.00026631588116288185,-0.0011984214652329683
1772810542394241800,2.34824169921875,-0.0007989476434886456,-0.0007989476434886456,-0.0006657897029072046
1772810542404121600,2.35812158203125,-0.00026631588116288185,0.00026631588116288185,-0.0006657897029072046
1772810542414001700,2.368001708984375,-0.0013315794058144093,-0.0013315794058144093,-0.00013315794058144093
1772810542423881700,2.3778818359375,0.00026631588116288185,0.00026631588116288185,-0.00013315794058144093
1772810542433761800,2.38776171875,0.0013315794058144093,0.00026631588116288185,0.0009321055840700865
1772810542443641900,2.397641845703125,0.0013315794058144093,-0.0007989476434886456,0.0003994738217443228
1772810542453522000,2.40752197265625,0.00026631588116288185,-0.00026631588116288185,0.0003994738217443228
1772810542463402000,2.417402099609375,0.0007989476434886456,-0.00026631588116288185,-0.0006657897029072046
1772810542473282000,2.427281982421875,0.0023968429304659367,-0.0023968429304659367,-0.0011984214652329683
1772810542483162000,2.437162109375,0.00026631588116288185,0.0007989476434886456,0.0009321055840700865
1772810542493042000,2.4470419921875,0.0007989476434886456,-0.0007989476434886456,-0.0006657897029072046
1772810542502922200,2.456922119140625,0.00026631588116288185,0.0013315794058144093,-0.00013315794058144093
1772810542512802300,2.46680224609375,0.00026631588116288185,-0.0023968429304659367,-0.0006657897029072046
1772810542522682600,2.4766826171875,-0.00026631588116288185,-0.00026631588116288185,0.0009321055840700865
1772810542532562700,2.486562744140625,-0.00026631588116288185,-0.00026631588116288185,0.0003994738217443228
1772810542542442800,2.49644287109375,-0.0003994738217443228,-0.0006657897029072046,-0.001597895286977291
1772810542552323000,2.506322998046875,0.001731053227558732,0.0009321055840700865,0
1772810542562203100,2.516203125,-0.0003994738217443228,0.001997369108721614,0
1772810542572083500,2.52608349609375,0.0006657897029072046,0.0009321055840700865,-0.0010652635246515274
1772810542581963500,2.535963623046875,0.0011984214652329683,-0.00013315794058144093,0
1772810542591843600,2.545843505859375,0.001731053227558732,0.0003994738217443228,-0.0010652635246515274
1772810542601724000,2.555723876953125,-0.0014647373463958502,-0.00013315794058144093,0.0010652635246515274
1772810542611604000,2.56560400390625,0.0011984214652329683,0.0014647373463958502,0.0005326317623257637
1772810542621484300,2.575484375,-0.0003994738217443228,-0.0011984214652329683,0.0010652635246515274
1772810542631364400,2.5853642578125,-0.0003994738217443228,0.0009321055840700865,0.0005326317623257637
1772810542641244400,2.595244384765625,0.00013315794058144093,-0.0011984214652329683,-0.0005326317623257637
1772810542651124700,2.605124755859375,0.0006657897029072046,-0.00013315794058144093,-0.0010652635246515274
1772810542661004800,2.6150048828125,0.0006657897029072046,-0.001731053227558732,0.002130527049303055
1772810542670885000,2.624885009765625,0.0006657897029072046,0.004127896390855312,0.002130527049303055
1772810542680765200,2.63476513671875,-0.0003994738217443228,0.0003994738217443228,0.0005326317623257637
1772810542690645500,2.6446455078125,0.0006657897029072046,0.0009321055840700865,0
1772810542700525600,2.654525634765625,-0.0009321055840700865,-0.0022636849898844957,-0.0005326317623257637
1772810542710406000,2.664406005859375,0.00013315794058144093,0.0003994738217443228,0
1772810542720286000,2.674285888671875,0.0011984214652329683,-0.00013315794058144093,-0.0005326317623257637
1772810542730166000,2.684166015625,-0.0003994738217443228,-0.0006657897029072046,0.0010652635246515274
1772810542740046300,2.69404638671875,0.0006657897029072046,-0.0006657897029072046,0
1772810542749926400,2.703926513671875,0.0006657897029072046,0.0014647373463958502,0.0005326317623257637
1772810542759806700,2.713806640625,-0.0003994738217443228,-0.001731053227558732,-0.0010652635246515274
1772810542769686800,2.723686767578125,-0.0003994738217443228,0.0003994738217443228,0.001597895286977291
1772810542779567000,2.733567138671875,0.00013315794058144093,0.0009321055840700865,0.001597895286977291
1772810542789447200,2.743447265625,-0.0009321055840700865,-0.00013315794058144093,-0.002130527049303055
1772810542799327200,2.7533271484375,-0.0014647373463958502,-0.0006657897029072046,0.0005326317623257637
1772810542809207600,2.76320751953125,0.0006657897029072046,0.0003994738217443228,0.0010652635246515274
1772810542819087600,2.773087646484375,0.00013315794058144093,0.001997369108721614,0.0010652635246515274
1772810542828968000,2.782968017578125,-0.0003994738217443228,0.0009321055840700865,0.001597895286977291
1772810542838848000,2.792847900390625,0.0006657897029072046,0.001997369108721614,-0.0005326317623257637
1772810542848728000,2.80272802734375,-0.0014647373463958502,0.0009321055840700865,0
1772810542858608400,2.8126083984375,0.00013315794058144093,-0.0006657897029072046,0.0005326317623257637
1772810542868488400,2.822488525390625,0.0006657897029072046,0.0003994738217443228,0
1772810542878368800,2.83236865234375,0.00013315794058144093,-0.0006657897029072046,0.0005326317623257637
1772810542888248800,2.842248779296875,0.0006657897029072046,-0.00013315794058144093,0
1772810542898129000,2.85212890625,0.0006657897029072046,-0.0011984214652329683,0.0010652635246515274
1772810542908009200,2.86200927734375,-0.0009321055840700865,-0.00013315794058144093,-0.0010652635246515274
1772810542917889300,2.87188916015625,0.00013315794058144093,-0.0006657897029072046,0
1772810542927769600,2.88176953125,0.00013315794058144093,-0.00013315794058144093,0
1772810542937649700,2.891649658203125,0.001731053227558732,-0.00013315794058144093,0
1772810542947530000,2.901530029296875,0.00013315794058144093,-0.001731053227558732,0
1772810542957410000,2.91141015625,0.0011984214652329683,0.0014647373463958502,-0.0005326317623257637
1772810542967290000,2.9212900390625,-0.0014647373463958502,-0.0011984214652329683,0.0005326317623257637
1772810542977170400,2.93117041015625,-0.0009321055840700865,-0.0006657897029072046,0
1772810542987050500,2.941050537109375,0.0011984214652329683,0.001997369108721614,0.001597895286977291
1772810542996930800,2.950930908203125,-0.0009321055840700865,-0.00013315794058144093,0
1772810543006810600,2.960810546875,0.0011984214652329683,0.0003994738217443228,-0.0005326317623257637
1772810543016690700,2.970690673828125,0.00013315794058144093,0.0003994738217443228,0.002130527049303055
1772810543026570800,2.98057080078125,0.00013315794058144093,0.0009321055840700865,0.0005326317623257637
1772810543046331000,3.000330810546875,-0.0003994738217443228,-0.0006657897029072046,0
1772810543056211000,3.0102109375,-0.0003994738217443228,-0.00013315794058144093,-0.0010652635246515274
1772810543066091000,3.020091064453125,-0.0003994738217443228,0.0003994738217443228,-0.0010652635246515274
1772810543075970800,3.029970703125,0.00013315794058144093,-0.00013315794058144093,0
1772810543085851000,3.039850830078125,-0.0003994738217443228,-0.00013315794058144093,-0.0010652635246515274
1772810543095731000,3.04973095703125,-0.0014647373463958502,0.0009321055840700865,0
1772810543105611000,3.059611083984375,-0.0009321055840700865,0.0014647373463958502,-0.0010652635246515274
1772810543115491000,3.069490966796875,-0.0014647373463958502,-0.0011984214652329683,-0.0010652635246515274
1772810543125371100,3.07937109375,-0.0003994738217443228,0.001997369108721614,0
1772810543135251000,3.0892509765625,-0.0003994738217443228,0.0014647373463958502,0.0005326317623257637
1772810543145131000,3.099131103515625,-0.0003994738217443228,-0.00013315794058144093,-0.0010652635246515274
1772810543155011000,3.109010986328125,-0.0009321055840700865,0.0003994738217443228,0
1772810543164891100,3.11889111328125,-0.0014647373463958502,0.0009321055840700865,-0.0005326317623257637
1772810543174771200,3.128771240234375,-0.0009321055840700865,-0.0006657897029072046,0.0010652635246515274
1772810543184651300,3.1386513671875,-0.001997369108721614,0.0003994738217443228,-0.0005326317623257637
1772810543194531300,3.14853125,-0.0003994738217443228,0.0014647373463958502,-0.001597895286977291
1772810543204411100,3.1584111328125,-0.0003994738217443228,0.0009321055840700865,0.0010652635246515274
1772810543214291200,3.168291259765625,-0.0003994738217443228,-0.00013315794058144093,0.0005326317623257637
1772810543224171300,3.178171142578125,0.00013315794058144093,0.0009321055840700865,0
1772810543234051300,3.18805126953125,0.0006657897029072046,0.0009321055840700865,0.0005326317623257637
1772810543243931400,3.197931396484375,0.0006657897029072046,0.0014647373463958502,-0.0005326317623257637
1772810543253811500,3.2078115234375,0.0011984214652329683,0.001997369108721614,0
1772810543263691300,3.217691162109375,-0.001997369108721614,-0.00013315794058144093,-0.0005326317623257637
1772810543273571300,3.2275712890625,-0.0003994738217443228,0.0003994738217443228,0.0005326317623257637
1772810543283451400,3.237451416015625,0.00013315794058144093,0.0014647373463958502,0
1772810543293331500,3.24733154296875,-0.0003994738217443228,0.0009321055840700865,0
1772810543303211500,3.25721142578125,0.0006657897029072046,0.0009321055840700865,0
1772810543313091600,3.267091552734375,0.001731053227558732,-0.00013315794058144093,-0.0005326317623257637
1772810543322971400,3.276971435546875,0.00013315794058144093,0.0009321055840700865,0.0010652635246515274
1772810543332851500,3.2868515625,-0.0003994738217443228,0.0009321055840700865,0.0005326317623257637
1772810543342731500,3.2967314453125,0.0011984214652329683,0.0003994738217443228,-0.0010652635246515274
1772810543352611600,3.306611572265625,-0.0003994738217443228,0.0025300008710473776,0.0010652635246515274
1772810543362491600,3.31649169921875,0.00013315794058144093,-0.0022636849898844957,0.001597895286977291
1772810543372371700,3.326371826171875,-0.0003994738217443228,-0.00013315794058144093,0
1772810543382251800,3.336251708984375,0.0006657897029072046,0.001997369108721614,-0.0005326317623257637
1772810543392131800,3.3461318359375,0.00013315794058144093,0.0025300008710473776,0.0005326317623257637
1772810543402011600,3.35601171875,-0.0003994738217443228,-0.0011984214652329683,0
1772810543411891700,3.3658916015625,0.0006657897029072046,0.0014647373463958502,0.003728422336280346
1772810543421771800,3.375771728515625,-0.0003994738217443228,-0.00013315794058144093,-0.0010652635246515274
1772810543431651800,3.38565185546875,0.001731053227558732,-0.0006657897029072046,0
1772810543441532000,3.395531982421875,-0.0014647373463958502,-0.0006657897029072046,-0.0010652635246515274
1772810543451411700,3.40541162109375,0.00013315794058144093,-0.00013315794058144093,0.0010652635246515274
1772810543461291800,3.415291748046875,0.00013315794058144093,0.0003994738217443228,0.002130527049303055
1772810543471171800,3.425171875,0.0006657897029072046,-0.0006657897029072046,-0.002130527049303055
1772810543481052000,3.435052001953125,0.0011984214652329683,-0.001731053227558732,0.0005326317623257637
1772810543490932000,3.444931884765625,0.00013315794058144093,-0.0011984214652329683,0.001597895286977291
1772810543500812000,3.45481201171875,0.0006657897029072046,0.0009321055840700865,0.0010652635246515274
1772810543510691800,3.46469189453125,0.0006657897029072046,0.0025300008710473776,0.0010652635246515274
1772810543520571600,3.474571533203125,-0.0003994738217443228,0.0003994738217443228,-0.0005326317623257637
1772810543530451700,3.48445166015625,0.0011984214652329683,-0.0006657897029072046,0.0010652635246515274
1772810543540331500,3.49433154296875,0.00013315794058144093,-0.00013315794058144093,0.0005326317623257637
1772810543550211600,3.504211669921875,-0.0009321055840700865,0.0003994738217443228,0.0005326317623257637
1772810543560091400,3.51409130859375,0.0011984214652329683,-0.001731053227558732,0
1772810543569971500,3.523971435546875,-0.0003994738217443228,-0.0011984214652329683,0.002130527049303055
1772810543579851300,3.533851318359375,0.001731053227558732,0.0014647373463958502,0
1772810543589731300,3.5437314453125,-0.0003994738217443228,0.0009321055840700865,0
1772810543599611100,3.553611083984375,0.00013315794058144093,-0.00013315794058144093,0
1772810543609491000,3.563490966796875,0.0011984214652329683,0.0014647373463958502,0.001597895286977291
1772810543619371000,3.57337109375,-0.0014647373463958502,0.0003994738217443228,-0.002130527049303055
1772810543629250800,3.583250732421875,0.0006657897029072046,0.0009321055840700865,0.0005326317623257637
1772810543639131000,3.593130859375,0.00013315794058144093,-0.00013315794058144093,-0.0005326317623257637
1772810543649010700,3.6030107421875,-0.0003994738217443228,0.0003994738217443228,-0.0010652635246515274
1772810543658890800,3.612890869140625,0.00013315794058144093,0.0014647373463958502,0.001597895286977291
1772810543668770600,3.6227705078125,0.00013315794058144093,0.0003994738217443228,0.0010652635246515274
1772810543678650400,3.632650390625,-0.0009321055840700865,-0.00013315794058144093,0.0005326317623257637
1772810543688530400,3.642530517578125,0.001731053227558732,0.0014647373463958502,0.0010652635246515274
1772810543698410200,3.65241015625,-0.0003994738217443228,0.0003994738217443228,0
1772810543708290300,3.662290283203125,-0.0009321055840700865,0.0009321055840700865,0.0005326317623257637
1772810543718170000,3.672170166015625,0.00013315794058144093,0.0003994738217443228,0.0005326317623257637
1772810543728050200,3.68205029296875,-0.0003994738217443228,-0.0006657897029072046,-0.0010652635246515274
1772810543737930000,3.691929931640625,0.001731053227558732,0.001997369108721614,-0.0005326317623257637
1772810543747809800,3.701809814453125,-0.0003994738217443228,-0.0011984214652329683,0
1772810543757689900,3.71168994140625,-0.0009321055840700865,-0.00013315794058144093,0.0010652635246515274
1772810543767569700,3.721569580078125,-0.0009321055840700865,-0.0006657897029072046,0.0009321055840700865
1772810543777449700,3.73144970703125,-0.0009321055840700865,-0.00013315794058144093,0.0025300008710473776
1772810543787329500,3.74132958984375,0.0011984214652329683,-0.00013315794058144093,0.0009321055840700865
1772810543797209600,3.751209716796875,-0.0003994738217443228,-0.00013315794058144093,0.0003994738217443228
1772810543807089400,3.76108935546875,0.0006657897029072046,0.003595264395698905,0.0003994738217443228
1772810543816969200,3.77096923828125,-0.0003994738217443228,-0.00013315794058144093,-0.00013315794058144093
1772810543826849300,3.780849365234375,0.0006657897029072046,-0.0006657897029072046,-0.00013315794058144093
1772810543836729000,3.79072900390625,-0.0003994738217443228,-0.00013315794058144093,-0.0006657897029072046
1772810543846609200,3.800609130859375,0.0006657897029072046,0.0014647373463958502,-0.0005326317623257637
1772810543856489000,3.810489013671875,0.0006657897029072046,-0.001731053227558732,0.003195790573954582
1772810543866369000,3.820369140625,-0.0025300008710473776,-0.0006657897029072046,0.0005326317623257637
1772810543876248800,3.830248779296875,0.0011984214652329683,0.0003994738217443228,-0.0005326317623257637
1772810543886128600,3.840128662109375,-0.0014647373463958502,-0.0006657897029072046,-0.0005326317623257637
1772810543896008700,3.8500087890625,0.0006657897029072046,-0.0011984214652329683,0.0005326317623257637
1772810543905888500,3.859888427734375,-0.0009321055840700865,-0.001731053227558732,0.0010652635246515274
1772810543915768600,3.8697685546875,0.0006657897029072046,-0.0006657897029072046,0
1772810543925648400,3.8796484375,-0.0009321055840700865,0.0003994738217443228,-0.001597895286977291
1772810543935528400,3.889528564453125,-0.0003994738217443228,-0.0006657897029072046,0
1772810543945408300,3.899408203125,-0.0003994738217443228,0.0014647373463958502,-0.0005326317623257637
1772810543955288000,3.9092880859375,0.0006657897029072046,0.0014647373463958502,0.0010652635246515274
1772810543965168000,3.919168212890625,0.0006657897029072046,-0.00013315794058144093,0.0005326317623257637
1772810543975048000,3.9290478515625,0.00013315794058144093,-0.0011984214652329683,0
1772810543984928000,3.938927978515625,0.0006657897029072046,0.0009321055840700865,0
1772810543994807800,3.948807861328125,-0.0014647373463958502,0.0003994738217443228,0.0010652635246515274
1772810544004687600,3.9586875,0.0011984214652329683,-0.00013315794058144093,0.0005326317623257637
1772810544014567700,3.968567626953125,0.0006657897029072046,-0.0011984214652329683,-0.00013315794058144093
1772810544024447500,3.978447509765625,0.0006657897029072046,-0.0027963167522102594,0.0014647373463958502
1772810544034327600,3.98832763671875,-0.0003994738217443228,0.0003994738217443228,0.0003994738217443228
1772810544044207400,3.998207275390625,0.001731053227558732,0.0003994738217443228,-0.001597895286977291
1772810544054087400,4.00808740234375,0.0006657897029072046,0.0003994738217443228,0.0026631588116288185
1772810544063967200,4.01796728515625,0.00013315794058144093,-0.0006657897029072046,-0.0005326317623257637
1772810544073847000,4.027846923828125,0.0006657897029072046,0.0003994738217443228,0
1772810544083727000,4.03772705078125,0.00013315794058144093,-0.0011984214652329683,0.0005326317623257637
1772810544093607000,4.04760693359375,-0.0009321055840700865,0.0003994738217443228,0.0005326317623257637
1772810544103486700,4.05748681640625,0.001731053227558732,-0.00013315794058144093,-0.0005326317623257637
1772810544113366800,4.06736669921875,0.0011984214652329683,0.0009321055840700865,-0.0005326317623257637
1772810544123246600,4.07724658203125,-0.0003994738217443228,0.001997369108721614,0
1772810544133126700,4.087126708984375,0.00013315794058144093,0.0009321055840700865,-0.0010652635246515274
1772810544143006500,4.09700634765625,0.0011984214652329683,-0.00013315794058144093,0.0010652635246515274
1772810544152886500,4.106886474609375,0.0006657897029072046,0.0014647373463958502,0
1772810544162766300,4.116766357421875,-0.0014647373463958502,0.0003994738217443228,0
1772810544172646100,4.126646240234375,0.0011984214652329683,-0.0022636849898844957,0
1772810544182526200,4.136526123046875,0.00013315794058144093,0.0003994738217443228,0.001597895286977291
1772810544192406000,4.146406005859375,-0.0003994738217443228,0.0014647373463958502,0.0005326317623257637
1772810544202286000,4.1562861328125,0.0006657897029072046,-0.00013315794058144093,0.0005326317623257637
1772810544212166000,4.166165771484375,0.001731053227558732,0.0003994738217443228,-0.0005326317623257637
1772810544222045700,4.176045654296875,-0.0009321055840700865,0.0014647373463958502,0.0005326317623257637
1772810544231925800,4.18592578125,0.0006657897029072046,-0.00013315794058144093,0.003195790573954582
1772810544241805600,4.1958056640625,-0.0009321055840700865,-0.00013315794058144093,-0.0005326317623257637
1772810544251685600,4.205685546875,0.0011984214652329683,0.0014647373463958502,-0.001597895286977291
1772810544261565400,4.2155654296875,0.0006657897029072046,-0.0006657897029072046,-0.0005326317623257637
1772810544271445200,4.2254453125,0.0006657897029072046,0.001997369108721614,0
1772810544281325300,4.2353251953125,0.0006657897029072046,-0.0006657897029072046,0.001597895286977291
1772810544291205000,4.245205078125,0.0006657897029072046,0.0009321055840700865,0
1772810544301085200,4.255085205078125,-0.0009321055840700865,0.0003994738217443228,0.0010652635246515274
1772810544310965000,4.264965087890625,0.0011984214652329683,-0.00013315794058144093,0.0005326317623257637
1772810544320845000,4.274844970703125,-0.0010652635246515274,0.0006657897029072046,0.00026631588116288185
1772810544330724900,4.284724853515625,0.0005326317623257637,0.0011984214652329683,-0.0007989476434886456
1772810544340604700,4.294604736328125,0.0005326317623257637,0.001731053227558732,-0.0007989476434886456
1772810544350484700,4.304484619140625,-0.0005326317623257637,-0.0009321055840700865,-0.0013315794058144093
1772810544360364500,4.314364501953125,-0.001597895286977291,0.00013315794058144093,0.00026631588116288185
1772810544370244600,4.32424462890625,-0.0005326317623257637,-0.0009321055840700865,0.00026631588116288185
1772810544380124400,4.33412451171875,-0.0010652635246515274,-0.0025300008710473776,0.00026631588116288185
1772810544390004200,4.344004150390625,0,-0.0009321055840700865,0.00026631588116288185
1772810544399884300,4.35388427734375,0.0005326317623257637,0.00013315794058144093,-0.0007989476434886456
1772810544409764000,4.36376416015625,0.0010652635246515274,-0.0009321055840700865,-0.0007989476434886456
1772810544419644200,4.37364404296875,0.001597895286977291,0.00013315794058144093,0.00026631588116288185
1772810544429524000,4.38352392578125,0.0005326317623257637,-0.0014647373463958502,-0.001864211168140173
1772810544439404000,4.393404052734375,0,-0.0014647373463958502,-0.00026631588116288185
1772810544449283800,4.403283935546875,0.0005326317623257637,-0.0009321055840700865,-0.001997369108721614
1772810544459163600,4.41316357421875,0.001597895286977291,-0.0009321055840700865,0.0011984214652329683
1772810544469043700,4.423043701171875,0.0005326317623257637,0.0011984214652329683,0.00013315794058144093
1772810544478923800,4.432923828125,0.0010652635246515274,-0.0009321055840700865,0.00026631588116288185
1772810544498684400,4.452684326171875,0.0010652635246515274,0.00013315794058144093,0.0013315794058144093
1772810544508564700,4.462564697265625,0,-0.001997369108721614,-0.00026631588116288185
1772810544518445000,4.472445068359375,-0.0005326317623257637,0.0006657897029072046,0.00026631588116288185
1772810544528325400,4.482325439453125,0.0005326317623257637,0.00013315794058144093,0.00026631588116288185
1772810544538205400,4.492205322265625,-0.0010652635246515274,0.0006657897029072046,-0.00026631588116288185
1772810544548085800,4.502085693359375,0.0005326317623257637,0.0006657897029072046,0.0013315794058144093
1772810544557966000,4.511966064453125,0.0010652635246515274,0.00013315794058144093,-0.0007989476434886456
1772810544567846400,4.521846435546875,-0.0005326317623257637,-0.0014647373463958502,0.0007989476434886456
1772810544577726700,4.531726806640625,-0.0010652635246515274,0.0006657897029072046,0.0007989476434886456
1772810544587607000,4.54160693359375,-0.001597895286977291,-0.0014647373463958502,0.0013315794058144093
1772810544597487400,4.5514873046875,0,-0.0014647373463958502,0.00026631588116288185
1772810544607367700,4.56136767578125,0.001597895286977291,-0.0003994738217443228,0.001864211168140173
1772810544617248000,4.571248046875,-0.0010652635246515274,0.00013315794058144093,-0.00026631588116288185
1772810544627128300,4.58112841796875,-0.0005326317623257637,-0.0025300008710473776,0.00026631588116288185
1772810544637008600,4.591008544921875,0,0.0006657897029072046,-0.0013315794058144093
1772810544646889000,4.600888916015625,0,0.001731053227558732,0.0013315794058144093
1772810544656769300,4.610769287109375,-0.0005326317623257637,0.001731053227558732,0.001864211168140173
1772810544666649600,4.620649658203125,-0.001597895286977291,-0.0003994738217443228,0.0013315794058144093
1772810544676530000,4.630530029296875,-0.002130527049303055,0.00013315794058144093,0.00026631588116288185
1772810544686410200,4.64041015625,0.0005326317623257637,-0.0014647373463958502,-0.00026631588116288185
1772810544696290600,4.65029052734375,0.002130527049303055,-0.0014647373463958502,0.00026631588116288185
1772810544706171000,4.6601708984375,0.0005326317623257637,0.00013315794058144093,0.0007989476434886456
1772810544716051200,4.67005126953125,0,-0.0003994738217443228,-0.001864211168140173
1772810544725931300,4.67993115234375,0.002130527049303055,-0.0014647373463958502,0.00026631588116288185
1772810544735811600,4.6898115234375,0.001597895286977291,0.00013315794058144093,-0.00026631588116288185
1772810544745692000,4.69969189453125,0,0.00013315794058144093,0.0007989476434886456
1772810544755572200,4.709572265625,-0.001597895286977291,0.00013315794058144093,-0.0013315794058144093
1772810544765452500,4.71945263671875,0.0005326317623257637,-0.0014647373463958502,0.0007989476434886456
1772810544775332900,4.729332763671875,0,0.0006657897029072046,0.0007989476434886456
1772810544785213200,4.739213134765625,0,-0.0009321055840700865,-0.00026631588116288185
1772810544795093500,4.749093505859375,-0.0005326317623257637,-0.0003994738217443228,-0.0029294746927917004
1772810544804973800,4.758973876953125,0.0005326317623257637,0.00013315794058144093,0.00026631588116288185
1772810544814854100,4.768854248046875,-0.0005326317623257637,0.0022636849898844957,-0.001864211168140173
1772810544824734500,4.778734375,-0.0010652635246515274,-0.0009321055840700865,-0.00026631588116288185
1772810544834614800,4.78861474609375,0,-0.0014647373463958502,0.00026631588116288185
1772810544844495000,4.7984951171875,0,0.0011984214652329683,-0.001864211168140173
1772810544854375400,4.80837548828125,0.0010652635246515274,0.00013315794058144093,0.00026631588116288185
1772810544864255700,4.818255859375,-0.0005326317623257637,-0.0003994738217443228,-0.0013315794058144093
1772810544874136000,4.828135986328125,0.0010652635246515274,0.0006657897029072046,0.00026631588116288185
1772810544884016400,4.838016357421875,0,-0.0003994738217443228,0.00026631588116288185
1772810544893896700,4.847896728515625,0.0005326317623257637,-0.0014647373463958502,0.00026631588116288185
1772810544903776800,4.85777685546875,-0.001597895286977291,-0.0003994738217443228,-0.00026631588116288185
1772810544913657000,4.867656982421875,-0.0010652635246515274,0.0006657897029072046,0.00026631588116288185
1772810544923537400,4.877537353515625,0.0010652635246515274,0.00013315794058144093,-0.0007989476434886456
1772810544933417700,4.887417724609375,-0.0005326317623257637,0.00013315794058144093,-0.00026631588116288185
1772810544943298000,4.897298095703125,-0.001597895286977291,-0.0009321055840700865,0.0007989476434886456
1772810544953178400,4.907178466796875,-0.001597895286977291,-0.0003994738217443228,-0.00026631588116288185
1772810544963058700,4.91705859375,-0.0005326317623257637,-0.0003994738217443228,0.00013315794058144093
1772810544972939000,4.92693896484375,-0.0005326317623257637,0.00013315794058144093,-0.0003994738217443228
1772810544982819300,4.9368193359375,0.0005326317623257637,0.0006657897029072046,-0.0003994738217443228
1772810544992699600,4.94669970703125,-0.0005326317623257637,-0.0003994738217443228,0.0011984214652329683
1772810545002580000,4.956580078125,-0.001597895286977291,0.0006657897029072046,-0.0009321055840700865
1772810545012460000,4.9664599609375,0.0005326317623257637,0.0006657897029072046,-0.0014647373463958502
1772810545022340000,4.976340087890625,-0.0005326317623257637,0.00013315794058144093,-0.0009321055840700865
1772810545032220400,4.986220458984375,-0.0005326317623257637,-0.0003994738217443228,0.00013315794058144093
1772810545042100500,4.9961005859375,-0.0005326317623257637,-0.0009321055840700865,0.00013315794058144093
1772810545051980800,5.005980712890625,0.0005326317623257637,0.0006657897029072046,-0.0003994738217443228
1772810545061860900,5.01586083984375,-0.0010652635246515274,0.00013315794058144093,-0.0003994738217443228
1772810545071741000,5.025740966796875,0.0005326317623257637,0.00013315794058144093,0.0006657897029072046
1772810545081621200,5.035621337890625,0.0005326317623257637,-0.0009321055840700865,-0.0003994738217443228
1772810545091501300,5.045501220703125,-0.0005326317623257637,-0.001997369108721614,-0.0013315794058144093
1772810545101381600,5.055381591796875,-0.0005326317623257637,0.00013315794058144093,-0.00026631588116288185
1772810545111261700,5.06526171875,0.001597895286977291,-0.0009321055840700865,-0.0013315794058144093
1772810545121142000,5.07514208984375,0,-0.0009321055840700865,0.0013315794058144093
1772810545131022000,5.08502197265625,-0.0005326317623257637,-0.001997369108721614,-0.00026631588116288185
1772810545140902100,5.094902099609375,0.0005326317623257637,-0.001997369108721614,-0.0007989476434886456
1772810545160662500,5.11466259765625,-0.0005326317623257637,-0.0003994738217443228,-0.0023968429304659367
1772810545170542800,5.12454296875,-0.001597895286977291,0.00013315794058144093,-0.0007989476434886456
1772810545180423000,5.1344228515625,-0.001597895286977291,-0.0003994738217443228,-0.00026631588116288185
1772810545190303200,5.14430322265625,-0.0005326317623257637,-0.0003994738217443228,0.00026631588116288185
1772810545200183300,5.154183349609375,-0.0005326317623257637,0.00013315794058144093,0.0007989476434886456
1772810545210063400,5.1640634765625,-0.0010652635246515274,-0.0003994738217443228,0.00026631588116288185
1772810545219943700,5.173943603515625,-0.0005326317623257637,0.0011984214652329683,0.00026631588116288185
1772810545229823700,5.18382373046875,-0.0005326317623257637,0.0011984214652329683,-0.00026631588116288185
1772810545239704000,5.1937041015625,0.001597895286977291,-0.0009321055840700865,0.00026631588116288185
1772810545259464400,5.21346435546875,0,-0.0009321055840700865,0.0007989476434886456
1772810545269344500,5.223344482421875,0.0005326317623257637,-0.0003994738217443228,0.00026631588116288185
1772810545279224600,5.233224609375,0,0.001731053227558732,-0.00026631588116288185
1772810545289105000,5.24310498046875,0.001597895286977291,0.00013315794058144093,-0.0003994738217443228
1772810545298985000,5.25298486328125,-0.0010652635246515274,0.001731053227558732,-0.0009321055840700865
1772810545308865300,5.262865234375,0.0005326317623257637,-0.0009321055840700865,0.00013315794058144093
1772810545318745300,5.272745361328125,-0.0005326317623257637,-0.0009321055840700865,-0.0003994738217443228
1772810545328625400,5.28262548828125,0.0005326317623257637,-0.0003994738217443228,0.0006657897029072046
1772810545338505700,5.292505615234375,-0.0010652635246515274,0.0006657897029072046,-0.0009321055840700865
1772810545348385800,5.3023857421875,-0.0010652635246515274,-0.0003994738217443228,0.0011984214652329683
1772810545358266000,5.31226611328125,0,0.0006657897029072046,0.0011984214652329683
1772810545368146200,5.322146240234375,0,-0.0009321055840700865,0.0022636849898844957
1772810545378026500,5.332026611328125,0.0005326317623257637,-0.0009321055840700865,0.00013315794058144093
1772810545387906600,5.341906494140625,0.0005326317623257637,0.0006657897029072046,0.0006657897029072046
1772810545397786600,5.35178662109375,0.0005326317623257637,-0.0003994738217443228,-0.0003994738217443228
1772810545407667000,5.3616669921875,0.0005326317623257637,0.0011984214652329683,-0.0003994738217443228
1772810545417547000,5.371547119140625,-0.0005326317623257637,0.0006657897029072046,-0.0009321055840700865
1772810545427427300,5.38142724609375,0,-0.0003994738217443228,-0.0003994738217443228
1772810545437307400,5.391307373046875,0.002130527049303055,0.00013315794058144093,-0.0009321055840700865
1772810545447187700,5.401187744140625,0.0010652635246515274,-0.0009321055840700865,-0.0003994738217443228
1772810545457067800,5.41106787109375,0.0005326317623257637,-0.0014647373463958502,-0.0009321055840700865
1772810545466947800,5.42094775390625,0.0005326317623257637,-0.0009321055840700865,0.0006657897029072046
1772810545476828200,5.430828125,-0.0005326317623257637,0.0006657897029072046,-0.0003994738217443228
1772810545486708200,5.440708251953125,-0.0010652635246515274,-0.0003994738217443228,-0.0003994738217443228
1772810545496588500,5.450588623046875,-0.0010652635246515274,-0.0003994738217443228,-0.0003994738217443228
1772810545506469400,5.460469482421875,0,-0.0009321055840700865,0.00013315794058144093
1772810545516350000,5.470349853515625,0,-0.001997369108721614,0.00013315794058144093
1772810545526230800,5.480230712890625,0.0005326317623257637,0.001731053227558732,0.00013315794058144093
1772810545536111600,5.490111572265625,0,0.0006657897029072046,-0.0003994738217443228
1772810545545992200,5.4999921875,-0.0005326317623257637,0.0022636849898844957,0.0006657897029072046
1772810545555873000,5.509873046875,0.0005326317623257637,0.0011984214652329683,-0.0007989476434886456
1772810545565753600,5.519753662109375,0,0.001731053227558732,-0.0007989476434886456
1772810545575634400,5.529634521484375,-0.0005326317623257637,0.0006657897029072046,0.00026631588116288185
1772810545585515300,5.539515380859375,0,0.00013315794058144093,-0.00026631588116288185
1772810545595395800,5.549395751953125,0.0005326317623257637,-0.0009321055840700865,-0.0013315794058144093
1772810545605276700,5.559276611328125,0.0005326317623257637,-0.001997369108721614,0.0007989476434886456
1772810545615157500,5.569157470703125,0.001597895286977291,0.00013315794058144093,-0.00026631588116288185
1772810545625038000,5.5790380859375,0.0005326317623257637,0.0006657897029072046,0.0023968429304659367
1772810545634919000,5.5889189453125,0.0005326317623257637,-0.001997369108721614,0.0023968429304659367
1772810545644799500,5.598799560546875,-0.0005326317623257637,-0.0003994738217443228,-0.0013315794058144093
1772810545654680300,5.608680419921875,-0.0005326317623257637,-0.0009321055840700865,0.0013315794058144093
1772810545664561200,5.61856103515625,0,-0.0009321055840700865,-0.0013315794058144093
1772810545674441700,5.628441650390625,0.0010652635246515274,-0.001997369108721614,0.0007989476434886456
1772810545684322600,5.638322509765625,0.0010652635246515274,-0.0003994738217443228,-0.0023968429304659367
1772810545694203400,5.648203369140625,-0.0005326317623257637,0.0006657897029072046,-0.00026631588116288185
1772810545713964800,5.66796484375,-0.0005326317623257637,-0.0014647373463958502,-0.001864211168140173
1772810545723845400,5.677845458984375,-0.001597895286977291,0.001731053227558732,-0.00026631588116288185
1772810545733726200,5.687726318359375,0,0.001731053227558732,-0.00026631588116288185
1772810545743607000,5.69760693359375,-0.002130527049303055,0.0006657897029072046,-0.00026631588116288185
1772810545753487600,5.707487548828125,0.0005326317623257637,0.001731053227558732,0.0007989476434886456
1772810545763368400,5.717368408203125,0.0005326317623257637,0.0011984214652329683,-0.00026631588116288185
1772810545773249300,5.727249267578125,-0.001597895286977291,-0.0009321055840700865,0.0007989476434886456
1772810545783129900,5.7371298828125,-0.0005326317623257637,0.0006657897029072046,-0.00026631588116288185
1772810545793010700,5.7470107421875,0.0010652635246515274,0.0011984214652329683,-0.001864211168140173
1772810545802891500,5.7568916015625,-0.0005326317623257637,-0.0014647373463958502,-0.00026631588116288185
1772810545812772000,5.766772216796875,-0.0010652635246515274,0.00013315794058144093,-0.0013315794058144093
1772810545822653000,5.77665283203125,0,0.0022636849898844957,0.00026631588116288185
1772810545832533500,5.786533447265625,0.0005326317623257637,-0.0009321055840700865,0.0013315794058144093
1772810545842414300,5.796414306640625,0.0005326317623257637,-0.0003994738217443228,0.0013315794058144093
1772810545852295200,5.806295166015625,0,0.0006657897029072046,0.0007989476434886456
1772810545862175700,5.81617578125,0.0005326317623257637,0.00013315794058144093,0.001864211168140173
1772810545872056600,5.826056640625,-0.0005326317623257637,0.0006657897029072046,-0.0007989476434886456
1772810545881937400,5.8359375,0.0005326317623257637,-0.0003994738217443228,0.00026631588116288185
1772810545891818000,5.84581787109375,-0.0005326317623257637,-0.0003994738217443228,-0.0003994738217443228
1772810545901698800,5.85569873046875,0,-0.0014647373463958502,0.00013315794058144093
1772810545911579400,5.865579345703125,-0.0005326317623257637,0.001731053227558732,-0.0003994738217443228
1772810545921460200,5.875460205078125,-0.0005326317623257637,-0.0003994738217443228,0.00013315794058144093
1772810545931341000,5.885341064453125,-0.0005326317623257637,-0.0009321055840700865,-0.0014647373463958502
1772810545941221600,5.8952216796875,0.0010652635246515274,-0.0003994738217443228,-0.0003994738217443228
1772810545951102500,5.9051025390625,-0.0010652635246515274,-0.0009321055840700865,-0.0009321055840700865
1772810545960983300,5.9149833984375,-0.0005326317623257637,0.0022636849898844957,0.0006657897029072046
1772810545970863900,5.92486376953125,-0.0005326317623257637,0.00013315794058144093,0.00013315794058144093
1772810545980744700,5.93474462890625,0.0010652635246515274,-0.0003994738217443228,0.00013315794058144093
1772810545990625500,5.94462548828125,0.0010652635246515274,-0.0009321055840700865,-0.0003994738217443228
1772810546000505900,5.954505859375,-0.0010652635246515274,-0.0030626326333731413,-0.0014647373463958502
1772810546010386400,5.964386474609375,0.0010652635246515274,0.0011984214652329683,-0.0009321055840700865
1772810546020266800,5.974266845703125,0.001597895286977291,-0.001997369108721614,0.0006657897029072046
1772810546030147000,5.98414697265625,0,0.0006657897029072046,0.0006657897029072046
1772810546040027400,5.99402734375,-0.0005326317623257637,-0.0003994738217443228,0.0006657897029072046
1772810546049907700,6.00390771484375,0,0.0006657897029072046,-0.0009321055840700865
1772810546059788300,6.013788330078125,0,-0.0014647373463958502,0.00013315794058144093
1772810546069668600,6.023668701171875,-0.0010652635246515274,-0.0009321055840700865,-0.0014647373463958502
1772810546079549000,6.033548828125,0,0.0011984214652329683,-0.0030626326333731413
1772810546089429500,6.043429443359375,-0.0005326317623257637,-0.001997369108721614,-0.00026631588116288185
1772810546099309800,6.053309814453125,0.0005326317623257637,-0.00026631588116288185,-0.00013315794058144093
1772810546109190100,6.063190185546875,-0.0005326317623257637,0.0013315794058144093,-0.00013315794058144093
1772810546119070500,6.073070556640625,0.0010652635246515274,-0.0007989476434886456,0.0003994738217443228
1772810546128950800,6.08295068359375,0.0005326317623257637,0.0007989476434886456,0.001997369108721614
1772810546138831400,6.092831298828125,-0.001597895286977291,0.0007989476434886456,-0.00013315794058144093
1772810546148711700,6.102711669921875,-0.001597895286977291,-0.0023968429304659367,0.0014647373463958502
1772810546158592000,6.112592041015625,-0.0010652635246515274,0.0007989476434886456,-0.00013315794058144093
1772810546168472300,6.122472412109375,-0.0005326317623257637,-0.00026631588116288185,-0.00013315794058144093
1772810546178353000,6.132352783203125,-0.0005326317623257637,0.00026631588116288185,0.0003994738217443228
1772810546188233200,6.142233154296875,0,-0.0013315794058144093,0.0003994738217443228
1772810546198113500,6.152113525390625,0.003195790573954582,-0.001864211168140173,-0.00013315794058144093
1772810546207993900,6.161993896484375,0.0005326317623257637,-0.0007989476434886456,-0.0006657897029072046
1772810546217874400,6.17187451171875,-0.0005326317623257637,-0.00026631588116288185,-0.00013315794058144093
1772810546227754800,6.181754638671875,0.001597895286977291,-0.003994738217443228,0.0003994738217443228
1772810546237635000,6.191635009765625,-0.002130527049303055,0.0023968429304659367,0.0014647373463958502
1772810546247515400,6.201515380859375,0.0010652635246515274,0.0029294746927917004,-0.0011984214652329683
1772810546257395700,6.211395751953125,0.0005326317623257637,-0.0013315794058144093,0.0009321055840700865
1772810546267276300,6.2212763671875,0.0005326317623257637,-0.00026631588116288185,0.0003994738217443228
1772810546277156600,6.231156494140625,-0.0005326317623257637,0.0013315794058144093,-0.0006657897029072046
1772810546287037000,6.241036865234375,0,-0.0013315794058144093,-0.00013315794058144093
1772810546296917500,6.25091748046875,0.0010652635246515274,-0.0007989476434886456,-0.00013315794058144093
1772810546306797800,6.2607978515625,0,-0.0007989476434886456,-0.001731053227558732
1772810546316678100,6.27067822265625,-0.0010652635246515274,0.00026631588116288185,-0.0006657897029072046
1772810546326558500,6.280558349609375,-0.0005326317623257637,-0.00026631588116288185,-0.0011984214652329683
1772810546336438800,6.290438720703125,-0.001597895286977291,-0.0007989476434886456,0.0009321055840700865
1772810546346319400,6.3003193359375,-0.0005326317623257637,-0.00026631588116288185,-0.0011984214652329683
1772810546356199700,6.31019970703125,0.0005326317623257637,0.0007989476434886456,-0.00013315794058144093
1772810546366080000,6.320080078125,0,-0.00026631588116288185,0.0014647373463958502
1772810546375960300,6.329960205078125,-0.0005326317623257637,0.0023968429304659367,-0.0006657897029072046
1772810546385841000,6.3398408203125,-0.0005326317623257637,0.00026631588116288185,-0.0006657897029072046
1772810546395721200,6.34972119140625,0,0.0007989476434886456,0.00026631588116288185
1772810546405601500,6.3596015625,-0.0005326317623257637,-0.0007989476434886456,0.00026631588116288185
1772810546415482000,6.369482177734375,-0.002130527049303055,-0.0007989476434886456,-0.0007989476434886456
1772810546425362400,6.379362548828125,0.0005326317623257637,-0.001864211168140173,0.00026631588116288185
1772810546435242800,6.38924267578125,-0.0005326317623257637,0.0007989476434886456,0.00026631588116288185
1772810546445123000,6.399123046875,0,-0.00026631588116288185,-0.00026631588116288185
1772810546455003400,6.40900341796875,-0.0005326317623257637,0.0007989476434886456,0.00026631588116288185
1772810546464884000,6.418884033203125,-0.0010652635246515274,0.0007989476434886456,0.00026631588116288185
1772810546474764300,6.428764404296875,0,-0.0007989476434886456,0.0007989476434886456
1772810546484644600,6.43864453125,0,-0.0013315794058144093,-0.00026631588116288185
1772810546494525000,6.44852490234375,-0.0010652635246515274,-0.0013315794058144093,0.0009321055840700865
1772810546504404700,6.45840478515625,-0.002130527049303055,0.0007989476434886456,0.0009321055840700865
1772810546514284300,6.4682841796875,-0.0005326317623257637,0.0007989476434886456,0.0003994738217443228
1772810546524163800,6.478163818359375,0.0005326317623257637,0.00026631588116288185,0.0003994738217443228
1772810546534043400,6.48804345703125,0.001597895286977291,-0.0007989476434886456,0.0003994738217443228
1772810546543923000,6.4979228515625,0,0.0007989476434886456,-0.00013315794058144093
1772810546553802500,6.507802490234375,-0.0010652635246515274,0.0007989476434886456,-0.001731053227558732
1772810546563682000,6.51768212890625,-0.0010652635246515274,0.00026631588116288185,-0.0011984214652329683
1772810546573561600,6.5275615234375,0.001597895286977291,0.0007989476434886456,0.0014647373463958502
1772810546583441200,6.537441162109375,-0.0005326317623257637,-0.00026631588116288185,0.0009321055840700865
1772810546593320700,6.54732080078125,-0.0010652635246515274,0.001864211168140173,0.0003994738217443228
1772810546603200300,6.5572001953125,0,0.0013315794058144093,0.001997369108721614
1772810546613079800,6.567079833984375,0.002130527049303055,0.00026631588116288185,0.0014647373463958502
1772810546622959400,6.57695947265625,-0.0005326317623257637,0.0023968429304659367,0.0025300008710473776
1772810546632839200,6.586839111328125,-0.0005326317623257637,0.0013315794058144093,0.0003994738217443228
1772810546642718700,6.59671875,-0.0005326317623257637,0.0007989476434886456,0.0003994738217443228
1772810546652598300,6.606598388671875,0,-0.0007989476434886456,-0.001731053227558732
1772810546662477800,6.616477783203125,-0.0010652635246515274,-0.0007989476434886456,0.0009321055840700865
1772810546672357400,6.626357421875,0.0005326317623257637,-0.0013315794058144093,-0.00013315794058144093
1772810546682237000,6.63623681640625,0,-0.0007989476434886456,-0.00013315794058144093
1772810546692116500,6.646116455078125,0,-0.0013315794058144093,-0.00013315794058144093
1772810546701996000,6.65599609375,0.0005326317623257637,-0.0013315794058144093,-0.0006657897029072046
1772810546711875600,6.66587548828125,0.0005326317623257637,0.0013315794058144093,0.0009321055840700865
1772810546721755100,6.675755126953125,-0.0010652635246515274,0.001864211168140173,0.0014647373463958502
1772810546731634700,6.685634765625,-0.0010652635246515274,0.0007989476434886456,0.0014647373463958502
1772810546741514200,6.69551416015625,0.0005326317623257637,0.00026631588116288185,0.0009321055840700865
1772810546751393800,6.705393798828125,0.0010652635246515274,0.0023968429304659367,-0.00013315794058144093
1772810546761273300,6.7152734375,-0.0005326317623257637,0.0007989476434886456,-0.00013315794058144093
1772810546771153000,6.72515283203125,-0.002130527049303055,0.001864211168140173,0.0009321055840700865
1772810546781032400,6.735032470703125,-0.002130527049303055,-0.00026631588116288185,0.0009321055840700865
1772810546790912000,6.744912109375,-0.0005326317623257637,-0.0013315794058144093,0.0003994738217443228
1772810546800791600,6.75479150390625,-0.001597895286977291,0.00026631588116288185,0.0014647373463958502
1772810546810671000,6.764671142578125,-0.0010652635246515274,-0.0007989476434886456,0.0009321055840700865
1772810546820550700,6.774550537109375,-0.0010652635246515274,-0.0007989476434886456,0.0003994738217443228
1772810546830430200,6.78443017578125,-0.0010652635246515274,-0.0007989476434886456,0.0009321055840700865
1772810546840309800,6.794309814453125,-0.001597895286977291,-0.00026631588116288185,-0.0006657897029072046
1772810546850189300,6.804189208984375,-0.001597895286977291,-0.00026631588116288185,-0.0006657897029072046
1772810546860069000,6.814069091796875,-0.0005326317623257637,-0.0007989476434886456,-0.00013315794058144093
1772810546869948700,6.82394873046875,-0.0005326317623257637,0.0007989476434886456,0.0003994738217443228
1772810546879828200,6.833828125,0,0.0007989476434886456,-0.0006657897029072046
1772810546889707800,6.843707763671875,0.0010652635246515274,0.001864211168140173,0.00026631588116288185
1772810546899587300,6.85358740234375,-0.0010652635246515274,0.001864211168140173,0.0007989476434886456
1772810546909467000,6.863466796875,0.0005326317623257637,0.00026631588116288185,-0.0013315794058144093
1772810546919346400,6.873346435546875,0.0010652635246515274,0.00026631588116288185,-0.0007989476434886456
1772810546929226000,6.88322607421875,0.0005326317623257637,-0.0023968429304659367,-0.0007989476434886456
1772810546939105500,6.89310546875,0.0005326317623257637,-0.0007989476434886456,0.0007989476434886456
1772810546948985000,6.902985107421875,0.0010652635246515274,0.00026631588116288185,-0.00026631588116288185
1772810546958864600,6.91286474609375,0.0010652635246515274,0.0023968429304659367,0.00026631588116288185
1772810546968744200,6.922744140625,0.0005326317623257637,-0.00026631588116288185,-0.00026631588116288185
1772810546978623700,6.932623779296875,-0.0005326317623257637,-0.00026631588116288185,-0.0007989476434886456
1772810546988503300,6.94250341796875,-0.0010652635246515274,0.00026631588116288185,-0.0013315794058144093
1772810546998382800,6.9523828125,0,-0.0007989476434886456,-0.00026631588116288185
1772810547008263000,6.962262939453125,-0.0005326317623257637,0.001864211168140173,-0.0007989476434886456
1772810547018142700,6.972142822265625,0.0005326317623257637,0.001864211168140173,0.0007989476434886456
1772810547028022500,6.9820224609375,0,0.00026631588116288185,-0.00026631588116288185
1772810547037902300,6.99190234375,0.0010652635246515274,-0.00026631588116288185,-0.0007989476434886456
1772810547047782400,7.001782470703125,-0.0010652635246515274,0.0007989476434886456,0.00026631588116288185
1772810547057662200,7.011662109375,0.0005326317623257637,-0.0023968429304659367,-0.0007989476434886456
1772810547067542000,7.0215419921875,-0.0010652635246515274,-0.0029294746927917004,0.0013315794058144093
1772810547077422000,7.031422119140625,-0.0005326317623257637,-0.0007989476434886456,-0.001864211168140173
1772810547087302000,7.041302001953125,0.0010652635246515274,-0.0023968429304659367,-0.00026631588116288185
1772810547097181700,7.051181640625,-0.0010652635246515274,0.0013315794058144093,-0.0013315794058144093
1772810547107061500,7.0610615234375,0.0005326317623257637,-0.0023968429304659367,-0.001864211168140173
1772810547116941600,7.070941650390625,0,-0.001864211168140173,-0.00026631588116288185
1772810547126821400,7.0808212890625,0.0005326317623257637,-0.0007989476434886456,0.0007989476434886456
1772810547136701200,7.090701171875,-0.0010652635246515274,0.00026631588116288185,0.0007989476434886456
1772810547146581000,7.1005810546875,-0.0005326317623257637,-0.003462106455117464,0.0009321055840700865
1772810547156461000,7.1104609375,0,-0.00026631588116288185,-0.00013315794058144093
1772810547166340900,7.1203408203125,0.001597895286977291,0.00026631588116288185,0.001997369108721614
1772810547176220700,7.130220703125,-0.0010652635246515274,-0.0007989476434886456,0.0009321055840700865
1772810547186100700,7.140100830078125,-0.0005326317623257637,-0.0007989476434886456,-0.0011984214652329683
1772810547195980500,7.14998046875,-0.002130527049303055,-0.0023968429304659367,-0.001731053227558732
1772810547205860400,7.1598603515625,-0.0005326317623257637,-0.0007989476434886456,-0.0011984214652329683
1772810547215740200,7.169740234375,0.0005326317623257637,-0.00026631588116288185,-0.00013315794058144093
1772810547225620200,7.1796201171875,0.0005326317623257637,-0.0013315794058144093,-0.0006657897029072046
1772810547235500000,7.1895,0,0.003462106455117464,0.0009321055840700865
1772810547245379800,7.1993798828125,0,0.0007989476434886456,0.0003994738217443228
1772810547255259600,7.209259765625,-0.0005326317623257637,0.001864211168140173,-0.00013315794058144093
1772810547265139700,7.2191396484375,0.0010652635246515274,0.0023968429304659367,0.0003994738217443228
1772810547275019500,7.22901953125,-0.0005326317623257637,0.0023968429304659367,0.0014647373463958502
1772810547284899300,7.2388994140625,-0.001597895286977291,0.0029294746927917004,-0.00026631588116288185
1772810547294779400,7.248779296875,0.0010652635246515274,0.001864211168140173,0.001864211168140173
1772810547304659200,7.2586591796875,0.0010652635246515274,0.0045273699797689915,0.0007989476434886456
1772810547314539000,7.2685390625,0,0.0013315794058144093,0.0013315794058144093
1772810547324418800,7.278418701171875,0,0.0023968429304659367,0.00026631588116288185
1772810547334299000,7.288298828125,-0.001597895286977291,0.0029294746927917004,0.00026631588116288185
1772810547344178700,7.2981787109375,0,0.003462106455117464,0.00026631588116288185
1772810547354058500,7.30805859375,-0.0005326317623257637,0.003994738217443228,0.001864211168140173
1772810547363938300,7.317938232421875,0.0010652635246515274,0.003462106455117464,0.0013315794058144093
1772810547373818400,7.327818359375,0,0.001864211168140173,-0.0007989476434886456
1772810547383698200,7.3376982421875,-0.0005326317623257637,-0.00026631588116288185,-0.00026631588116288185
1772810547393578000,7.347577880859375,-0.0005326317623257637,-0.0029294746927917004,-0.0013315794058144093
1772810547403458000,7.3574580078125,0.0010652635246515274,-0.011451583355665207,-0.0023968429304659367
1772810547413337900,7.367337890625,-0.0005326317623257637,-0.0007989476434886456,-0.0013315794058144093
1772810547423217700,7.3772177734375,-0.0005326317623257637,-0.00026631588116288185,-0.0013315794058144093
1772810547433097500,7.387097412109375,0.0005326317623257637,-0.0013315794058144093,0.0007989476434886456
1772810547442977500,7.3969775390625,0,-0.0023968429304659367,0.00026631588116288185
1772810547452857300,7.406857421875,0.0005326317623257637,0.0013315794058144093,-0.0007989476434886456
1772810547462737200,7.416737060546875,0,0.0013315794058144093,-0.0007989476434886456
1772810547472617200,7.4266171875,0.0005326317623257637,0.0013315794058144093,-0.001864211168140173
1772810547482497000,7.4364970703125,-0.0005326317623257637,0.0007989476434886456,-0.0007989476434886456
1772810547492376800,7.446376953125,0.0010652635246515274,0.0013315794058144093,0.0009321055840700865
1772810547502257000,7.4562568359375,-0.0010652635246515274,-0.003462106455117464,-0.0006657897029072046
1772810547512136700,7.46613671875,-0.002130527049303055,0.0023968429304659367,-0.0006657897029072046
1772810547522016800,7.476016845703125,-0.0005326317623257637,-0.00026631588116288185,-0.0006657897029072046
1772810547531896800,7.485896728515625,-0.0005326317623257637,0.0007989476434886456,-0.0006657897029072046
1772810547541777000,7.49577685546875,-0.0010652635246515274,0.00026631588116288185,0.0003994738217443228
1772810547551657000,7.505656982421875,0.001597895286977291,-0.0013315794058144093,0.0009321055840700865
1772810547561537000,7.515537109375,-0.001597895286977291,0.0007989476434886456,0.0009321055840700865
1772810547571417000,7.5254169921875,0.0005326317623257637,-0.00026631588116288185,-0.0022636849898844957
1772810547581297200,7.535297119140625,0,0.0007989476434886456,0.0014647373463958502
1772810547591177200,7.54517724609375,-0.0026631588116288185,0.00026631588116288185,0.0014647373463958502
1772810547601057000,7.55505712890625,0.002130527049303055,0.0007989476434886456,-0.00013315794058144093
1772810547610937000,7.56493701171875,0.0005326317623257637,0.00026631588116288185,-0.0006657897029072046
1772810547620817200,7.574817138671875,0.0005326317623257637,0.00026631588116288185,-0.00013315794058144093
1772810547630697200,7.584697265625,-0.0005326317623257637,0.0007989476434886456,-0.0006657897029072046
1772810547640577300,7.594577392578125,-0.0010652635246515274,-0.0023968429304659367,-0.00013315794058144093
1772810547650457300,7.604457275390625,-0.0005326317623257637,0.00026631588116288185,-0.00013315794058144093
1772810547660337400,7.61433740234375,-0.0005326317623257637,-0.00026631588116288185,-0.00013315794058144093
1772810547670217500,7.624217529296875,0.0005326317623257637,0.001864211168140173,0.0003994738217443228
1772810547680097300,7.63409716796875,-0.0010652635246515274,0.00026631588116288185,-0.00013315794058144093
1772810547689977300,7.643977294921875,0.0005326317623257637,-0.0007989476434886456,0.0014647373463958502
1772810547699857400,7.653857421875,0.0010652635246515274,-0.00026631588116288185,0.0003994738217443228
1772810547709737500,7.663737548828125,0,0.00026631588116288185,-0.00013315794058144093
1772810547719617500,7.673617431640625,-0.0005326317623257637,0.00026631588116288185,-0.00013315794058144093
1772810547729497600,7.68349755859375,0.0010652635246515274,0.0007989476434886456,0.0003994738217443228
1772810547739377700,7.693377685546875,-0.0005326317623257637,0.0013315794058144093,-0.0011984214652329683
1772810547749257700,7.7032578125,0.001597895286977291,0.00026631588116288185,0.0003994738217443228
1772810547759137500,7.713137451171875,-0.0005326317623257637,-0.00026631588116288185,0.0014647373463958502
1772810547769017600,7.723017578125,-0.001597895286977291,-0.00026631588116288185,-0.00013315794058144093
1772810547778897700,7.732897705078125,0.0005326317623257637,-0.00026631588116288185,0.0003994738217443228
1772810547788777700,7.74277783203125,-0.001597895286977291,-0.0013315794058144093,0.0014647373463958502
1772810547798657800,7.75265771484375,0,0.00026631588116288185,0.0009321055840700865
1772810547808537900,7.762537841796875,0.0005326317623257637,0.00026631588116288185,0.0003994738217443228
1772810547818418000,7.77241796875,-0.0005326317623257637,0.0013315794058144093,0.001997369108721614
1772810547828298000,7.782298095703125,0,0.0007989476434886456,-0.0011984214652329683
1772810547838178000,7.792177978515625,-0.001597895286977291,-0.00026631588116288185,-0.0006657897029072046
1772810547848058000,7.80205810546875,0.0005326317623257637,0.001864211168140173,-0.00013315794058144093
1772810547857938000,7.81193798828125,0,-0.0013315794058144093,-0.00013315794058144093
1772810547867818000,7.82181787109375,0,-0.0023968429304659367,-0.0006657897029072046
1772810547877698000,7.831697998046875,-0.0010652635246515274,0.00026631588116288185,-0.00013315794058144093
1772810547887578000,7.841578125,-0.0003994738217443228,0.00013315794058144093,-0.001864211168140173
1772810547897458200,7.851458251953125,-0.0003994738217443228,-0.0014647373463958502,-0.0009321055840700865
1772810547907338200,7.861338134765625,-0.0003994738217443228,0.00013315794058144093,-0.0003994738217443228
1772810547917218300,7.87121826171875,0.0006657897029072046,-0.001997369108721614,0.0011984214652329683
1772810547927098400,7.881098388671875,-0.0009321055840700865,0.00013315794058144093,-0.0003994738217443228
1772810547946858200,7.900858154296875,0.0006657897029072046,-0.0003994738217443228,-0.0009321055840700865
1772810547956738300,7.91073828125,0.00013315794058144093,-0.0003994738217443228,0.001731053227558732
1772810547966618400,7.920618408203125,0.0006657897029072046,0.00013315794058144093,-0.0009321055840700865
1772810547976498400,7.93049853515625,0.0011984214652329683,-0.0003994738217443228,0.0006657897029072046
1772810547986378500,7.94037841796875,-0.0003994738217443228,-0.0003994738217443228,-0.0009321055840700865
1772810547996258600,7.950258544921875,-0.0009321055840700865,-0.0009321055840700865,-0.0003994738217443228
1772810548006138600,7.960138671875,-0.0003994738217443228,-0.0009321055840700865,0.0006657897029072046
1772810548016018400,7.970018310546875,0.00013315794058144093,0.0006657897029072046,-0.0003994738217443228
1772810548025898500,7.9798984375,-0.0003994738217443228,-0.0003994738217443228,-0.0009321055840700865
1772810548035778600,7.989778564453125,0.0006657897029072046,0.00013315794058144093,-0.0014647373463958502
1772810548045658600,7.99965869140625,0.0006657897029072046,0.00013315794058144093,0.0006657897029072046
1772810548055538700,8.00953857421875,0.00013315794058144093,0.0011984214652329683,-0.0003994738217443228
1772810548065418500,8.01941845703125,0.0011984214652329683,0.0011984214652329683,-0.0003994738217443228
1772810548075298600,8.029298583984374,-0.0003994738217443228,-0.0003994738217443228,0.0011984214652329683
1772810548085178600,8.0391787109375,0.0006657897029072046,0.00013315794058144093,0.001864211168140173
1772810548095058700,8.04905859375,-0.0003994738217443228,0.0022636849898844957,0.0007989476434886456
1772810548104938800,8.058938720703125,-0.0014647373463958502,-0.0003994738217443228,-0.001864211168140173
1772810548114818600,8.068818603515625,0.0011984214652329683,0.00013315794058144093,-0.0007989476434886456
1772810548124698600,8.07869873046875,0.00013315794058144093,0.0011984214652329683,-0.0007989476434886456
1772810548134578700,8.08857861328125,0.0022636849898844957,-0.0009321055840700865,-0.0007989476434886456
1772810548144458800,8.098458740234374,0.00013315794058144093,0.00013315794058144093,-0.00026631588116288185
1772810548154338800,8.1083388671875,-0.0009321055840700865,0.00013315794058144093,-0.00026631588116288185
1772810548164218600,8.118218505859375,0.0011984214652329683,0.0011984214652329683,-0.00026631588116288185
1772810548174098700,8.1280986328125,-0.0014647373463958502,-0.0014647373463958502,0.0007989476434886456
1772810548183978800,8.137978759765625,-0.0014647373463958502,0.0022636849898844957,-0.0013315794058144093
1772810548193858800,8.14785888671875,0.0006657897029072046,0.00013315794058144093,0.00026631588116288185
1772810548203739000,8.15773876953125,0.00013315794058144093,0.0011984214652329683,-0.00026631588116288185
1772810548213618700,8.16761865234375,0.0006657897029072046,-0.0003994738217443228,-0.0007989476434886456
1772810548223498800,8.177498779296876,0.00013315794058144093,-0.0003994738217443228,-0.00026631588116288185
1772810548233378800,8.18737890625,0.00013315794058144093,-0.0009321055840700865,-0.0007989476434886456
1772810548243259000,8.1972587890625,-0.0014647373463958502,-0.0003994738217443228,-0.0007989476434886456
1772810548253138700,8.207138671875,-0.0003994738217443228,0.0006657897029072046,0.00026631588116288185
1772810548263018800,8.217018798828125,0.001731053227558732,0.00013315794058144093,-0.0013315794058144093
1772810548272898800,8.22689892578125,0.0006657897029072046,0.0006657897029072046,-0.00026631588116288185
1772810548282779000,8.23677880859375,-0.0003994738217443228,0.0011984214652329683,0.00026631588116288185
1772810548292659000,8.246658935546876,-0.0003994738217443228,-0.0009321055840700865,0.0007989476434886456
1772810548302538800,8.256538818359376,0.0022636849898844957,-0.0003994738217443228,0.0007989476434886456
1772810548312418800,8.266418701171874,-0.0009321055840700865,-0.0014647373463958502,0.0007989476434886456
1772810548322299000,8.276298828125,0.0006657897029072046,-0.0003994738217443228,-0.0007989476434886456
1772810548332179000,8.286178955078125,0.0006657897029072046,-0.0009321055840700865,0.0007989476434886456
1772810548342059000,8.29605908203125,-0.0003994738217443228,0.0006657897029072046,-0.00026631588116288185
1772810548351938800,8.305938720703125,-0.0014647373463958502,0.00013315794058144093,0.00026631588116288185
1772810548361819000,8.31581884765625,0.0006657897029072046,-0.0003994738217443228,-0.0007989476434886456
1772810548371699000,8.325698974609375,0.00013315794058144093,-0.0003994738217443228,-0.0007989476434886456
1772810548381579000,8.3355791015625,-0.0003994738217443228,0.00013315794058144093,0.0007989476434886456
1772810548391459000,8.345458984375,0.0011984214652329683,-0.0014647373463958502,0.0007989476434886456
1772810548401339000,8.3553388671875,0.00013315794058144093,0.00013315794058144093,0.0007989476434886456
1772810548411219000,8.365218994140625,-0.0014647373463958502,-0.0003994738217443228,0.00026631588116288185
1772810548421099000,8.37509912109375,-0.0025300008710473776,0.001731053227558732,-0.0007989476434886456
1772810548430979000,8.38497900390625,-0.0003994738217443228,-0.0003994738217443228,0.001864211168140173
1772810548440859100,8.394859130859375,-0.0003994738217443228,0.00013315794058144093,0.0007989476434886456
1772810548450739000,8.404739013671875,0.00013315794058144093,-0.0014647373463958502,0.00026631588116288185
1772810548460619000,8.414618896484376,0.0022636849898844957,-0.0009321055840700865,-0.0007989476434886456
1772810548470499000,8.4244990234375,0.00013315794058144093,0.003861580276861787,-0.00026631588116288185
1772810548480379100,8.434379150390624,0.0011984214652329683,-0.003595264395698905,-0.001864211168140173
1772810548490259000,8.444259033203124,0.0006657897029072046,0.00013315794058144093,-0.0013315794058144093
1772810548500139300,8.45413916015625,0.0006657897029072046,0.00013315794058144093,0.00026631588116288185
1772810548510019800,8.464019775390625,0.0006657897029072046,0.0006657897029072046,0.0007989476434886456
1772810548519900400,8.473900390625,0.0011984214652329683,-0.0014647373463958502,0.00026631588116288185
1772810548529781000,8.483781005859376,-0.0009321055840700865,0.00013315794058144093,0.0013315794058144093
1772810548539661600,8.49366162109375,0.00013315794058144093,0.00013315794058144093,-0.0007989476434886456
1772810548549542100,8.503542236328125,0.00013315794058144093,0.0022636849898844957,-0.00026631588116288185
1772810548559422700,8.513422607421875,0.0006657897029072046,0.0027963167522102594,0.0007989476434886456
1772810548569303300,8.52330322265625,0.0011984214652329683,-0.001997369108721614,0.0007989476434886456
1772810548579183900,8.533183837890626,0.0022636849898844957,-0.0009321055840700865,-0.00026631588116288185
1772810548589064400,8.543064453125,-0.0003994738217443228,-0.0003994738217443228,-0.0007989476434886456
1772810548598945000,8.552945068359374,0.00013315794058144093,0.00013315794058144093,-0.00026631588116288185
1772810548608825600,8.56282568359375,-0.0025300008710473776,0.0006657897029072046,-0.0007989476434886456
1772810548618706200,8.5727060546875,0.00013315794058144093,0.0006657897029072046,-0.0007989476434886456
1772810548628586800,8.582586669921875,0.0006657897029072046,0.00013315794058144093,-0.0007989476434886456
1772810548638467300,8.59246728515625,0.00013315794058144093,0.0006657897029072046,-0.0007989476434886456
1772810548648348000,8.602347900390624,0.0006657897029072046,0.00013315794058144093,0.00026631588116288185
1772810548668109000,8.622109130859375,0.001731053227558732,0.001731053227558732,-0.0013315794058144093
1772810548677989600,8.63198974609375,0.0006657897029072046,-0.0003994738217443228,-0.0007989476434886456
1772810548687870200,8.6418701171875,-0.0009321055840700865,-0.0009321055840700865,-0.0007989476434886456
1772810548697750800,8.651750732421876,0.0006657897029072046,0.0006657897029072046,-0.00026631588116288185
1772810548707631400,8.66163134765625,-0.0014647373463958502,-0.0003994738217443228,-0.00026631588116288185
1772810548717512000,8.671511962890625,-0.0009321055840700865,0.0006657897029072046,0.00026631588116288185
1772810548727392500,8.681392578125,0.0011984214652329683,0.0006657897029072046,-0.00026631588116288185
1772810548737273000,8.691273193359375,0.0006657897029072046,0.0006657897029072046,-0.00026631588116288185
1772810548747153700,8.701153564453126,-0.0003994738217443228,0.0011984214652329683,0.00026631588116288185
1772810548757034200,8.7110341796875,0.0006657897029072046,0.0006657897029072046,-0.001864211168140173
1772810548766914800,8.720914794921875,0.0011984214652329683,-0.0014647373463958502,0.00026631588116288185
1772810548776795400,8.73079541015625,-0.0009321055840700865,0.00013315794058144093,-0.0007989476434886456
1772810548786676000,8.740676025390625,0.0006657897029072046,0.00013315794058144093,0.00026631588116288185
1772810548796556500,8.750556640625,0.00013315794058144093,-0.0003994738217443228,0.00026631588116288185
1772810548806437000,8.76043701171875,0.0006657897029072046,0.00013315794058144093,-0.00026631588116288185
1772810548816317700,8.770317626953124,-0.0009321055840700865,0.00013315794058144093,-0.0013315794058144093
1772810548826198300,8.7801982421875,-0.0003994738217443228,-0.0009321055840700865,-0.0007989476434886456
1772810548836078800,8.790078857421875,0.0022636849898844957,-0.0014647373463958502,-0.00026631588116288185
1772810548845959400,8.79995947265625,-0.0003994738217443228,0.00013315794058144093,-0.0007989476434886456
1772810548855840000,8.809840087890626,0.0006657897029072046,0.0022636849898844957,0.0007989476434886456
1772810548865720600,8.819720458984374,0.0011984214652329683,0.0006657897029072046,0.0007989476434886456
1772810548875601200,8.82960107421875,-0.0003994738217443228,0.001731053227558732,-0.00026631588116288185
1772810548885481700,8.839481689453125,-0.0003994738217443228,-0.0009321055840700865,-0.00026631588116288185
1772810548895362300,8.8493623046875,0.0011984214652329683,-0.0025300008710473776,0.00026631588116288185
1772810548905243000,8.859242919921876,-0.0003994738217443228,0.0006657897029072046,-0.00026631588116288185
1772810548915123500,8.86912353515625,0.00013315794058144093,-0.0014647373463958502,-0.0007989476434886456
1772810548925004000,8.879004150390625,0.0022636849898844957,0.00013315794058144093,0.00026631588116288185
1772810548934884600,8.888884521484375,0.001731053227558732,-0.0009321055840700865,-0.00026631588116288185
1772810548944765400,8.898765380859375,-0.0014647373463958502,-0.0009321055840700865,-0.0007989476434886456
1772810548954646000,8.90864599609375,-0.0003994738217443228,0.00013315794058144093,-0.0007989476434886456
1772810548964526600,8.918526611328126,-0.0009321055840700865,0.0011984214652329683,0.00026631588116288185
1772810548974407000,8.928406982421874,0.0006657897029072046,-0.0003994738217443228,-0.00026631588116288185
1772810548984287500,8.93828759765625,0.0011984214652329683,-0.0014647373463958502,-0.00026631588116288185
1772810548994168000,8.94816796875,-0.0003994738217443228,-0.0009321055840700865,0.0007989476434886456
1772810549004048400,8.95804833984375,0.00013315794058144093,0.0027963167522102594,0.0013315794058144093
1772810549013928400,8.967928466796875,-0.0009321055840700865,-0.0014647373463958502,0.00026631588116288185
1772810549023808800,8.977808837890626,0.0011984214652329683,0.00013315794058144093,0.00026631588116288185
1772810549033688800,8.987688720703124,-0.0003994738217443228,-0.0003994738217443228,0.0007989476434886456
1772810549043569000,8.99756884765625,-0.0030626326333731413,0.00013315794058144093,0.0007989476434886456
1772810549053449200,9.00744921875,0.00013315794058144093,0.00013315794058144093,-0.00026631588116288185
1772810549063329300,9.017329345703125,-0.0009321055840700865,-0.0003994738217443228,0.00026631588116288185
1772810549073209600,9.027209716796875,0.00013315794058144093,0.0011984214652329683,-0.0013315794058144093
1772810549083089700,9.037089599609375,-0.0009321055840700865,0.0011984214652329683,-0.0007989476434886456
1772810549092969700,9.0469697265625,0.00013315794058144093,-0.0009321055840700865,0.00026631588116288185
1772810549102850000,9.05685009765625,0.0011984214652329683,-0.0025300008710473776,0.00026631588116288185
1772810549112730000,9.066730224609374,0.00013315794058144093,-0.0014647373463958502,-0.001864211168140173
1772810549122610400,9.0766103515625,0.001731053227558732,-0.0009321055840700865,0.0007989476434886456
1772810549132490500,9.086490478515625,0.0006657897029072046,0.00013315794058144093,0.0013315794058144093
1772810549142370600,9.09637060546875,0.0006657897029072046,0.00013315794058144093,0.00026631588116288185
1772810549152251000,9.1062509765625,0.00013315794058144093,0.001731053227558732,-0.00026631588116288185
1772810549162131000,9.116130859375,-0.0003994738217443228,0.0006657897029072046,-0.001864211168140173
1772810549172011300,9.12601123046875,-0.0009321055840700865,-0.0003994738217443228,0.00026631588116288185
1772810549181891300,9.135891357421874,0.0006657897029072046,0.0006657897029072046,-0.001864211168140173
1772810549191771400,9.145771484375,-0.0009321055840700865,-0.0009321055840700865,-0.00026631588116288185
1772810549201651700,9.155651611328125,0.0006657897029072046,-0.0009321055840700865,0.0007989476434886456
1772810549211531800,9.16553173828125,0.0006657897029072046,-0.0009321055840700865,-0.00026631588116288185
1772810549221411800,9.175411865234375,-0.0003994738217443228,0.0011984214652329683,0.0007989476434886456
1772810549231292200,9.185292236328126,0.001731053227558732,0.00013315794058144093,-0.0007989476434886456
1772810549241172200,9.195172119140626,0.0011984214652329683,-0.0003994738217443228,-0.00026631588116288185
1772810549251052300,9.20505224609375,0.0006657897029072046,-0.0009321055840700865,-0.0007989476434886456
1772810549260932600,9.2149326171875,0.00013315794058144093,0.00013315794058144093,0.0007989476434886456
1772810549270812700,9.224812744140625,-0.0003994738217443228,0.001731053227558732,-0.00026631588116288185
1772810549280693000,9.23469287109375,-0.0009321055840700865,-0.0003994738217443228,-0.0007989476434886456
1772810549290573000,9.244572998046875,-0.0003994738217443228,0.001731053227558732,-0.0013315794058144093
1772810549300453000,9.254453125,-0.0014647373463958502,0.0011984214652329683,-0.0013315794058144093
1772810549310333400,9.26433349609375,-0.0003994738217443228,0.0006657897029072046,0.00026631588116288185
1772810549320213500,9.274213623046874,-0.0003994738217443228,0.00013315794058144093,-0.001864211168140173
1772810549330093800,9.28409375,0.00013315794058144093,-0.0003994738217443228,-0.0007989476434886456
1772810549339974000,9.293973876953125,0.0006657897029072046,-0.0003994738217443228,0.00026631588116288185
1772810549349854000,9.30385400390625,-0.0009321055840700865,0.0011984214652329683,0.0007989476434886456
1772810549359734300,9.313734375,0.0006657897029072046,0.00013315794058144093,0.0013315794058144093
1772810549369614300,9.3236142578125,-0.0003994738217443228,-0.001997369108721614,-0.00026631588116288185
1772810549379494700,9.33349462890625,-0.0014647373463958502,-0.0009321055840700865,0.00026631588116288185
1772810549389374700,9.343374755859376,-0.0003994738217443228,0.0022636849898844957,0.00026631588116288185
1772810549399254800,9.3532548828125,-0.0009321055840700865,0.0011984214652329683,0.00026631588116288185
1772810549409135000,9.363135009765625,0.00013315794058144093,0.00013315794058144093,-0.00026631588116288185
1772810549419015200,9.37301513671875,0.00013315794058144093,-0.0009321055840700865,-0.0007989476434886456
1772810549428895200,9.382895263671875,-0.0003994738217443228,-0.0003994738217443228,0.0013315794058144093
1772810549438775600,9.392775634765625,0.0006657897029072046,-0.0003994738217443228,0.0007989476434886456
1772810549448655600,9.402655517578125,0.00013315794058144093,0.0011984214652329683,0.00026631588116288185
1772810549458535700,9.41253564453125,0.00013315794058144093,-0.0025300008710473776,0.0006657897029072046
1772810549468416000,9.422416015625,-0.0014647373463958502,-0.0009321055840700865,0.0011984214652329683
1772810549478296000,9.432296142578124,0.0006657897029072046,-0.001997369108721614,0.0011984214652329683
1772810549488176000,9.442176025390625,0.0006657897029072046,-0.0003994738217443228,-0.0007989476434886456
1772810549507936000,9.46193603515625,-0.0014647373463958502,0.001731053227558732,-0.00026631588116288185
1772810549517816000,9.471816162109375,0.0011984214652329683,-0.0014647373463958502,-0.0013315794058144093
1772810549527696100,9.481696044921875,-0.0003994738217443228,-0.0009321055840700865,0.00026631588116288185
1772810549537576000,9.491575927734376,0.00013315794058144093,0.0022636849898844957,0.00026631588116288185
1772810549547456000,9.5014560546875,0.00013315794058144093,0.001731053227558732,0.0007989476434886456
1772810549557336000,9.511336181640624,0.0006657897029072046,0.0011984214652329683,0.0007989476434886456
1772810549567215900,9.5212158203125,-0.0003994738217443228,-0.0003994738217443228,-0.0013315794058144093
1772810549577096000,9.531095947265625,-0.0014647373463958502,0.0006657897029072046,-0.0007989476434886456
1772810549586976000,9.54097607421875,0.0006657897029072046,-0.0009321055840700865,0.00026631588116288185
1772810549596855800,9.550855712890625,0.001731053227558732,-0.0009321055840700865,-0.0023968429304659367
1772810549606736000,9.56073583984375,0.001731053227558732,0.001731053227558732,0.0013315794058144093
1772810549616616000,9.570615966796876,0.001731053227558732,-0.0025300008710473776,0.00026631588116288185
1772810549626495700,9.580495849609376,-0.0009321055840700865,0.00013315794058144093,0.0007989476434886456
1772810549636375800,9.590375732421874,0.00013315794058144093,-0.0009321055840700865,-0.00026631588116288185
1772810549646255600,9.600255615234374,0.00013315794058144093,-0.001997369108721614,0.0007989476434886456
1772810549656135700,9.6101357421875,0.0005326317623257637,0.0006657897029072046,0.0003994738217443228
1772810549666015700,9.620015625,-0.0010652635246515274,-0.0003994738217443228,-0.00013315794058144093
1772810549685775600,9.639775634765625,0,0.0006657897029072046,-0.0006657897029072046
1772810549695655700,9.64965576171875,-0.0010652635246515274,-0.0009321055840700865,-0.0006657897029072046
1772810549705535700,9.65953564453125,-0.0010652635246515274,0.0006657897029072046,-0.0027963167522102594
1772810549725295600,9.679295654296874,0.0005326317623257637,0.0011984214652329683,-0.00013315794058144093
1772810549735175400,9.689175537109374,0.0010652635246515274,0.0011984214652329683,0.0009321055840700865
1772810549745055500,9.699055419921875,-0.0010652635246515274,-0.0009321055840700865,-0.00013315794058144093
1772810549754935600,9.708935546875,0,-0.001997369108721614,-0.00013315794058144093
1772810549764815400,9.7188154296875,-0.0010652635246515274,0.0011984214652329683,-0.0006657897029072046
1772810549774695400,9.7286953125,-0.0005326317623257637,0.00013315794058144093,-0.00013315794058144093
1772810549784575500,9.738575439453125,0,0.00013315794058144093,0.0003994738217443228
1772810549794455300,9.748455322265626,0.0005326317623257637,-0.0009321055840700865,0.0009321055840700865
1772810549804335400,9.75833544921875,-0.0010652635246515274,0.0011984214652329683,0.0003994738217443228
1772810549814215400,9.76821533203125,0.0005326317623257637,0.0006657897029072046,0.0009321055840700865
1772810549824095200,9.77809521484375,0,0.00013315794058144093,0.0009321055840700865
1772810549833975300,9.787975341796875,-0.0010652635246515274,-0.0009321055840700865,0.0003994738217443228
1772810549853735200,9.807735107421875,0.0005326317623257637,0.0006657897029072046,-0.0006657897029072046
1772810549863615200,9.817615234375,0.0005326317623257637,-0.0014647373463958502,0.0003994738217443228
1772810549873495000,9.8274951171875,-0.0010652635246515274,0.0006657897029072046,-0.00013315794058144093
1772810549893255200,9.847255126953126,0.0005326317623257637,0.00013315794058144093,-0.0011984214652329683
1772810549903135200,9.85713525390625,0,-0.0003994738217443228,-0.0011984214652329683
1772810549913015000,9.86701513671875,0.0005326317623257637,-0.001997369108721614,-0.00013315794058144093
1772810549922895000,9.87689501953125,0,-0.0009321055840700865,0.0003994738217443228
1772810549932775000,9.88677490234375,0,-0.0003994738217443228,0.0009321055840700865
1772810549942655000,9.896655029296875,0,0.00013315794058144093,0.0003994738217443228
1772810549952535000,9.90653515625,0.0005326317623257637,0.00013315794058144093,-0.0006657897029072046
1772810549972295000,9.926294921875,0.0005326317623257637,0.00013315794058144093,-0.0006657897029072046
1772810549982175000,9.936175048828124,-0.0010652635246515274,0.0011984214652329683,0.0009321055840700865
1772810550001934800,9.955934814453125,-0.0005326317623257637,0.0006657897029072046,-0.0011984214652329683
1772810550011815200,9.965815185546875,-0.0010652635246515274,0.0006657897029072046,-0.0006657897029072046
1772810550031575600,9.985575439453125,0,0.0006657897029072046,-0.0006657897029072046
1772810550041455600,9.99545556640625,-0.0005326317623257637,-0.0014647373463958502,-0.0022636849898844957
1772810550051336000,10.0053359375,0.0005326317623257637,-0.001997369108721614,0.0003994738217443228
1772810550061216000,10.015216064453124,0,-0.0003994738217443228,-0.00013315794058144093
1772810550071096300,10.025096435546875,-0.0010652635246515274,-0.0009321055840700865,0.0009321055840700865
1772810550080976400,10.034976318359375,-0.0005326317623257637,-0.0003994738217443228,-0.0006657897029072046
1772810550100736800,10.05473681640625,-0.0010652635246515274,-0.0030626326333731413,-0.00013315794058144093
1772810550110617000,10.0646171875,-0.0005326317623257637,-0.0003994738217443228,-0.00013315794058144093
1772810550120497200,10.0744970703125,0,-0.0014647373463958502,0.0014647373463958502
1772810550130377500,10.08437744140625,-0.0010652635246515274,0.00013315794058144093,-0.00013315794058144093
1772810550140257500,10.094257568359374,-0.0010652635246515274,0.0006657897029072046,-0.0006657897029072046
1772810550150137900,10.104137939453125,0.0010652635246515274,-0.001997369108721614,0.0003994738217443228
1772810550169898200,10.123898193359375,-0.002130527049303055,0.0006657897029072046,0.0003994738217443228
1772810550179778300,10.1337783203125,-0.0005326317623257637,0.00013315794058144093,-0.0011984214652329683
1772810550189658600,10.14365869140625,0,-0.0009321055840700865,-0.0006657897029072046
1772810550209419000,10.1634189453125,0.0010652635246515274,-0.0014647373463958502,0.0003994738217443228
1772810550219299000,10.173299072265625,-0.001597895286977291,-0.0014647373463958502,0.0009321055840700865
1772810550239059500,10.1930595703125,-0.0005326317623257637,-0.001997369108721614,-0.00013315794058144093
1772810550248939800,10.202939697265625,-0.0005326317623257637,-0.0009321055840700865,0.0003994738217443228
1772810550258819800,10.21281982421875,0,-0.0014647373463958502,-0.00013315794058144093
1772810550268700200,10.2227001953125,-0.0005326317623257637,0.00013315794058144093,0.0009321055840700865
1772810550288460500,10.24246044921875,0,-0.0003994738217443228,-0.0006657897029072046
1772810550298340600,10.252340576171875,0,-0.004127896390855312,0.0009321055840700865
1772810550308221000,10.262220947265625,0.0005326317623257637,-0.0009321055840700865,-0.00013315794058144093
1772810550327981300,10.281981201171876,0.0010652635246515274,0.00013315794058144093,0.0003994738217443228
1772810550337861400,10.291861328125,0,-0.0009321055840700865,-0.0006657897029072046
1772810550357621800,10.311621826171875,0.0005326317623257637,-0.0014647373463958502,-0.00013315794058144093
1772810550367502000,10.321502197265625,-0.001597895286977291,0.00013315794058144093,0.0009321055840700865
1772810550377382100,10.331382080078125,-0.001597895286977291,0.00013315794058144093,-0.00013315794058144093
1772810550397142500,10.351142578125,0.0005326317623257637,-0.0009321055840700865,0.0003994738217443228
1772810550407022800,10.36102294921875,0,-0.0014647373463958502,0.0014647373463958502
1772810550416903000,10.37090283203125,-0.0005326317623257637,-0.0014647373463958502,0.001997369108721614
1772810550426783200,10.380783203125,-0.001597895286977291,-0.0003994738217443228,0.0013315794058144093
1772810550436663300,10.390663330078125,-0.0010652635246515274,-0.0014647373463958502,0.00026631588116288185
1772810550456423700,10.410423583984375,0.0005326317623257637,-0.0003994738217443228,0.0007989476434886456
1772810550476184000,10.43018408203125,-0.0005326317623257637,0.00013315794058144093,0.0007989476434886456
1772810550486064400,10.440064453125,0.0005326317623257637,0.0011984214652329683,0.00026631588116288185
1772810550495944400,10.4499443359375,-0.0005326317623257637,-0.0003994738217443228,0.0007989476434886456
1772810550505824500,10.459824462890625,0,0.001731053227558732,0.0003994738217443228
1772810550515704600,10.46970458984375,0.001597895286977291,-0.0009321055840700865,0.0009321055840700865
1772810550525585000,10.4795849609375,0,0.00013315794058144093,-0.0006657897029072046
1772810550535465000,10.48946484375,-0.0010652635246515274,-0.0009321055840700865,0.001997369108721614
1772810550545345000,10.499344970703126,0.0005326317623257637,-0.0003994738217443228,0.0014647373463958502
1772810550555225300,10.509225341796874,0.0005326317623257637,0.0011984214652329683,-0.0006657897029072046
1772810550565105400,10.51910546875,-0.001597895286977291,-0.003595264395698905,0.0014647373463958502
1772810550574985500,10.5289853515625,0.0005326317623257637,0.00013315794058144093,0.0003994738217443228
1772810550584865800,10.53886572265625,-0.0005326317623257637,0.00013315794058144093,0.0014647373463958502
1772810550594745900,10.548745849609375,0,0.001731053227558732,-0.0006657897029072046
1772810550604626000,10.5586259765625,0.002130527049303055,0.00013315794058144093,-0.0011984214652329683
1772810550614506000,10.568506103515626,-0.0010652635246515274,-0.0009321055840700865,-0.0006657897029072046
1772810550624386300,10.57838623046875,-0.0005326317623257637,-0.0014647373463958502,-0.00013315794058144093
1772810550634266400,10.588266357421874,0.0005326317623257637,0.0006657897029072046,-0.0006657897029072046
1772810550644146400,10.598146484375,0.0005326317623257637,-0.0003994738217443228,-0.00013315794058144093
1772810550654026800,10.60802685546875,0.0010652635246515274,-0.0014647373463958502,-0.00013315794058144093
1772810550663906800,10.61790673828125,0,-0.0014647373463958502,-0.00013315794058144093
1772810550673787000,10.627786865234375,-0.0005326317623257637,0.00013315794058144093,0.0003994738217443228
1772810550693547300,10.64754736328125,0.0010652635246515274,-0.0014647373463958502,-0.0011984214652329683
1772810550703427300,10.65742724609375,0.0005326317623257637,-0.0025300008710473776,-0.0011984214652329683
1772810550713307400,10.667307373046874,-0.0010652635246515274,0.0006657897029072046,0.0003994738217443228
1772810550733067800,10.68706787109375,0.0010652635246515274,0.0011984214652329683,0.0014647373463958502
1772810550742947800,10.69694775390625,-0.0010652635246515274,0.00013315794058144093,-0.0011984214652329683
1772810550752828200,10.706828125,0.0005326317623257637,-0.0009321055840700865,0.0014647373463958502
1772810550762708200,10.716708251953126,0.0005326317623257637,0.001731053227558732,0.0003994738217443228
1772810550772588300,10.72658837890625,-0.002130527049303055,-0.0009321055840700865,0.0003994738217443228
1772810550782468600,10.736468505859374,-0.0005326317623257637,0.00013315794058144093,0.0003994738217443228
1772810550792348700,10.7463486328125,-0.001597895286977291,0.005992107093334198,0.0025300008710473776
1772810550802228700,10.756228759765625,-0.0005326317623257637,0.003861580276861787,0.0025300008710473776
1772810550812108800,10.76610888671875,-0.001597895286977291,0.0027963167522102594,0.0014647373463958502
1772810550821989000,10.775989013671875,-0.0005326317623257637,0.003328948514536023,0.0014647373463958502
1772810550831869200,10.785869140625,0.0010652635246515274,0.001731053227558732,-0.0011984214652329683
1772810550841749500,10.79574951171875,0,0.0027963167522102594,0.0003994738217443228
1772810550851629600,10.805629638671874,-0.0005326317623257637,-0.0014647373463958502,0.0003994738217443228
1772810550861509600,10.815509521484374,-0.0026631588116288185,-0.0009321055840700865,-0.0006657897029072046
1772810550871389700,10.8253896484375,0.0005326317623257637,-0.004127896390855312,-0.0022636849898844957
1772810550881270000,10.83527001953125,-0.0010652635246515274,-0.006258423440158367,-0.003328948514536023
1772810550891150000,10.845150146484375,-0.001597895286977291,-0.006791055202484131,-0.0027963167522102594
1772810550901030100,10.855030029296875,0.0005326317623257637,-0.0025300008710473776,-0.0011984214652329683
