time,seconds_elapsed,z,y,x
1772810441143959300,0.197959228515625,0.0027963167522102594,0.0007989476434886456,0.0009321055840700865
1772810441153839000,0.207839111328125,0.0006657897029072046,-0.0013315794058144093,-0.001731053227558732
1772810441163718700,0.21771875,0.0006657897029072046,0.00026631588116288185,-0.0006657897029072046
1772810441173598500,0.227598388671875,-0.0009321055840700865,0.0007989476434886456,0.0003994738217443228
1772810441183478000,0.23747802734375,0.0006657897029072046,0.001864211168140173,-0.00013315794058144093
1772810441193357800,0.24735791015625,-0.0003994738217443228,0.0007989476434886456,0.0003994738217443228
1772810441203237400,0.2572373046875,-0.0003994738217443228,0.00026631588116288185,0.0009321055840700865
1772810441213117200,0.2671171875,0.0006657897029072046,-0.0007989476434886456,-0.0006657897029072046
1772810441222996700,0.276996826171875,0.0006657897029072046,-0.0007989476434886456,0.0009321055840700865
1772810441232876500,0.28687646484375,0.0006657897029072046,0.00026631588116288185,-0.0006657897029072046
1772810441242756400,0.29675634765625,0.00013315794058144093,0.00026631588116288185,-0.0011984214652329683
1772810441252636000,0.306635986328125,0.0006657897029072046,0.0013315794058144093,0.0003994738217443228
1772810441262515700,0.316515625,0.00013315794058144093,-0.00026631588116288185,-0.0006657897029072046
1772810441272395300,0.326395263671875,0.00013315794058144093,0.00026631588116288185,-0.0005326317623257637
1772810441282275000,0.336275146484375,0.00013315794058144093,-0.0013315794058144093,-0.0010652635246515274
1772810441292154600,0.346154541015625,-0.0003994738217443228,-0.0009321055840700865,-0.0005326317623257637
1772810441302034400,0.356034423828125,0.0006657897029072046,0.001731053227558732,0.0010652635246515274
1772810441311914000,0.3659140625,0.0006657897029072046,-0.0003994738217443228,0
1772810441321793800,0.375793701171875,-0.0009321055840700865,0.0006657897029072046,-0.001597895286977291
1772810441331673600,0.385673583984375,0.0006657897029072046,-0.0003994738217443228,-0.0005326317623257637
1772810441341553200,0.39555322265625,0.00013315794058144093,0.00013315794058144093,-0.0010652635246515274
1772810441351433000,0.405432861328125,0.00013315794058144093,-0.0009321055840700865,-0.0005326317623257637
1772810441361312500,0.4153125,0.00013315794058144093,-0.0013315794058144093,-0.00013315794058144093
1772810441371192300,0.4251923828125,-0.0014647373463958502,0.00026631588116288185,-0.0006657897029072046
1772810441381072000,0.43507177734375,-0.0009321055840700865,-0.0013315794058144093,-0.0006657897029072046
1772810441390951700,0.44495166015625,0.00013315794058144093,-0.0013315794058144093,-0.00013315794058144093
1772810441400831200,0.454831298828125,0.0006657897029072046,0.00026631588116288185,-0.0006657897029072046
1772810441410711000,0.4647109375,-0.0009321055840700865,-0.00026631588116288185,-0.0011984214652329683
1772810441420590800,0.4745908203125,0.0011984214652329683,0.00026631588116288185,-0.0006657897029072046
1772810441430470400,0.484470458984375,-0.0003994738217443228,0.00026631588116288185,-0.0006657897029072046
1772810441440350200,0.49435009765625,0.0027963167522102594,-0.0013315794058144093,0.0009321055840700865
1772810441450229800,0.504229736328125,-0.0014647373463958502,0.00026631588116288185,-0.0006657897029072046
1772810441460109600,0.514109619140625,-0.0003994738217443228,0.001864211168140173,0.0003994738217443228
1772810441469989000,0.523989013671875,-0.0014647373463958502,0.0013315794058144093,-0.00013315794058144093
1772810441479869000,0.533868896484375,0.0006657897029072046,-0.00026631588116288185,0.0003994738217443228
1772810441489748500,0.54374853515625,0.0011984214652329683,0.0013315794058144093,-0.0006657897029072046
1772810441499628000,0.5536279296875,-0.001997369108721614,0.0007989476434886456,-0.00013315794058144093
1772810441509507600,0.563507568359375,-0.0014647373463958502,0.00026631588116288185,0.0003994738217443228
1772810441519387000,0.573386962890625,0.0006657897029072046,-0.0007989476434886456,0.0003994738217443228
1772810441529266400,0.583266357421875,-0.0003994738217443228,-0.00026631588116288185,0.0003994738217443228
1772810441539145700,0.593145751953125,-0.0014647373463958502,0.00026631588116288185,-0.00013315794058144093
1772810441549025300,0.603025390625,-0.0009321055840700865,0.0023968429304659367,-0.0006657897029072046
1772810441558904600,0.612904541015625,0.00013315794058144093,-0.0007989476434886456,-0.001731053227558732
1772810441568784100,0.6227841796875,0.0006657897029072046,0.0023968429304659367,-0.00013315794058144093
1772810441578663700,0.63266357421875,-0.0003994738217443228,0.0007989476434886456,0.0003994738217443228
1772810441588543000,0.64254296875,0.0006657897029072046,0.0007989476434886456,-0.0006657897029072046
1772810441598422500,0.652422607421875,0.0006657897029072046,-0.00026631588116288185,-0.0022636849898844957
1772810441608301800,0.6623017578125,0.0011984214652329683,0.00026631588116288185,-0.0006657897029072046
1772810441618181400,0.672181396484375,-0.0009321055840700865,-0.001864211168140173,0.0003994738217443228
1772810441628060700,0.682060791015625,0.0011984214652329683,-0.00026631588116288185,-0.0011984214652329683
1772810441637940200,0.691940185546875,0.0011984214652329683,-0.0007989476434886456,0.0003994738217443228
1772810441647819800,0.70181982421875,0.0006657897029072046,0.0007989476434886456,0.0014647373463958502
1772810441657699000,0.711698974609375,0.0006657897029072046,0.00026631588116288185,0.0003994738217443228
1772810441667578600,0.72157861328125,0.0006657897029072046,0.0013315794058144093,-0.00013315794058144093
1772810441677458000,0.7314580078125,-0.0009321055840700865,0.00026631588116288185,0.0009321055840700865
1772810441687337500,0.74133740234375,-0.0003994738217443228,0.0007989476434886456,-0.0006657897029072046
1772810441697216800,0.751216796875,-0.0003994738217443228,0.00026631588116288185,0.0003994738217443228
1772810441707096300,0.761096435546875,0.0006657897029072046,0.0007989476434886456,0.0003994738217443228
1772810441716975600,0.7709755859375,0.001731053227558732,0.001864211168140173,-0.001731053227558732
1772810441726855200,0.780855224609375,-0.001997369108721614,0.00026631588116288185,-0.0011984214652329683
1772810441736734500,0.790734375,0.00013315794058144093,0.001864211168140173,-0.0006657897029072046
1772810441746614000,0.800614013671875,-0.0003994738217443228,-0.00026631588116288185,0.0009321055840700865
1772810441756493300,0.810493408203125,-0.0009321055840700865,0.00026631588116288185,0.0003994738217443228
1772810441766372900,0.820372802734375,-0.0014647373463958502,-0.0013315794058144093,-0.0011984214652329683
1772810441776252400,0.83025244140625,-0.0003994738217443228,0.001864211168140173,-0.00013315794058144093
1772810441786131700,0.840131591796875,0.0006657897029072046,0.001864211168140173,-0.00013315794058144093
1772810441796011300,0.85001123046875,0.0006657897029072046,0.0007989476434886456,0.0009321055840700865
1772810441805890600,0.859890625,-0.0009321055840700865,0.00026631588116288185,-0.0022636849898844957
1772810441815770000,0.86977001953125,-0.0009321055840700865,-0.00026631588116288185,-0.00013315794058144093
1772810441825649400,0.8796494140625,-0.0009321055840700865,-0.0013315794058144093,-0.0011984214652329683
1772810441835529000,0.889529052734375,-0.0009321055840700865,-0.0007989476434886456,0.0009321055840700865
1772810441845408300,0.899408203125,0.001731053227558732,-0.0007989476434886456,-0.001731053227558732
1772810441855287800,0.909287841796875,0.00013315794058144093,-0.0013315794058144093,0.0009321055840700865
1772810441865167000,0.9191669921875,-0.0014647373463958502,0.0007989476434886456,-0.00013315794058144093
1772810441875046700,0.929046630859375,0.0006657897029072046,0.0013315794058144093,-0.00013315794058144093
1772810441884926000,0.938926025390625,0.00013315794058144093,-0.00026631588116288185,-0.00013315794058144093
1772810441894805500,0.948805419921875,0.0011984214652329683,-0.0007989476434886456,-0.00013315794058144093
1772810441904685000,0.95868505859375,0.0011984214652329683,0.0013315794058144093,0.0003994738217443228
1772810441914564400,0.968564453125,-0.001997369108721614,-0.0013315794058144093,-0.0006657897029072046
1772810441924444000,0.97844384765625,0.00013315794058144093,0.0013315794058144093,0.0003994738217443228
1772810441934323200,0.9883232421875,0.00013315794058144093,-0.0007989476434886456,-0.00013315794058144093
1772810441944202800,0.99820263671875,-0.0009321055840700865,0.0007989476434886456,-0.0006657897029072046
1772810441954082000,1.00808203125,0.0006657897029072046,0.0007989476434886456,0.0003994738217443228
1772810441963961600,1.017961669921875,0.0011984214652329683,0.0007989476434886456,-0.00013315794058144093
1772810441973841000,1.0278408203125,0.00013315794058144093,-0.0007989476434886456,-0.0011984214652329683
1772810441983720400,1.037720458984375,0.0006657897029072046,0.001864211168140173,-0.001731053227558732
1772810441993599700,1.047599853515625,-0.0003994738217443228,0.0007989476434886456,-0.00013315794058144093
1772810442003479600,1.0574794921875,0.00013315794058144093,0.001864211168140173,-0.0022636849898844957
1772810442013359600,1.067359619140625,-0.0014647373463958502,0.001864211168140173,-0.0006657897029072046
1772810442023239400,1.077239501953125,-0.0003994738217443228,0.0007989476434886456,0.0003994738217443228
1772810442033119200,1.087119140625,0.0006657897029072046,0.00026631588116288185,0.0003994738217443228
1772810442042999300,1.096999267578125,0.0006657897029072046,0.0013315794058144093,-0.001731053227558732
1772810442052879000,1.106879150390625,-0.0014647373463958502,0.0007989476434886456,-0.0011984214652329683
1772810442062759000,1.116759033203125,0.00013315794058144093,0.00026631588116288185,0.0003994738217443228
1772810442072638700,1.126638671875,0.00013315794058144093,0.00026631588116288185,-0.0011984214652329683
1772810442082518800,1.136518798828125,-0.0003994738217443228,0.0007989476434886456,-0.00013315794058144093
1772810442092398600,1.146398681640625,0.0006657897029072046,-0.001864211168140173,-0.00013315794058144093
1772810442102278400,1.1562783203125,-0.0009321055840700865,-0.00026631588116288185,-0.0011984214652329683
1772810442112158500,1.166158447265625,0.0011984214652329683,-0.0007989476434886456,0.0003994738217443228
1772810442122038300,1.176038330078125,-0.0003994738217443228,0.00026631588116288185,-0.0006657897029072046
1772810442131918000,1.18591796875,-0.0003994738217443228,0.0013315794058144093,0.0009321055840700865
1772810442141798000,1.1957978515625,-0.0003994738217443228,-0.0013315794058144093,-0.0006657897029072046
1772810442151678000,1.205677978515625,0.0006657897029072046,-0.0007989476434886456,-0.001731053227558732
1772810442161557800,1.215557861328125,0.0006657897029072046,0.001864211168140173,-0.00013315794058144093
1772810442171437600,1.2254375,0.0011984214652329683,0.0007989476434886456,-0.0006657897029072046
1772810442181317600,1.235317626953125,-0.0009321055840700865,-0.0007989476434886456,-0.00013315794058144093
1772810442191197400,1.245197509765625,0.00013315794058144093,0.00026631588116288185,-0.00013315794058144093
1772810442201077200,1.2550771484375,0.00013315794058144093,0.001864211168140173,-0.00013315794058144093
1772810442210957000,1.26495703125,-0.0009321055840700865,0.00026631588116288185,-0.00013315794058144093
1772810442220836900,1.2748369140625,-0.0009321055840700865,0.00026631588116288185,0.0003994738217443228
1772810442230717000,1.284717041015625,0.0006657897029072046,0.001864211168140173,-0.0006657897029072046
1772810442240596700,1.2945966796875,0.001731053227558732,-0.00026631588116288185,0.0009321055840700865
1772810442250476500,1.3044765625,-0.0014647373463958502,0.0023968429304659367,-0.00013315794058144093
1772810442260356600,1.314356689453125,-0.0003994738217443228,-0.00026631588116288185,-0.00013315794058144093
1772810442270236400,1.324236328125,0.00013315794058144093,0.0007989476434886456,-0.001731053227558732
1772810442280116200,1.3341162109375,0.0011984214652329683,0.00026631588116288185,-0.0011984214652329683
1772810442289996000,1.34399609375,-0.0003994738217443228,-0.0007989476434886456,-0.0011984214652329683
1772810442299876000,1.3538759765625,0.0011984214652329683,0.00026631588116288185,-0.001731053227558732
1772810442309756000,1.363755859375,-0.0003994738217443228,-0.001864211168140173,0.0009321055840700865
1772810442319635700,1.3736357421875,0.001731053227558732,0.00026631588116288185,0.0003994738217443228
1772810442329515800,1.383515869140625,-0.0009321055840700865,-0.0007989476434886456,-0.00013315794058144093
1772810442339395600,1.3933955078125,0.0006657897029072046,-0.0007989476434886456,0.0003994738217443228
1772810442349275400,1.403275390625,-0.0003994738217443228,0.0007989476434886456,-0.00013315794058144093
1772810442359155200,1.4131552734375,-0.0009321055840700865,-0.0013315794058144093,-0.0006657897029072046
1772810442369035300,1.42303515625,0.0006657897029072046,0.0007989476434886456,0.0003994738217443228
1772810442378915000,1.4329150390625,-0.0003994738217443228,-0.00026631588116288185,-0.0006657897029072046
1772810442388795000,1.442794921875,0.00013315794058144093,0.00026631588116288185,0.0003994738217443228
1772810442398674700,1.4526748046875,0.0006657897029072046,0.00026631588116288185,-0.0011984214652329683
1772810442408554800,1.4625546875,0.0006657897029072046,0.0013315794058144093,0.0003994738217443228
1772810442418434600,1.4724345703125,0.00013315794058144093,-0.0007989476434886456,-0.0011984214652329683
1772810442428314400,1.482314453125,-0.0003994738217443228,-0.0029294746927917004,0.0009321055840700865
1772810442438194400,1.4921943359375,0.00013315794058144093,0.0007989476434886456,-0.001731053227558732
1772810442448074200,1.50207421875,-0.0014647373463958502,-0.0013315794058144093,-0.00013315794058144093
1772810442457954000,1.5119541015625,0.001731053227558732,-0.0007989476434886456,-0.0006657897029072046
1772810442467833900,1.521833740234375,0.00013315794058144093,-0.0007989476434886456,-0.00013315794058144093
1772810442477714000,1.5317138671875,0.00013315794058144093,0.00026631588116288185,-0.0006657897029072046
1772810442487593700,1.54159375,0.0006657897029072046,-0.0007989476434886456,0.0003994738217443228
1772810442497473800,1.551473876953125,0.00013315794058144093,-0.00026631588116288185,-0.00013315794058144093
1772810442507354000,1.56135400390625,0.0011984214652329683,0.00026631588116288185,0.0003994738217443228
1772810442517234400,1.571234375,0.001731053227558732,-0.0013315794058144093,0.0009321055840700865
1772810442527114800,1.58111474609375,-0.0009321055840700865,-0.0007989476434886456,0.0009321055840700865
1772810442536995300,1.590995361328125,0.00013315794058144093,-0.001864211168140173,0.0003994738217443228
1772810442546875600,1.600875732421875,0.0006657897029072046,0.00026631588116288185,-0.0006657897029072046
1772810442556756000,1.610755859375,-0.0009321055840700865,-0.00026631588116288185,-0.0006657897029072046
1772810442566636300,1.62063623046875,-0.0009321055840700865,0.0007989476434886456,-0.00013315794058144093
1772810442576516600,1.6305166015625,0.00013315794058144093,0.0007989476434886456,-0.0011984214652329683
1772810442586397200,1.640397216796875,-0.0003994738217443228,-0.00026631588116288185,0.0014647373463958502
1772810442596277500,1.650277587890625,-0.001997369108721614,-0.00026631588116288185,0.0009321055840700865
1772810442606157800,1.66015771484375,-0.0014647373463958502,0.00026631588116288185,-0.0006657897029072046
1772810442616038100,1.6700380859375,0.00013315794058144093,0.00026631588116288185,0.0009321055840700865
1772810442625918700,1.679918701171875,0.0011984214652329683,-0.0007989476434886456,-0.00013315794058144093
1772810442635799000,1.689799072265625,0.0006657897029072046,-0.00026631588116288185,0.0009321055840700865
1772810442645679400,1.699679443359375,-0.0014647373463958502,-0.001864211168140173,-0.0011984214652329683
1772810442655559700,1.7095595703125,0.00013315794058144093,-0.00026631588116288185,-0.0011984214652329683
1772810442665440000,1.71943994140625,0.0011984214652329683,0.001864211168140173,0.0014647373463958502
1772810442675320600,1.729320556640625,-0.0003994738217443228,0.0013315794058144093,-0.0006657897029072046
1772810442685201000,1.739200927734375,0.0006657897029072046,-0.001864211168140173,0.0003994738217443228
1772810442695081200,1.749081298828125,0.0006657897029072046,0.00026631588116288185,-0.0006657897029072046
1772810442704961500,1.75896142578125,0.00013315794058144093,-0.0013315794058144093,-0.0006657897029072046
1772810442714842000,1.768842041015625,0.0006657897029072046,-0.0007989476434886456,0.0003994738217443228
1772810442724722400,1.778722412109375,0.0011984214652329683,0.00026631588116288185,-0.0006657897029072046
1772810442734602800,1.788602783203125,0.00013315794058144093,0.0007989476434886456,0.0009321055840700865
1772810442744483000,1.798483154296875,-0.0009321055840700865,-0.00026631588116288185,-0.00013315794058144093
1772810442754363400,1.80836328125,0.0006657897029072046,0.0013315794058144093,-0.0006657897029072046
1772810442764244000,1.818243896484375,-0.0003994738217443228,-0.00026631588116288185,0.0009321055840700865
1772810442774124300,1.828124267578125,0.0006657897029072046,0.0007989476434886456,-0.00013315794058144093
1772810442784004600,1.838004638671875,0.00013315794058144093,0.0007989476434886456,0.0003994738217443228
1772810442793885000,1.847885009765625,0.00013315794058144093,-0.001864211168140173,0.0003994738217443228
1772810442803765500,1.857765625,0.00013315794058144093,-0.00026631588116288185,-0.0011984214652329683
1772810442813645800,1.867645751953125,0.00013315794058144093,-0.0013315794058144093,0.0014647373463958502
1772810442823526100,1.877526123046875,-0.0014647373463958502,0.0023968429304659367,0.0003994738217443228
1772810442833406500,1.887406494140625,-0.0014647373463958502,0.00026631588116288185,0.0003994738217443228
1772810442843287000,1.897287109375,0.00013315794058144093,-0.0013315794058144093,-0.0011984214652329683
1772810442853167400,1.90716748046875,-0.0009321055840700865,-0.0013315794058144093,0.0009321055840700865
1772810442863047700,1.917047607421875,0.0011984214652329683,-0.001864211168140173,-0.00013315794058144093
1772810442872928000,1.926927978515625,0.0011984214652329683,-0.001864211168140173,-0.00013315794058144093
1772810442882808300,1.936808349609375,0.00013315794058144093,-0.0007989476434886456,-0.0006657897029072046
1772810442892689000,1.94668896484375,0.00013315794058144093,0.0011984214652329683,-0.0003994738217443228
1772810442902569200,1.9565693359375,-0.0003994738217443228,-0.0014647373463958502,0.0011984214652329683
1772810442912449500,1.966449462890625,0.0006657897029072046,-0.0003994738217443228,-0.0003994738217443228
1772810442922329900,1.976329833984375,-0.0003994738217443228,0.00013315794058144093,0.0022636849898844957
1772810442932210400,1.98621044921875,0.0006657897029072046,-0.0003994738217443228,-0.0003994738217443228
1772810442942090800,1.9960908203125,0.0006657897029072046,-0.0009321055840700865,0.001731053227558732
1772810442951971000,2.00597119140625,0.0011984214652329683,0.00013315794058144093,0.0006657897029072046
1772810442961851400,2.015851318359375,0.00013315794058144093,-0.0003994738217443228,0.0006657897029072046
1772810442971731700,2.025731689453125,-0.0003994738217443228,-0.0009321055840700865,0.0011984214652329683
1772810442981612300,2.0356123046875,0.00013315794058144093,0.001731053227558732,0.001731053227558732
1772810442991492600,2.04549267578125,-0.0003994738217443228,0.00013315794058144093,0.00013315794058144093
1772810443001372700,2.05537255859375,0.00013315794058144093,0.0011984214652329683,0.00013315794058144093
1772810443011252700,2.065252685546875,0.00013315794058144093,0.00013315794058144093,0.001731053227558732
1772810443021132800,2.0751328125,-0.0014647373463958502,-0.001997369108721614,0.00013315794058144093
1772810443031012900,2.085012939453125,-0.001997369108721614,0.00013315794058144093,-0.0003994738217443228
1772810443040893000,2.094892822265625,0.00013315794058144093,-0.0003994738217443228,-0.0009321055840700865
1772810443050773000,2.10477294921875,0.0006657897029072046,-0.0009321055840700865,0.00013315794058144093
1772810443060653000,2.114653076171875,0.00013315794058144093,0.001731053227558732,0.0022636849898844957
1772810443070533000,2.124533203125,-0.0003994738217443228,0.0011984214652329683,-0.0003994738217443228
1772810443080413200,2.1344130859375,0.00013315794058144093,-0.001997369108721614,0.00013315794058144093
1772810443090293200,2.144293212890625,-0.0003994738217443228,-0.0003994738217443228,-0.0003994738217443228
1772810443100173300,2.15417333984375,0.00013315794058144093,-0.0009321055840700865,0.0011984214652329683
1772810443110053400,2.164053466796875,-0.0003994738217443228,0.0011984214652329683,-0.0003994738217443228
1772810443119933400,2.173933349609375,0.0006657897029072046,0.0011984214652329683,-0.0003994738217443228
1772810443129813500,2.1838134765625,-0.0003994738217443228,-0.0009321055840700865,0.00013315794058144093
1772810443139693600,2.193693603515625,-0.0003994738217443228,-0.0009321055840700865,0.00013315794058144093
1772810443149573400,2.203573486328125,-0.0014647373463958502,-0.0014647373463958502,0.0006657897029072046
1772810443159453400,2.213453369140625,-0.0003994738217443228,-0.0009321055840700865,0.0011984214652329683
1772810443169333500,2.22333349609375,0.0011984214652329683,-0.0003994738217443228,0.0006657897029072046
1772810443179213600,2.233213623046875,0.00013315794058144093,-0.0003994738217443228,-0.0009321055840700865
1772810443189093600,2.24309375,-0.0003994738217443228,-0.0003994738217443228,0.0006657897029072046
1772810443198973700,2.2529736328125,0.0006657897029072046,-0.004660528153181076,-0.0003994738217443228
1772810443208853800,2.262853759765625,-0.0009321055840700865,0.00013315794058144093,-0.0003994738217443228
1772810443218733800,2.27273388671875,-0.0003994738217443228,0.00013315794058144093,-0.0003994738217443228
1772810443228614000,2.28261376953125,0.00013315794058144093,-0.0003994738217443228,0.0006657897029072046
1772810443238494000,2.292493896484375,-0.0003994738217443228,0.00013315794058144093,-0.0003994738217443228
1772810443248374000,2.3023740234375,-0.0009321055840700865,-0.0009321055840700865,0.0006657897029072046
1772810443258254000,2.312254150390625,0.00013315794058144093,-0.0025300008710473776,0.0011984214652329683
1772810443268134100,2.322134033203125,-0.0003994738217443228,0.00013315794058144093,0.0011984214652329683
1772810443278014200,2.33201416015625,-0.0003994738217443228,0.00013315794058144093,-0.0003994738217443228
1772810443287894300,2.341894287109375,-0.0003994738217443228,0.0006657897029072046,0.00013315794058144093
1772810443297774300,2.3517744140625,-0.0003994738217443228,-0.0009321055840700865,0.00013315794058144093
1772810443307654400,2.361654296875,-0.0003994738217443228,-0.0009321055840700865,0.0006657897029072046
1772810443317534200,2.3715341796875,0.00013315794058144093,-0.0009321055840700865,-0.0003994738217443228
1772810443327414300,2.381414306640625,0.0006657897029072046,0.0006657897029072046,0.0011984214652329683
1772810443337294300,2.39129443359375,-0.0003994738217443228,-0.0009321055840700865,0.0006657897029072046
1772810443347174400,2.40117431640625,0.00013315794058144093,-0.0003994738217443228,0.00013315794058144093
1772810443357054500,2.411054443359375,0.001731053227558732,0.001731053227558732,-0.0009321055840700865
1772810443366934500,2.4209345703125,0.0011984214652329683,0.0006657897029072046,0.0006657897029072046
1772810443376814600,2.430814697265625,0.0011984214652329683,0.00013315794058144093,0.0006657897029072046
1772810443386694700,2.440694580078125,-0.0009321055840700865,0.0011984214652329683,-0.0009321055840700865
1772810443396574700,2.45057470703125,-0.0009321055840700865,0.0006657897029072046,0.00013315794058144093
1772810443406454800,2.460454833984375,0.00013315794058144093,-0.0003994738217443228,0.0006657897029072046
1772810443416334800,2.4703349609375,-0.0003994738217443228,0.00013315794058144093,0.00013315794058144093
1772810443426215000,2.48021484375,0.0006657897029072046,0.0006657897029072046,0.00013315794058144093
1772810443436095000,2.490094970703125,0.00013315794058144093,0.00013315794058144093,0.0006657897029072046
1772810443445975000,2.49997509765625,0.00013315794058144093,-0.0014647373463958502,0.0011984214652329683
1772810443455855000,2.509855224609375,0.0011984214652329683,-0.0009321055840700865,0.001731053227558732
1772810443465735200,2.519735107421875,0.00013315794058144093,-0.0003994738217443228,-0.0003994738217443228
1772810443475615200,2.529615234375,-0.001997369108721614,-0.001997369108721614,0.0011984214652329683
1772810443485495300,2.539495361328125,-0.0003994738217443228,0.0011984214652329683,-0.0009321055840700865
1772810443495375000,2.549375,-0.0003994738217443228,0.0011984214652329683,-0.0003994738217443228
1772810443505255700,2.559255615234375,0.001731053227558732,-0.0014647373463958502,0.00013315794058144093
1772810443515136300,2.56913623046875,-0.0014647373463958502,-0.0003994738217443228,0.0022636849898844957
1772810443525016600,2.5790166015625,-0.0014647373463958502,-0.0009321055840700865,0.00013315794058144093
1772810443534897200,2.588897216796875,0.0006657897029072046,0.0006657897029072046,-0.0003994738217443228
1772810443544777700,2.59877783203125,0.0006657897029072046,0.00013315794058144093,-0.0003994738217443228
1772810443554658000,2.608657958984375,0.001731053227558732,0.00013315794058144093,0.00013315794058144093
1772810443564538600,2.61853857421875,0.00013315794058144093,-0.0009321055840700865,0.0006657897029072046
1772810443574419200,2.628419189453125,-0.0003994738217443228,-0.0009321055840700865,-0.0003994738217443228
1772810443584299500,2.638299560546875,-0.001997369108721614,0.0027963167522102594,0.0011984214652329683
1772810443594180000,2.64818017578125,-0.0009321055840700865,0.00013315794058144093,0.00013315794058144093
1772810443604060700,2.658060791015625,0.00013315794058144093,-0.001997369108721614,0.0006657897029072046
1772810443613941000,2.66794091796875,-0.0003994738217443228,-0.0014647373463958502,0.0022636849898844957
1772810443623821600,2.677821533203125,0.0006657897029072046,-0.0014647373463958502,0.0006657897029072046
1772810443633702100,2.6877021484375,0.00013315794058144093,-0.0003994738217443228,0.001731053227558732
1772810443643582500,2.69758251953125,0.00013315794058144093,0.0011984214652329683,-0.0003994738217443228
1772810443653463000,2.707463134765625,0.0006657897029072046,0.001731053227558732,-0.0003994738217443228
1772810443663343600,2.717343505859375,-0.0003994738217443228,0.0006657897029072046,-0.0009321055840700865
1772810443673224000,2.727223876953125,-0.0014647373463958502,0.00013315794058144093,-0.0003994738217443228
1772810443683104500,2.7371044921875,0.0006657897029072046,0.00013315794058144093,-0.0003994738217443228
1772810443692985000,2.746985107421875,0.0006657897029072046,-0.0003994738217443228,0.00013315794058144093
1772810443702865400,2.756865478515625,0.00013315794058144093,-0.0003994738217443228,0.0011984214652329683
1772810443712746000,2.76674609375,-0.0014647373463958502,-0.0014647373463958502,0.0011984214652329683
1772810443722626300,2.776626220703125,-0.0014647373463958502,-0.0003994738217443228,0.001731053227558732
1772810443732507000,2.7865068359375,-0.0014647373463958502,-0.0003994738217443228,-0.0009321055840700865
1772810443742387500,2.796387451171875,0.0006657897029072046,-0.0003994738217443228,-0.0003994738217443228
1772810443752267800,2.806267822265625,0.00013315794058144093,-0.001997369108721614,0.0006657897029072046
1772810443762148400,2.8161484375,-0.0009321055840700865,-0.0009321055840700865,-0.0014647373463958502
1772810443772029000,2.82602880859375,-0.0003994738217443228,-0.0003994738217443228,0.0006657897029072046
1772810443781909200,2.8359091796875,-0.0009321055840700865,0.0006657897029072046,0.001731053227558732
1772810443791789800,2.845789794921875,0.0006657897029072046,-0.0009321055840700865,-0.0009321055840700865
1772810443801670400,2.85567041015625,0.0011984214652329683,-0.0003994738217443228,0.00013315794058144093
1772810443811550700,2.86555078125,0.00013315794058144093,-0.0025300008710473776,-0.0003994738217443228
1772810443821431300,2.875431396484375,0.00013315794058144093,0.0006657897029072046,0.0006657897029072046
1772810443841192200,2.895192138671875,0.0006657897029072046,0.00013315794058144093,0.0011984214652329683
1772810443851072800,2.90507275390625,-0.0003994738217443228,-0.0009321055840700865,0.00013315794058144093
1772810443860953300,2.914953369140625,0.00013315794058144093,-0.0009321055840700865,0.00013315794058144093
1772810443870833700,2.924833740234375,-0.0003994738217443228,0.00013315794058144093,-0.0003994738217443228
1772810443880714200,2.93471435546875,0.0006657897029072046,0.00013315794058144093,0.0011984214652329683
1772810443890594800,2.9445947265625,0.0011984214652329683,0.0006657897029072046,0.00013315794058144093
1772810443900475100,2.95447509765625,-0.0003994738217443228,0.0006657897029072046,-0.0009321055840700865
1772810443910355700,2.964355712890625,-0.0009321055840700865,-0.0009321055840700865,0.0006657897029072046
1772810443920236000,2.974236083984375,0.0006657897029072046,0.0006657897029072046,-0.0014647373463958502
1772810443930116600,2.98411669921875,0.00013315794058144093,0.0011984214652329683,-0.0003994738217443228
1772810443939997200,2.9939970703125,0.0006657897029072046,-0.0003994738217443228,0.0011984214652329683
1772810443949877500,3.00387744140625,0.0006657897029072046,0.0011984214652329683,0.0011984214652329683
1772810443959758000,3.013758056640625,0.00013315794058144093,-0.0003994738217443228,0.0011984214652329683
1772810443979519000,3.03351904296875,0.00013315794058144093,0.0011984214652329683,-0.0003994738217443228
1772810443989399600,3.043399658203125,0.00013315794058144093,0.0006657897029072046,0.0006657897029072046
1772810443999279900,3.05327978515625,0.0011984214652329683,0.0006657897029072046,-0.0003994738217443228
1772810444019040300,3.073040283203125,-0.0003994738217443228,0.0011984214652329683,0.0006657897029072046
1772810444028920600,3.082920654296875,0.0006657897029072046,0.00013315794058144093,0.0011984214652329683
1772810444038800600,3.092800537109375,0.00013315794058144093,-0.0014647373463958502,0.00013315794058144093
1772810444048681000,3.102680908203125,-0.0009321055840700865,-0.0009321055840700865,0.0006657897029072046
1772810444058561000,3.11256103515625,-0.0025300008710473776,-0.0009321055840700865,0.00013315794058144093
1772810444068441000,3.122441162109375,-0.0009321055840700865,-0.0014647373463958502,-0.0009321055840700865
1772810444078321400,3.1323212890625,0.00013315794058144093,0.0006657897029072046,-0.0009321055840700865
1772810444088201500,3.142201416015625,0.0006657897029072046,-0.0014647373463958502,0.0006657897029072046
1772810444098081800,3.152081787109375,0.00013315794058144093,-0.0003994738217443228,0.00013315794058144093
1772810444107961900,3.1619619140625,0.00013315794058144093,0.001731053227558732,-0.0003994738217443228
1772810444117842200,3.17184228515625,0.0022636849898844957,0.0006657897029072046,0.0006657897029072046
1772810444127722200,3.18172216796875,-0.0003994738217443228,0.00013315794058144093,0.0011984214652329683
1772810444137602600,3.1916025390625,0.0011984214652329683,-0.001997369108721614,-0.0009321055840700865
1772810444147482600,3.201482666015625,-0.0003994738217443228,-0.0009321055840700865,-0.0003994738217443228
1772810444157363000,3.211363037109375,-0.0009321055840700865,-0.0003994738217443228,-0.0003994738217443228
1772810444167243000,3.221242919921875,-0.0014647373463958502,-0.0003994738217443228,0.0011984214652329683
1772810444177123000,3.231123046875,0.0006657897029072046,0.0011984214652329683,-0.0003994738217443228
1772810444187003400,3.24100341796875,0.0006657897029072046,0.001731053227558732,-0.0009321055840700865
1772810444196883500,3.250883544921875,-0.0003994738217443228,0.0011984214652329683,0.0006657897029072046
1772810444206763800,3.260763671875,0.0006657897029072046,-0.0003994738217443228,0.0022636849898844957
1772810444216643800,3.270643798828125,0.00013315794058144093,0.0011984214652329683,-0.0003994738217443228
1772810444226524200,3.280524169921875,-0.001997369108721614,-0.0009321055840700865,0.0006657897029072046
1772810444236404200,3.290404296875,0.0011984214652329683,0.001731053227558732,-0.0003994738217443228
1772810444246284500,3.300284423828125,-0.0003994738217443228,0.0006657897029072046,-0.0009321055840700865
1772810444256164600,3.31016455078125,0.0011984214652329683,0.00013315794058144093,-0.0003994738217443228
1772810444266045000,3.320044921875,0.0011984214652329683,0.00013315794058144093,0.0011984214652329683
1772810444275925000,3.329925048828125,-0.001997369108721614,-0.0009321055840700865,-0.0003994738217443228
1772810444285805000,3.33980517578125,-0.0009321055840700865,-0.0003994738217443228,0.0006657897029072046
1772810444295685400,3.349685302734375,0.0006657897029072046,-0.0014647373463958502,-0.0003994738217443228
1772810444305565400,3.3595654296875,0.0006657897029072046,-0.0009321055840700865,0.001731053227558732
1772810444315445800,3.36944580078125,0.0006657897029072046,-0.0025300008710473776,-0.0003994738217443228
1772810444325325800,3.379325927734375,0.0006657897029072046,0.0006657897029072046,0.00013315794058144093
1772810444335206100,3.3892060546875,0.0006657897029072046,0.00013315794058144093,-0.0009321055840700865
1772810444345086200,3.399086181640625,-0.0003994738217443228,0.00013315794058144093,-0.0003994738217443228
1772810444354966500,3.408966552734375,-0.0003994738217443228,-0.0009321055840700865,0.0011984214652329683
1772810444364846600,3.4188466796875,0.0006657897029072046,-0.0003994738217443228,-0.0003994738217443228
1772810444374726700,3.4287265625,0.00013315794058144093,0.0011984214652329683,-0.0009321055840700865
1772810444384607000,3.43860693359375,-0.0003994738217443228,-0.0003994738217443228,0.00013315794058144093
1772810444394487000,3.448487060546875,0.0006657897029072046,0.00013315794058144093,0.0006657897029072046
1772810444404367400,3.458367431640625,-0.0003994738217443228,-0.0003994738217443228,-0.0009321055840700865
1772810444414247400,3.468247314453125,-0.0003994738217443228,0.0006657897029072046,0.00013315794058144093
1772810444424127700,3.478127685546875,0.0011984214652329683,0.00013315794058144093,0.00013315794058144093
1772810444434007800,3.4880078125,-0.0003994738217443228,-0.0003994738217443228,0.00013315794058144093
1772810444443888000,3.49788818359375,0.0006657897029072046,-0.0009321055840700865,-0.0003994738217443228
1772810444453768200,3.507768310546875,-0.0009321055840700865,0.001731053227558732,-0.0009321055840700865
1772810444463648500,3.5176484375,0.00013315794058144093,-0.0009321055840700865,-0.0009321055840700865
1772810444473528600,3.527528564453125,-0.0003994738217443228,-0.0003994738217443228,0.00013315794058144093
1772810444483408600,3.53740869140625,0.00013315794058144093,-0.0014647373463958502,0.0011984214652329683
1772810444493289000,3.5472890625,0.0022636849898844957,0.00013315794058144093,-0.0009321055840700865
1772810444503169000,3.5571689453125,-0.0003994738217443228,-0.0003994738217443228,0.0006657897029072046
1772810444513049000,3.567049072265625,0.0011984214652329683,-0.0009321055840700865,-0.0003994738217443228
1772810444522929200,3.57692919921875,0.0011984214652329683,-0.0009321055840700865,0.0006657897029072046
1772810444532809000,3.58680908203125,0.00013315794058144093,0.0006657897029072046,0.0006657897029072046
1772810444542689000,3.59668896484375,0.00013315794058144093,0.0022636849898844957,0.0006657897029072046
1772810444552569000,3.606569091796875,-0.0014647373463958502,0.0022636849898844957,0.0006657897029072046
1772810444562449200,3.61644921875,-0.0009321055840700865,0.00013315794058144093,-0.0009321055840700865
1772810444572329200,3.6263291015625,-0.0003994738217443228,-0.0009321055840700865,0.0022636849898844957
1772810444582209300,3.636209228515625,0.0006657897029072046,-0.0009321055840700865,-0.0003994738217443228
1772810444592089300,3.64608935546875,-0.0009321055840700865,-0.001997369108721614,0.0006657897029072046
1772810444601969400,3.655969482421875,0.0006657897029072046,-0.0014647373463958502,-0.0009321055840700865
1772810444611849500,3.665849365234375,0.0006657897029072046,-0.0009321055840700865,0.00013315794058144093
1772810444621729500,3.6757294921875,0.0006657897029072046,0.0006657897029072046,0.00013315794058144093
1772810444631609600,3.685609619140625,0.0011984214652329683,0.0011984214652329683,-0.0003994738217443228
1772810444641489700,3.69548974609375,-0.0003994738217443228,-0.0009321055840700865,0.0006657897029072046
1772810444651369500,3.705369384765625,-0.0009321055840700865,-0.0025300008710473776,0.0011984214652329683
1772810444661249500,3.71524951171875,-0.0003994738217443228,-0.0014647373463958502,-0.0003994738217443228
1772810444671129600,3.725129638671875,0.0006657897029072046,-0.00013315794058144093,0.0003994738217443228
1772810444681009700,3.735009765625,-0.0003994738217443228,0.0014647373463958502,-0.00013315794058144093
1772810444690889700,3.7448896484375,0.0006657897029072046,0.0014647373463958502,-0.0006657897029072046
1772810444700769800,3.754769775390625,0.00013315794058144093,-0.00013315794058144093,-0.0011984214652329683
1772810444710649900,3.76464990234375,0.00013315794058144093,-0.00013315794058144093,-0.00013315794058144093
1772810444720530000,3.774530029296875,-0.0014647373463958502,-0.0011984214652329683,0.0003994738217443228
1772810444730410000,3.784409912109375,0.001731053227558732,-0.0011984214652329683,0.0003994738217443228
1772810444740290000,3.7942900390625,0.00013315794058144093,-0.00013315794058144093,0.0003994738217443228
1772810444750170000,3.804170166015625,0.00013315794058144093,0.0009321055840700865,-0.00013315794058144093
1772810444760050200,3.81405029296875,-0.0009321055840700865,-0.0006657897029072046,-0.001731053227558732
1772810444769930200,3.82393017578125,0.001731053227558732,-0.0006657897029072046,-0.00013315794058144093
1772810444779810300,3.833810302734375,0.0011984214652329683,0.0003994738217443228,0.001997369108721614
1772810444789690400,3.8436904296875,-0.0003994738217443228,-0.0006657897029072046,-0.00013315794058144093
1772810444799570200,3.853570068359375,0.001731053227558732,0.0003994738217443228,-0.0006657897029072046
1772810444809450200,3.8634501953125,0.0006657897029072046,-0.001731053227558732,-0.0006657897029072046
1772810444819330300,3.873330322265625,0.00013315794058144093,-0.0006657897029072046,-0.00013315794058144093
1772810444829210400,3.88321044921875,0.0006657897029072046,-0.0006657897029072046,0.0003994738217443228
1772810444839090400,3.89309033203125,-0.0003994738217443228,-0.00013315794058144093,-0.00013315794058144093
1772810444848970500,3.902970458984375,-0.0009321055840700865,-0.00013315794058144093,-0.00013315794058144093
1772810444858850600,3.9128505859375,0.00013315794058144093,0.0009321055840700865,0.0009321055840700865
1772810444868730600,3.922730712890625,-0.0009321055840700865,0.0009321055840700865,0.0009321055840700865
1772810444878610700,3.932610595703125,0.00013315794058144093,-0.00013315794058144093,-0.00013315794058144093
1772810444888490800,3.94249072265625,-0.0003994738217443228,0.0003994738217443228,-0.00013315794058144093
1772810444898370800,3.952370849609375,-0.0014647373463958502,0.0009321055840700865,0.001997369108721614
1772810444908251000,3.9622509765625,0.00013315794058144093,0.0003994738217443228,-0.00013315794058144093
1772810444918131000,3.972130859375,0.00013315794058144093,0.0003994738217443228,-0.001731053227558732
1772810444928011000,3.982010986328125,0.0006657897029072046,-0.0006657897029072046,0.0003994738217443228
1772810444937891000,3.99189111328125,0.00013315794058144093,0.001997369108721614,-0.00013315794058144093
1772810444947771000,4.00177099609375,-0.0009321055840700865,0.0009321055840700865,0.001997369108721614
1772810444957651000,4.01165087890625,0.0006657897029072046,0.0003994738217443228,0.0009321055840700865
1772810444967531000,4.021531005859375,-0.0003994738217443228,0.0014647373463958502,0.0009321055840700865
1772810444977411000,4.0314111328125,0.00013315794058144093,-0.00013315794058144093,-0.00013315794058144093
1772810444987291100,4.041291015625,-0.0009321055840700865,0.0014647373463958502,0.0003994738217443228
1772810444997171000,4.0511708984375,0.0011984214652329683,-0.001731053227558732,0.001997369108721614
1772810445007050200,4.06105029296875,0.0011984214652329683,0.0009321055840700865,-0.0011984214652329683
1772810445016929500,4.070929443359375,-0.0014647373463958502,-0.0011984214652329683,-0.0006657897029072046
1772810445036688000,4.09068798828125,-0.0003994738217443228,0.0025300008710473776,-0.00013315794058144093
1772810445046567200,4.100567138671875,0.00013315794058144093,-0.001731053227558732,-0.0011984214652329683
1772810445056446500,4.110446533203125,0.0006657897029072046,0.0014647373463958502,-0.0011984214652329683
1772810445066325800,4.12032568359375,0.00013315794058144093,0.0003994738217443228,-0.00013315794058144093
1772810445076204800,4.130204833984375,0.0006657897029072046,-0.00013315794058144093,-0.00013315794058144093
1772810445086084000,4.140083984375,0.0011984214652329683,-0.00013315794058144093,-0.00013315794058144093
1772810445095963400,4.14996337890625,-0.0003994738217443228,0.0003994738217443228,0.0014647373463958502
1772810445105842700,4.1598427734375,0.0006657897029072046,-0.00013315794058144093,-0.0006657897029072046
1772810445125601300,4.179601318359375,0.00013315794058144093,0.0003994738217443228,-0.0011984214652329683
1772810445135480300,4.189480224609375,-0.001997369108721614,-0.001731053227558732,0.0009321055840700865
1772810445145359600,4.199359619140625,0.00013315794058144093,-0.00013315794058144093,0.0014647373463958502
1772810445155239000,4.209239013671875,-0.0014647373463958502,-0.0011984214652329683,-0.00013315794058144093
1772810445165118200,4.2191181640625,0.0006657897029072046,-0.00013315794058144093,-0.00013315794058144093
1772810445174997200,4.228997314453125,0.00013315794058144093,-0.0006657897029072046,-0.0006657897029072046
1772810445184876500,4.23887646484375,0.00013315794058144093,-0.001731053227558732,-0.0011984214652329683
1772810445194755800,4.248755859375,0.0006657897029072046,-0.0006657897029072046,0.0014647373463958502
1772810445204635100,4.25863525390625,0.00013315794058144093,-0.0006657897029072046,-0.0011984214652329683
1772810445214514200,4.26851416015625,0.0011984214652329683,-0.0011984214652329683,0.0003994738217443228
1772810445224393500,4.2783935546875,0.00013315794058144093,0.0014647373463958502,0.0003994738217443228
1772810445234272800,4.288272705078125,0.0011984214652329683,0.0003994738217443228,0.0003994738217443228
1772810445244152000,4.298152099609375,-0.0003994738217443228,-0.00013315794058144093,-0.00013315794058144093
1772810445254031400,4.30803125,0.0006657897029072046,0.0014647373463958502,-0.0011984214652329683
1772810445263910400,4.317910400390625,0.0011984214652329683,-0.0011984214652329683,0.0003994738217443228
1772810445273789700,4.327789794921875,-0.0003994738217443228,-0.00013315794058144093,0.0003994738217443228
1772810445283669000,4.3376689453125,0.00013315794058144093,0.0014647373463958502,-0.00013315794058144093
1772810445293548300,4.34754833984375,0.0011984214652329683,-0.0011984214652329683,0.0009321055840700865
1772810445303427600,4.357427490234375,-0.0009321055840700865,0.001997369108721614,-0.00013315794058144093
1772810445313306600,4.367306640625,-0.001997369108721614,0.0003994738217443228,0.0009321055840700865
1772810445323186000,4.37718603515625,-0.0003994738217443228,0.001997369108721614,-0.0011984214652329683
1772810445333065200,4.387065185546875,0.0006657897029072046,-0.00013315794058144093,0.0003994738217443228
1772810445342944500,4.396944580078125,0.00013315794058144093,-0.0006657897029072046,-0.0006657897029072046
1772810445352823600,4.406823486328125,0.0011984214652329683,0.0009321055840700865,-0.0011984214652329683
1772810445362702800,4.416702880859375,0.00013315794058144093,-0.00013315794058144093,0.0009321055840700865
1772810445372582100,4.42658203125,-0.0009321055840700865,-0.00013315794058144093,0.001997369108721614
1772810445392340700,4.4463408203125,0.0006657897029072046,0.0003994738217443228,0.0014647373463958502
1772810445402219800,4.4562197265625,-0.0003994738217443228,-0.0006657897029072046,-0.00013315794058144093
1772810445412099000,4.46609912109375,0.00013315794058144093,-0.00013315794058144093,0.0003994738217443228
1772810445421978400,4.475978271484375,0.0011984214652329683,-0.0006657897029072046,-0.00013315794058144093
1772810445431857700,4.485857666015625,0.0006657897029072046,0.0003994738217443228,0.0009321055840700865
1772810445441737000,4.495737060546875,0.0006657897029072046,-0.00013315794058144093,0.0003994738217443228
1772810445451616000,4.505615966796875,-0.0003994738217443228,-0.00013315794058144093,0.0003994738217443228
1772810445461495300,4.515495361328125,0.001731053227558732,0.0009321055840700865,-0.00013315794058144093
1772810445471374600,4.52537451171875,-0.0009321055840700865,0.0003994738217443228,-0.0006657897029072046
1772810445481254000,4.53525390625,-0.0003994738217443228,-0.0006657897029072046,-0.0006657897029072046
1772810445491133000,4.5451328125,-0.0003994738217443228,-0.00013315794058144093,0.0009321055840700865
1772810445501013000,4.555012939453125,0.00013315794058144093,0.0009321055840700865,0.0003994738217443228
1772810445510893000,4.56489306640625,-0.0009321055840700865,-0.0027963167522102594,0.0003994738217443228
1772810445520773000,4.574773193359375,0.001731053227558732,-0.0006657897029072046,0.001997369108721614
1772810445530653400,4.5846533203125,0.0006657897029072046,-0.001731053227558732,0.0014647373463958502
1772810445540533500,4.594533447265625,0.00013315794058144093,-0.00013315794058144093,0.001997369108721614
1772810445550413800,4.604413818359375,-0.0003994738217443228,0.0003994738217443228,0.0003994738217443228
1772810445560294000,4.6142939453125,0.0011984214652329683,0.0009321055840700865,-0.00013315794058144093
1772810445570174000,4.624174072265625,0.0006657897029072046,-0.001731053227558732,0.0009321055840700865
1772810445580054300,4.63405419921875,0.0006657897029072046,0.0003994738217443228,-0.0006657897029072046
1772810445589934300,4.643934326171875,0.0022636849898844957,-0.0006657897029072046,0.0003994738217443228
1772810445599814700,4.653814697265625,0.00013315794058144093,-0.0022636849898844957,0.0003994738217443228
1772810445609694700,4.66369482421875,-0.0003994738217443228,-0.001731053227558732,-0.00013315794058144093
1772810445619574800,4.67357470703125,0.0006657897029072046,-0.0011984214652329683,0.0003994738217443228
1772810445629455000,4.683455078125,-0.0003994738217443228,0.0003994738217443228,0.0009321055840700865
1772810445639335200,4.693335205078125,-0.0003994738217443228,-0.0006657897029072046,-0.00013315794058144093
1772810445649215500,4.703215576171875,-0.0009321055840700865,-0.0006657897029072046,0.0003994738217443228
1772810445659095600,4.713095458984375,-0.0003994738217443228,-0.0011984214652329683,-0.00013315794058144093
1772810445668975900,4.722975830078125,-0.0003994738217443228,0.001997369108721614,0.0003994738217443228
1772810445678856000,4.73285595703125,-0.0014647373463958502,0.0009321055840700865,-0.001731053227558732
1772810445688736000,4.742736083984375,-0.0003994738217443228,-0.0006657897029072046,0.0003994738217443228
1772810445698616300,4.7526162109375,0.0006657897029072046,0.0009321055840700865,0.0009321055840700865
1772810445708496400,4.762496337890625,0.00013315794058144093,-0.0006657897029072046,0.0003994738217443228
1772810445718376700,4.772376708984375,0.0006657897029072046,-0.00013315794058144093,-0.00013315794058144093
1772810445728256800,4.7822568359375,0.00013315794058144093,0.0030626326333731413,0.0003994738217443228
1772810445738137000,4.79213720703125,-0.0003994738217443228,-0.0006657897029072046,-0.0011984214652329683
1772810445748017200,4.80201708984375,0.0006657897029072046,-0.00013315794058144093,-0.0006657897029072046
1772810445757897200,4.811897216796875,-0.0009321055840700865,0.0003994738217443228,0.001997369108721614
1772810445767777500,4.821777587890625,-0.0014647373463958502,0.0009321055840700865,0.0009321055840700865
1772810445777657600,4.83165771484375,0.001731053227558732,-0.00013315794058144093,-0.0006657897029072046
1772810445787538000,4.841537841796875,-0.0003994738217443228,0.0009321055840700865,0.0014647373463958502
1772810445797418000,4.85141796875,0.0006657897029072046,-0.00013315794058144093,-0.00013315794058144093
1772810445807298300,4.86129833984375,-0.0009321055840700865,-0.001731053227558732,-0.00013315794058144093
1772810445817178400,4.871178466796875,-0.0003994738217443228,-0.0011984214652329683,0.0009321055840700865
1772810445827058400,4.881058349609375,0.0006657897029072046,-0.00013315794058144093,-0.00013315794058144093
1772810445846818800,4.90081884765625,0.001731053227558732,-0.00013315794058144093,0.0009321055840700865
1772810445856699100,4.91069921875,0.00013315794058144093,0.0009321055840700865,0.0009321055840700865
1772810445866579200,4.9205791015625,0.00013315794058144093,-0.001731053227558732,-0.00013315794058144093
1772810445876459300,4.930459228515625,-0.0009321055840700865,-0.0006657897029072046,0.0009321055840700865
1772810445886339600,4.940339599609375,0.0006657897029072046,-0.0011984214652329683,0.0003994738217443228
1772810445896219600,4.9502197265625,-0.0003994738217443228,-0.0011984214652329683,-0.00013315794058144093
1772810445906100000,4.960099853515625,0.00013315794058144093,-0.001731053227558732,0.0003994738217443228
1772810445915980000,4.96997998046875,-0.0009321055840700865,-0.0006657897029072046,0.0009321055840700865
1772810445925860000,4.979860107421875,-0.0003994738217443228,-0.00013315794058144093,-0.0011984214652329683
1772810445935740400,4.989740478515625,0.0011984214652329683,-0.0011984214652329683,-0.00013315794058144093
1772810445945620500,4.999620361328125,0.0022636849898844957,-0.0006657897029072046,0.0003994738217443228
1772810445955500800,5.009500732421875,-0.0003994738217443228,-0.00013315794058144093,0.0009321055840700865
1772810445965380900,5.019380859375,-0.0003994738217443228,0.0003994738217443228,-0.0006657897029072046
1772810445975261200,5.02926123046875,0.0006657897029072046,-0.00013315794058144093,-0.0006657897029072046
1772810445985141200,5.039141357421875,-0.001997369108721614,-0.0006657897029072046,-0.0006657897029072046
1772810445995021300,5.049021240234375,0.0022636849898844957,-0.001731053227558732,-0.00013315794058144093
1772810446004901000,5.058901123046875,0.00013315794058144093,-0.001731053227558732,-0.00013315794058144093
1772810446014781000,5.068781005859375,-0.0003994738217443228,0.0003994738217443228,0.001997369108721614
1772810446024660500,5.078660400390625,0.001731053227558732,0.0003994738217443228,0.0003994738217443228
1772810446034540300,5.088540283203125,-0.0009321055840700865,-0.0011984214652329683,-0.0006657897029072046
1772810446054299600,5.108299560546875,0.00013315794058144093,-0.0011984214652329683,0.0014647373463958502
1772810446064179500,5.118179443359375,0.0006657897029072046,-0.0006657897029072046,0.0009321055840700865
1772810446074059000,5.12805908203125,0.00013315794058144093,0.0014647373463958502,-0.0006657897029072046
1772810446083938800,5.137938720703125,0.0006657897029072046,0.0003994738217443228,-0.00013315794058144093
1772810446093818400,5.147818359375,-0.0003994738217443228,0.0014647373463958502,-0.00013315794058144093
1772810446103698200,5.1576982421875,-0.0009321055840700865,-0.00013315794058144093,-0.0006657897029072046
1772810446113578000,5.167577880859375,0.0011984214652329683,0.0003994738217443228,-0.0006657897029072046
1772810446123457500,5.17745751953125,0.00013315794058144093,-0.0011984214652329683,-0.00013315794058144093
1772810446133337300,5.18733740234375,0.00013315794058144093,0.0014647373463958502,-0.0006657897029072046
1772810446143217000,5.197216796875,-0.0014647373463958502,-0.0006657897029072046,0.0014647373463958502
1772810446153096700,5.2070966796875,0.0011984214652329683,-0.0006657897029072046,-0.00013315794058144093
1772810446162976300,5.216976318359375,-0.0003994738217443228,-0.001731053227558732,0.0003994738217443228
1772810446172856000,5.22685595703125,0.0006657897029072046,0.0009321055840700865,0.0003994738217443228
1772810446182736000,5.23673583984375,0.00013315794058144093,-0.001731053227558732,0.0009321055840700865
1772810446192615400,5.246615478515625,-0.0009321055840700865,-0.0006657897029072046,-0.00013315794058144093
1772810446202495200,5.2564951171875,-0.0003994738217443228,0.0003994738217443228,0.001997369108721614
1772810446212374800,5.266374755859375,-0.0003994738217443228,0.0003994738217443228,-0.0011984214652329683
1772810446222254600,5.276254638671875,0.0006657897029072046,-0.00013315794058144093,-0.0011984214652329683
1772810446232134400,5.286134521484375,-0.0009321055840700865,-0.0006657897029072046,-0.00013315794058144093
1772810446242014000,5.296013916015625,-0.0003994738217443228,0.0014647373463958502,0.0003994738217443228
1772810446251893800,5.305893798828125,0.0011984214652329683,-0.00013315794058144093,0.0003994738217443228
1772810446261773300,5.315773193359375,-0.0014647373463958502,0.0003994738217443228,0.0003994738217443228
1772810446271653000,5.325653076171875,0.0011984214652329683,-0.00013315794058144093,0.0014647373463958502
1772810446281533000,5.335532958984375,-0.0009321055840700865,0.0009321055840700865,0.0014647373463958502
1772810446291412500,5.34541259765625,0.0006657897029072046,0.0003994738217443228,-0.0011984214652329683
1772810446301292300,5.355292236328125,-0.0009321055840700865,-0.0011984214652329683,-0.001731053227558732
1772810446311171800,5.365171875,0.00013315794058144093,-0.00013315794058144093,0.0014647373463958502
1772810446321051600,5.3750517578125,-0.0009321055840700865,0.0014647373463958502,-0.00013315794058144093
1772810446330931200,5.38493115234375,0.0022636849898844957,-0.0006657897029072046,0.0009321055840700865
1772810446340811000,5.39481103515625,-0.0009321055840700865,0.0009321055840700865,-0.00013315794058144093
1772810446350690800,5.40469091796875,0.0006657897029072046,0.0009321055840700865,0.0003994738217443228
1772810446360570400,5.4145703125,0.00013315794058144093,-0.0006657897029072046,0.0009321055840700865
1772810446370450200,5.4244501953125,0.0011984214652329683,0.0009321055840700865,-0.00013315794058144093
1772810446380330000,5.434330078125,-0.0009321055840700865,-0.00013315794058144093,0.0003994738217443228
1772810446390209500,5.44420947265625,-0.0009321055840700865,0.0003994738217443228,-0.00013315794058144093
1772810446400089300,5.45408935546875,0.0006657897029072046,0.0009321055840700865,0.0003994738217443228
1772810446409969000,5.463968994140625,-0.0003994738217443228,-0.00013315794058144093,-0.00013315794058144093
1772810446419848700,5.4738486328125,0.00013315794058144093,-0.00013315794058144093,0.0009321055840700865
1772810446429728300,5.483728271484375,0.001731053227558732,-0.0006657897029072046,-0.0006657897029072046
1772810446439608000,5.493608154296875,-0.0003994738217443228,0.0014647373463958502,0.0003994738217443228
1772810446449488000,5.50348779296875,-0.0010652635246515274,-0.0005326317623257637,0.00026631588116288185
1772810446459367400,5.513367431640625,-0.0005326317623257637,0.0005326317623257637,-0.001864211168140173
1772810446469247200,5.523247314453125,-0.0005326317623257637,0.0005326317623257637,-0.00026631588116288185
1772810446479126800,5.533126708984375,0,-0.0005326317623257637,0.0013315794058144093
1772810446489006600,5.543006591796875,0,0,0.0007989476434886456
1772810446498886400,5.552886474609375,0.0005326317623257637,-0.0005326317623257637,0.00026631588116288185
1772810446508766700,5.5627666015625,-0.0010652635246515274,0.001597895286977291,-0.00026631588116288185
1772810446518647000,5.57264697265625,0.0010652635246515274,0,-0.0007989476434886456
1772810446528527000,5.582527099609375,0.0010652635246515274,0,-0.0007989476434886456
1772810446538407400,5.592407470703125,0.0010652635246515274,-0.0005326317623257637,-0.00026631588116288185
1772810446548287700,5.602287841796875,-0.002130527049303055,-0.001597895286977291,0.0013315794058144093
1772810446558168000,5.61216796875,0.0010652635246515274,0.0010652635246515274,0.0023968429304659367
1772810446568048000,5.622048095703125,0,-0.0010652635246515274,-0.0007989476434886456
1772810446577928400,5.631928466796875,-0.0010652635246515274,0.001597895286977291,-0.0007989476434886456
1772810446587808800,5.641808837890625,-0.001597895286977291,-0.0005326317623257637,0.00026631588116288185
1772810446597689000,5.651689208984375,-0.0005326317623257637,-0.0005326317623257637,0.00026631588116288185
1772810446607569200,5.661569091796875,-0.0005326317623257637,0.0010652635246515274,0.0007989476434886456
1772810446617449500,5.671449462890625,-0.0010652635246515274,0,-0.00026631588116288185
1772810446627329800,5.681329833984375,-0.001597895286977291,-0.0005326317623257637,-0.0007989476434886456
1772810446637210000,5.691210205078125,-0.0010652635246515274,0.0010652635246515274,-0.0007989476434886456
1772810446647090200,5.701090087890625,0,0,0.00026631588116288185
1772810446656970500,5.710970458984375,0,-0.0005326317623257637,-0.00026631588116288185
1772810446666850800,5.720850830078125,-0.0005326317623257637,-0.0005326317623257637,-0.0007989476434886456
1772810446676731100,5.730731201171875,0.0010652635246515274,0,0.00026631588116288185
1772810446686611200,5.740611083984375,-0.0010652635246515274,-0.0005326317623257637,-0.00026631588116288185
1772810446696491500,5.750491455078125,-0.0010652635246515274,-0.0005326317623257637,-0.0007989476434886456
1772810446706371800,5.760371826171875,0.0010652635246515274,0.001597895286977291,-0.0013315794058144093
1772810446716252200,5.770252197265625,0,0,0.00026631588116288185
1772810446726132200,5.78013232421875,0,-0.0010652635246515274,0.00026631588116288185
1772810446736012500,5.790012451171875,-0.0005326317623257637,0.0010652635246515274,-0.0007989476434886456
1772810446745892900,5.799892822265625,-0.0005326317623257637,0.001597895286977291,-0.00026631588116288185
1772810446755773200,5.809773193359375,-0.0010652635246515274,0.0005326317623257637,-0.0013315794058144093
1772810446765653200,5.8196533203125,-0.0005326317623257637,-0.0005326317623257637,0.00026631588116288185
1772810446775533600,5.829533447265625,0,0.0005326317623257637,-0.00026631588116288185
1772810446785414000,5.839413818359375,-0.0005326317623257637,0,-0.0007989476434886456
1772810446795294200,5.849294189453125,0,0,-0.0013315794058144093
1772810446805174300,5.85917431640625,0.0005326317623257637,0,-0.001864211168140173
1772810446815054600,5.8690546875,0.0005326317623257637,0.0005326317623257637,-0.0007989476434886456
1772810446824935000,5.878934814453125,-0.0005326317623257637,0,-0.0013315794058144093
1772810446834815200,5.888815185546875,0.001597895286977291,-0.0010652635246515274,0.0007989476434886456
1772810446844695300,5.8986953125,-0.001597895286977291,0.001597895286977291,0.00026631588116288185
1772810446854575600,5.90857568359375,-0.0010652635246515274,0.0005326317623257637,0.0013315794058144093
1772810446864456000,5.9184560546875,-0.0005326317623257637,-0.002130527049303055,-0.00026631588116288185
1772810446874336300,5.928336181640625,0,0,-0.0013315794058144093
1772810446884216300,5.93821630859375,-0.001597895286977291,-0.0010652635246515274,0.00026631588116288185
1772810446894096600,5.9480966796875,-0.001597895286977291,0,-0.0007989476434886456
1772810446903977000,5.95797705078125,-0.0005326317623257637,0.0005326317623257637,0.0013315794058144093
1772810446913857300,5.967857177734375,0.0005326317623257637,-0.0005326317623257637,0.0007989476434886456
1772810446923737300,5.9777373046875,-0.0005326317623257637,0.0010652635246515274,0.00026631588116288185
1772810446933617700,5.98761767578125,0,-0.0026631588116288185,0.00026631588116288185
1772810446943498000,5.997498046875,0.0010652635246515274,0,0.00026631588116288185
1772810446953378300,6.00737841796875,-0.001597895286977291,-0.0005326317623257637,0.0007989476434886456
1772810446963258400,6.01725830078125,-0.002130527049303055,0.0005326317623257637,0.00026631588116288185
1772810446973138700,6.027138671875,-0.0010652635246515274,0.0005326317623257637,-0.00026631588116288185
1772810446983019000,6.03701904296875,0,0,0.00026631588116288185
1772810446992899300,6.0468994140625,0,0.0005326317623257637,0.00026631588116288185
1772810447002779400,6.056779296875,0.0005326317623257637,0.0010652635246515274,-0.0013315794058144093
1772810447012659500,6.066659423828125,0,0.001597895286977291,0.00026631588116288185
1772810447022539500,6.07653955078125,-0.001597895286977291,0.0005326317623257637,-0.0013315794058144093
1772810447032419600,6.086419677734375,0,0.0010652635246515274,-0.0007989476434886456
1772810447042300000,6.0962998046875,-0.0005326317623257637,0.0010652635246515274,0.00026631588116288185
1772810447052180000,6.106179931640625,-0.0005326317623257637,0.0005326317623257637,-0.0007989476434886456
1772810447062060000,6.11606005859375,-0.0010652635246515274,-0.001597895286977291,0.0007989476434886456
1772810447071940000,6.125940185546875,0.0010652635246515274,0.0010652635246515274,0.00026631588116288185
1772810447081820200,6.135820068359375,-0.0005326317623257637,0.0005326317623257637,-0.00026631588116288185
1772810447091700500,6.145700439453125,0.002130527049303055,0,-0.00026631588116288185
1772810447101580500,6.15558056640625,0.0005326317623257637,0.0005326317623257637,0.0007989476434886456
1772810447111460600,6.165460693359375,0,-0.0005326317623257637,0.0007989476434886456
1772810447121340700,6.175340576171875,0,0,-0.0007989476434886456
1772810447131221000,6.185220947265625,-0.0010652635246515274,0,-0.00026631588116288185
1772810447141101000,6.19510107421875,-0.0005326317623257637,0,-0.0007989476434886456
1772810447150981000,6.204981201171875,0.0005326317623257637,-0.0005326317623257637,-0.0013315794058144093
1772810447160861200,6.214861083984375,0.0005326317623257637,-0.0010652635246515274,0.00026631588116288185
1772810447170741200,6.2247412109375,0,-0.0005326317623257637,-0.0007989476434886456
1772810447180621600,6.23462158203125,0.0005326317623257637,0.0005326317623257637,-0.00026631588116288185
1772810447190501600,6.244501708984375,-0.0010652635246515274,0.0005326317623257637,0.001864211168140173
1772810447200381700,6.254381591796875,0.0010652635246515274,0,0.0007989476434886456
1772810447210261800,6.26426171875,0,0.001597895286977291,0.00026631588116288185
1772810447220141800,6.274141845703125,-0.0010652635246515274,0,-0.0013315794058144093
1772810447230022100,6.284022216796875,-0.0010652635246515274,-0.0005326317623257637,-0.0007989476434886456
1772810447239902200,6.293902099609375,0.0005326317623257637,-0.0005326317623257637,-0.0007989476434886456
1772810447249782300,6.3037822265625,-0.0005326317623257637,0.0026631588116288185,0.00026631588116288185
1772810447259662300,6.313662353515625,0,0,0.0007989476434886456
1772810447269542400,6.32354248046875,-0.0005326317623257637,0.001597895286977291,-0.0013315794058144093
1772810447279422700,6.333422607421875,-0.0010652635246515274,-0.0010652635246515274,0.0007989476434886456
1772810447289302800,6.343302734375,-0.0005326317623257637,-0.0005326317623257637,0.00026631588116288185
1772810447299182800,6.353182861328125,-0.0005326317623257637,0.0010652635246515274,0.0007989476434886456
1772810447309063000,6.36306298828125,-0.001597895286977291,0.001597895286977291,0.0013315794058144093
1772810447318943000,6.37294287109375,0,0,0.0007989476434886456
1772810447328823300,6.3828232421875,0.0005326317623257637,0,-0.00026631588116288185
1772810447338703400,6.392703369140625,0.0010652635246515274,-0.002130527049303055,-0.0007989476434886456
1772810447348583400,6.40258349609375,0.0005326317623257637,0.0005326317623257637,-0.001864211168140173
1772810447358463500,6.41246337890625,0.0005326317623257637,0,-0.00026631588116288185
1772810447368343800,6.42234375,0.0005326317623257637,0.0010652635246515274,-0.0007989476434886456
1772810447378223900,6.432223876953125,0,0,-0.001864211168140173
1772810447388104000,6.44210400390625,0.0005326317623257637,0.0005326317623257637,-0.00026631588116288185
1772810447397984000,6.45198388671875,0.0005326317623257637,-0.0005326317623257637,0.00026631588116288185
1772810447407864000,6.461864013671875,0,0,-0.0013315794058144093
1772810447417744400,6.471744384765625,0.001597895286977291,0,-0.00026631588116288185
1772810447427624400,6.48162451171875,-0.0005326317623257637,0.001597895286977291,0.00026631588116288185
1772810447437504500,6.49150439453125,-0.0005326317623257637,0.003195790573954582,0.0007989476434886456
1772810447447384600,6.501384521484375,0.001597895286977291,-0.0005326317623257637,-0.0007989476434886456
1772810447457264600,6.5112646484375,0.0005326317623257637,-0.0005326317623257637,0.00026631588116288185
1772810447467145000,6.52114501953125,0.001597895286977291,0.0005326317623257637,-0.0013315794058144093
1772810447477025000,6.53102490234375,0.0005326317623257637,0.0026631588116288185,-0.0007989476434886456
1772810447496785200,6.55078515625,0.0010652635246515274,0,-0.0007989476434886456
1772810447506665000,6.5606650390625,-0.0010652635246515274,0,0.00026631588116288185
1772810447516544800,6.570544677734375,0.0010652635246515274,-0.0010652635246515274,-0.0007989476434886456
1772810447526424600,6.580424560546875,-0.0005326317623257637,0.0005326317623257637,-0.0013315794058144093
1772810447536304400,6.590304443359375,0,0.0005326317623257637,-0.0007989476434886456
1772810447546184200,6.60018408203125,0.0010652635246515274,-0.0005326317623257637,0.00026631588116288185
1772810447556064000,6.61006396484375,0.0005326317623257637,0.001597895286977291,-0.0007989476434886456
1772810447565943800,6.61994384765625,-0.0005326317623257637,0.001597895286977291,-0.00026631588116288185
1772810447575823600,6.62982373046875,0,0.001597895286977291,-0.00026631588116288185
1772810447585703400,6.639703369140625,0.0010652635246515274,-0.0005326317623257637,-0.0007989476434886456
1772810447595583200,6.649583251953125,0,-0.0005326317623257637,-0.0007989476434886456
1772810447605463000,6.659463134765625,0.0010652635246515274,0.001597895286977291,0.00026631588116288185
1772810447615342800,6.6693427734375,0,-0.0005326317623257637,-0.0013315794058144093
1772810447625222700,6.67922265625,0.0005326317623257637,-0.0005326317623257637,-0.0013315794058144093
1772810447635102500,6.6891025390625,0,0,-0.0007989476434886456
1772810447644982300,6.698982177734375,0,0.0005326317623257637,0.0007989476434886456
1772810447654862000,6.708862060546875,-0.0005326317623257637,0.0005326317623257637,-0.0007989476434886456
1772810447664742000,6.718741943359375,-0.0005326317623257637,0.0010652635246515274,-0.00026631588116288185
1772810447674621700,6.72862158203125,0,0.0005326317623257637,-0.0007989476434886456
1772810447684501500,6.73850146484375,0,-0.001597895286977291,-0.00026631588116288185
1772810447694381300,6.74838134765625,0.0010652635246515274,0,0.00026631588116288185
1772810447704261400,6.758261474609375,0.001597895286977291,0.0005326317623257637,-0.0013315794058144093
1772810447714141000,6.768140869140625,0,0.001597895286977291,-0.00026631588116288185
1772810447724021000,6.77802099609375,0.0010652635246515274,-0.0010652635246515274,0.0007989476434886456
1772810447733900800,6.78790087890625,0.0005326317623257637,0.0010652635246515274,0.00026631588116288185
1772810447743780600,6.797780517578125,-0.0005326317623257637,0.0005326317623257637,-0.0007989476434886456
1772810447753660400,6.807660400390625,0.0005326317623257637,0.0005326317623257637,-0.00026631588116288185
1772810447763540200,6.817540283203125,0,0.001597895286977291,-0.0013315794058144093
1772810447773420000,6.827419921875,-0.0005326317623257637,-0.0010652635246515274,0.00026631588116288185
1772810447783299800,6.8372998046875,0.0010652635246515274,0.0010652635246515274,0.00026631588116288185
1772810447793179600,6.8471796875,0,0.001597895286977291,-0.00026631588116288185
1772810447803059500,6.8570595703125,0,0,0.0007989476434886456
1772810447812939300,6.866939208984375,0.0010652635246515274,0.001597895286977291,-0.00026631588116288185
1772810447832699000,6.886698974609375,-0.0010652635246515274,-0.0005326317623257637,-0.001864211168140173
1772810447842578700,6.89657861328125,0.0005326317623257637,0.0010652635246515274,0.0013315794058144093
1772810447852458500,6.90645849609375,-0.0010652635246515274,0,-0.00026631588116288185
1772810447862338300,6.91633837890625,0,0.0005326317623257637,0.0007989476434886456
1772810447872218000,6.926218017578125,0.001597895286977291,-0.0010652635246515274,-0.00026631588116288185
1772810447882098000,6.936097900390625,0.0005326317623257637,0,-0.00026631588116288185
1772810447891977700,6.945977783203125,0.0005326317623257637,-0.0010652635246515274,-0.00026631588116288185
1772810447901857500,6.955857421875,0.0010652635246515274,-0.0005326317623257637,-0.0007989476434886456
1772810447911737300,6.9657373046875,0.0005326317623257637,-0.0005326317623257637,-0.0007989476434886456
1772810447921617200,6.9756171875,0,0,0.0013315794058144093
1772810447931497000,6.9854970703125,-0.0010652635246515274,-0.0005326317623257637,0.00026631588116288185
1772810447941376800,6.995376708984375,-0.001597895286977291,0.001597895286977291,-0.0023968429304659367
1772810447951256600,7.005256591796875,-0.0005326317623257637,0,-0.0007989476434886456
1772810447961136400,7.015136474609375,-0.0010652635246515274,-0.0005326317623257637,0.00026631588116288185
1772810447971016200,7.02501611328125,0.0005326317623257637,0.0005326317623257637,-0.00026631588116288185
1772810447980896000,7.03489599609375,-0.0005326317623257637,0,0.00026631588116288185
1772810447990775800,7.04477587890625,-0.0005326317623257637,-0.0005326317623257637,-0.0007989476434886456
1772810448000655600,7.054655517578125,-0.0005326317623257637,-0.0010652635246515274,-0.0007989476434886456
1772810448010535200,7.06453515625,-0.0010652635246515274,0.0010652635246515274,-0.00026631588116288185
1772810448020415000,7.0744150390625,-0.0005326317623257637,0,-0.00026631588116288185
1772810448030294500,7.08429443359375,0,0.001597895286977291,-0.0013315794058144093
1772810448040174300,7.09417431640625,-0.001597895286977291,0.0010652635246515274,-0.00026631588116288185
1772810448050054100,7.10405419921875,0.0005326317623257637,0.0010652635246515274,-0.00026631588116288185
1772810448059933700,7.11393359375,0,0.0005326317623257637,0.00026631588116288185
1772810448069813500,7.1238134765625,0,0.0010652635246515274,-0.00026631588116288185
1772810448079693000,7.133693115234375,0,0.0005326317623257637,-0.0013315794058144093
1772810448089572900,7.14357275390625,-0.0005326317623257637,0,-0.0007989476434886456
1772810448099452400,7.153452392578125,0,0,-0.00026631588116288185
1772810448109332200,7.163332275390625,0.0005326317623257637,0,-0.0007989476434886456
1772810448119211800,7.173211669921875,-0.0005326317623257637,0.0005326317623257637,-0.00026631588116288185
1772810448129091600,7.183091552734375,-0.0005326317623257637,0,-0.0013315794058144093
1772810448138971400,7.192971435546875,0,0.0005326317623257637,0.00026631588116288185
1772810448148851000,7.202850830078125,-0.0010652635246515274,0,-0.00026631588116288185
1772810448158730800,7.212730712890625,0,-0.002130527049303055,-0.001864211168140173
1772810448168610300,7.2226103515625,-0.0010652635246515274,0,-0.0007989476434886456
1772810448178490000,7.232489990234375,0.0005326317623257637,0,-0.00026631588116288185
1772810448188370000,7.242369873046875,0.0005326317623257637,0.0005326317623257637,0.00026631588116288185
1772810448198249500,7.25224951171875,0.0005326317623257637,-0.0005326317623257637,0.0013315794058144093
1772810448208129300,7.26212939453125,-0.0005326317623257637,-0.001597895286977291,-0.0007989476434886456
1772810448218008800,7.2720087890625,0,-0.001597895286977291,-0.0007989476434886456
1772810448227888600,7.281888671875,-0.0014647373463958502,0.001997369108721614,-0.0005326317623257637
1772810448237768200,7.291768310546875,0.00013315794058144093,0.0009321055840700865,0.0005326317623257637
1772810448247648000,7.30164794921875,0.00013315794058144093,0.0003994738217443228,0.002130527049303055
1772810448257527600,7.311527587890625,-0.0009321055840700865,-0.0006657897029072046,-0.0005326317623257637
1772810448267407400,7.321407470703125,-0.0009321055840700865,0.0009321055840700865,0
1772810448277287200,7.331287109375,0.00013315794058144093,0.0009321055840700865,0
1772810448287166700,7.341166748046875,0.0011984214652329683,0.0009321055840700865,0.001597895286977291
1772810448297046500,7.351046630859375,-0.0009321055840700865,-0.0006657897029072046,0
1772810448306926000,7.360926025390625,-0.0003994738217443228,-0.0006657897029072046,0.001597895286977291
1772810448316806000,7.370805908203125,-0.0009321055840700865,0.001997369108721614,0.0010652635246515274
1772810448326685400,7.380685546875,-0.0009321055840700865,0.0009321055840700865,-0.001597895286977291
1772810448336565200,7.390565185546875,-0.0003994738217443228,-0.00013315794058144093,-0.001597895286977291
1772810448346445000,7.400445068359375,0.0006657897029072046,0.0014647373463958502,-0.0010652635246515274
1772810448356324600,7.41032470703125,0.0011984214652329683,0.0003994738217443228,-0.0005326317623257637
1772810448366204400,7.420204345703125,0.0011984214652329683,-0.001731053227558732,0.0010652635246515274
1772810448376084000,7.430083984375,-0.0003994738217443228,0.0003994738217443228,-0.001597895286977291
1772810448385963800,7.4399638671875,0.0011984214652329683,0.0003994738217443228,0.001597895286977291
1772810448395843300,7.44984326171875,0.0006657897029072046,-0.00013315794058144093,-0.0005326317623257637
1772810448405723100,7.45972314453125,-0.0003994738217443228,-0.00013315794058144093,0.001597895286977291
1772810448415603000,7.46960302734375,-0.0003994738217443228,0.0003994738217443228,-0.0005326317623257637
1772810448425482500,7.479482421875,0.0006657897029072046,0.0030626326333731413,0
1772810448435362300,7.4893623046875,-0.0003994738217443228,0.0014647373463958502,0
1772810448445241900,7.499241943359375,0.00013315794058144093,0.001997369108721614,-0.0010652635246515274
1772810448455121700,7.50912158203125,0.0011984214652329683,0.0014647373463958502,-0.001597895286977291
1772810448465001200,7.519001220703125,0.0011984214652329683,-0.0006657897029072046,0
1772810448474881000,7.528881103515625,0.00013315794058144093,0.0009321055840700865,-0.0005326317623257637
1772810448484760600,7.538760498046875,-0.0003994738217443228,-0.0006657897029072046,0
1772810448494640400,7.548640380859375,-0.0003994738217443228,-0.001731053227558732,0.0010652635246515274
1772810448504520400,7.5585205078125,0.00013315794058144093,-0.0011984214652329683,0
1772810448514400300,7.568400146484375,-0.0003994738217443228,-0.0006657897029072046,0.0005326317623257637
1772810448524280300,7.5782802734375,-0.0003994738217443228,-0.001731053227558732,0.0010652635246515274
1772810448534160400,7.588160400390625,0.0011984214652329683,-0.00013315794058144093,0.0005326317623257637
1772810448544040400,7.59804052734375,-0.0009321055840700865,-0.00013315794058144093,0.0005326317623257637
1772810448563800300,7.61780029296875,-0.0003994738217443228,0.0003994738217443228,-0.0005326317623257637
1772810448573680400,7.627680419921875,-0.0003994738217443228,-0.00013315794058144093,0.0005326317623257637
1772810448583560400,7.637560546875,0.00013315794058144093,-0.00013315794058144093,0.0005326317623257637
1772810448593440300,7.647440185546875,0.00013315794058144093,0.0003994738217443228,-0.0010652635246515274
1772810448603320300,7.6573203125,0.0006657897029072046,0.0009321055840700865,0
1772810448613200400,7.667200439453125,0.0006657897029072046,0.0009321055840700865,0.0005326317623257637
1772810448632960300,7.686960205078125,0.0006657897029072046,0.001997369108721614,0
1772810448642840300,7.69684033203125,-0.0009321055840700865,0.0009321055840700865,0.001597895286977291
1772810448652720400,7.706720458984375,-0.0009321055840700865,0.0003994738217443228,0.0005326317623257637
1772810448662600200,7.71660009765625,0.00013315794058144093,0.0014647373463958502,-0.0005326317623257637
1772810448672480300,7.726480224609375,-0.0014647373463958502,-0.001731053227558732,0.0005326317623257637
1772810448682360300,7.7363603515625,0.0006657897029072046,-0.0006657897029072046,0
1772810448692240400,7.746240478515625,0.0022636849898844957,-0.00013315794058144093,-0.0005326317623257637
1772810448702120200,7.7561201171875,-0.0003994738217443228,0.0014647373463958502,0
1772810448712000300,7.766000244140625,-0.0014647373463958502,0.0003994738217443228,-0.0005326317623257637
1772810448721880300,7.77588037109375,-0.0009321055840700865,-0.00013315794058144093,0
1772810448731760400,7.785760498046875,0.0006657897029072046,-0.0011984214652329683,0
1772810448741640200,7.79564013671875,-0.0009321055840700865,0.0003994738217443228,-0.0005326317623257637
1772810448751520300,7.805520263671875,-0.0003994738217443228,-0.0006657897029072046,-0.0005326317623257637
1772810448761400300,7.815400390625,0.0006657897029072046,-0.0006657897029072046,-0.0005326317623257637
1772810448781160200,7.83516015625,0.0006657897029072046,-0.0006657897029072046,0.0005326317623257637
1772810448791040300,7.845040283203125,0.0011984214652329683,-0.0006657897029072046,0.0005326317623257637
1772810448800920300,7.85492041015625,-0.0003994738217443228,-0.001731053227558732,0
1772810448810800000,7.864800048828125,0.00013315794058144093,-0.0022636849898844957,0
1772810448820680200,7.87468017578125,-0.0014647373463958502,-0.00013315794058144093,0
1772810448830560300,7.884560302734375,0.0011984214652329683,-0.001731053227558732,0
1772810448840440300,7.8944404296875,-0.0009321055840700865,-0.00013315794058144093,0.0005326317623257637
1772810448850320100,7.904320068359375,0.0006657897029072046,0.0025300008710473776,-0.0010652635246515274
1772810448860200200,7.9142001953125,0.0011984214652329683,-0.0011984214652329683,0.0010652635246515274
1772810448879960000,7.9339599609375,-0.0003994738217443228,0.0003994738217443228,0
1772810448889840000,7.943840087890625,-0.0014647373463958502,0.0003994738217443228,-0.001597895286977291
1772810448899720200,7.95372021484375,-0.0014647373463958502,0.0003994738217443228,-0.0005326317623257637
1772810448909600300,7.963600341796875,0.0006657897029072046,0.0009321055840700865,0.0005326317623257637
1772810448919480000,7.97347998046875,0.0006657897029072046,-0.00013315794058144093,-0.0005326317623257637
1772810448929360100,7.983360107421875,0.00013315794058144093,0.0003994738217443228,0
1772810448939240200,7.993240234375,-0.0025300008710473776,-0.00013315794058144093,0.0010652635246515274
1772810448949120300,8.003120361328126,0.0006657897029072046,0.0003994738217443228,-0.0005326317623257637
1772810448959000000,8.013,0.0006657897029072046,-0.0006657897029072046,0
1772810448968880000,8.022880126953124,0.00013315794058144093,0.0014647373463958502,0.0010652635246515274
1772810448978760200,8.03276025390625,0.00013315794058144093,0.0009321055840700865,-0.001597895286977291
1772810448988640300,8.04264013671875,-0.0003994738217443228,0.0025300008710473776,0.0010652635246515274
1772810448998520000,8.05252001953125,-0.0014647373463958502,0.0030626326333731413,-0.001597895286977291
1772810449008400100,8.062400146484375,-0.0003994738217443228,-0.00013315794058144093,-0.0005326317623257637
1772810449018280400,8.072280517578125,-0.0003994738217443228,0.0003994738217443228,0
1772810449028160500,8.082160400390626,-0.0003994738217443228,-0.0022636849898844957,-0.0005326317623257637
1772810449038040600,8.09204052734375,-0.0014647373463958502,0.0003994738217443228,0.0005326317623257637
1772810449047920600,8.101920654296874,0.00013315794058144093,-0.0006657897029072046,0
1772810449057800700,8.11180078125,-0.0003994738217443228,-0.0011984214652329683,0.0010652635246515274
1772810449067681000,8.121680908203125,-0.0009321055840700865,0.0003994738217443228,0.0005326317623257637
1772810449077561000,8.13156103515625,-0.0003994738217443228,-0.0006657897029072046,0.0005326317623257637
1772810449087441200,8.141441162109375,-0.001997369108721614,-0.0006657897029072046,0
1772810449097321200,8.1513212890625,0.00013315794058144093,0.0009321055840700865,-0.0005326317623257637
1772810449107201300,8.161201171875,-0.0014647373463958502,0.0003994738217443228,-0.0010652635246515274
1772810449117081600,8.17108154296875,0.0006657897029072046,0.0003994738217443228,-0.0005326317623257637
1772810449126961700,8.180961669921874,-0.0003994738217443228,0.001997369108721614,-0.0005326317623257637
1772810449136841700,8.190841796875,0.00013315794058144093,0.0003994738217443228,0.0005326317623257637
1772810449146721800,8.2007216796875,-0.0009321055840700865,-0.00013315794058144093,0.0005326317623257637
1772810449156601900,8.210601806640625,0.0006657897029072046,0.0014647373463958502,-0.0010652635246515274
1772810449166482000,8.22048193359375,-0.0014647373463958502,0.0009321055840700865,0
1772810449186242300,8.2402421875,0.0006657897029072046,-0.00013315794058144093,0.0005326317623257637
1772810449196122400,8.250122314453124,-0.0003994738217443228,0.0003994738217443228,-0.0005326317623257637
1772810449206002400,8.26000244140625,0.00013315794058144093,-0.00013315794058144093,0.0005326317623257637
1772810449215882500,8.269882568359375,-0.0003994738217443228,0.0025300008710473776,0
1772810449235643000,8.289642822265625,0.001731053227558732,-0.0006657897029072046,0.0010652635246515274
1772810449245523200,8.299523193359375,0.0006657897029072046,0.0003994738217443228,-0.0005326317623257637
1772810449255403300,8.3094033203125,0.0006657897029072046,0.0009321055840700865,0.0005326317623257637
1772810449265283600,8.31928369140625,-0.0003994738217443228,0.0014647373463958502,0
1772810449275164000,8.329163818359374,-0.0009321055840700865,0.001997369108721614,-0.0005326317623257637
1772810449285044000,8.3390439453125,-0.0014647373463958502,-0.0011984214652329683,-0.001597895286977291
1772810449294924300,8.34892431640625,-0.0009321055840700865,-0.0006657897029072046,0
1772810449304804600,8.3588046875,-0.001997369108721614,-0.0022636849898844957,0.002130527049303055
1772810449314685000,8.368684814453125,0.001731053227558732,-0.0006657897029072046,-0.002130527049303055
1772810449324565000,8.37856494140625,-0.0003994738217443228,-0.0006657897029072046,0
1772810449334445300,8.3884453125,0.00013315794058144093,0.0003994738217443228,-0.0005326317623257637
1772810449344325600,8.39832568359375,-0.0003994738217443228,0.0009321055840700865,0.0010652635246515274
1772810449354205700,8.408205810546875,0.0011984214652329683,-0.0022636849898844957,0.0005326317623257637
1772810449364086000,8.4180859375,-0.0003994738217443228,-0.0011984214652329683,-0.0010652635246515274
1772810449373966300,8.42796630859375,0.0011984214652329683,-0.0006657897029072046,0
1772810449383846400,8.437846435546875,-0.0009321055840700865,0.0009321055840700865,-0.0005326317623257637
1772810449393726700,8.447726806640626,-0.0003994738217443228,0.0014647373463958502,-0.0010652635246515274
1772810449403607000,8.45760693359375,0.001731053227558732,-0.001731053227558732,0.0005326317623257637
1772810449413487400,8.4674873046875,0.0006657897029072046,-0.0011984214652329683,-0.0010652635246515274
1772810449423367400,8.477367431640625,0.0027963167522102594,0.0003994738217443228,-0.001597895286977291
1772810449433247700,8.487247802734375,-0.0003994738217443228,0.0003994738217443228,0.001597895286977291
1772810449443128000,8.497128173828125,0.00013315794058144093,0.0003994738217443228,0.0010652635246515274
1772810449453008100,8.507008056640625,-0.0009321055840700865,0.0030626326333731413,-0.0005326317623257637
1772810449462888400,8.516888427734376,0.0006657897029072046,0.0009321055840700865,0.0010652635246515274
1772810449472768800,8.526768798828124,0.0006657897029072046,-0.0027963167522102594,0
1772810449492529200,8.546529052734375,0.00013315794058144093,-0.00013315794058144093,0.0005326317623257637
1772810449502409500,8.556409423828125,0.0006657897029072046,-0.00013315794058144093,-0.0010652635246515274
1772810449512290000,8.5662900390625,0.00013315794058144093,0.0025300008710473776,0.0005326317623257637
1772810449522170600,8.576170654296876,0.00013315794058144093,-0.001731053227558732,0
1772810449532051200,8.58605126953125,-0.001997369108721614,-0.00013315794058144093,0.0005326317623257637
1772810449541931500,8.595931640625,0.0006657897029072046,-0.00013315794058144093,-0.0005326317623257637
1772810449561692700,8.615692626953125,0.001731053227558732,0.0003994738217443228,0
1772810449571573200,8.6255732421875,-0.0009321055840700865,0.0003994738217443228,0.0005326317623257637
1772810449581453800,8.635453857421876,0.00013315794058144093,0.0009321055840700865,-0.0005326317623257637
1772810449601214700,8.655214599609375,-0.0003994738217443228,-0.0006657897029072046,0
1772810449611095300,8.66509521484375,0.00013315794058144093,-0.001731053227558732,0.0010652635246515274
1772810449620975900,8.674975830078125,0.0011984214652329683,0.0003994738217443228,-0.0005326317623257637
1772810449640736800,8.69473681640625,-0.0014647373463958502,-0.0011984214652329683,0.0005326317623257637
1772810449650617300,8.704617431640624,0.00013315794058144093,0.0014647373463958502,0.0010652635246515274
1772810449660498000,8.714497802734375,-0.0003994738217443228,0.0025300008710473776,0.0005326317623257637
1772810449680258800,8.7342587890625,-0.0003994738217443228,0.0003994738217443228,0
1772810449690139400,8.744139404296876,0.00013315794058144093,-0.0011984214652329683,-0.0005326317623257637
1772810449700020000,8.75402001953125,0.00013315794058144093,-0.00013315794058144093,0
1772810449719780900,8.77378076171875,-0.0003994738217443228,0.0003994738217443228,0
1772810449729661400,8.783661376953125,-0.0009321055840700865,0.0009321055840700865,0.001597895286977291
1772810449739542000,8.7935419921875,0.0006657897029072046,0.0014647373463958502,-0.0005326317623257637
1772810449749422600,8.803422607421876,-0.0014647373463958502,-0.0011984214652329683,-0.0010652635246515274
1772810449759303000,8.813302978515624,0.001731053227558732,-0.0006657897029072046,0.0005326317623257637
1772810449769183500,8.82318359375,-0.0003994738217443228,-0.0011984214652329683,0.0005326317623257637
1772810449779064000,8.83306396484375,-0.0009321055840700865,0.0009321055840700865,-0.0010652635246515274
1772810449798825200,8.8528251953125,-0.0003994738217443228,0.0003994738217443228,0
1772810449808705500,8.86270556640625,-0.0009321055840700865,-0.0011984214652329683,0.0005326317623257637
1772810449818586000,8.872586181640624,-0.0009321055840700865,0.0009321055840700865,0.0005326317623257637
1772810449838347300,8.89234716796875,-0.0003994738217443228,0.0014647373463958502,0
1772810449848227600,8.9022275390625,-0.0009321055840700865,0.0003994738217443228,0
1772810449858108200,8.912108154296876,-0.0003994738217443228,0.0003994738217443228,0.0010652635246515274
1772810449877869300,8.931869384765625,0.0006657897029072046,0.0025300008710473776,0.0010652635246515274
1772810449887749600,8.94174951171875,0.0006657897029072046,0.0003994738217443228,0
1772810449897630200,8.951630126953125,0.0011984214652329683,-0.0006657897029072046,-0.0005326317623257637
1772810449917391400,8.971391357421876,0.00013315794058144093,-0.0006657897029072046,0.0005326317623257637
1772810449927272000,8.98127197265625,0.00013315794058144093,-0.00013315794058144093,0.0005326317623257637
1772810449937152300,8.99115234375,-0.0009321055840700865,0.0009321055840700865,0
1772810449947032800,9.00103271484375,0.00013315794058144093,-0.0011984214652329683,-0.0005326317623257637
1772810449956913400,9.010913330078125,-0.0003994738217443228,0.0014647373463958502,-0.0010652635246515274
1772810449966794000,9.0207939453125,-0.0009321055840700865,-0.0011984214652329683,0
1772810449976674300,9.03067431640625,-0.0014647373463958502,0.0009321055840700865,0.001597895286977291
1772810449996435500,9.050435546875,-0.0009321055840700865,-0.0006657897029072046,0
1772810450006315800,9.060315673828125,0.001731053227558732,0.0007989476434886456,-0.0010652635246515274
1772810450016196400,9.0701962890625,-0.0014647373463958502,0.00026631588116288185,0.0010652635246515274
1772810450026077000,9.080076904296876,-0.0009321055840700865,-0.00026631588116288185,-0.0005326317623257637
1772810450045837800,9.099837890625,-0.0009321055840700865,-0.00026631588116288185,0.0010652635246515274
1772810450055718100,9.10971826171875,0.0011984214652329683,0.001864211168140173,0.001597895286977291
1772810450065598700,9.1195986328125,0.0006657897029072046,-0.0007989476434886456,0.002130527049303055
1772810450085359600,9.139359619140626,-0.0003994738217443228,0.0007989476434886456,-0.0010652635246515274
1772810450095240200,9.149240234375,0.00013315794058144093,-0.0023968429304659367,0
1772810450105120500,9.15912060546875,0.0006657897029072046,-0.00026631588116288185,0
1772810450115001000,9.1690009765625,-0.0003994738217443228,-0.00026631588116288185,0.0005326317623257637
1772810450124881700,9.178881591796875,-0.0003994738217443228,-0.0013315794058144093,-0.0005326317623257637
1772810450134762000,9.188761962890625,0.0011984214652329683,-0.0013315794058144093,0
1772810450144642600,9.198642578125,-0.0009321055840700865,0.00026631588116288185,0.0005326317623257637
1772810450154523000,9.20852294921875,-0.0003994738217443228,0.00026631588116288185,-0.001597895286977291
1772810450164403500,9.218403564453125,0.0006657897029072046,-0.001864211168140173,-0.0010652635246515274
1772810450174284000,9.228283935546875,0.0011984214652329683,-0.0013315794058144093,0.0010652635246515274
1772810450184164400,9.238164306640625,-0.0003994738217443228,-0.00026631588116288185,0.0005326317623257637
1772810450194045000,9.248044921875,-0.0003994738217443228,-0.00026631588116288185,0
1772810450203925500,9.257925537109376,-0.0003994738217443228,0.00026631588116288185,0.0026631588116288185
1772810450213805800,9.267805908203124,-0.0003994738217443228,0.0013315794058144093,0.0010652635246515274
1772810450223686400,9.277686279296875,-0.0003994738217443228,0.0023968429304659367,0.001597895286977291
1772810450233566700,9.287566650390625,-0.0003994738217443228,-0.0023968429304659367,0.001597895286977291
1772810450243447300,9.297447265625,0.00013315794058144093,-0.001864211168140173,0
1772810450253328000,9.307327880859376,-0.0003994738217443228,0.00026631588116288185,0
1772810450263208200,9.317208251953126,0.0011984214652329683,0.00026631588116288185,0.0010652635246515274
1772810450282969000,9.336968994140625,0.0006657897029072046,-0.001864211168140173,0.0005326317623257637
1772810450292849700,9.346849609375,0.0006657897029072046,-0.0013315794058144093,0
1772810450302730200,9.356730224609375,-0.0003994738217443228,0.0013315794058144093,-0.0005326317623257637
1772810450312610600,9.366610595703126,-0.0009321055840700865,-0.0007989476434886456,0.0005326317623257637
1772810450322491100,9.3764912109375,0.0006657897029072046,-0.00026631588116288185,-0.0010652635246515274
1772810450332371500,9.386371337890624,0.00013315794058144093,0.00026631588116288185,-0.0005326317623257637
1772810450342252000,9.396251953125,0.00013315794058144093,0.00026631588116288185,0
1772810450362013000,9.416012939453125,-0.0014647373463958502,0.0023968429304659367,0
1772810450381773800,9.43577392578125,0.00013315794058144093,0.00026631588116288185,-0.0010652635246515274
1772810450391654400,9.445654296875,0.00013315794058144093,-0.00026631588116288185,0.0005326317623257637
1772810450401535000,9.455534912109375,0.00013315794058144093,-0.0007989476434886456,-0.0010652635246515274
1772810450411415300,9.465415283203125,0.0011984214652329683,-0.0007989476434886456,-0.0005326317623257637
1772810450421295900,9.4752958984375,0.00013315794058144093,0.0013315794058144093,-0.0005326317623257637
1772810450431176200,9.48517626953125,0.0006657897029072046,-0.001864211168140173,0
1772810450441056800,9.495056884765624,0.001731053227558732,0.0029294746927917004,0.0005326317623257637
1772810450450937300,9.504937255859375,0.00013315794058144093,0.00026631588116288185,0
1772810450460817700,9.514817626953125,0.00013315794058144093,-0.0007989476434886456,-0.0005326317623257637
1772810450470698200,9.5246982421875,0.0006657897029072046,0.00026631588116288185,0.0010652635246515274
1772810450480578800,9.534578857421875,0.0006657897029072046,0.00026631588116288185,-0.0010652635246515274
1772810450490459100,9.544459228515626,0.00013315794058144093,0.0007989476434886456,0
1772810450500339200,9.554339111328124,-0.0003994738217443228,-0.00026631588116288185,-0.0005326317623257637
1772810450510218800,9.56421875,0.0006657897029072046,0.0013315794058144093,0.0005326317623257637
1772810450520098300,9.574098388671874,-0.0003994738217443228,-0.00026631588116288185,0
1772810450529977900,9.583977783203125,0.001731053227558732,0.0007989476434886456,0.001597895286977291
1772810450539857400,9.593857421875,-0.0009321055840700865,-0.00026631588116288185,0.0005326317623257637
1772810450559616500,9.613616455078125,0.0006657897029072046,0.00026631588116288185,-0.0005326317623257637
1772810450569496000,9.62349609375,-0.0009321055840700865,-0.0007989476434886456,0.0005326317623257637
1772810450579375600,9.633375732421875,-0.0003994738217443228,-0.0007989476434886456,0
1772810450599134700,9.653134765625,0.00013315794058144093,0.00026631588116288185,0.0005326317623257637
1772810450609014300,9.66301416015625,0.0006657897029072046,0.001864211168140173,0
1772810450618893800,9.672893798828126,-0.0014647373463958502,-0.0007989476434886456,0
1772810450628773400,9.6827734375,0.00013315794058144093,0.0007989476434886456,0.0005326317623257637
1772810450638653000,9.69265283203125,0.00013315794058144093,0.0023968429304659367,0
1772810450648532500,9.702532470703124,0.0006657897029072046,0.0013315794058144093,-0.0005326317623257637
1772810450658412000,9.712412109375,-0.0003994738217443228,0.0007989476434886456,0.001597895286977291
1772810450678171000,9.7321708984375,-0.0003994738217443228,0.00026631588116288185,-0.002130527049303055
1772810450688050700,9.74205078125,0.00013315794058144093,0.0013315794058144093,-0.0010652635246515274
1772810450697930200,9.75193017578125,0.00013315794058144093,0.00026631588116288185,-0.001597895286977291
1772810450717689300,9.771689453125,-0.0003994738217443228,-0.00026631588116288185,0
1772810450727568600,9.781568603515625,0.00013315794058144093,0.0007989476434886456,0
1772810450737448400,9.791448486328125,0.0006657897029072046,-0.00026631588116288185,0.0005326317623257637
1772810450747328000,9.801327880859375,0.00013315794058144093,-0.00026631588116288185,0.0010652635246515274
1772810450757207300,9.811207275390625,-0.0009321055840700865,-0.00026631588116288185,0.0010652635246515274
1772810450767087000,9.821087158203126,-0.0003994738217443228,-0.0007989476434886456,0
1772810450776966400,9.83096630859375,0.0006657897029072046,0.00026631588116288185,0.002130527049303055
1772810450786846200,9.84084619140625,0.0011984214652329683,-0.00026631588116288185,0
1772810450796725800,9.850725830078124,0.0011984214652329683,0.00026631588116288185,0
1772810450806605000,9.86060498046875,0.00013315794058144093,-0.0007989476434886456,-0.0005326317623257637
1772810450816484900,9.87048486328125,-0.0014647373463958502,-0.0007989476434886456,-0.0010652635246515274
1772810450826364200,9.8803642578125,0.0006657897029072046,0.00026631588116288185,-0.0005326317623257637
1772810450846123500,9.90012353515625,0.00013315794058144093,0.0007989476434886456,-0.0010652635246515274
1772810450865882600,9.919882568359375,0.00013315794058144093,-0.00026631588116288185,-0.0010652635246515274
1772810450875762000,9.929761962890625,-0.0009321055840700865,-0.0013315794058144093,-0.0005326317623257637
1772810450885641500,9.939641357421875,-0.0014647373463958502,0.00026631588116288185,-0.0005326317623257637
1772810450895521300,9.949521240234375,0.0006657897029072046,-0.00026631588116288185,0.0005326317623257637
1772810450905400600,9.959400634765625,-0.0003994738217443228,-0.0013315794058144093,-0.0005326317623257637
1772810450915280100,9.969280029296876,-0.0003994738217443228,-0.00026631588116288185,-0.0010652635246515274
1772810450925159700,9.97915966796875,-0.0003994738217443228,-0.0013315794058144093,0.0005326317623257637
1772810450935039200,9.989039306640626,0.00013315794058144093,-0.00026631588116288185,0.0005326317623257637
1772810450944918800,9.998918701171876,0.0011984214652329683,-0.00026631588116288185,0.0005326317623257637
1772810450964678000,10.018677978515624,0.0011984214652329683,-0.0007989476434886456,0.0005326317623257637
1772810450974557400,10.028557373046874,-0.0003994738217443228,0.0013315794058144093,0
1772810450994316500,10.048316650390625,0.00013315794058144093,-0.0007989476434886456,0
1772810451004196000,10.058196044921875,0.0011984214652329683,0.00026631588116288185,0.0005326317623257637
1772810451014076000,10.068075927734375,0.0006657897029072046,0.00026631588116288185,0
1772810451033835000,10.0878349609375,0.0011984214652329683,0.0007989476434886456,0.0005326317623257637
1772810451043714600,10.097714599609375,0.00013315794058144093,0.001864211168140173,0
1772810451053594400,10.107594482421876,0.00013315794058144093,0.001864211168140173,0
1772810451063474000,10.117473876953126,0.00013315794058144093,0.0013315794058144093,0
1772810451073353500,10.127353515625,-0.0003994738217443228,-0.0007989476434886456,-0.0005326317623257637
1772810451083233000,10.13723291015625,0.00013315794058144093,0.0013315794058144093,0
1772810451093112800,10.14711279296875,0.0006657897029072046,0.0007989476434886456,0.0010652635246515274
1772810451102992400,10.156992431640624,0.0006657897029072046,0.0013315794058144093,-0.0005326317623257637
1772810451122751500,10.17675146484375,0.0006657897029072046,-0.00026631588116288185,-0.0005326317623257637
1772810451132631000,10.186631103515625,0.00013315794058144093,-0.0013315794058144093,0.0005326317623257637
1772810451142510800,10.1965107421875,0.0011984214652329683,0.0013315794058144093,0.0005326317623257637
1772810451152390400,10.206390380859375,-0.0009321055840700865,0.0013315794058144093,-0.0010652635246515274
1772810451162270000,10.21627001953125,0.00013315794058144093,0.0007989476434886456,-0.0010652635246515274
1772810451172149500,10.2261494140625,0.0006657897029072046,-0.0013315794058144093,0.002130527049303055
1772810451182029000,10.236029052734375,0.00013315794058144093,-0.0007989476434886456,-0.0005326317623257637
1772810451191908900,10.245908935546876,0.0006657897029072046,0.00026631588116288185,0.0005326317623257637
1772810451201788400,10.255788330078126,-0.0003994738217443228,-0.0013315794058144093,-0.001597895286977291
1772810451211668000,10.26566796875,-0.0014647373463958502,0.0007989476434886456,0
1772810451221547500,10.275547607421874,0.0006657897029072046,0.0013315794058144093,0
1772810451231427300,10.28542724609375,0.0006657897029072046,-0.0013315794058144093,0
1772810451241307000,10.295306884765624,-0.0003994738217443228,-0.0013315794058144093,0
1772810451251186400,10.3051865234375,-0.0009321055840700865,0.00026631588116288185,0
1772810451261066000,10.31506591796875,0.00013315794058144093,0.00026631588116288185,0
1772810451270945500,10.324945556640625,0.0006657897029072046,-0.0013315794058144093,0
1772810451280825300,10.334825439453125,-0.0009321055840700865,0.0007989476434886456,0.0010652635246515274
1772810451290705000,10.344704833984375,-0.0009321055840700865,0.001864211168140173,-0.002130527049303055
1772810451300584400,10.35458447265625,0.0011984214652329683,0.0013315794058144093,-0.0010652635246515274
1772810451310464000,10.364464111328125,0.0006657897029072046,-0.00026631588116288185,0
1772810451320343800,10.37434375,-0.001997369108721614,-0.0013315794058144093,0.0005326317623257637
1772810451330223400,10.384223388671876,-0.0003994738217443228,-0.0007989476434886456,0.0005326317623257637
1772810451340103000,10.39410302734375,-0.0003994738217443228,0.00026631588116288185,0.002130527049303055
1772810451349982500,10.403982421875,-0.0009321055840700865,-0.001864211168140173,0.0005326317623257637
1772810451359862300,10.4138623046875,-0.0014647373463958502,-0.00026631588116288185,-0.0005326317623257637
1772810451369741800,10.423741943359374,0.00013315794058144093,-0.0007989476434886456,0.0005326317623257637
1772810451379621400,10.433621337890624,-0.0009321055840700865,-0.0013315794058144093,0.0010652635246515274
1772810451389501000,10.4435009765625,-0.0009321055840700865,-0.0013315794058144093,0.0010652635246515274
1772810451399380500,10.45338037109375,0.0006657897029072046,0.00026631588116288185,-0.0005326317623257637
1772810451409260300,10.46326025390625,-0.0003994738217443228,0.0013315794058144093,-0.0010652635246515274
1772810451419139800,10.473139892578125,-0.0003994738217443228,-0.0007989476434886456,0.0010652635246515274
1772810451429019400,10.483019287109375,0.00013315794058144093,-0.0013315794058144093,0.0005326317623257637
1772810451438899000,10.49289892578125,0.0006657897029072046,-0.0007989476434886456,-0.0005326317623257637
1772810451448778500,10.502778564453125,0.0006657897029072046,-0.00026631588116288185,0.0010652635246515274
1772810451458658300,10.512658203125,-0.0003994738217443228,0.00026631588116288185,0
1772810451468537900,10.522537841796876,-0.0003994738217443228,0.00026631588116288185,0.0010652635246515274
1772810451478417400,10.53241748046875,0.0006657897029072046,0.00026631588116288185,-0.0005326317623257637
1772810451488297000,10.542296875,0.00013315794058144093,-0.00026631588116288185,0.0005326317623257637
1772810451498176800,10.5521767578125,0.0006657897029072046,-0.00026631588116288185,0.0010652635246515274
1772810451508056600,10.562056640625,0.00013315794058144093,-0.001864211168140173,0.001597895286977291
1772810451517936600,10.5719365234375,0.0006657897029072046,-0.00026631588116288185,0
1772810451527816700,10.581816650390625,0.00013315794058144093,0.00026631588116288185,0.001597895286977291
1772810451537696500,10.591696533203125,0.00013315794058144093,0.0023968429304659367,0
1772810451547576300,10.601576416015625,0.00013315794058144093,0.00026631588116288185,-0.0005326317623257637
1772810451557456400,10.611456298828125,0.00013315794058144093,-0.0007989476434886456,0.0005326317623257637
1772810451567336200,10.621336181640626,0.00013315794058144093,-0.0007989476434886456,0.002130527049303055
1772810451577216300,10.63121630859375,-0.0003994738217443228,-0.0007989476434886456,0.0005326317623257637
1772810451587096300,10.641096435546874,-0.0009321055840700865,-0.00026631588116288185,0.0005326317623257637
1772810451596976000,10.65097607421875,0.00013315794058144093,-0.0007989476434886456,-0.0005326317623257637
1772810451606856000,10.66085595703125,-0.0003994738217443228,-0.0013315794058144093,-0.0005326317623257637
1772810451616736000,10.670736083984375,0.0006657897029072046,0.0007989476434886456,-0.0005326317623257637
1772810451626616000,10.680615966796875,-0.0003994738217443228,0.003462106455117464,0.0005326317623257637
1772810451636496000,10.690495849609375,0.00013315794058144093,0.0007989476434886456,0.0010652635246515274
1772810451646376000,10.7003759765625,-0.0009321055840700865,0.0013315794058144093,0.002130527049303055
1772810451656255700,10.710255859375,-0.0014647373463958502,0.007723160553723574,0.004793685860931873
1772810451666135800,10.7201357421875,0.00013315794058144093,0.0045273699797689915,0.0026631588116288185
1772810451676015600,10.730015625,0.00013315794058144093,0.013049477711319923,0.005326317623257637
1772810451685895700,10.739895751953124,-0.0003994738217443228,0.009321056306362152,0.005326317623257637
1772810451695775500,10.749775390625,-0.0014647373463958502,0.008255792781710625,0.005858949385583401
1772810451705655600,10.759655517578125,0.0011984214652329683,0.00719052879139781,0.002130527049303055
1772810451715535400,10.769535400390625,0.0006657897029072046,0.005060001742094755,0.0005326317623257637
1772810451725415400,10.77941552734375,0.0011984214652329683,-0.0007989476434886456,-0.001597895286977291
1772810451735295200,10.789295166015625,0.00013315794058144093,-0.005592633504420519,-0.0026631588116288185
1772810451745175300,10.79917529296875,-0.0003994738217443228,-0.013582110404968262,-0.007989476434886456
1772810451755055000,10.80905517578125,-0.0009321055840700865,-0.021571585908532143,-0.006391581147909164
1772810451764935200,10.81893505859375,0.0011984214652329683,-0.01411474123597145,-0.001597895286977291
1772810451774815000,10.82881494140625,0.0006657897029072046,-0.0029294746927917004,0
1772810451784695000,10.838695068359375,-0.0003994738217443228,-0.003462106455117464,-0.0005326317623257637
