time,seconds_elapsed,z,y,x
1772810540376196400,0.3301962890625,-0.10411834716796875,0.018133923411369324,0.021951690316200256
1772810540395955000,0.349954833984375,-0.09663581848144531,0.012664392590522766,0.033897921442985535
1772810540415713800,0.3697138671875,-0.09843063354492188,0.01617700606584549,0.033557236194610596
1772810540435472400,0.389472412109375,-0.07896804809570312,0.014691345393657684,-0.008847594261169434
1772810540455231000,0.40923095703125,-0.0840597152709961,-0.0175870880484581,-0.0259818434715271
1772810540474989600,0.428989501953125,-0.08376121520996094,-0.005666576325893402,-0.018756315112113953
1772810540494748700,0.448748779296875,-0.09334278106689453,-0.02004246413707733,-0.032986998558044434
1772810540514509300,0.46850927734375,-0.08136653900146484,-0.01056583970785141,-0.03055340051651001
1772810540534270000,0.48827001953125,-0.06999015808105469,-0.010413609445095062,-0.03525352478027344
1772810540554030800,0.50803076171875,-0.06759452819824219,-0.02244783192873001,-0.016049325466156006
1772810540573791500,0.52779150390625,-0.06729793548583984,-0.029636703431606293,-0.020645931363105774
1772810540593552100,0.54755224609375,-0.08376502990722656,-0.008132368326187134,-0.011232137680053711
1772810540613313000,0.56731298828125,-0.06729507446289062,-0.005741119384765625,-0.020825877785682678
1772810540633073700,0.58707373046875,-0.08166885375976562,-0.022665254771709442,-0.02547408640384674
1772810540652834600,0.60683447265625,-0.060410499572753906,-0.02251194417476654,-0.013509467244148254
1772810540672595200,0.62659521484375,-0.09095478057861328,-0.015223145484924316,-0.02289743721485138
1772810540692355800,0.64635595703125,-0.0885610580444336,-0.01996481418609619,-0.022805094718933105
1772810540712116700,0.66611669921875,-0.07927989959716797,-0.0008572861552238464,-0.02281595766544342
1772810540731877400,0.68587744140625,-0.08376789093017578,-0.010236792266368866,-0.025530770421028137
1772810540751638300,0.70563818359375,-0.06011390686035156,-0.0030554458498954773,-0.020698517560958862
1772810540771399000,0.72539892578125,-0.06490135192871094,-0.01255294680595398,-0.03288450837135315
1772810540791159600,0.74515966796875,-0.09334945678710938,-0.0005949437618255615,-0.025598958134651184
1772810540810920400,0.76492041015625,-0.06969261169433594,-0.005504772067070007,-0.02565629780292511
1772810540830681000,0.78468115234375,-0.0648965835571289,-0.02458171546459198,-0.04033893346786499
1772810540850441700,0.804441650390625,-0.08166694641113281,-0.015069417655467987,-0.021126866340637207
1772810540870202600,0.82420263671875,-0.05321979522705078,-0.019875161349773407,-0.025921478867530823
1772810540889963300,0.84396337890625,-0.06969070434570312,-0.005519933998584747,-0.032903432846069336
1772810540909724200,0.86372412109375,-0.07448577880859375,-0.019804760813713074,-0.013590246438980103
1772810540929484800,0.88348486328125,-0.07448863983154297,-0.014875821769237518,-0.01583525538444519
1772810540949245400,0.903245361328125,-0.07449150085449219,-0.02437053620815277,-0.018027067184448242
1772810540969006300,0.92300634765625,-0.0861673355102539,-0.010067887604236603,-0.015738606452941895
1772810540988767000,0.94276708984375,-0.0792837142944336,-0.012222468852996826,-0.025270596146583557
1772810541008528000,0.96252783203125,-0.0909576416015625,-0.00755523145198822,-0.025425657629966736
1772810541028288800,0.982288818359375,-0.08856201171875,-0.02912713587284088,-0.018294021487236023
1772810541048049700,1.002049560546875,-0.0744924545288086,-0.017607852816581726,-0.023479923605918884
1772810541067810600,1.021810546875,-0.06490802764892578,-0.0032535120844841003,-0.028426334261894226
1772810541087571500,1.041571533203125,-0.08616924285888672,-0.015041165053844452,-0.02608257532119751
1772810541107332400,1.061332275390625,-0.08137893676757812,-0.005477882921695709,-0.014057368040084839
1772810541127093000,1.081093017578125,-0.060120582580566406,-0.012576758861541748,-0.016404718160629272
1772810541146854000,1.10085400390625,-0.08856773376464844,-0.0077535659074783325,-0.02353934943675995
1772810541166614800,1.12061474609375,-0.07420063018798828,-0.022086605429649353,-0.02796909213066101
1772810541186375700,1.140375732421875,-0.07659244537353516,-0.012312337756156921,-0.018751829862594604
1772810541206136600,1.160136474609375,-0.07659244537353516,-0.021960265934467316,-0.016357973217964172
1772810541225897500,1.1798974609375,-0.06251907348632812,-0.009829901158809662,-0.03791379928588867
1772810541245658400,1.199658447265625,-0.0888671875,-0.006898641586303711,-0.03447146713733673
1772810541265419300,1.219419189453125,-0.06521034240722656,-0.016445517539978027,-0.024990513920783997
1772810541285180200,1.23918017578125,-0.06520748138427734,0.0001483708620071411,-0.029882311820983887
1772810541304941000,1.258941162109375,-0.08886337280273438,-0.016578949987888336,-0.015514165163040161
1772810541324702000,1.278701904296875,-0.07239151000976562,-0.021331168711185455,-0.02295757830142975
1772810541344462800,1.298462890625,-0.08406448364257812,-0.01595478504896164,-0.0305020809173584
1772810541364223700,1.3182236328125,-0.06519794464111328,-0.008886955678462982,-0.020920872688293457
1772810541383984600,1.337984619140625,-0.0723867416381836,-0.018481768667697906,-0.020817339420318604
1772810541403745500,1.35774560546875,-0.08646106719970703,-0.023233361542224884,-0.027349352836608887
1772810541423506400,1.37750634765625,-0.06759834289550781,-0.03292359411716461,-0.03677000105381012
1772810541443267000,1.39726708984375,-0.09125328063964844,-0.011419691145420074,-0.02559615671634674
1772810541463028000,1.417028076171875,-0.09813880920410156,-0.011836230754852295,-0.016563475131988525
1772810541482788900,1.436788818359375,-0.09574604034423828,-0.009451992809772491,-0.011572405695915222
1772810541502549000,1.456549072265625,-0.08406829833984375,-0.02138850837945938,-0.018810182809829712
1772810541522308900,1.476308837890625,-0.06969356536865234,-0.01915663480758667,-0.033229485154151917
1772810541542068500,1.496068359375,-0.09095191955566406,-0.011830955743789673,-0.02135320007801056
1772810541561828000,1.515828125,-0.07209110260009766,-0.011738911271095276,-0.03082779049873352
1772810541581587700,1.535587646484375,-0.0813741683959961,0.00026666373014450073,-0.03800229728221893
1772810541601347300,1.555347412109375,-0.08137321472167969,-0.016512572765350342,-0.02373027801513672
1772810541621107000,1.57510693359375,-0.07448673248291016,-0.01886315643787384,-0.03320339322090149
1772810541640866600,1.594866455078125,-0.07897758483886719,-0.023504875600337982,-0.033454686403274536
1772810541660626400,1.61462646484375,-0.0837717056274414,-0.03533266484737396,-0.007004112005233765
1772810541680386000,1.634385986328125,-0.08855724334716797,-0.009103536605834961,-0.021630793809890747
1772810541700145700,1.654145751953125,-0.07688140869140625,-0.009171470999717712,-0.031049281358718872
1772810541719905300,1.6739052734375,-0.07448387145996094,-0.004291057586669922,-0.03354102373123169
1772810541739665000,1.693664794921875,-0.08407115936279297,-0.020913593471050262,-0.018908128142356873
1772810541759424500,1.713424560546875,-0.09335136413574219,-0.01613142341375351,-0.021405309438705444
1772810541779184000,1.73318408203125,-0.07928180694580078,-0.015989549458026886,-0.0069327205419540405
1772810541798943700,1.75294384765625,-0.08167648315429688,-0.013401880860328674,-0.02390146255493164
1772810541818703400,1.772703369140625,-0.08856391906738281,-0.015755802392959595,-0.02374228835105896
1772810541838463000,1.792462890625,-0.07448768615722656,-0.0016502514481544495,-0.03876166045665741
1772810541858222800,1.812222900390625,-0.0693979263305664,-0.013589143753051758,-0.03420616686344147
1772810541877982500,1.831982421875,-0.09335041046142578,-0.020785890519618988,-0.03195361793041229
1772810541897742000,1.8517421875,-0.07658863067626953,-0.006574168801307678,-0.026845067739486694
1772810541917501700,1.871501708984375,-0.048145294189453125,-0.02095523476600647,-0.0338120311498642
1772810541937261300,1.89126123046875,-0.09305667877197266,-0.020856760442256927,-0.02448338270187378
1772810541957021000,1.91102099609375,-0.08377838134765625,-0.01591864973306656,-0.03634500503540039
1772810541976780500,1.930780517578125,-0.005623817443847656,-0.02545086294412613,-0.03882843255996704
1772810541996540400,1.95054052734375,-0.15923309326171875,-0.011143282055854797,-0.02450038492679596
1772810542016300300,1.97030029296875,-0.04575157165527344,-0.03245129436254501,-0.026794791221618652
1772810542036060400,1.990060302734375,-0.001129150390625,-0.020633913576602936,-0.03615193068981171
1772810542055820500,2.009820556640625,-0.13108539581298828,-0.013107091188430786,-0.03344452381134033
1772810542075580700,2.02958056640625,-0.08647632598876953,-0.010363183915615082,-0.018861427903175354
1772810542095340500,2.049340576171875,-0.07929039001464844,-0.029576130211353302,-0.023595064878463745
1772810542115100700,2.0691005859375,-0.09605979919433594,-0.029573529958724976,-0.03480517864227295
1772810542134860800,2.08886083984375,-0.07929420471191406,-0.0008478239178657532,-0.025111034512519836
1772810542154621000,2.108620849609375,-0.07449722290039062,-0.008046939969062805,-0.023122072219848633
1772810542174381000,2.128381103515625,-0.07449626922607422,0.0015649572014808655,-0.020823508501052856
1772810542194141000,2.148140869140625,-0.1098318099975586,-0.01745150238275528,-0.03512875735759735
1772810542213901000,2.167901123046875,-0.08168315887451172,-0.01740851253271103,-0.018509849905967712
1772810542233661200,2.1876611328125,-0.07689189910888672,-0.0199110209941864,-0.023592904210090637
1772810542253421300,2.20742138671875,-0.09126758575439453,0.003970682621002197,-0.023575201630592346
1772810542273181200,2.22718115234375,-0.06491756439208984,-0.029567301273345947,-0.025957763195037842
1772810542292941300,2.24694140625,-0.07660102844238281,-0.0006882846355438232,-0.02084904909133911
1772810542312701400,2.266701416015625,-0.07689857482910156,-0.0032050907611846924,-0.018551141023635864
1772810542332461600,2.286461669921875,-0.0837860107421875,-0.024714350700378418,-0.03290727734565735
1772810542352221700,2.3062216796875,-0.08617973327636719,-0.003122381865978241,-0.02825741469860077
1772810542371981600,2.325981689453125,-0.10294532775878906,-0.01755528897047043,-0.021217092871665955
1772810542391741700,2.34574169921875,-0.08378219604492188,0.0017922520637512207,-0.026047229766845703
1772810542411501800,2.365501708984375,-0.10055065155029297,-0.007703214883804321,-0.045285508036613464
1772810542431262000,2.385261962890625,-0.08408164978027344,-0.012554079294204712,-0.035633206367492676
1772810542451021800,2.405021728515625,-0.09575748443603516,-0.000646449625492096,-0.02614346146583557
1772810542470782000,2.424781982421875,-0.08856964111328125,-0.021997526288032532,-0.015022054314613342
1772810542490542000,2.4445419921875,-0.08617496490478516,-0.031572528183460236,-0.029380246996879578
1772810542510302200,2.46430224609375,-0.05054187774658203,-0.0057328492403030396,-0.022287175059318542
1772810542530062600,2.4840625,-0.08617305755615234,-0.02470686286687851,-0.03428947925567627
1772810542549823000,2.503822998046875,-0.08138465881347656,-0.017640091478824615,-0.031852900981903076
1772810542569583400,2.523583251953125,-0.09785842895507812,-0.01272662729024887,-0.02197927236557007
1772810542589343700,2.54334375,-0.0766000747680664,-0.005420170724391937,-0.04109485447406769
1772810542609104100,2.563104248046875,-0.0981597900390625,-0.0271029993891716,-0.017006784677505493
1772810542628864300,2.5828642578125,-0.0813913345336914,-0.0056865885853767395,-0.02899448573589325
1772810542648624600,2.602624755859375,-0.0742044448852539,-0.0073126330971717834,-0.023723959922790527
1772810542668385000,2.622385009765625,-0.10265064239501953,-0.012495562434196472,-0.03305603563785553
1772810542688145400,2.6421455078125,-0.08378791809082031,-0.019707441329956055,-0.016155049204826355
1772810542707905800,2.66190576171875,-0.0885772705078125,-0.022024378180503845,-0.030690833926200867
1772810542727666200,2.681666259765625,-0.08617973327636719,0.0018861442804336548,-0.028358176350593567
1772810542747426600,2.701426513671875,-0.06971263885498047,-0.005337044596672058,-0.028266429901123047
1772810542767186700,2.721186767578125,-0.050846099853515625,-0.005376450717449188,-0.02837882936000824
1772810542786947000,2.740947021484375,-0.07210731506347656,-0.007706098258495331,-0.023498445749282837
1772810542806707500,2.76070751953125,-0.0813894271850586,-0.0030601471662521362,-0.030691757798194885
1772810542826467800,2.7804677734375,-0.07450389862060547,-0.003307335078716278,-0.0232098251581192
1772810542846228200,2.800228271484375,-0.09097671508789062,-0.0038440153002738953,-0.018726035952568054
1772810542865988600,2.819988525390625,-0.0649251937866211,-0.0110621377825737,-0.02353130280971527
1772810542885748700,2.839748779296875,-0.07181167602539062,-0.003914341330528259,-0.025990277528762817
1772810542905509000,2.859509033203125,-0.09786033630371094,-0.0086892768740654,-0.01892516016960144
1772810542925269500,2.87926953125,-0.07420539855957031,-0.023031041026115417,-0.01181533932685852
1772810542945030000,2.89902978515625,-0.08138847351074219,-0.01103212684392929,-0.03592754900455475
1772810542964790300,2.918790283203125,-0.081390380859375,-0.022978954017162323,-0.031090259552001953
1772810542984550700,2.938550537109375,-0.07210922241210938,-0.03028130531311035,-0.03333401679992676
1772810543004310800,2.958310791015625,-0.08139228820800781,-0.01822550594806671,-0.02610638737678528
1772810543024071000,2.97807080078125,-0.06701850891113281,-0.018456310033798218,-0.018782615661621094
1772810543043830800,2.997830810546875,-0.07899665832519531,-0.0160367414355278,-0.02124422788619995
1772810543063591000,3.0175908203125,-0.07899856567382812,-0.015806980431079865,-0.02359957993030548
1772810543083351000,3.03735107421875,-0.08378982543945312,-0.006107859313488007,-0.026004448533058167
1772810543103111000,3.05711083984375,-0.05774402618408203,-0.005993403494358063,-0.03771865367889404
1772810543122871000,3.07687109375,-0.08379840850830078,-0.01784323900938034,-0.025645986199378967
1772810543142631200,3.096631103515625,-0.0766143798828125,-0.01776580512523651,-0.018321186304092407
1772810543162391000,3.11639111328125,-0.08140754699707031,-0.010511703789234161,-0.02296730875968933
1772810543182151200,3.136151123046875,-0.07422065734863281,-0.008155003190040588,-0.015798017382621765
1772810543201911300,3.155911376953125,-0.06943321228027344,-0.00808762013912201,-0.02752341330051422
1772810543221671400,3.17567138671875,-0.0649423599243164,-0.010515458881855011,-0.0011049360036849976
1772810543241431300,3.195431396484375,-0.08141613006591797,-0.014980867505073547,-0.04126308858394623
1772810543261191400,3.21519140625,-0.07692718505859375,-0.009821079671382904,-0.009641319513320923
1772810543280951300,3.234951416015625,-0.10297966003417969,-0.009854353964328766,-0.016639575362205505
1772810543300711400,3.25471142578125,-0.06255817413330078,-0.00744212418794632,-0.02602265775203705
1772810543320471600,3.274471435546875,-0.07903003692626953,-0.01226045936346054,-0.04028530418872833
1772810543340231700,3.294231689453125,-0.08382320404052734,-0.007400594651699066,-0.01858764886856079
1772810543359991600,3.313991455078125,-0.0625619888305664,-0.01482052356004715,-0.023336678743362427
1772810543379751700,3.333751708984375,-0.07933425903320312,-0.00038736313581466675,-0.032711684703826904
1772810543399511800,3.35351171875,-0.09340763092041016,-0.014787338674068451,-0.011021614074707031
1772810543419271700,3.373271728515625,-0.07454395294189453,-0.024590589106082916,-0.02764001488685608
1772810543439031800,3.39303173828125,-0.09819889068603516,-0.01488000899553299,-0.025355473160743713
1772810543458792000,3.4127919921875,-0.07903289794921875,-0.010378330945968628,-0.001384451985359192
1772810543478551800,3.4325517578125,-0.08861351013183594,-0.0030232295393943787,-0.015983417630195618
1772810543498312000,3.45231201171875,-0.05806922912597656,-0.01762416958808899,-0.030357584357261658
1772810543518071800,3.47207177734375,-0.09340572357177734,-0.022431932389736176,-0.03483456373214722
1772810543537831700,3.491831787109375,-0.05328083038330078,-0.003408975899219513,-0.0277041494846344
1772810543557591300,3.51159130859375,-0.07423877716064453,-0.013018526136875153,-0.030203476548194885
1772810543577351200,3.53135107421875,-0.07663249969482422,-0.013199366629123688,-0.02536812424659729
1772810543597111000,3.551111083984375,-0.0697479248046875,-0.020353421568870544,-0.027663201093673706
1772810543616871000,3.570870849609375,-0.07214641571044922,-0.01548437774181366,-0.02028198540210724
1772810543636630800,3.590630859375,-0.06017112731933594,-0.015755362808704376,-0.013312503695487976
1772810543656390700,3.610390625,-0.08143329620361328,0.005453675985336304,-0.027780666947364807
1772810543676150500,3.630150634765625,-0.08861827850341797,-0.004271097481250763,-0.006198316812515259
1772810543695910100,3.64991015625,-0.08862018585205078,-0.03067680448293686,-0.017984911799430847
1772810543715670000,3.669669921875,-0.09550857543945312,-0.01637997478246689,-0.020236462354660034
1772810543735430000,3.689429931640625,-0.06706523895263672,-0.013802513480186462,-0.02487906813621521
1772810543755189800,3.709189697265625,-0.10748767852783203,-0.02345210313796997,-0.017809376120567322
1772810543774949600,3.72894970703125,-0.09340953826904297,-0.0070115625858306885,-0.03222823143005371
1772810543794709500,3.74870947265625,-0.0931100845336914,-0.023869618773460388,-0.025047481060028076
1772810543814469400,3.768469482421875,-0.07904243469238281,-0.019071735441684723,-0.03007437288761139
1772810543834229200,3.788229248046875,-0.0838327407836914,-0.011790908873081207,-0.03460988402366638
1772810543853988900,3.80798876953125,-0.09341144561767578,-0.012023955583572388,-0.012772783637046814
1772810543873748700,3.827748779296875,-0.0862264633178711,-0.007217630743980408,-0.03193072974681854
1772810543893508600,3.847508544921875,-0.08862018585205078,-0.021555542945861816,-0.022510498762130737
1772810543913268500,3.8672685546875,-0.07903480529785156,-0.024015188217163086,-0.02033129334449768
1772810543933028400,3.8870283203125,-0.0931081771850586,-0.011861272156238556,-0.005986496806144714
1772810543952788200,3.906788330078125,-0.06496524810791016,-0.02385035902261734,-0.015275329351425171
1772810543972548000,3.926548095703125,-0.07664203643798828,-0.023861199617385864,-0.017787769436836243
1772810543992308000,3.946307861328125,-0.08862113952636719,-0.019141122698783875,-0.029606863856315613
1772810544012067600,3.966067626953125,-0.07185173034667969,-0.019150160253047943,-0.03688524663448334
1772810544031827500,3.985827392578125,-0.08142948150634766,-0.02647324651479721,-0.032294198870658875
1772810544051587300,4.00558740234375,-0.09340763092041016,-0.011578232049942017,-0.03637276589870453
1772810544071347200,4.02534716796875,-0.0652608871459961,-0.025855213403701782,-0.02200716733932495
1772810544091106800,4.04510693359375,-0.07454299926757812,-0.021131664514541626,-0.03641778230667114
1772810544110866700,4.06486669921875,-0.08173179626464844,-0.016203589737415314,-0.0052056461572647095
1772810544130626600,4.08462646484375,-0.07455062866210938,-0.008894190192222595,-0.028847455978393555
1772810544150386400,4.104386474609375,-0.07664871215820312,-0.008974701166152954,-0.03825974464416504
1772810544170146300,4.124146240234375,-0.08892345428466797,0.01018216460943222,-0.014476493000984192
1772810544189906000,4.143906005859375,-0.0838327407836914,-0.018736355006694794,0.00006589293479919434
1772810544209665800,4.163665771484375,-0.08143806457519531,-0.011522859334945679,-0.007097959518432617
1772810544229425700,4.18342578125,-0.0886240005493164,-0.023820534348487854,-0.02610689401626587
1772810544249185500,4.203185546875,-0.09341812133789062,0.0027401745319366455,-0.030736669898033142
1772810544268945400,4.2229453125,-0.09581565856933594,-0.004379168152809143,-0.011440128087997437
1772810544288705300,4.242705322265625,-0.09102535247802734,-0.011694371700286865,-0.01380254328250885
1772810544308465000,4.26246484375,-0.0697641372680664,-0.004647940397262573,-0.025728359818458557
1772810544328224800,4.282224853515625,-0.09581851959228516,-0.021343305706977844,-0.02072201669216156
1772810544347984600,4.301984619140625,-0.060189247131347656,-0.006762661039829254,-0.023001760244369507
1772810544367744500,4.32174462890625,-0.07665729522705078,0.0099281445145607,-0.020647108554840088
1772810544387504400,4.34150439453125,-0.09342002868652344,-0.011675916612148285,-0.020946726202964783
1772810544407264300,4.36126416015625,-0.07665443420410156,-0.018686629831790924,-0.02099008858203888
1772810544427024000,4.38102392578125,-0.08384132385253906,0.0054089948534965515,-0.021085336804389954
1772810544446783700,4.40078369140625,-0.08144569396972656,-0.01650698482990265,-0.03682965040206909
1772810544466543600,4.420543701171875,-0.09312152862548828,-0.01900932937860489,-0.022395208477973938
1772810544486304000,4.440303955078125,-0.0721597671508789,-0.01599905639886856,-0.014166340231895447
1772810544506064600,4.460064697265625,-0.0649709701538086,-0.001734025776386261,-0.02388925850391388
1772810544525825300,4.4798251953125,-0.09102249145507812,-0.013751156628131866,-0.014204204082489014
1772810544545586000,4.4995859375,-0.10030651092529297,-0.018626928329467773,-0.028400540351867676
1772810544565346600,4.5193466796875,-0.08862781524658203,-0.0018639862537384033,-0.01652325689792633
1772810544585107200,4.539107177734375,-0.08622932434082031,-0.006863243877887726,-0.021352455019950867
1772810544604867800,4.558867919921875,-0.06975746154785156,-0.023808293044567108,-0.02388879656791687
1772810544624628200,4.578628173828125,-0.09101390838623047,-0.002256549894809723,-0.012119472026824951
1772810544644388900,4.598388916015625,-0.0886220932006836,0.00012981891632080078,-0.009472832083702087
1772810544664149500,4.6181494140625,-0.0838308334350586,-0.004974745213985443,-0.006931334733963013
1772810544683910100,4.63791015625,-0.09820175170898438,-0.021720558404922485,-0.021693512797355652
1772810544703670800,4.6576708984375,-0.06496238708496094,-0.024784810841083527,-0.03643590211868286
1772810544723431400,4.677431396484375,-0.07664012908935547,0.004103459417819977,-0.024598151445388794
1772810544743192000,4.697192138671875,-0.07664203643798828,-0.02705375850200653,-0.024530813097953796
1772810544762952700,4.71695263671875,-0.102691650390625,-0.007836498320102692,-0.031791314482688904
1772810544782713300,4.73671337890625,-0.09819889068603516,-0.0007095932960510254,-0.010237529873847961
1772810544802474000,4.756473876953125,-0.08382892608642578,-0.007634751498699188,-0.0198095440864563
1772810544822234400,4.776234375,-0.06496810913085938,-0.016993939876556396,-0.007684826850891113
1772810544841995000,4.7959951171875,-0.07185745239257812,-0.035954318940639496,-0.0196521133184433
1772810544861755600,4.815755615234375,-0.07425403594970703,-0.004710361361503601,-0.017250820994377136
1772810544881516300,4.835516357421875,-0.08144187927246094,-0.009545095264911652,-0.02676054835319519
1772810544901277000,4.85527685546875,-0.08862495422363281,0.000026434659957885742,-0.024501144886016846
1772810544921037600,4.87503759765625,-0.07185935974121094,-0.00949724018573761,-0.026771366596221924
1772810544940798200,4.894798095703125,-0.06706714630126953,-0.011936403810977936,-0.017232432961463928
1772810544960558800,4.914558837890625,-0.1024007797241211,-0.0023432448506355286,-0.029233857989311218
1772810544980319500,4.934319580078125,-0.09102439880371094,-0.019012153148651123,-0.014755383133888245
1772810545000080000,4.954079833984375,-0.09312057495117188,-0.009452290832996368,-0.029048874974250793
1772810545019840300,4.97384033203125,-0.09102916717529297,-0.018780045211315155,-0.019353553652763367
1772810545039600600,4.9936005859375,-0.08144569396972656,-0.01639370620250702,-0.015260159969329834
1772810545059360800,5.01336083984375,-0.07665729522705078,-0.013907253742218018,-0.024718865752220154
1772810545079121200,5.03312109375,-0.0955209732055664,-0.021092131733894348,-0.012794584035873413
1772810545098881500,5.052881591796875,-0.08623695373535156,-0.004172340035438538,-0.0099591463804245
1772810545118642000,5.072641845703125,-0.08623600006103516,0.0006107538938522339,-0.01968604326248169
1772810545138402300,5.09240234375,-0.07665061950683594,-0.02560225874185562,-0.024818286299705505
1772810545158162700,5.11216259765625,-0.08623313903808594,-0.03258948773145676,-0.029631778597831726
1772810545177923000,5.131923095703125,-0.062279701232910156,-0.020487189292907715,-0.01525166630744934
1772810545197683200,5.15168310546875,-0.08144283294677734,-0.013391673564910889,-0.031986579298973083
1772810545217443600,5.171443603515625,-0.06258010864257812,-0.018214143812656403,-0.010326236486434937
1772810545237204000,5.191203857421875,-0.09342193603515625,-0.018190883100032806,-0.015062764286994934
1772810545256964400,5.21096435546875,-0.08862781524658203,-0.0015328004956245422,-0.01048155128955841
1772810545276724700,5.230724853515625,-0.06946659088134766,0.003244541585445404,-0.024679213762283325
1772810545296485000,5.250485107421875,-0.06947040557861328,-0.010988444089889526,-0.025050371885299683
1772810545316245200,5.270245361328125,-0.0931243896484375,-0.013344250619411469,-0.02757507562637329
1772810545336005600,5.290005615234375,-0.07186603546142578,-0.0037395358085632324,-0.02271425724029541
1772810545355766000,5.30976611328125,-0.07426071166992188,0.003198876976966858,-0.03938344120979309
1772810545375526400,5.3295263671875,-0.0787496566772461,-0.01139465719461441,-0.037100404500961304
1772810545395286800,5.349286865234375,-0.08384037017822266,-0.011408165097236633,-0.020267710089683533
1772810545415047200,5.369047119140625,-0.07665824890136719,-0.020833544433116913,-0.02961297333240509
1772810545434807300,5.388807373046875,-0.09552383422851562,-0.013500794768333435,-0.010454565286636353
1772810545454567700,5.408567626953125,-0.08384418487548828,-0.015746504068374634,-0.020230457186698914
1772810545474328000,5.428328125,-0.07905387878417969,-0.008579656481742859,-0.024998903274536133
1772810545494088400,5.44808837890625,-0.07665824890136719,-0.020455151796340942,-0.010080665349960327
1772810545513850000,5.46785009765625,-0.0787515640258789,-0.0037149563431739807,-0.027080848813056946
1772810545533611500,5.487611572265625,-0.0694723129272461,-0.013255611062049866,-0.007667079567909241
1772810545553373000,5.507373046875,-0.08864021301269531,-0.010836929082870483,-0.016879349946975708
1772810545573134300,5.52713427734375,-0.07427215576171875,-0.015558131039142609,-0.009438931941986084
1772810545592896000,5.54689599609375,-0.09104156494140625,-0.012992903590202332,-0.028625473380088806
1772810545612657400,5.566657470703125,-0.08145713806152344,-0.020200885832309723,-0.019187480211257935
1772810545632418800,5.586418701171875,-0.06468391418457031,-0.003897450864315033,-0.028842970728874207
1772810545652180200,5.60618017578125,-0.09073543548583984,-0.023030251264572144,-0.01695922017097473
1772810545671942000,5.62594189453125,-0.09103012084960938,0.00574900209903717,-0.021991267800331116
1772810545691703300,5.645703369140625,-0.0838479995727539,-0.0035766512155532837,-0.005184084177017212
1772810545711464700,5.665464599609375,-0.06947612762451172,-0.0009328871965408325,-0.024323314428329468
1772810545731226400,5.685226318359375,-0.10511493682861328,-0.017628878355026245,-0.021547988057136536
1772810545750987800,5.70498779296875,-0.07188129425048828,0.013425320386886597,-0.026053383946418762
1772810545770749200,5.724749267578125,-0.06259822845458984,-0.010571785271167755,-0.025974571704864502
1772810545790510600,5.744510498046875,-0.07218647003173828,-0.02171213924884796,-0.025742769241333008
1772810545810272300,5.764272216796875,-0.06499958038330078,-0.02631068229675293,-0.021036297082901
1772810545830033700,5.78403369140625,-0.09584236145019531,-0.002514667809009552,-0.008312344551086426
1772810545849795000,5.803795166015625,-0.07667827606201172,-0.024243853986263275,-0.017831668257713318
1772810545869556500,5.823556396484375,-0.07907581329345703,0.0019905120134353638,-0.029672354459762573
1772810545889318100,5.843318115234375,-0.08147144317626953,-0.031782642006874084,-0.013551056385040283
1772810545909079600,5.86307958984375,-0.07428455352783203,-0.015269078314304352,-0.026048213243484497
1772810545928841000,5.882841064453125,-0.08865833282470703,-0.017513245344161987,-0.01895059645175934
1772810545948602400,5.902602294921875,-0.06709861755371094,-0.01018744707107544,-0.023821532726287842
1772810545968364000,5.922364013671875,-0.07668399810791016,-0.024601921439170837,-0.021148964762687683
1772810545988125400,5.94212548828125,-0.05991554260253906,-0.00540807843208313,-0.011671438813209534
1772810546007886300,5.96188623046875,-0.06710052490234375,-0.007565774023532867,-0.011825382709503174
1772810546027647000,5.98164697265625,-0.06949424743652344,-0.01037687063217163,-0.01431979238986969
1772810546047407900,6.001407958984375,-0.08596420288085938,-0.010640129446983337,-0.02203311026096344
1772810546067168500,6.02116845703125,-0.07428550720214844,-0.01767420768737793,-0.0222180038690567
1772810546086929400,6.040929443359375,-0.08147430419921875,-0.009856656193733215,-0.009696245193481445
1772810546106690000,6.06068994140625,-0.07908153533935547,-0.02086668461561203,-0.028098419308662415
1772810546126451000,6.080450927734375,-0.08866214752197266,-0.02583516389131546,-0.025350749492645264
1772810546146211600,6.100211669921875,-0.06949615478515625,-0.01156974583864212,-0.013194650411605835
1772810546165972500,6.119972412109375,-0.08387088775634766,-0.021084055304527283,-0.029846861958503723
1772810546185733000,6.139733154296875,-0.07428836822509766,-0.023508980870246887,-0.02749529480934143
1772810546205494000,6.159493896484375,-0.08386802673339844,-0.013814814388751984,-0.0061795711517333984
1772810546225254700,6.179254638671875,-0.0862588882446289,-0.02815430611371994,-0.01852932572364807
1772810546245015600,6.199015625,-0.06530475616455078,-0.023341789841651917,-0.015580341219902039
1772810546264776200,6.218776123046875,-0.09344959259033203,-0.00907578319311142,-0.022872522473335266
1772810546284537000,6.238537109375,-0.07907962799072266,0.00028627365827560425,-0.02551145851612091
1772810546304297700,6.258297607421875,-0.07668399810791016,-0.01895451545715332,-0.021128565073013306
1772810546324058600,6.27805859375,-0.07668590545654297,0.00517214834690094,-0.0258617103099823
1772810546343819300,6.2978193359375,-0.08866310119628906,-0.02111043781042099,-0.01156201958656311
1772810546363580200,6.317580078125,-0.1003408432006836,-0.01641252636909485,-0.009092181921005249
1772810546383340800,6.3373408203125,-0.086273193359375,-0.0138588547706604,-0.013591796159744263
1772810546403101700,6.357101806640625,-0.091064453125,-0.004317536950111389,-0.011168256402015686
1772810546422862300,6.3768623046875,-0.08148002624511719,-0.004256218671798706,-0.016178250312805176
1772810546442623200,6.396623291015625,-0.0790863037109375,-0.013808131217956543,-0.013697832822799683
1772810546462383900,6.4163837890625,-0.07908821105957031,0.012467168271541595,-0.013807803392410278
1772810546482144800,6.436144775390625,-0.0838766098022461,-0.001956559717655182,-0.011590048670768738
1772810546501904600,6.455904541015625,-0.07459163665771484,-0.014087319374084473,-0.006529673933982849
1772810546521663700,6.475663818359375,-0.08357620239257812,-0.011742480099201202,-0.013580113649368286
1772810546541422800,6.4954228515625,-0.10274124145507812,-0.023693189024925232,-0.02072116732597351
1772810546561182200,6.51518212890625,-0.060225486755371094,0.005326807498931885,-0.0038338154554367065
1772810546580941300,6.53494140625,-0.07908821105957031,0.009870484471321106,-0.008551046252250671
1772810546600700400,6.554700439453125,-0.08388042449951172,0.007230080664157867,-0.017780914902687073
1772810546620459500,6.57445947265625,-0.0626230239868164,-0.024243764579296112,-0.0342174768447876
1772810546640218600,6.594218505859375,-0.08149051666259766,-0.0003636777400970459,-0.02437320351600647
1772810546659977700,6.613977783203125,-0.08149051666259766,-0.019408874213695526,-0.019690588116645813
1772810546679736800,6.63373681640625,-0.07430267333984375,-0.01933974027633667,-0.02941390872001648
1772810546699496000,6.653495849609375,-0.09316539764404297,-0.01204758882522583,-0.005700618028640747
1772810546719255000,6.673255126953125,-0.08149051666259766,-0.01464293897151947,-0.01732686161994934
1772810546739014100,6.69301416015625,-0.0835866928100586,-0.012451715767383575,-0.014791935682296753
1772810546758773200,6.712773193359375,-0.07430839538574219,-0.007615268230438232,-0.02400965988636017
1772810546778532600,6.73253271484375,-0.062333106994628906,-0.01495363563299179,-0.016624540090560913
1772810546798291700,6.752291748046875,-0.07221126556396484,-0.017493143677711487,-0.016685783863067627
1772810546818050800,6.77205078125,-0.06023216247558594,-0.015194639563560486,-0.026360437273979187
1772810546837810000,6.791809814453125,-0.09556388854980469,0.0015443786978721619,-0.02640165388584137
1772810546857569000,6.811569091796875,-0.08867645263671875,-0.0294581800699234,-0.012099787592887878
1772810546877328100,6.831328125,-0.05065345764160156,-0.005463220179080963,-0.02864725887775421
1772810546897087200,6.851087158203125,-0.07910346984863281,0.006401039659976959,-0.00969521701335907
1772810546916846300,6.870846435546875,-0.07671165466308594,-0.02447759360074997,-0.019181206822395325
1772810546936605400,6.89060546875,-0.07670879364013672,-0.010377898812294006,-0.017055079340934753
1772810546956364500,6.910364501953125,-0.06473445892333984,-0.005569107830524445,-0.02153882384300232
1772810546976123600,6.93012353515625,-0.08360099792480469,-0.008140593767166138,-0.01974707841873169
1772810546995883000,6.949883056640625,-0.055156707763671875,-0.02709079533815384,-0.03170272707939148
1772810547015642600,6.969642578125,-0.07642173767089844,-0.003126084804534912,-0.024098709225654602
1772810547035402500,6.989402587890625,-0.07163238525390625,-0.0030117779970169067,-0.021652817726135254
1772810547055162400,7.009162353515625,-0.07881832122802734,-0.005341760814189911,-0.016974881291389465
1772810547074922000,7.028921875,-0.07881450653076172,-0.007668264210224152,-0.007730960845947266
1772810547094681600,7.048681640625,-0.08150959014892578,-0.026020288467407227,-0.013788074254989624
1772810547114441500,7.06844140625,-0.10486221313476562,0.012490890920162201,-0.011776089668273926
1772810547134201300,7.088201416015625,-0.07431888580322266,-0.018762849271297455,-0.021358221769332886
1772810547153961000,7.1079609375,-0.08868694305419922,-0.023578844964504242,-0.016886815428733826
1772810547173720800,7.127720947265625,-0.0838937759399414,0.00009576976299285889,-0.004945442080497742
1772810547193480400,7.14748046875,-0.0671234130859375,-0.006792314350605011,-0.00045499205589294434
1772810547213240300,7.167240234375,-0.074310302734375,-0.0018649399280548096,-0.012503191828727722
1772810547233000000,7.187,-0.08389663696289062,-0.009053952991962433,-0.021826982498168945
1772810547252759800,7.206759765625,-0.05096244812011719,-0.018618948757648468,-0.026296883821487427
1772810547272519400,7.22651953125,-0.07462310791015625,-0.013974793255329132,-0.011429697275161743
1772810547292279300,7.246279296875,-0.060256004333496094,-0.004541538655757904,-0.016313418745994568
1772810547312039000,7.266038818359375,-0.06475257873535156,-0.007123291492462158,-0.006145268678665161
1772810547331798800,7.285798828125,-0.07643795013427734,-0.004767924547195435,-0.0032195746898651123
1772810547351558700,7.30555859375,-0.06476783752441406,-0.012131862342357635,-0.014436736702919006
1772810547371318300,7.325318359375,-0.0695657730102539,-0.007371865212917328,-0.013885542750358582
1772810547391078100,7.345078125,-0.027044296264648438,-0.023931100964546204,-0.02371819317340851
1772810547410837800,7.364837646484375,-0.08841609954833984,-0.018734529614448547,-0.015285402536392212
1772810547430597600,7.38459765625,-0.0839242935180664,-0.018639378249645233,-0.00344984233379364
1772810547450357200,7.404357177734375,-0.07913398742675781,-0.008982427418231964,-0.013101249933242798
1772810547470117000,7.4241171875,-0.06237220764160156,-0.030213937163352966,-0.0343223512172699
1772810547489876700,7.443876708984375,-0.08153915405273438,-0.022986501455307007,-0.012225300073623657
1772810547509636900,7.463636962890625,-0.0932168960571289,-0.020418457686901093,-0.014385268092155457
1772810547529397000,7.48339697265625,-0.09112358093261719,-0.00590185821056366,-0.011905938386917114
1772810547549156900,7.503156982421875,-0.07914543151855469,-0.006013892590999603,-0.014367997646331787
1772810547568917000,7.5229169921875,-0.0815439224243164,0.008471399545669556,-0.019059181213378906
1772810547588677000,7.542677001953125,-0.0695657730102539,-0.01334257423877716,-0.04280884563922882
1772810547608437200,7.562437255859375,-0.08633708953857422,-0.008449122309684753,-0.0234869122505188
1772810547628197000,7.582197021484375,-0.09352588653564453,-0.015222236514091492,-0.01615642011165619
1772810547647957200,7.601957275390625,-0.06298255920410156,-0.015161529183387756,-0.013929307460784912
1772810547667717400,7.62171728515625,-0.07436466217041016,-0.0339735671877861,-0.018518880009651184
1772810547687477500,7.6414775390625,-0.07436275482177734,-0.0011595562100410461,-0.020913556218147278
1772810547707237600,7.661237548828125,-0.07915496826171875,-0.01522056758403778,-0.018472492694854736
1772810547726997500,7.68099755859375,-0.08873844146728516,-0.0011666268110275269,-0.01115313172340393
1772810547746757600,7.700757568359375,-0.0956268310546875,-0.008253030478954315,-0.001408904790878296
1772810547766517800,7.720517822265625,-0.08873939514160156,-0.0035828128457069397,-0.022961661219596863
1772810547786278000,7.74027783203125,-0.08394718170166016,-0.015704110264778137,-0.023058846592903137
1772810547806037800,7.760037841796875,-0.07196903228759766,-0.008324697613716125,-0.015780270099639893
1772810547825798000,7.7797978515625,-0.08395004272460938,-0.013460122048854828,-0.015533193945884705
1772810547845558000,7.79955810546875,-0.0815572738647461,-0.0014002695679664612,-0.005776986479759216
1772810547865318100,7.819318115234375,-0.08873939514160156,0.005853496491909027,-0.013289615511894226
1772810547885078000,7.839078125,-0.06029701232910156,-0.005911916494369507,-0.018306568264961243
1772810547904838100,7.858838134765625,-0.0671834945678711,-0.015344090759754181,-0.009126603603363037
1772810547924598300,7.878598388671875,-0.06718063354492188,-0.024960406124591827,-0.02123139798641205
1772810547944358400,7.8983583984375,-0.09083938598632812,-0.015227355062961578,-0.01637369394302368
1772810547964118500,7.918118408203125,-0.08604812622070312,-0.0057219937443733215,-0.013968363404273987
1772810547983878400,7.93787841796875,-0.1004190444946289,-0.020036138594150543,-0.0020599812269210815
1772810548003638500,7.957638427734375,-0.07676315307617188,-0.017641134560108185,-0.021350041031837463
1772810548023398700,7.977398681640625,-0.0815572738647461,0.0064149051904678345,-0.03322136402130127
1772810548043158500,7.997158447265625,-0.09802627563476562,-0.038945041596889496,-0.00921642780303955
1772810548062918700,8.016918701171875,-0.06718921661376953,-0.019670359790325165,-0.02330002188682556
1772810548082678500,8.036678466796875,-0.06718730926513672,-0.0031974464654922485,-0.020579025149345398
1772810548102438700,8.056438720703126,-0.08395957946777344,-0.02640537917613983,-0.0033165961503982544
1772810548122198500,8.076198486328124,-0.07677650451660156,-0.007380552589893341,-0.007956430315971375
1772810548141958700,8.095958740234375,-0.07198619842529297,-0.01653195172548294,-0.0005434006452560425
1772810548161718800,8.11571875,-0.05581855773925781,0.00027520954608917236,-0.014449357986450195
1772810548181478700,8.135478759765626,-0.0839681625366211,0.0003095194697380066,0.0023982971906661987
1772810548201238800,8.15523876953125,-0.0839691162109375,-0.018823258578777313,-0.023764342069625854
1772810548220999000,8.1749990234375,-0.08187484741210938,-0.00673917680978775,-0.014223016798496246
1772810548240758800,8.1947587890625,-0.0935516357421875,0.0005860030651092529,-0.019093483686447144
1772810548260519000,8.214518798828125,-0.07199573516845703,-0.025613434612751007,-0.02852845937013626
1772810548280278800,8.23427880859375,-0.08397674560546875,-0.0019662901759147644,0.0024930164217948914
1772810548300039000,8.254038818359374,-0.06960010528564453,-0.026026546955108643,-0.009886346757411957
1772810548319798800,8.273798828125,-0.08157730102539062,0.0024009868502616882,-0.019598573446273804
1772810548339559000,8.293558837890625,-0.06510734558105469,-0.014398224651813507,-0.012404143810272217
1772810548359319000,8.313319091796876,-0.06031608581542969,-0.0023772791028022766,-0.01717517524957657
1772810548379079000,8.333078857421874,-0.08157634735107422,-0.014334827661514282,-0.007596291601657867
1772810548398839000,8.352839111328125,-0.08157539367675781,-0.026118502020835876,-0.012483492493629456
1772810548418599000,8.372598876953125,-0.07678699493408203,-0.019153393805027008,-0.014707542955875397
1772810548438359000,8.392359130859376,-0.07438850402832031,-0.0002608373761177063,-0.009913600981235504
1772810548458119200,8.412119140625,-0.081573486328125,-0.009778432548046112,-0.010119393467903137
1772810548477879000,8.431879150390625,-0.07678508758544922,0.0023887157440185547,-0.019625917077064514
1772810548497639400,8.451639404296875,-0.0698995590209961,-0.01664433628320694,-0.017160601913928986
1772810548517400600,8.471400634765626,-0.09085941314697266,0.000009894371032714844,-0.012414902448654175
1772810548537161700,8.49116162109375,-0.08606719970703125,-0.009615279734134674,-0.0004053190350532532
1772810548556923000,8.5109228515625,-0.08637332916259766,-0.012046366930007935,-0.0046907588839530945
1772810548576684000,8.53068408203125,-0.06241607666015625,-0.024027608335018158,-0.02168978750705719
1772810548596445200,8.550445068359375,-0.09804916381835938,-0.011932700872421265,-0.002541087567806244
1772810548616206300,8.570206298828126,-0.07918739318847656,0.0049630701541900635,-0.002399437129497528
1772810548635967500,8.589967529296874,-0.08158588409423828,0.002704136073589325,-0.014261744916439056
1772810548655728600,8.609728759765625,-0.0744009017944336,-0.01409400999546051,-0.014147065579891205
1772810548675489800,8.62948974609375,-0.07919502258300781,-0.006695277988910675,0.0003571435809135437
1772810548695251000,8.6492509765625,-0.06302642822265625,0.00834716111421585,-0.006235882639884949
1772810548715012000,8.66901220703125,-0.07680130004882812,-0.010807067155838013,-0.02291744202375412
1772810548734773200,8.688773193359374,-0.0699167251586914,-0.008350737392902374,-0.00839206576347351
1772810548754534400,8.708534423828125,-0.07950305938720703,-0.005799345672130585,-0.007888540625572205
1772810548774295600,8.728295654296875,-0.07021903991699219,-0.005746595561504364,-0.014864407479763031
1772810548794056700,8.748056640625,-0.07710647583007812,-0.001016758382320404,-0.01485065370798111
1772810548813817900,8.76781787109375,-0.07471179962158203,-0.003262855112552643,-0.007615096867084503
1772810548833579000,8.7875791015625,-0.09357452392578125,-0.005552828311920166,-0.0030461102724075317
1772810548853340200,8.807340087890625,-0.0774087905883789,-0.005552254617214203,-0.00041253864765167236
1772810548873101300,8.827101318359375,-0.09148406982421875,-0.00799252837896347,-0.012124806642532349
1772810548892862500,8.846862548828126,-0.058243751525878906,-0.0055953264236450195,-0.01780298352241516
1772810548912623600,8.86662353515625,-0.07441425323486328,-0.02461056411266327,-0.0178326815366745
1772810548932384800,8.886384765625,-0.07201862335205078,-0.0006621330976486206,-0.017865583300590515
1772810548952146000,8.90614599609375,-0.08639144897460938,-0.012470364570617676,0.0012241750955581665
1772810548971907000,8.925906982421875,-0.08878707885742188,-0.019623368978500366,-0.010645478963851929
1772810548991668200,8.945668212890626,-0.08878421783447266,0.0018676891922950745,-0.020406804978847504
1772810549011428600,8.9654287109375,-0.07471275329589844,0.011254042387008667,-0.020223654806613922
1772810549031188700,8.985188720703125,-0.08399391174316406,-0.0008366256952285767,-0.0010789036750793457
1772810549050949000,9.00494921875,-0.07471179962158203,-0.0032923147082328796,-0.015381589531898499
1772810549070709500,9.02470947265625,-0.07711029052734375,-0.005585037171840668,-0.012872159481048584
1772810549090470000,9.044469970703124,-0.06752872467041016,-0.013001836836338043,-0.006237834692001343
1772810549110230300,9.064230224609375,-0.08399391174316406,0.005991622805595398,-0.008995041251182556
1772810549129990400,9.083990478515625,-0.08638763427734375,-0.01066829264163971,-0.00904788076877594
1772810549149750800,9.103750732421876,-0.095672607421875,-0.010953672230243683,-0.016011297702789307
1772810549169511200,9.12351123046875,-0.08399677276611328,-0.013177178800106049,-0.013551384210586548
1772810549189271600,9.143271484375,-0.0792093276977539,0.0013855546712875366,-0.01831880956888199
1772810549209031700,9.16303173828125,-0.09118270874023438,-0.010629385709762573,-0.011282205581665039
1772810549228792000,9.1827919921875,-0.067230224609375,-0.005835376679897308,-0.006342694163322449
1772810549248552400,9.202552490234375,-0.0863943099975586,-0.00811883807182312,-0.008842572569847107
1772810549268312800,9.222312744140625,-0.07441997528076172,-0.010553643107414246,-0.022973887622356415
1772810549288073000,9.242072998046876,-0.07442378997802734,-0.022285059094429016,-0.0012761950492858887
1772810549307833300,9.261833251953124,-0.05795860290527344,-0.0078049227595329285,-0.017813757061958313
1772810549327593700,9.28159375,-0.08401107788085938,-0.0027625486254692078,-0.003453269600868225
1772810549347354000,9.30135400390625,-0.055565834045410156,-0.014820106327533722,-0.010530859231948853
1772810549367114500,9.321114501953126,-0.08401012420654297,0.0042175427079200745,-0.013070628046989441
1772810549386874600,9.34087451171875,-0.08401012420654297,0.008919782936573029,-0.020072855055332184
1772810549406635000,9.360635009765625,-0.08640766143798828,-0.017402172088623047,-0.017500340938568115
1772810549426395400,9.3803955078125,-0.08161640167236328,-0.007866017520427704,-0.008022837340831757
1772810549446155500,9.400155517578124,-0.06724357604980469,-0.024689234793186188,-0.007921464741230011
1772810549465916000,9.419916015625,-0.07682037353515625,-0.005706675350666046,0.00132780522108078
1772810549485676000,9.439676025390625,-0.07202625274658203,-0.008174896240234375,-0.0060114189982414246
1772810549505436200,9.459436279296876,-0.09119224548339844,-0.007232896983623505,0.004934690892696381
1772810549525196000,9.479196044921874,-0.08490371704101562,-0.013397082686424255,-0.0033699050545692444
1772810549544956000,9.498955810546875,-0.089996337890625,0.004143334925174713,-0.005958132445812225
1772810549564716000,9.518716064453125,-0.07382869720458984,-0.00478893518447876,-0.006757549941539764
1772810549584476000,9.538475830078125,-0.07682418823242188,-0.0178825706243515,-0.005267634987831116
1772810549604235800,9.55823583984375,-0.08670711517333984,-0.019536875188350677,-0.008162565529346466
1772810549623996000,9.577995849609374,-0.09179401397705078,-0.018409356474876404,0.0026815906167030334
1772810549643755800,9.597755859375,-0.08490371704101562,0.0036753863096237183,0.001500159502029419
1772810549663515600,9.617515625,-0.07622146606445312,0.00006224960088729858,-0.0061839669942855835
1772810549683275500,9.637275634765626,-0.0765228271484375,-0.006439298391342163,0.007693834602832794
1772810549703035600,9.65703564453125,-0.07682418823242188,-0.004595652222633362,-0.012458190321922302
1772810549722795500,9.67679541015625,-0.09119892120361328,0.000111408531665802,-0.012151867151260376
1772810549742555600,9.6965556640625,-0.0840139389038086,-0.004745014011859894,-0.012095965445041656
1772810549762315500,9.7163154296875,-0.06964111328125,-0.016604766249656677,-0.009752392768859863
1772810549782075400,9.736075439453124,-0.0744333267211914,-0.01658981293439865,-0.01925993710756302
1772810549801835300,9.755835205078125,-0.09119987487792969,0.000048808753490448,0.0023198723793029785
1772810549821595400,9.775595458984375,-0.074432373046875,-0.009733311831951141,-0.029314570128917694
1772810549841355300,9.795355224609375,-0.06275367736816406,-0.00735299289226532,0.006673097610473633
1772810549861115100,9.815115234375,-0.07712650299072266,0.006438098847866058,-0.0101914182305336
1772810549880875300,9.834875244140624,-0.07203960418701172,-0.0096873939037323,-0.021940775215625763
1772810549900635100,9.85463525390625,-0.10318279266357422,0.002217799425125122,-0.012056052684783936
1772810549920395000,9.87439501953125,-0.0864105224609375,-0.014240652322769165,-0.016790024936199188
1772810549940155000,9.89415478515625,-0.08640861511230469,-0.009547896683216095,-0.007311664521694183
1772810549959915000,9.9139150390625,-0.07203960418701172,0.004833534359931946,-0.011848293244838715
1772810549979675000,9.9336748046875,-0.06515216827392578,0.004699677228927612,-0.00695425271987915
1772810549999435000,9.95343505859375,-0.10527706146240234,0.004458807408809662,-0.011748850345611572
1772810550019195400,9.9731953125,-0.10318374633789062,0.004874169826507568,-0.006811797618865967
1772810550038955800,9.992955810546874,-0.08402156829833984,-0.018750272691249847,-0.014039963483810425
1772810550058716200,10.012716064453125,-0.07922840118408203,-0.009266354143619537,-0.01189163327217102
1772810550078476500,10.0324765625,-0.07443714141845703,-0.016342967748641968,-0.009555138647556305
1772810550098237000,10.05223681640625,-0.10078239440917969,-0.002290375530719757,-0.007826529443264008
1772810550117997300,10.071997314453125,-0.08880233764648438,-0.007192917168140411,-0.017843373119831085
1772810550137757700,10.0917578125,-0.0816183090209961,0.0021592602133750916,-0.0009931102395057678
1772810550157518000,10.11151806640625,-0.09119701385498047,-0.009467124938964844,-0.005951195955276489
1772810550177278500,10.131278564453124,-0.08880329132080078,-0.0024417564272880554,-0.005900874733924866
1772810550197038800,10.151038818359375,-0.08161449432373047,0.004754506051540375,-0.013294808566570282
1772810550216799200,10.17079931640625,-0.08400535583496094,-0.012149892747402191,-0.02791847288608551
1772810550256320000,10.210320068359374,-0.08400154113769531,-0.005007289350032806,-0.023440808057785034
1772810550276080400,10.230080322265625,-0.08400344848632812,0.0021913573145866394,-0.013804472982883453
1772810550295840500,10.249840576171875,-0.07201957702636719,-0.012220129370689392,-0.016641221940517426
1772810550315601200,10.26960107421875,-0.076812744140625,-0.00479520857334137,-0.0046335384249687195
1772810550335361500,10.289361572265625,-0.06034374237060547,-0.0046982914209365845,-0.016638435423374176
1772810550355121700,10.30912158203125,-0.07441520690917969,0.00016310811042785645,-0.014445483684539795
1772810550374882300,10.32888232421875,-0.076812744140625,-0.004792980849742889,-0.009439975023269653
1772810550394642400,10.348642333984374,-0.07681083679199219,-0.0000826120376586914,-0.014281198382377625
1772810550414402800,10.36840283203125,-0.06033802032470703,-0.021922089159488678,-0.02647443115711212
1772810550434163200,10.3881630859375,-0.08877944946289062,-0.0005641207098960876,-0.017123810946941376
1772810550453923600,10.407923583984376,-0.06482124328613281,-0.012574106454849243,-0.005371496081352234
1772810550473684000,10.42768408203125,-0.09326744079589844,-0.010154880583286285,-0.022056996822357178
1772810550493444400,10.4474443359375,-0.07201194763183594,-0.005154378712177277,-0.03585086017847061
1772810550513204700,10.467204833984376,-0.0723104476928711,-0.0025858506560325623,-0.025937914848327637
1772810550532965000,10.486965087890624,-0.07919597625732422,-0.009877286851406097,-0.021169573068618774
1772810550552725200,10.506725341796875,-0.0794973373413086,-0.012317299842834473,-0.02103929966688156
1772810550572485600,10.526485595703125,-0.0887746810913086,-0.019635744392871857,-0.011762268841266632
1772810550592245800,10.546245849609376,-0.07230758666992188,-0.019663438200950623,-0.016330070793628693
1772810550612006100,10.566006103515624,-0.06991291046142578,-0.0003163442015647888,-0.008600637316703796
1772810550631766500,10.5857666015625,-0.06542110443115234,-0.00023774057626724243,-0.022991791367530823
1772810550651526700,10.605526611328125,-0.08398628234863281,-0.002598688006401062,-0.032672300934791565
1772810550671287000,10.625287109375,-0.06541919708251953,-0.0026179328560829163,-0.00643351674079895
1772810550691047200,10.645047119140624,-0.07500267028808594,-0.0024287477135658264,-0.018442302942276
1772810550710807600,10.6648076171875,-0.06062889099121094,-0.01189662516117096,-0.016774743795394897
1772810550730568000,10.68456787109375,-0.07021141052246094,0.00950295478105545,-0.018999338150024414
1772810550750328000,10.704328125,-0.07949447631835938,0.009452588856220245,-0.016339391469955444
1772810550770088400,10.72408837890625,-0.06542015075683594,-0.009765177965164185,-0.001583680510520935
1772810550789848600,10.7438486328125,-0.09596824645996094,0.0019207000732421875,-0.010543547570705414
1772810550809609000,10.76360888671875,-0.07231903076171875,-0.015198111534118652,-0.017038948833942413
1772810550829369300,10.783369384765624,-0.09358501434326172,-0.003237687051296234,-0.023674868047237396
1772810550849129500,10.80312939453125,-0.07502269744873047,-0.005696281790733337,-0.01870616525411606
1772810550868889900,10.822889892578125,-0.07232475280761719,-0.005400754511356354,-0.021534651517868042
1772810550888650000,10.84264990234375,-0.07231426239013672,-0.021523110568523407,-0.017959661781787872
