time,seconds_elapsed,z,y,x
1772810399648124000,0.1771240234375,0.001864211168140173,0.0057257916778326035,-0.001731053227558732
1772810399667886300,0.19688623046875,-0.00026631588116288185,-0.0006657897029072046,0.0014647373463958502
1772810399677767400,0.206767333984375,0.0007989476434886456,-0.00013315794058144093,-0.00013315794058144093
1772810399687648500,0.2166484375,-0.00026631588116288185,-0.0011984214652329683,0.0009321055840700865
1772810399697529600,0.226529541015625,0.00026631588116288185,-0.0006657897029072046,0.0003994738217443228
1772810399707410700,0.23641064453125,0.0013315794058144093,-0.00013315794058144093,-0.001731053227558732
1772810399717291800,0.246291748046875,-0.00026631588116288185,-0.0006657897029072046,-0.0011984214652329683
1772810399727173000,0.256173095703125,0.0013315794058144093,0.0014647373463958502,-0.0006657897029072046
1772810399737054200,0.26605419921875,-0.00026631588116288185,-0.0027963167522102594,-0.001731053227558732
1772810399746935300,0.275935302734375,-0.0007989476434886456,0.0003994738217443228,0.0009321055840700865
1772810399756816400,0.28581640625,0.00026631588116288185,0.0003994738217443228,0.0014647373463958502
1772810399766697500,0.295697509765625,0.0007989476434886456,0.0003994738217443228,0.0003994738217443228
1772810399776578600,0.30557861328125,-0.00026631588116288185,-0.00013315794058144093,-0.0006657897029072046
1772810399786460000,0.3154599609375,0.00026631588116288185,-0.001731053227558732,-0.0006657897029072046
1772810399796341000,0.325341064453125,0.00026631588116288185,-0.0022636849898844957,0.0003994738217443228
1772810399806222000,0.33522216796875,0.0007989476434886456,-0.0011984214652329683,0.0009321055840700865
1772810399816103200,0.345103271484375,-0.0007989476434886456,0.0003994738217443228,0.0009321055840700865
1772810399825984300,0.354984375,0.0007989476434886456,-0.0006657897029072046,-0.0006657897029072046
1772810399835865300,0.364865234375,0.00026631588116288185,0.0014647373463958502,-0.00013315794058144093
1772810399845746400,0.374746337890625,-0.00026631588116288185,0.0014647373463958502,0.0003994738217443228
1772810399855627500,0.38462744140625,-0.0007989476434886456,-0.00013315794058144093,0.0003994738217443228
1772810399865508900,0.3945087890625,0.0013315794058144093,0.0003994738217443228,-0.0006657897029072046
1772810399875390000,0.404389892578125,0.00026631588116288185,0.0003994738217443228,-0.00013315794058144093
1772810399885271000,0.41427099609375,0.0007989476434886456,-0.0027963167522102594,-0.0011984214652329683
1772810399895152000,0.424152099609375,0.0007989476434886456,-0.00013315794058144093,-0.0011984214652329683
1772810399905033200,0.434033203125,-0.0007989476434886456,-0.001731053227558732,-0.0006657897029072046
1772810399914914300,0.443914306640625,-0.00026631588116288185,-0.0006657897029072046,0.0009321055840700865
1772810399924795400,0.45379541015625,-0.00026631588116288185,-0.00013315794058144093,-0.00013315794058144093
1772810399934676700,0.4636767578125,-0.00026631588116288185,-0.00013315794058144093,0.001997369108721614
1772810399944557800,0.473557861328125,-0.00026631588116288185,0.0003994738217443228,-0.00013315794058144093
1772810399954439000,0.48343896484375,-0.001864211168140173,0.0009321055840700865,-0.0006657897029072046
1772810399964320000,0.493320068359375,0.0007989476434886456,-0.0022636849898844957,0.001997369108721614
1772810399974201000,0.503201171875,-0.0007989476434886456,-0.0006657897029072046,-0.00013315794058144093
1772810399984082200,0.513082275390625,-0.0007989476434886456,-0.0011984214652329683,0.0009321055840700865
1772810399993963500,0.522963623046875,0.0013315794058144093,0.001997369108721614,0.0003994738217443228
1772810400003843300,0.53284326171875,-0.0007989476434886456,0.0009321055840700865,-0.00013315794058144093
1772810400013723000,0.542722900390625,-0.001864211168140173,-0.00013315794058144093,-0.0011984214652329683
1772810400023602700,0.552602783203125,0.00026631588116288185,0.001997369108721614,-0.0006657897029072046
1772810400033482200,0.562482177734375,-0.0007989476434886456,-0.0011984214652329683,0.0003994738217443228
1772810400043362000,0.572362060546875,-0.0007989476434886456,-0.00013315794058144093,0.0003994738217443228
1772810400053241600,0.58224169921875,0.0007989476434886456,-0.003861580276861787,0.0014647373463958502
1772810400063121400,0.592121337890625,-0.00026631588116288185,-0.0011984214652329683,-0.001731053227558732
1772810400073001000,0.6020009765625,0.0007989476434886456,-0.0022636849898844957,0.0014647373463958502
1772810400082880800,0.611880859375,0.0007989476434886456,0.0025300008710473776,-0.00013315794058144093
1772810400092760300,0.62176025390625,-0.0007989476434886456,-0.0011984214652329683,-0.00013315794058144093
1772810400102640000,0.63164013671875,-0.0007989476434886456,0.001997369108721614,0.0009321055840700865
1772810400112519700,0.641519775390625,-0.00026631588116288185,-0.00013315794058144093,-0.0006657897029072046
1772810400122399500,0.6513994140625,0.00026631588116288185,-0.0006657897029072046,-0.00013315794058144093
1772810400132279000,0.661279052734375,0.0007989476434886456,-0.00013315794058144093,0.001997369108721614
1772810400142158800,0.671158935546875,-0.0013315794058144093,-0.0027963167522102594,-0.0006657897029072046
1772810400152038700,0.68103857421875,-0.00026631588116288185,0.0003994738217443228,-0.00013315794058144093
1772810400161918200,0.690918212890625,-0.00026631588116288185,0.0014647373463958502,-0.00013315794058144093
1772810400171798000,0.700798095703125,0.00026631588116288185,-0.0011984214652329683,-0.0006657897029072046
1772810400181677600,0.710677490234375,-0.00026631588116288185,-0.00013315794058144093,-0.001731053227558732
1772810400191557400,0.720557373046875,-0.00026631588116288185,-0.001731053227558732,0.0025300008710473776
1772810400201437000,0.73043701171875,0.0007989476434886456,0.0003994738217443228,-0.0011984214652329683
1772810400211316700,0.740316650390625,-0.0007989476434886456,-0.0011984214652329683,0.0003994738217443228
1772810400221196300,0.7501962890625,-0.00026631588116288185,0.0003994738217443228,-0.00013315794058144093
1772810400231076000,0.760076171875,0.00026631588116288185,-0.0006657897029072046,0.0009321055840700865
1772810400240955600,0.76995556640625,-0.0023968429304659367,-0.001731053227558732,0.0003994738217443228
1772810400250835500,0.77983544921875,-0.0007989476434886456,-0.0022636849898844957,0.0003994738217443228
1772810400260715300,0.78971533203125,-0.0013315794058144093,-0.001731053227558732,-0.0011984214652329683
1772810400270594800,0.7995947265625,0.0007989476434886456,0.001997369108721614,0.0009321055840700865
1772810400280474600,0.809474609375,-0.00026631588116288185,0.0003994738217443228,-0.0011984214652329683
1772810400290354200,0.819354248046875,0.0013315794058144093,0.0003994738217443228,-0.00013315794058144093
1772810400300234000,0.82923388671875,-0.00026631588116288185,-0.0011984214652329683,0.0003994738217443228
1772810400310113500,0.839113525390625,0.0007989476434886456,-0.0011984214652329683,0.0003994738217443228
1772810400319993300,0.848993408203125,0.00026631588116288185,-0.00013315794058144093,-0.00013315794058144093
1772810400329873000,0.858872802734375,0.00026631588116288185,0.0014647373463958502,0.0014647373463958502
1772810400339752700,0.868752685546875,-0.00026631588116288185,0.0003994738217443228,-0.00013315794058144093
1772810400349632300,0.87863232421875,0.00026631588116288185,-0.00013315794058144093,0.0009321055840700865
1772810400359512000,0.888511962890625,0.0007989476434886456,-0.00013315794058144093,0.0003994738217443228
1772810400369391600,0.8983916015625,-0.0013315794058144093,0.0009321055840700865,-0.0011984214652329683
1772810400379271400,0.908271484375,0.00026631588116288185,0.0009321055840700865,0.001997369108721614
1772810400389151000,0.91815087890625,-0.00026631588116288185,0.0003994738217443228,-0.0006657897029072046
1772810400399030800,0.92803076171875,-0.0007989476434886456,-0.00013315794058144093,-0.00013315794058144093
1772810400408910300,0.937910400390625,0.0007989476434886456,-0.00013315794058144093,-0.0006657897029072046
1772810400418790100,0.9477900390625,0.0013315794058144093,-0.0006657897029072046,-0.0006657897029072046
1772810400428670000,0.957669921875,-0.00026631588116288185,-0.00013315794058144093,0.0009321055840700865
1772810400438549500,0.967549560546875,0.00026631588116288185,-0.0011984214652329683,-0.00013315794058144093
1772810400448429300,0.97742919921875,0.0007989476434886456,-0.0006657897029072046,-0.0006657897029072046
1772810400458308900,0.987308837890625,0.0013315794058144093,-0.00013315794058144093,-0.0006657897029072046
1772810400468188700,0.997188720703125,-0.00026631588116288185,-0.0011984214652329683,0.0009321055840700865
1772810400478068200,1.007068115234375,-0.00026631588116288185,-0.0022636849898844957,0.0009321055840700865
1772810400487948000,1.016947998046875,0.0007989476434886456,-0.0011984214652329683,0.0014647373463958502
1772810400497827600,1.02682763671875,0.00026631588116288185,-0.001731053227558732,0.0009321055840700865
1772810400507706600,1.03670654296875,0.0013315794058144093,0.0014647373463958502,-0.00013315794058144093
1772810400517586000,1.0465859375,0.0007989476434886456,-0.00013315794058144093,0.0003994738217443228
1772810400527465200,1.05646533203125,-0.0013315794058144093,0.0003994738217443228,-0.00013315794058144093
1772810400537344300,1.06634423828125,0.00026631588116288185,-0.0006657897029072046,0.0003994738217443228
1772810400547223600,1.0762236328125,-0.0007989476434886456,-0.0011984214652329683,0.0003994738217443228
1772810400557102800,1.086102783203125,0.00026631588116288185,-0.0006657897029072046,-0.00013315794058144093
1772810400566982000,1.09598193359375,-0.001864211168140173,0.0003994738217443228,0.0003994738217443228
1772810400576861200,1.105861083984375,0.00026631588116288185,-0.0006657897029072046,0.0003994738217443228
1772810400586740500,1.115740478515625,-0.0007989476434886456,-0.00013315794058144093,0.0003994738217443228
1772810400596619500,1.12561962890625,0.0007989476434886456,0.001997369108721614,0.0003994738217443228
1772810400606498800,1.135498779296875,0.0007989476434886456,-0.00013315794058144093,0.0003994738217443228
1772810400616378000,1.145378173828125,0.0013315794058144093,0.0009321055840700865,-0.0006657897029072046
1772810400626257200,1.155257080078125,-0.00026631588116288185,0.0009321055840700865,-0.00013315794058144093
1772810400636136400,1.165136474609375,-0.0007989476434886456,-0.00013315794058144093,0.0009321055840700865
1772810400646015700,1.175015625,-0.0007989476434886456,0.0003994738217443228,0.0009321055840700865
1772810400655894800,1.184894775390625,-0.0007989476434886456,-0.0006657897029072046,0.0014647373463958502
1772810400665774000,1.194774169921875,0.001864211168140173,0.0009321055840700865,-0.0006657897029072046
1772810400675653400,1.2046533203125,0.00026631588116288185,-0.0011984214652329683,0.0009321055840700865
1772810400685532400,1.214532470703125,0.0007989476434886456,0.0014647373463958502,-0.0006657897029072046
1772810400695411700,1.22441162109375,0.0013315794058144093,-0.0006657897029072046,-0.00013315794058144093
1772810400705291000,1.234291015625,-0.00026631588116288185,-0.0006657897029072046,-0.00013315794058144093
1772810400715170000,1.244170166015625,0.0007989476434886456,0.0003994738217443228,-0.00013315794058144093
1772810400725049300,1.25404931640625,0.0007989476434886456,0.0009321055840700865,-0.00013315794058144093
1772810400734928600,1.2639287109375,0.00026631588116288185,-0.0027963167522102594,-0.0011984214652329683
1772810400744807700,1.2738076171875,-0.00026631588116288185,-0.001731053227558732,0.0009321055840700865
1772810400754687000,1.28368701171875,0.00026631588116288185,-0.00013315794058144093,-0.0006657897029072046
1772810400764566300,1.293566162109375,-0.00026631588116288185,-0.0014647373463958502,-0.0006657897029072046
1772810400774445300,1.3034453125,0.0013315794058144093,-0.0009321055840700865,-0.0006657897029072046
1772810400784324600,1.31332470703125,-0.0007989476434886456,0.0006657897029072046,-0.00013315794058144093
1772810400794204000,1.323203857421875,0.0007989476434886456,-0.001997369108721614,0.0003994738217443228
1772810400804083000,1.3330830078125,-0.00026631588116288185,-0.0003994738217443228,-0.00013315794058144093
1772810400813962200,1.342962158203125,-0.0007989476434886456,0.0011984214652329683,0.0003994738217443228
1772810400823841500,1.352841552734375,0.00026631588116288185,0.00013315794058144093,-0.00013315794058144093
1772810400833720800,1.362720947265625,-0.0007989476434886456,0.0011984214652329683,0.0003994738217443228
1772810400843600000,1.372599853515625,-0.0007989476434886456,0.00013315794058144093,-0.0006657897029072046
1772810400853479200,1.382479248046875,0.0013315794058144093,-0.001997369108721614,-0.00013315794058144093
1772810400863358200,1.392358154296875,-0.001864211168140173,-0.0003994738217443228,-0.0006657897029072046
1772810400873237500,1.402237548828125,0.00026631588116288185,-0.0014647373463958502,-0.0011984214652329683
1772810400883116800,1.41211669921875,0.0013315794058144093,0.0006657897029072046,-0.0006657897029072046
1772810400892996000,1.42199609375,0.00026631588116288185,0.0006657897029072046,-0.0006657897029072046
1772810400902875100,1.431875244140625,0.0007989476434886456,0.0006657897029072046,0.0009321055840700865
1772810400912754400,1.44175439453125,-0.00026631588116288185,-0.0003994738217443228,-0.0006657897029072046
1772810400922633700,1.4516337890625,-0.0007989476434886456,-0.0009321055840700865,-0.00013315794058144093
1772810400932512800,1.4615126953125,0.0007989476434886456,-0.0014647373463958502,-0.00013315794058144093
1772810400942392000,1.47139208984375,-0.00026631588116288185,0.001731053227558732,-0.00013315794058144093
1772810400952271400,1.481271240234375,0.00026631588116288185,0.00013315794058144093,-0.0006657897029072046
1772810400962150400,1.491150390625,-0.00026631588116288185,0.00013315794058144093,0.0003994738217443228
1772810400972029700,1.50102978515625,-0.00026631588116288185,-0.001997369108721614,0.0009321055840700865
1772810400981909000,1.510908935546875,-0.0013315794058144093,0.0011984214652329683,-0.0006657897029072046
1772810400991788000,1.5207880859375,0.001864211168140173,0.00013315794058144093,0.0009321055840700865
1772810401001667800,1.530667724609375,0.00026631588116288185,0.0006657897029072046,-0.0006657897029072046
1772810401011547600,1.540547607421875,0.00026631588116288185,-0.0003994738217443228,-0.0011984214652329683
1772810401021427500,1.550427490234375,0.0029294746927917004,0.00013315794058144093,0.0003994738217443228
1772810401031307300,1.560307373046875,-0.0007989476434886456,0.001731053227558732,0.0003994738217443228
1772810401041187000,1.57018701171875,-0.0007989476434886456,0.00013315794058144093,0.0009321055840700865
1772810401051067100,1.580067138671875,-0.00026631588116288185,-0.0009321055840700865,-0.0011984214652329683
1772810401060947000,1.589947021484375,0.00026631588116288185,0.0006657897029072046,0.0003994738217443228
1772810401070826800,1.59982666015625,0.00026631588116288185,0.00013315794058144093,0.0009321055840700865
1772810401080706600,1.60970654296875,0.0023968429304659367,0.0006657897029072046,-0.00013315794058144093
1772810401090586400,1.61958642578125,0.001864211168140173,0.0011984214652329683,-0.0011984214652329683
1772810401100466200,1.629466064453125,0.0007989476434886456,-0.0014647373463958502,-0.0006657897029072046
1772810401110346200,1.63934619140625,-0.00026631588116288185,0.0011984214652329683,-0.0006657897029072046
1772810401120226000,1.64922607421875,0.00026631588116288185,0.001731053227558732,-0.0022636849898844957
1772810401130105900,1.65910595703125,0.0007989476434886456,-0.001997369108721614,-0.00013315794058144093
1772810401139985700,1.668985595703125,0.0013315794058144093,-0.0009321055840700865,-0.0006657897029072046
1772810401149865700,1.67886572265625,-0.00026631588116288185,0.00013315794058144093,0.0009321055840700865
1772810401159745500,1.68874560546875,-0.001864211168140173,0.001731053227558732,0.0003994738217443228
1772810401169625300,1.698625244140625,-0.0007989476434886456,-0.0003994738217443228,0.0009321055840700865
1772810401179505200,1.708505126953125,0.0007989476434886456,0.0006657897029072046,-0.0011984214652329683
1772810401189385000,1.718385009765625,-0.00026631588116288185,-0.0009321055840700865,0.0009321055840700865
1772810401199264800,1.7282646484375,0.00026631588116288185,0.0006657897029072046,-0.00013315794058144093
1772810401209144800,1.738144775390625,0.00026631588116288185,-0.0003994738217443228,-0.0006657897029072046
1772810401219024600,1.748024658203125,-0.0007989476434886456,-0.0014647373463958502,0.0009321055840700865
1772810401228904400,1.757904541015625,0.00026631588116288185,-0.0003994738217443228,-0.0006657897029072046
1772810401238784300,1.7677841796875,-0.0007989476434886456,-0.0003994738217443228,-0.0006657897029072046
1772810401248664000,1.7776640625,0.00026631588116288185,-0.0009321055840700865,-0.00013315794058144093
1772810401258544000,1.787544189453125,-0.0013315794058144093,0.001731053227558732,-0.0006657897029072046
1772810401268424000,1.797423828125,0.0007989476434886456,0.00013315794058144093,0.0009321055840700865
1772810401278303700,1.8073037109375,0.0013315794058144093,-0.001997369108721614,-0.0006657897029072046
1772810401288183600,1.81718359375,0.0013315794058144093,-0.0003994738217443228,-0.0006657897029072046
1772810401298063400,1.8270634765625,0.0013315794058144093,0.00013315794058144093,0.0003994738217443228
1772810401307943400,1.836943359375,0.0023968429304659367,0.001731053227558732,0.0003994738217443228
1772810401317823200,1.8468232421875,-0.00026631588116288185,-0.0014647373463958502,-0.00013315794058144093
1772810401327703000,1.856703125,-0.00026631588116288185,-0.0003994738217443228,0.0014647373463958502
1772810401337582800,1.866582763671875,-0.0013315794058144093,-0.0014647373463958502,0.0003994738217443228
1772810401347462700,1.876462646484375,0.00026631588116288185,-0.0014647373463958502,0.0003994738217443228
1772810401357342700,1.8863427734375,-0.0023968429304659367,0.0011984214652329683,-0.00013315794058144093
1772810401367222500,1.896222412109375,0.0013315794058144093,0.0006657897029072046,-0.0006657897029072046
1772810401377102300,1.906102294921875,0.0007989476434886456,-0.0003994738217443228,0.0014647373463958502
1772810401386982100,1.915982177734375,0.0013315794058144093,0.00013315794058144093,0.0003994738217443228
1772810401396862000,1.925862060546875,-0.00026631588116288185,0.0006657897029072046,-0.0011984214652329683
1772810401406742000,1.935741943359375,-0.0007989476434886456,-0.0009321055840700865,0.0003994738217443228
1772810401416621800,1.945621826171875,-0.00026631588116288185,0.00013315794058144093,-0.00013315794058144093
1772810401426501600,1.955501708984375,0.0007989476434886456,-0.0009321055840700865,0.0003994738217443228
1772810401436381400,1.96538134765625,0.00026631588116288185,0.0006657897029072046,0.0009321055840700865
1772810401446261200,1.97526123046875,0.0013315794058144093,0.0011984214652329683,0.0003994738217443228
1772810401456141300,1.985141357421875,-0.0007989476434886456,-0.0003994738217443228,-0.00013315794058144093
1772810401466021000,1.995021240234375,0.001864211168140173,-0.0009321055840700865,0.0003994738217443228
1772810401475901000,2.00490087890625,-0.0007989476434886456,0.0011984214652329683,0.0009321055840700865
1772810401485780700,2.01478076171875,-0.00026631588116288185,0.0011984214652329683,-0.00013315794058144093
1772810401495660500,2.02466064453125,-0.00026631588116288185,-0.0009321055840700865,0.0003994738217443228
1772810401505540600,2.03454052734375,0.00026631588116288185,0.0011984214652329683,0.0003994738217443228
1772810401515420700,2.044420654296875,0.0013315794058144093,0.0006657897029072046,-0.0011984214652329683
1772810401525300700,2.05430078125,-0.0007989476434886456,-0.0009321055840700865,-0.0011984214652329683
1772810401535180500,2.0641806640625,0.00026631588116288185,0.0011984214652329683,0.0003994738217443228
1772810401545060600,2.074060546875,-0.00026631588116288185,0.00013315794058144093,-0.0006657897029072046
1772810401554940700,2.083940673828125,-0.0007989476434886456,0.00013315794058144093,0.0009321055840700865
1772810401564820700,2.09382080078125,-0.0007989476434886456,0.001731053227558732,0.0014647373463958502
1772810401574700500,2.103700439453125,0.0007989476434886456,0.001731053227558732,-0.0006657897029072046
1772810401584580600,2.11358056640625,0.0023968429304659367,0.001731053227558732,-0.001731053227558732
1772810401594460700,2.123460693359375,-0.0007989476434886456,-0.0014647373463958502,-0.001731053227558732
1772810401604340700,2.1333408203125,0.0007989476434886456,-0.001997369108721614,-0.0006657897029072046
1772810401614220500,2.143220458984375,0.0013315794058144093,-0.0009321055840700865,-0.0006657897029072046
1772810401624100600,2.1531005859375,0.0007989476434886456,0.0006657897029072046,-0.00013315794058144093
1772810401633980700,2.162980712890625,0.00026631588116288185,-0.0009321055840700865,0.0003994738217443228
1772810401643860700,2.17286083984375,-0.0007989476434886456,0.0006657897029072046,-0.00013315794058144093
1772810401653740500,2.182740478515625,0.00026631588116288185,0.0011984214652329683,-0.00013315794058144093
1772810401663620600,2.19262060546875,-0.00026631588116288185,0.00013315794058144093,-0.0011984214652329683
1772810401673500700,2.202500732421875,-0.0007989476434886456,-0.001997369108721614,-0.00013315794058144093
1772810401683380700,2.212380615234375,0.0013315794058144093,-0.0014647373463958502,0.0003994738217443228
1772810401693260800,2.2222607421875,-0.0029294746927917004,0.0022636849898844957,-0.00013315794058144093
1772810401703140600,2.232140625,0.00026631588116288185,0.00013315794058144093,-0.0006657897029072046
1772810401713020700,2.242020751953125,-0.0007989476434886456,-0.0014647373463958502,0.0009321055840700865
1772810401722900700,2.251900634765625,0.00026631588116288185,0.0022636849898844957,-0.00013315794058144093
1772810401732780800,2.26178076171875,0.0007989476434886456,-0.0025300008710473776,-0.001731053227558732
1772810401742660600,2.27166064453125,0.00026631588116288185,0.0011984214652329683,-0.0011984214652329683
1772810401752540700,2.281540771484375,-0.0007989476434886456,-0.0009321055840700865,-0.0006657897029072046
1772810401762420700,2.291420654296875,-0.0013315794058144093,0.003861580276861787,0.0003994738217443228
1772810401772300800,2.30130078125,-0.0007989476434886456,0.0006657897029072046,0.0009321055840700865
1772810401782180600,2.3111806640625,0.00026631588116288185,-0.0009321055840700865,-0.00013315794058144093
1772810401792060700,2.321060791015625,-0.0007989476434886456,-0.0003994738217443228,-0.00013315794058144093
1772810401801940700,2.330940673828125,-0.00026631588116288185,0.0006657897029072046,-0.0006657897029072046
1772810401811820800,2.34082080078125,-0.00026631588116288185,0.0022636849898844957,0.0003994738217443228
1772810401821700600,2.35070068359375,-0.00026631588116288185,-0.0003994738217443228,-0.0006657897029072046
1772810401831580700,2.36058056640625,-0.0013315794058144093,0.00013315794058144093,0.0003994738217443228
1772810401841460700,2.370460693359375,0.0013315794058144093,-0.0009321055840700865,0.0003994738217443228
1772810401851340800,2.3803408203125,0.00026631588116288185,-0.001997369108721614,-0.0011984214652329683
1772810401861220900,2.390220947265625,-0.0013315794058144093,-0.0003994738217443228,0.0003994738217443228
1772810401871100700,2.4001005859375,0.0007989476434886456,0.0011984214652329683,0.0003994738217443228
1772810401880980700,2.409980712890625,-0.0007989476434886456,-0.0003994738217443228,-0.0006657897029072046
1772810401890860800,2.41986083984375,-0.0007989476434886456,0.001731053227558732,0.0009321055840700865
1772810401900740900,2.429740966796875,-0.00026631588116288185,0.001731053227558732,-0.0006657897029072046
1772810401910620700,2.43962060546875,-0.0007989476434886456,-0.001997369108721614,-0.00013315794058144093
1772810401920500700,2.449500732421875,-0.0013315794058144093,-0.0009321055840700865,0.0003994738217443228
1772810401930380800,2.459380859375,-0.0013315794058144093,0.00013315794058144093,-0.0006657897029072046
1772810401940260900,2.4692607421875,-0.001864211168140173,0.0006657897029072046,0.0009321055840700865
1772810401950140700,2.479140625,-0.00026631588116288185,-0.0014647373463958502,-0.00013315794058144093
1772810401960020700,2.489020751953125,-0.0007989476434886456,-0.0009321055840700865,-0.00013315794058144093
1772810401969900800,2.49890087890625,0.001864211168140173,0.00013315794058144093,-0.0006657897029072046
1772810401979780900,2.50878076171875,0.0007989476434886456,-0.001997369108721614,0.0003994738217443228
1772810401989660700,2.51866064453125,-0.00026631588116288185,0.0006657897029072046,0.0014647373463958502
1772810401999540700,2.528540771484375,0.00026631588116288185,0.00013315794058144093,-0.0011984214652329683
1772810402009420300,2.538420166015625,0.0007989476434886456,0.0011984214652329683,-0.00013315794058144093
1772810402029180000,2.558179931640625,-0.0013315794058144093,0.001731053227558732,-0.0011984214652329683
1772810402039059500,2.5680595703125,0.0007989476434886456,0.0006657897029072046,-0.00013315794058144093
1772810402048939300,2.577939208984375,0.00026631588116288185,-0.0003994738217443228,-0.0006657897029072046
1772810402058818800,2.58781884765625,-0.0007989476434886456,-0.0003994738217443228,-0.0006657897029072046
1772810402068698600,2.59769873046875,0.0013315794058144093,-0.0030626326333731413,0.0003994738217443228
1772810402078578400,2.607578369140625,0.00026631588116288185,-0.0014647373463958502,-0.0011984214652329683
1772810402088458000,2.6174580078125,-0.001864211168140173,0.0011984214652329683,0.0009321055840700865
1772810402098337800,2.627337890625,0.0013315794058144093,-0.0014647373463958502,0.0003994738217443228
1772810402108217300,2.63721728515625,0.00026631588116288185,-0.0003994738217443228,-0.00013315794058144093
1772810402118097200,2.64709716796875,0.0007989476434886456,0.001731053227558732,0.0003994738217443228
1772810402127976700,2.656976806640625,-0.00026631588116288185,-0.0009321055840700865,-0.00013315794058144093
1772810402137856500,2.6668564453125,0.00026631588116288185,0.001731053227558732,0.001997369108721614
1772810402147736300,2.676736328125,-0.00026631588116288185,-0.0003994738217443228,-0.0011984214652329683
1772810402157615900,2.686615966796875,-0.00026631588116288185,0.0006657897029072046,-0.00013315794058144093
1772810402167495700,2.69649560546875,-0.00026631588116288185,-0.0009321055840700865,-0.0006657897029072046
1772810402177375200,2.706375244140625,0.00026631588116288185,-0.0025300008710473776,0.0003994738217443228
1772810402187255000,2.716255126953125,-0.00026631588116288185,-0.0009321055840700865,0.0003994738217443228
1772810402197134800,2.726134765625,0.00026631588116288185,-0.0009321055840700865,0.0003994738217443228
1772810402207014400,2.736014404296875,0.0007989476434886456,-0.0003994738217443228,-0.00013315794058144093
1772810402216894200,2.745894287109375,0.00026631588116288185,-0.0003994738217443228,-0.00013315794058144093
1772810402226773800,2.755773681640625,-0.00026631588116288185,0.00013315794058144093,0.0003994738217443228
1772810402236653600,2.765653564453125,0.0007989476434886456,0.00013315794058144093,0.0009321055840700865
1772810402246533400,2.775533447265625,-0.00026631588116288185,-0.0003994738217443228,0.0003994738217443228
1772810402256413000,2.785412841796875,-0.00026631588116288185,-0.0003994738217443228,0.0003994738217443228
1772810402266292700,2.795292724609375,-0.00026631588116288185,-0.0009321055840700865,0.0009321055840700865
1772810402286052000,2.815052001953125,0.001864211168140173,-0.0009321055840700865,-0.0006657897029072046
1772810402295931600,2.824931640625,0.00026631588116288185,0.0006657897029072046,-0.0011984214652329683
1772810402305811500,2.8348115234375,-0.0013315794058144093,-0.0009321055840700865,-0.00013315794058144093
1772810402315691300,2.844691162109375,-0.00026631588116288185,-0.0003994738217443228,-0.00013315794058144093
1772810402335450600,2.86445068359375,-0.0007989476434886456,0.0011984214652329683,0.0003994738217443228
1772810402345330200,2.874330078125,-0.00026631588116288185,0.001731053227558732,0.0003994738217443228
1772810402355210000,2.8842099609375,-0.00026631588116288185,-0.0009321055840700865,-0.0006657897029072046
1772810402365089800,2.89408984375,0.0007989476434886456,-0.001997369108721614,-0.00013315794058144093
1772810402374969300,2.90396923828125,0.0007989476434886456,0.00013315794058144093,-0.0006657897029072046
1772810402384849200,2.91384912109375,0.0007989476434886456,0.00013315794058144093,-0.0011984214652329683
1772810402394728700,2.923728759765625,0.00026631588116288185,0.00013315794058144093,-0.0011984214652329683
1772810402404608500,2.9336083984375,-0.0007989476434886456,-0.0009321055840700865,-0.0006657897029072046
1772810402414488300,2.94348828125,0.00026631588116288185,0.00013315794058144093,0.0014647373463958502
1772810402424367900,2.953367919921875,0.00026631588116288185,-0.0003994738217443228,0.0003994738217443228
1772810402434247700,2.96324755859375,-0.00026631588116288185,-0.0014647373463958502,-0.00013315794058144093
1772810402444127200,2.973127197265625,0.00026631588116288185,-0.001997369108721614,-0.0006657897029072046
1772810402454007000,2.983007080078125,-0.00026631588116288185,0.00013315794058144093,0.0003994738217443228
1772810402463886800,2.992886962890625,0.0007989476434886456,0.0022636849898844957,-0.00013315794058144093
1772810402473766400,3.002766357421875,-0.0007989476434886456,0.0006657897029072046,-0.0006657897029072046
1772810402483646200,3.012646240234375,0.0023968429304659367,0.00013315794058144093,-0.0006657897029072046
1772810402493525800,3.02252587890625,-0.00026631588116288185,-0.0014647373463958502,-0.0006657897029072046
1772810402503406300,3.03240625,0.0007989476434886456,-0.0003994738217443228,-0.00013315794058144093
1772810402513287000,3.042286865234375,0.0007989476434886456,0.0006657897029072046,-0.001731053227558732
1772810402523167500,3.05216748046875,-0.0013315794058144093,-0.0014647373463958502,0.0003994738217443228
1772810402533048000,3.062048095703125,0.00026631588116288185,-0.0009321055840700865,0.0014647373463958502
1772810402542928600,3.0719287109375,-0.0003994738217443228,-0.0023968429304659367,0.001597895286977291
1772810402552809200,3.081809326171875,0.0022636849898844957,0.0013315794058144093,0
1772810402562689800,3.091689697265625,0.00013315794058144093,-0.0013315794058144093,0.0005326317623257637
1772810402572570600,3.101570556640625,-0.0003994738217443228,-0.0013315794058144093,0
1772810402582451200,3.111451171875,-0.0014647373463958502,-0.0023968429304659367,-0.0010652635246515274
1772810402592331800,3.121331787109375,-0.0009321055840700865,-0.0013315794058144093,0
1772810402602212400,3.13121240234375,0.0011984214652329683,0.00026631588116288185,0.0005326317623257637
1772810402612093000,3.141093017578125,-0.0009321055840700865,0.0013315794058144093,0.0005326317623257637
1772810402621973500,3.150973388671875,-0.0003994738217443228,0.0013315794058144093,0
1772810402631854000,3.16085400390625,-0.0003994738217443228,-0.00026631588116288185,-0.0005326317623257637
1772810402641734700,3.170734619140625,0.0006657897029072046,-0.0013315794058144093,0
1772810402651615200,3.180615234375,0.001731053227558732,-0.0007989476434886456,-0.0010652635246515274
1772810402661495800,3.190495849609375,0.00013315794058144093,0.0013315794058144093,0.0010652635246515274
1772810402671376400,3.20037646484375,0.0006657897029072046,-0.001864211168140173,0
1772810402681257000,3.210257080078125,-0.0009321055840700865,0.0023968429304659367,0.0010652635246515274
1772810402691137800,3.2201376953125,-0.0003994738217443228,0.0023968429304659367,0.001597895286977291
1772810402701018400,3.230018310546875,0.0006657897029072046,-0.0013315794058144093,0.0005326317623257637
1772810402710899000,3.23989892578125,0.00013315794058144093,0.0007989476434886456,0.0010652635246515274
1772810402720779500,3.249779541015625,-0.0014647373463958502,-0.001864211168140173,0.0005326317623257637
1772810402730660000,3.25966015625,0.0022636849898844957,0.00026631588116288185,-0.0010652635246515274
1772810402740540700,3.269540771484375,-0.0009321055840700865,-0.0007989476434886456,-0.0010652635246515274
1772810402750421200,3.279421142578125,-0.0003994738217443228,0.0007989476434886456,0.0005326317623257637
1772810402760301800,3.2893017578125,-0.0003994738217443228,-0.0007989476434886456,0.0010652635246515274
1772810402770182400,3.299182373046875,-0.0003994738217443228,0.0007989476434886456,0
1772810402780063000,3.30906298828125,-0.0003994738217443228,-0.0013315794058144093,-0.001597895286977291
1772810402789943600,3.318943603515625,0.00013315794058144093,0.0029294746927917004,-0.0005326317623257637
1772810402799824400,3.328824462890625,-0.001997369108721614,-0.0007989476434886456,0.0005326317623257637
1772810402809705000,3.338705078125,-0.0014647373463958502,0.0013315794058144093,0.0010652635246515274
1772810402819585500,3.34858544921875,0.00013315794058144093,0.0023968429304659367,-0.0005326317623257637
1772810402829466000,3.358466064453125,0.0006657897029072046,0.0013315794058144093,-0.0005326317623257637
1772810402839346700,3.3683466796875,0.00013315794058144093,-0.001864211168140173,0.0005326317623257637
1772810402849227300,3.378227294921875,0.0006657897029072046,0.00026631588116288185,0
1772810402859107800,3.38810791015625,0.00013315794058144093,-0.0013315794058144093,0
1772810402868988400,3.397988525390625,0.0006657897029072046,0.0013315794058144093,0.0005326317623257637
1772810402878869000,3.407868896484375,0.00013315794058144093,0.0007989476434886456,0
1772810402888749600,3.41774951171875,0.0006657897029072046,0.00026631588116288185,0.002130527049303055
1772810402898630100,3.427630126953125,0.00013315794058144093,-0.0013315794058144093,0
1772810402908510700,3.4375107421875,-0.0003994738217443228,0.0013315794058144093,-0.0005326317623257637
1772810402918391600,3.4473916015625,0.0006657897029072046,-0.00026631588116288185,0.0005326317623257637
1772810402928272100,3.457272216796875,0.0011984214652329683,0.00026631588116288185,-0.0005326317623257637
1772810402938152700,3.467152587890625,0.00013315794058144093,0.0007989476434886456,0.0005326317623257637
1772810402948033300,3.477033203125,0.00013315794058144093,-0.00026631588116288185,-0.001597895286977291
1772810402957913900,3.486913818359375,-0.0009321055840700865,-0.00026631588116288185,0
1772810402967794400,3.49679443359375,-0.0003994738217443228,-0.00026631588116288185,0
1772810402977675000,3.506675048828125,-0.0003994738217443228,0.00026631588116288185,0.0010652635246515274
1772810402987555600,3.5165556640625,-0.0003994738217443228,-0.00026631588116288185,-0.0010652635246515274
1772810402997436200,3.526436279296875,-0.0009321055840700865,0.00026631588116288185,0
1772810403007316000,3.53631591796875,0.00013315794058144093,-0.0007989476434886456,0.001597895286977291
1772810403017195800,3.54619580078125,-0.0009321055840700865,0.0007989476434886456,-0.0010652635246515274
1772810403027075600,3.55607568359375,0.0006657897029072046,-0.00026631588116288185,-0.0005326317623257637
1772810403036955400,3.565955322265625,-0.001997369108721614,-0.0013315794058144093,0
1772810403046835500,3.57583544921875,-0.0014647373463958502,0.00026631588116288185,0.0010652635246515274
1772810403056715300,3.58571533203125,0.0006657897029072046,-0.0013315794058144093,0
1772810403066595000,3.595594970703125,0.0011984214652329683,0.0007989476434886456,0.0005326317623257637
1772810403076475000,3.605474853515625,-0.0003994738217443228,0.0013315794058144093,0.0005326317623257637
1772810403086354700,3.615354736328125,0.0006657897029072046,-0.0007989476434886456,0
1772810403096234800,3.62523486328125,-0.0003994738217443228,-0.00026631588116288185,-0.0005326317623257637
1772810403106114600,3.635114501953125,0.0011984214652329683,-0.00026631588116288185,-0.0010652635246515274
1772810403115994400,3.644994384765625,-0.0009321055840700865,-0.001864211168140173,0.0005326317623257637
1772810403125874200,3.654874267578125,-0.0003994738217443228,-0.0007989476434886456,0
1772810403135754000,3.66475390625,-0.0003994738217443228,0.0007989476434886456,0.0005326317623257637
1772810403145634000,3.674634033203125,0.00013315794058144093,0.0007989476434886456,0.001597895286977291
1772810403155513900,3.684513916015625,-0.0014647373463958502,0.0007989476434886456,-0.0005326317623257637
1772810403165393700,3.6943935546875,-0.0009321055840700865,-0.0013315794058144093,-0.0010652635246515274
1772810403175273500,3.7042734375,-0.0003994738217443228,-0.0007989476434886456,0.002130527049303055
1772810403185153500,3.714153564453125,-0.0003994738217443228,-0.0007989476434886456,0
1772810403195033300,3.724033447265625,0.0011984214652329683,-0.00026631588116288185,0.0005326317623257637
1772810403204913200,3.7339130859375,0.0006657897029072046,-0.00026631588116288185,0.0005326317623257637
1772810403214793000,3.74379296875,-0.0003994738217443228,-0.0007989476434886456,0
1772810403224672800,3.7536728515625,0.0006657897029072046,0.00026631588116288185,0.0005326317623257637
1772810403234552800,3.763552734375,-0.0014647373463958502,0.0007989476434886456,0
1772810403244432600,3.7734326171875,0.00013315794058144093,0.0007989476434886456,0
1772810403254312400,3.7833125,0.0011984214652329683,0.00026631588116288185,0.001597895286977291
1772810403264192300,3.793192138671875,-0.0003994738217443228,0.00026631588116288185,0
1772810403274072000,3.803072021484375,0.00013315794058144093,-0.00026631588116288185,0.0010652635246515274
1772810403283952000,3.8129521484375,-0.0003994738217443228,-0.00026631588116288185,-0.002130527049303055
1772810403293832000,3.82283203125,-0.0003994738217443228,-0.0007989476434886456,-0.0005326317623257637
1772810403313591600,3.842591552734375,-0.0003994738217443228,0.00026631588116288185,0.001597895286977291
1772810403323471600,3.8524716796875,-0.0009321055840700865,0.0007989476434886456,-0.0005326317623257637
1772810403333351400,3.862351318359375,0.0011984214652329683,-0.00026631588116288185,0
1772810403343231200,3.872231201171875,0.00013315794058144093,-0.0013315794058144093,-0.0010652635246515274
1772810403353111000,3.882111083984375,-0.0009321055840700865,-0.00026631588116288185,0.0026631588116288185
1772810403362991000,3.8919912109375,0.0006657897029072046,0.0007989476434886456,0.0005326317623257637
1772810403372871000,3.901870849609375,0.0006657897029072046,-0.00026631588116288185,0
1772810403382750700,3.911750732421875,-0.0003994738217443228,0.00026631588116288185,0.0005326317623257637
1772810403392630500,3.921630615234375,-0.001997369108721614,-0.0023968429304659367,0
1772810403402510300,3.93151025390625,0.00013315794058144093,0.0007989476434886456,0.0010652635246515274
1772810403412390100,3.94139013671875,0.0006657897029072046,0.0023968429304659367,0.002130527049303055
1772810403422270200,3.951270263671875,-0.0003994738217443228,-0.0013315794058144093,-0.0010652635246515274
1772810403432150000,3.96114990234375,-0.0003994738217443228,0.0013315794058144093,0
1772810403442029800,3.97102978515625,0.00013315794058144093,0.00026631588116288185,0
1772810403451909600,3.98090966796875,0.0011984214652329683,0.0013315794058144093,-0.0005326317623257637
1772810403461789700,3.990789794921875,0.0006657897029072046,0.0013315794058144093,0.0010652635246515274
1772810403471669500,4.00066943359375,0.00013315794058144093,-0.0013315794058144093,-0.0010652635246515274
1772810403481549300,4.01054931640625,0.0006657897029072046,-0.00026631588116288185,0
1772810403491429000,4.02042919921875,0.00013315794058144093,0.0007989476434886456,0
1772810403501309200,4.03030908203125,-0.0014647373463958502,0.00026631588116288185,-0.0005326317623257637
1772810403511189200,4.040189208984375,0.0006657897029072046,0.0007989476434886456,0
1772810403521069600,4.050069580078125,0.0006657897029072046,0.0013315794058144093,0
1772810403530949600,4.05994970703125,0.0011984214652329683,0.00026631588116288185,-0.001597895286977291
1772810403540829700,4.06982958984375,0.001731053227558732,0.003462106455117464,-0.001597895286977291
1772810403550709800,4.079709716796875,0.00013315794058144093,-0.0023968429304659367,-0.002130527049303055
1772810403560590000,4.089590087890625,0.0006657897029072046,0.0013315794058144093,-0.0010652635246515274
1772810403570470100,4.09947021484375,0.00013315794058144093,-0.0029294746927917004,0
1772810403580350200,4.10935009765625,-0.0003994738217443228,0.00026631588116288185,0.0005326317623257637
1772810403590230500,4.11923046875,0.0006657897029072046,-0.00026631588116288185,-0.0005326317623257637
1772810403600110600,4.129110595703125,0.0011984214652329683,0.0007989476434886456,0.0005326317623257637
1772810403609990700,4.13899072265625,-0.0003994738217443228,0.00026631588116288185,0
1772810403619870700,4.14887060546875,0.00013315794058144093,-0.0007989476434886456,0.0005326317623257637
1772810403629751000,4.1587509765625,-0.0003994738217443228,0.0007989476434886456,0.0005326317623257637
1772810403639631000,4.168631103515625,0.0006657897029072046,0.001864211168140173,0
1772810403649511200,4.17851123046875,-0.003595264395698905,0.0007989476434886456,-0.0010652635246515274
1772810403659391200,4.18839111328125,0.00013315794058144093,-0.0007989476434886456,0.0010652635246515274
1772810403669271600,4.198271484375,-0.0003994738217443228,0.0007989476434886456,0.0010652635246515274
1772810403679151600,4.208151611328125,0.0006657897029072046,0.0007989476434886456,0.0010652635246515274
1772810403689031700,4.21803173828125,0.0006657897029072046,0.0007989476434886456,0.0005326317623257637
1772810403708792000,4.2377919921875,0.0011984214652329683,-0.0007989476434886456,-0.0005326317623257637
1772810403718672100,4.247672119140625,0.0006657897029072046,-0.0007989476434886456,0.0005326317623257637
1772810403728552200,4.25755224609375,-0.0003994738217443228,-0.0007989476434886456,-0.0005326317623257637
1772810403738432500,4.2674326171875,0.0011984214652329683,-0.00026631588116288185,-0.0005326317623257637
1772810403748312600,4.2773125,-0.0003994738217443228,-0.00026631588116288185,0
1772810403758192600,4.287192626953125,-0.0009321055840700865,-0.00026631588116288185,0.0005326317623257637
1772810403768072700,4.29707275390625,0.001731053227558732,-0.0007989476434886456,-0.0005326317623257637
1772810403777953000,4.306953125,-0.0003994738217443228,-0.00026631588116288185,0.0005326317623257637
1772810403787833000,4.3168330078125,0.0006657897029072046,0.001864211168140173,0.0005326317623257637
1772810403797713200,4.326713134765625,-0.0003994738217443228,-0.00026631588116288185,0
1772810403807593200,4.33659326171875,0.001731053227558732,-0.00026631588116288185,0
1772810403817473500,4.3464736328125,0.00013315794058144093,0.0007989476434886456,0
1772810403827353600,4.356353515625,0.00013315794058144093,0.00026631588116288185,-0.0010652635246515274
1772810403837233700,4.366233642578125,-0.0014647373463958502,0.00026631588116288185,0.0010652635246515274
1772810403847113700,4.37611376953125,0.0006657897029072046,-0.0013315794058144093,0.0010652635246515274
1772810403856994000,4.385994140625,-0.0003994738217443228,0.0013315794058144093,0
1772810403866874000,4.3958740234375,0.0006657897029072046,-0.0007989476434886456,-0.0005326317623257637
1772810403876754200,4.405754150390625,-0.0009321055840700865,-0.0007989476434886456,-0.001597895286977291
1772810403886634500,4.415634521484375,-0.0003994738217443228,-0.00026631588116288185,0.0005326317623257637
1772810403896514600,4.4255146484375,-0.0009321055840700865,-0.0013315794058144093,0
1772810403906394600,4.43539453125,-0.0009321055840700865,-0.0023968429304659367,0.0005326317623257637
1772810403916274700,4.445274658203125,-0.0009321055840700865,-0.0007989476434886456,-0.0005326317623257637
1772810403926155000,4.455155029296875,0.0006657897029072046,0.001864211168140173,-0.0010652635246515274
1772810403936035000,4.46503515625,-0.0003994738217443228,0.00026631588116288185,0.0010652635246515274
1772810403945915100,4.4749150390625,0.0011984214652329683,0.00026631588116288185,0.0005326317623257637
1772810403955795200,4.484795166015625,0.0006657897029072046,-0.00026631588116288185,-0.002130527049303055
1772810403965675500,4.494675537109375,0.0006657897029072046,-0.00026631588116288185,0.0005326317623257637
1772810403975555600,4.5045556640625,0.0006657897029072046,-0.001864211168140173,0.0005326317623257637
1772810403985435600,4.514435546875,0.00013315794058144093,0.0007989476434886456,-0.0005326317623257637
1772810403995315700,4.524315673828125,-0.001997369108721614,-0.00026631588116288185,0.0005326317623257637
1772810404005195500,4.534195556640625,0.0011984214652329683,0.0013315794058144093,-0.0010652635246515274
1772810404015075300,4.544075439453125,0.00013315794058144093,0.00026631588116288185,-0.0010652635246515274
1772810404024955100,4.553955078125,0.0022636849898844957,-0.001864211168140173,-0.0005326317623257637
1772810404034835000,4.5638349609375,0.0011984214652329683,0.0013315794058144093,0.001597895286977291
1772810404044714800,4.57371484375,0.00013315794058144093,0.0013315794058144093,0.001597895286977291
1772810404054594600,4.583594482421875,-0.0009321055840700865,0.0023968429304659367,0.0010652635246515274
1772810404064474400,4.593474365234375,-0.0003994738217443228,0.00026631588116288185,0
1772810404074354200,4.603354248046875,-0.0003994738217443228,-0.0007989476434886456,0
1772810404084233700,4.613233642578125,-0.0003994738217443228,0.0007989476434886456,0
1772810404094113500,4.623113525390625,-0.0003994738217443228,0.00026631588116288185,-0.0005326317623257637
1772810404103993300,4.632993408203125,-0.0009321055840700865,-0.0013315794058144093,0.002130527049303055
1772810404113873200,4.642873046875,-0.0003994738217443228,0.00026631588116288185,0
1772810404123753000,4.6527529296875,-0.0003994738217443228,0.00026631588116288185,0
1772810404133632800,4.6626328125,0.0011984214652329683,0.00026631588116288185,-0.0005326317623257637
1772810404143512600,4.6725126953125,0.00013315794058144093,0.00026631588116288185,-0.0005326317623257637
1772810404153392000,4.68239208984375,-0.0003994738217443228,0.00026631588116288185,0.0010652635246515274
1772810404163272000,4.69227197265625,-0.0009321055840700865,0.0007989476434886456,0.0005326317623257637
1772810404173151700,4.70215185546875,0.0006657897029072046,0.0013315794058144093,0.0010652635246515274
1772810404183031600,4.712031494140625,-0.0009321055840700865,0.0013315794058144093,0
1772810404192911400,4.721911376953125,0.00013315794058144093,-0.00026631588116288185,-0.0010652635246515274
1772810404202791200,4.731791259765625,-0.001997369108721614,-0.0007989476434886456,-0.0010652635246515274
1772810404212671000,4.7416708984375,0.0006657897029072046,0.00026631588116288185,0.0005326317623257637
1772810404222550800,4.75155078125,0.00013315794058144093,-0.001864211168140173,0
1772810404232430300,4.761430419921875,-0.0009321055840700865,0.0007989476434886456,0.0010652635246515274
1772810404242310100,4.77131005859375,0.0006657897029072046,-0.0013315794058144093,-0.0005326317623257637
1772810404252190000,4.78118994140625,-0.0003994738217443228,0.00026631588116288185,0.0005326317623257637
1772810404262069800,4.79106982421875,0.00013315794058144093,0.001864211168140173,0.0005326317623257637
1772810404271949600,4.800949462890625,-0.0009321055840700865,-0.00026631588116288185,-0.0010652635246515274
1772810404281829400,4.810829345703125,0.00013315794058144093,-0.003994738217443228,0.0010652635246515274
1772810404291709200,4.820709228515625,-0.0003994738217443228,0.00026631588116288185,0
1772810404301589000,4.830589111328125,-0.0014647373463958502,-0.00026631588116288185,-0.0005326317623257637
1772810404311468500,4.840468505859375,0.0006657897029072046,0.0013315794058144093,0
1772810404321348400,4.850348388671875,-0.0009321055840700865,0.00026631588116288185,0.0010652635246515274
1772810404331228200,4.860228271484375,-0.001997369108721614,-0.0007989476434886456,-0.0006657897029072046
1772810404341108000,4.87010791015625,-0.001997369108721614,-0.0023968429304659367,-0.0006657897029072046
1772810404350987800,4.87998779296875,0.0006657897029072046,0.0007989476434886456,-0.0011984214652329683
1772810404360867600,4.88986767578125,-0.0009321055840700865,0.0013315794058144093,-0.0006657897029072046
1772810404370747400,4.899747314453125,-0.0014647373463958502,0.001864211168140173,0.0003994738217443228
1772810404380627200,4.909627197265625,-0.0003994738217443228,0.0013315794058144093,0.0009321055840700865
1772810404390506800,4.9195068359375,0.00013315794058144093,-0.0013315794058144093,-0.0006657897029072046
1772810404400386600,4.929386474609375,0.0006657897029072046,0.001864211168140173,0.0014647373463958502
1772810404410266400,4.939266357421875,0.00013315794058144093,0.00026631588116288185,-0.0006657897029072046
1772810404420146200,4.949146240234375,-0.0014647373463958502,-0.00026631588116288185,0.0014647373463958502
1772810404430026000,4.95902587890625,-0.0009321055840700865,-0.0007989476434886456,0.0003994738217443228
1772810404439905800,4.96890576171875,-0.0014647373463958502,0.00026631588116288185,0.0009321055840700865
1772810404449785600,4.97878564453125,-0.0009321055840700865,-0.0007989476434886456,-0.0011984214652329683
1772810404459665400,4.98866552734375,0.0006657897029072046,-0.0013315794058144093,0.0014647373463958502
1772810404469545200,4.998545166015625,0.00013315794058144093,-0.0029294746927917004,0.0009321055840700865
1772810404479424800,5.0084248046875,-0.001997369108721614,-0.001864211168140173,-0.0006657897029072046
1772810404489304600,5.0183046875,0.00013315794058144093,-0.0013315794058144093,-0.001731053227558732
1772810404499184400,5.028184326171875,0.0011984214652329683,0.00026631588116288185,-0.00013315794058144093
1772810404509063700,5.038063720703125,0.0006657897029072046,-0.0007989476434886456,0.0003994738217443228
1772810404518943200,5.047943115234375,-0.0003994738217443228,-0.00026631588116288185,-0.0006657897029072046
1772810404528822800,5.05782275390625,0.0011984214652329683,0.0013315794058144093,0.0003994738217443228
1772810404538702000,5.0677021484375,-0.0003994738217443228,0.00026631588116288185,-0.001731053227558732
1772810404548581600,5.07758154296875,0.0006657897029072046,-0.0007989476434886456,0.0009321055840700865
1772810404558461200,5.087461181640625,-0.0003994738217443228,-0.00026631588116288185,-0.0006657897029072046
1772810404568340700,5.0973408203125,-0.0003994738217443228,0.0013315794058144093,0.0003994738217443228
1772810404578220000,5.107219970703125,0.0011984214652329683,0.00026631588116288185,-0.0011984214652329683
1772810404588099600,5.117099609375,0.00013315794058144093,0.0029294746927917004,-0.00013315794058144093
1772810404597979000,5.126978759765625,-0.0009321055840700865,0.00026631588116288185,-0.00013315794058144093
1772810404607858400,5.1368583984375,-0.0003994738217443228,-0.0013315794058144093,0.0003994738217443228
1772810404617738000,5.146738037109375,-0.0014647373463958502,-0.0007989476434886456,-0.00013315794058144093
1772810404627617500,5.156617431640625,0.00013315794058144093,-0.00026631588116288185,0.0003994738217443228
1772810404637496800,5.166496826171875,0.00013315794058144093,-0.00026631588116288185,-0.00013315794058144093
1772810404647376400,5.17637646484375,-0.0009321055840700865,-0.00026631588116288185,-0.001731053227558732
1772810404657256000,5.186255859375,0.00013315794058144093,-0.00026631588116288185,-0.00013315794058144093
1772810404667135200,5.19613525390625,0.00013315794058144093,0.0023968429304659367,-0.0006657897029072046
1772810404677014800,5.206014892578125,0.001731053227558732,-0.0007989476434886456,0.0009321055840700865
1772810404686894300,5.215894287109375,-0.0009321055840700865,0.0007989476434886456,-0.0006657897029072046
1772810404696773600,5.225773681640625,0.00013315794058144093,-0.0013315794058144093,-0.00013315794058144093
1772810404706653200,5.235653076171875,0.00013315794058144093,-0.0007989476434886456,0.0009321055840700865
1772810404716532700,5.24553271484375,0.00013315794058144093,0.00026631588116288185,0.0003994738217443228
1772810404726412000,5.255412109375,-0.0009321055840700865,-0.0013315794058144093,-0.00013315794058144093
1772810404736291600,5.26529150390625,-0.001997369108721614,-0.00026631588116288185,-0.0006657897029072046
1772810404746171100,5.275171142578125,0.00013315794058144093,0.00026631588116288185,0.0009321055840700865
1772810404756050700,5.28505078125,0.00013315794058144093,-0.0007989476434886456,0.0009321055840700865
1772810404765930000,5.294929931640625,0.00013315794058144093,-0.00026631588116288185,0.0003994738217443228
1772810404775809500,5.3048095703125,0.0011984214652329683,0.0023968429304659367,0.0009321055840700865
1772810404785688800,5.314688720703125,0.0011984214652329683,0.001864211168140173,-0.00013315794058144093
1772810404795568400,5.324568359375,0.00013315794058144093,-0.00026631588116288185,-0.0006657897029072046
1772810404805448000,5.334447998046875,0.001731053227558732,0.0007989476434886456,0.0003994738217443228
1772810404815327500,5.344327392578125,-0.0014647373463958502,-0.00026631588116288185,-0.00013315794058144093
1772810404825206800,5.354206787109375,0.00013315794058144093,-0.0007989476434886456,-0.00013315794058144093
1772810404835086300,5.36408642578125,0.00013315794058144093,0.0007989476434886456,0.0003994738217443228
1772810404844966000,5.3739658203125,0.00013315794058144093,-0.00026631588116288185,0.0003994738217443228
1772810404854845200,5.38384521484375,0.00013315794058144093,0.00026631588116288185,-0.0011984214652329683
1772810404864724700,5.393724853515625,-0.0009321055840700865,0.0007989476434886456,0.0009321055840700865
1772810404874604300,5.403604248046875,0.0006657897029072046,0.001864211168140173,0.0009321055840700865
1772810404884483600,5.413483642578125,0.00013315794058144093,-0.00026631588116288185,-0.00013315794058144093
1772810404894363100,5.423363037109375,-0.0003994738217443228,0.001864211168140173,-0.00013315794058144093
1772810404904242700,5.43324267578125,-0.0003994738217443228,-0.0007989476434886456,-0.00013315794058144093
1772810404914122000,5.4431220703125,0.00013315794058144093,-0.0007989476434886456,-0.00013315794058144093
1772810404924001500,5.45300146484375,0.00013315794058144093,-0.0023968429304659367,0.0009321055840700865
1772810404933881000,5.462881103515625,-0.0014647373463958502,0.00026631588116288185,-0.0006657897029072046
1772810404943760400,5.472760498046875,0.00013315794058144093,-0.00026631588116288185,0.0003994738217443228
1772810404953640000,5.482639892578125,-0.0003994738217443228,0.0013315794058144093,-0.00013315794058144093
1772810404963519500,5.49251953125,-0.0009321055840700865,0.001864211168140173,-0.0006657897029072046
1772810404973399000,5.50239892578125,0.00013315794058144093,-0.0013315794058144093,0.0009321055840700865
1772810404983278300,5.5122783203125,0.0011984214652329683,-0.0013315794058144093,0.0003994738217443228
1772810404993158000,5.522157958984375,-0.0003994738217443228,-0.00026631588116288185,0.0009321055840700865
1772810405003037700,5.53203759765625,-0.0003994738217443228,0.001864211168140173,0.0009321055840700865
1772810405012917500,5.54191748046875,-0.001997369108721614,0.0023968429304659367,0.0009321055840700865
1772810405022797000,5.551797119140625,0.00013315794058144093,-0.00026631588116288185,0.0014647373463958502
1772810405032676900,5.5616767578125,-0.0003994738217443228,-0.0013315794058144093,-0.0011984214652329683
1772810405042556700,5.571556640625,0.0011984214652329683,-0.0007989476434886456,-0.0006657897029072046
1772810405052436500,5.5814365234375,0.00013315794058144093,-0.0007989476434886456,0.0014647373463958502
1772810405062316300,5.59131640625,-0.001997369108721614,0.0029294746927917004,-0.001731053227558732
1772810405072196000,5.601196044921875,-0.0009321055840700865,0.0013315794058144093,0.001997369108721614
1772810405082076000,5.611075927734375,0.0006657897029072046,-0.0013315794058144093,0.0014647373463958502
1772810405091955700,5.620955810546875,0.0006657897029072046,0.001864211168140173,0.0009321055840700865
1772810405101835500,5.63083544921875,0.0006657897029072046,0.0013315794058144093,-0.00013315794058144093
1772810405121595000,5.650594970703125,0.00013315794058144093,0.003462106455117464,0.0009321055840700865
1772810405131474700,5.660474609375,0.00013315794058144093,0.0007989476434886456,0.0014647373463958502
1772810405141354500,5.6703544921875,-0.0003994738217443228,-0.0023968429304659367,0.0003994738217443228
1772810405151234300,5.680234375,0.0011984214652329683,-0.00026631588116288185,0.0014647373463958502
1772810405161114000,5.690114013671875,-0.0003994738217443228,-0.0007989476434886456,-0.00013315794058144093
1772810405170994000,5.699993896484375,0.0011984214652329683,-0.0007989476434886456,0.0014647373463958502
1772810405180873700,5.709873779296875,0.00013315794058144093,-0.00026631588116288185,-0.001731053227558732
1772810405190753500,5.71975341796875,-0.0014647373463958502,0.003462106455117464,0.0009321055840700865
1772810405200633300,5.72963330078125,0.00013315794058144093,-0.001864211168140173,0.0003994738217443228
1772810405210513200,5.73951318359375,0.00013315794058144093,0.0007989476434886456,0.0009321055840700865
1772810405220393000,5.74939306640625,0.0006657897029072046,-0.0013315794058144093,0.0009321055840700865
1772810405230272800,5.759272705078125,-0.0014647373463958502,-0.0007989476434886456,-0.0006657897029072046
1772810405240152300,5.76915234375,0.0006657897029072046,-0.0007989476434886456,0.0025300008710473776
1772810405250032000,5.7790322265625,-0.0009321055840700865,0.00026631588116288185,0.0003994738217443228
1772810405259912000,5.788911865234375,0.0006657897029072046,0.0007989476434886456,-0.00013315794058144093
1772810405269791700,5.798791748046875,0.0011984214652329683,-0.001864211168140173,0.0009321055840700865
1772810405279671600,5.808671630859375,-0.0014647373463958502,-0.0007989476434886456,-0.0006657897029072046
1772810405289551400,5.81855126953125,0.001731053227558732,-0.0007989476434886456,-0.0011984214652329683
1772810405299431200,5.82843115234375,0.0006657897029072046,0.0013315794058144093,0.0003994738217443228
1772810405309311000,5.83831103515625,-0.0003994738217443228,0.0007989476434886456,-0.00013315794058144093
1772810405319190800,5.848190673828125,0.00013315794058144093,-0.0007989476434886456,0.0009321055840700865
1772810405329070300,5.8580703125,0.00013315794058144093,0.001864211168140173,-0.0006657897029072046
1772810405338950100,5.8679501953125,-0.0009321055840700865,-0.00026631588116288185,-0.00013315794058144093
1772810405348830000,5.877829833984375,0.00013315794058144093,0.0007989476434886456,-0.00013315794058144093
1772810405358709800,5.887709716796875,0.00013315794058144093,0.00026631588116288185,0.0009321055840700865
1772810405368589600,5.897589599609375,-0.0025300008710473776,-0.0007989476434886456,-0.00013315794058144093
1772810405378469400,5.907469482421875,-0.0009321055840700865,0.001864211168140173,-0.00013315794058144093
1772810405388349200,5.91734912109375,-0.0009321055840700865,-0.00026631588116288185,-0.0011984214652329683
1772810405398229000,5.92722900390625,0.0006657897029072046,-0.0013315794058144093,-0.00013315794058144093
1772810405408108800,5.93710888671875,-0.0014647373463958502,0.0013315794058144093,0.0009321055840700865
1772810405417988600,5.946988525390625,-0.0003994738217443228,0.0013315794058144093,0.0003994738217443228
1772810405427868400,5.956868408203125,-0.0003994738217443228,0.0007989476434886456,0.0014647373463958502
1772810405437748200,5.966748291015625,-0.0003994738217443228,0.0023968429304659367,-0.00013315794058144093
1772810405447628000,5.9766279296875,0.00013315794058144093,0.0013315794058144093,0.0003994738217443228
1772810405457507600,5.986507568359375,0.0011984214652329683,0.00026631588116288185,-0.0006657897029072046
1772810405467387400,5.996387451171875,-0.0009321055840700865,0.001864211168140173,0.0003994738217443228
1772810405477267200,6.00626708984375,-0.0009321055840700865,0.00026631588116288185,-0.0011984214652329683
1772810405487147000,6.01614697265625,0.00013315794058144093,-0.001864211168140173,-0.0022636849898844957
1772810405497026800,6.02602685546875,-0.0014647373463958502,0.0007989476434886456,0.0003994738217443228
1772810405506907000,6.035906982421875,-0.0009321055840700865,-0.0007989476434886456,0.0003994738217443228
1772810405516787000,6.045786865234375,0.0006657897029072046,0.0013315794058144093,-0.00013315794058144093
1772810405526667000,6.0556669921875,-0.0003994738217443228,-0.0007989476434886456,-0.0011984214652329683
1772810405536547000,6.065547119140625,-0.0014647373463958502,-0.0007989476434886456,0.0009321055840700865
1772810405546427100,6.07542724609375,0.001731053227558732,-0.0013315794058144093,-0.00013315794058144093
1772810405556307500,6.085307373046875,0.0006657897029072046,0.0013315794058144093,-0.00013315794058144093
1772810405566187300,6.095187255859375,-0.0009321055840700865,0.00026631588116288185,-0.0006657897029072046
1772810405576067600,6.105067626953125,-0.0009321055840700865,0.00026631588116288185,0.0014647373463958502
1772810405585947600,6.11494775390625,0.0006657897029072046,-0.0023968429304659367,-0.00013315794058144093
1772810405595827700,6.12482763671875,-0.0014647373463958502,-0.00026631588116288185,-0.00013315794058144093
1772810405605707800,6.134707763671875,0.0006657897029072046,0.001864211168140173,-0.00013315794058144093
1772810405615587800,6.144587890625,-0.0003994738217443228,0.0029294746927917004,0.0003994738217443228
1772810405625468000,6.154468017578125,0.0011984214652329683,0.00026631588116288185,0.0009321055840700865
1772810405635348000,6.164347900390625,0.0011984214652329683,-0.001864211168140173,-0.00013315794058144093
1772810405645228000,6.17422802734375,-0.0009321055840700865,0.00026631588116288185,0.0003994738217443228
1772810405655108000,6.184108154296875,0.0006657897029072046,-0.0007989476434886456,-0.00013315794058144093
1772810405664988200,6.19398828125,0.0022636849898844957,0.0007989476434886456,0.0014647373463958502
1772810405674868200,6.2038681640625,-0.0009321055840700865,-0.00026631588116288185,0.0003994738217443228
1772810405684748300,6.213748291015625,-0.0003994738217443228,0.001864211168140173,-0.00013315794058144093
1772810405694628400,6.22362841796875,-0.0009321055840700865,0.0013315794058144093,-0.0006657897029072046
1772810405704508400,6.23350830078125,0.00013315794058144093,0.0007989476434886456,0.0003994738217443228
1772810405714388500,6.243388427734375,0.00013315794058144093,-0.00026631588116288185,0.0009321055840700865
1772810405724268500,6.2532685546875,0.00013315794058144093,0.00026631588116288185,-0.0011984214652329683
1772810405734148600,6.263148681640625,0.00013315794058144093,-0.0023968429304659367,0.0003994738217443228
1772810405744028700,6.273028564453125,-0.0009321055840700865,0.00026631588116288185,0.0003994738217443228
1772810405753908700,6.28290869140625,-0.0009321055840700865,-0.0007989476434886456,-0.0011984214652329683
1772810405763789000,6.2927890625,0.00013315794058144093,-0.0013315794058144093,-0.0006657897029072046
1772810405773669000,6.302669189453125,0.0006657897029072046,0.0013315794058144093,-0.001731053227558732
1772810405783549200,6.312549072265625,0.00013315794058144093,0.0007989476434886456,-0.00013315794058144093
1772810405793429200,6.32242919921875,-0.0003994738217443228,0.00026631588116288185,-0.0011984214652329683
1772810405803309300,6.332309326171875,-0.0014647373463958502,-0.0007989476434886456,-0.00013315794058144093
1772810405813189400,6.342189453125,0.00013315794058144093,-0.0013315794058144093,0.0003994738217443228
1772810405823069400,6.3520693359375,0.00013315794058144093,0.0013315794058144093,-0.0011984214652329683
1772810405832949500,6.361949462890625,-0.0003994738217443228,0.0007989476434886456,-0.0006657897029072046
1772810405842829600,6.37182958984375,0.00013315794058144093,-0.0023968429304659367,-0.001731053227558732
1772810405852709600,6.381709716796875,0.001731053227558732,0.0013315794058144093,-0.0011984214652329683
1772810405862589700,6.391589599609375,0.00013315794058144093,0.00026631588116288185,-0.001731053227558732
1772810405872469800,6.4014697265625,0.00013315794058144093,-0.001864211168140173,-0.0006657897029072046
1772810405882349800,6.411349853515625,-0.0009321055840700865,-0.00026631588116288185,-0.00013315794058144093
1772810405892230000,6.42122998046875,0.0011984214652329683,-0.001864211168140173,-0.0011984214652329683
1772810405902110000,6.43110986328125,-0.0003994738217443228,-0.0029294746927917004,0.0003994738217443228
1772810405911990000,6.440989990234375,0.0006657897029072046,-0.00026631588116288185,-0.001731053227558732
1772810405921870000,6.4508701171875,0.00013315794058144093,-0.0013315794058144093,-0.0006657897029072046
1772810405931750100,6.460750244140625,-0.0003994738217443228,-0.001864211168140173,-0.0022636849898844957
1772810405941630500,6.47063037109375,0.0006657897029072046,-0.0023968429304659367,-0.0022636849898844957
1772810405951510500,6.480510498046875,-0.0003994738217443228,-0.0029294746927917004,-0.0022636849898844957
1772810405961390300,6.490390380859375,-0.0003994738217443228,-0.005060001742094755,-0.00013315794058144093
1772810405971270700,6.500270751953125,0.0006657897029072046,-0.003994738217443228,-0.0011984214652329683
1772810405981150700,6.510150634765625,0.0006657897029072046,-0.0045273699797689915,-0.0006657897029072046
1772810405991030800,6.52003076171875,0.001731053227558732,-0.003462106455117464,-0.0011984214652329683
1772810406000911000,6.5299111328125,0.00013315794058144093,-0.001864211168140173,-0.0011984214652329683
1772810406010791400,6.53979150390625,-0.0003994738217443228,-0.0007989476434886456,0.0003994738217443228
1772810406020671700,6.549671630859375,0.001731053227558732,-0.0029294746927917004,-0.00013315794058144093
1772810406030552300,6.55955224609375,-0.001997369108721614,-0.0007989476434886456,-0.0006657897029072046
1772810406040432600,6.5694326171875,0.0006657897029072046,0.00026631588116288185,0.0014647373463958502
1772810406050313200,6.579313232421875,-0.0025300008710473776,-0.0013315794058144093,-0.0006657897029072046
1772810406060193500,6.589193603515625,-0.0009321055840700865,-0.00026631588116288185,0.0009321055840700865
1772810406070073900,6.599073974609375,-0.0014647373463958502,0.001864211168140173,-0.00013315794058144093
1772810406079954400,6.608954345703125,-0.0009321055840700865,-0.00026631588116288185,0.0003994738217443228
1772810406089834800,6.618834716796875,0.0011984214652329683,-0.0007989476434886456,-0.0006657897029072046
1772810406099715000,6.628715087890625,0.0006657897029072046,0.00026631588116288185,0.0003994738217443228
1772810406109595600,6.638595703125,0.00026631588116288185,-0.00013315794058144093,0.0025300008710473776
1772810406119476000,6.64847607421875,0.0013315794058144093,0.0009321055840700865,-0.00013315794058144093
1772810406129356500,6.6583564453125,-0.00026631588116288185,0.0009321055840700865,0.001997369108721614
1772810406139236900,6.66823681640625,0.0013315794058144093,0.0003994738217443228,0.0003994738217443228
1772810406149117200,6.6781171875,-0.0007989476434886456,0.0003994738217443228,-0.0006657897029072046
1772810406158997800,6.687997802734375,-0.00026631588116288185,-0.0011984214652329683,-0.0006657897029072046
1772810406168878000,6.697878173828125,-0.00026631588116288185,0.0014647373463958502,-0.00013315794058144093
1772810406188639000,6.717638916015625,0.0007989476434886456,-0.0006657897029072046,-0.0006657897029072046
1772810406198519300,6.727519287109375,-0.0007989476434886456,-0.001731053227558732,0.0003994738217443228
1772810406208400000,6.73739990234375,0.0007989476434886456,-0.001731053227558732,0.0014647373463958502
1772810406218280200,6.7472802734375,-0.00026631588116288185,-0.0006657897029072046,-0.0006657897029072046
1772810406228160500,6.757160400390625,0.0007989476434886456,0.001997369108721614,-0.0006657897029072046
1772810406238041000,6.767041015625,0.0007989476434886456,0.0003994738217443228,-0.001731053227558732
1772810406247921400,6.77692138671875,0.00026631588116288185,0.0014647373463958502,-0.0006657897029072046
1772810406257802000,6.786802001953125,0.0013315794058144093,-0.00013315794058144093,-0.0011984214652329683
1772810406267682300,6.796682373046875,-0.0007989476434886456,-0.001731053227558732,0.0003994738217443228
1772810406277563000,6.80656298828125,0.0007989476434886456,-0.0006657897029072046,0.0014647373463958502
1772810406287443200,6.816443115234375,-0.0013315794058144093,0.0009321055840700865,0.0009321055840700865
1772810406297323500,6.826323486328125,0.00026631588116288185,-0.00013315794058144093,-0.00013315794058144093
1772810406307204000,6.8362041015625,0.00026631588116288185,-0.00013315794058144093,0.0003994738217443228
1772810406317084400,6.84608447265625,-0.00026631588116288185,0.0003994738217443228,-0.0006657897029072046
1772810406326964700,6.85596484375,0.00026631588116288185,0.0009321055840700865,-0.0006657897029072046
1772810406336845300,6.86584521484375,0.00026631588116288185,-0.00013315794058144093,-0.001731053227558732
1772810406346725600,6.8757255859375,-0.00026631588116288185,0.0003994738217443228,-0.0006657897029072046
1772810406356606200,6.885606201171875,-0.0013315794058144093,0.0009321055840700865,0.0014647373463958502
1772810406366486500,6.895486572265625,-0.0007989476434886456,-0.0006657897029072046,0.0009321055840700865
1772810406376366800,6.905366943359375,-0.00026631588116288185,-0.0006657897029072046,-0.00013315794058144093
1772810406386247400,6.915247314453125,0.0007989476434886456,-0.001731053227558732,0.0014647373463958502
1772810406396127700,6.925127685546875,-0.00026631588116288185,0.0009321055840700865,-0.0011984214652329683
1772810406406008000,6.935008056640625,0.0029294746927917004,-0.00013315794058144093,-0.00013315794058144093
1772810406415888600,6.944888671875,0.0007989476434886456,0.001997369108721614,-0.0011984214652329683
1772810406425769000,6.95476904296875,-0.00026631588116288185,0.0003994738217443228,-0.0006657897029072046
1772810406435649500,6.9646494140625,0.0013315794058144093,-0.00013315794058144093,0.0003994738217443228
1772810406445529900,6.97452978515625,0.00026631588116288185,-0.001731053227558732,-0.0011984214652329683
1772810406455410200,6.98441015625,0.0007989476434886456,-0.00013315794058144093,0.0003994738217443228
1772810406465290800,6.994290771484375,-0.0007989476434886456,0.0003994738217443228,-0.0011984214652329683
1772810406475171000,7.004171142578125,-0.0013315794058144093,0.001997369108721614,0.0009321055840700865
1772810406485051400,7.014051513671875,0.00026631588116288185,0.0014647373463958502,0.0003994738217443228
1772810406494932000,7.023931884765625,0.00026631588116288185,0.0003994738217443228,0.0003994738217443228
1772810406504812000,7.03381201171875,-0.0013315794058144093,-0.001731053227558732,-0.00013315794058144093
1772810406514692000,7.043692138671875,-0.00026631588116288185,-0.0006657897029072046,-0.0011984214652329683
1772810406524572200,7.053572265625,0.0013315794058144093,0.0003994738217443228,-0.00013315794058144093
1772810406534452200,7.0634521484375,0.0013315794058144093,-0.0011984214652329683,0.0003994738217443228
1772810406544332300,7.073332275390625,0.00026631588116288185,0.001997369108721614,0.0014647373463958502
1772810406554212400,7.08321240234375,-0.0007989476434886456,0.0009321055840700865,-0.0011984214652329683
1772810406564092400,7.093092529296875,-0.00026631588116288185,0.0003994738217443228,-0.0006657897029072046
1772810406573972500,7.102972412109375,0.0007989476434886456,-0.00013315794058144093,-0.0006657897029072046
1772810406583852500,7.1128525390625,0.001864211168140173,-0.001731053227558732,-0.0011984214652329683
1772810406593732600,7.122732666015625,-0.0007989476434886456,0.0003994738217443228,-0.00013315794058144093
1772810406603613000,7.132613037109375,-0.0013315794058144093,-0.00013315794058144093,-0.0006657897029072046
1772810406613492700,7.14249267578125,-0.0007989476434886456,-0.0011984214652329683,-0.0006657897029072046
1772810406623373000,7.152373046875,0.00026631588116288185,-0.0011984214652329683,-0.00013315794058144093
1772810406633253000,7.162253173828125,-0.00026631588116288185,-0.00013315794058144093,-0.00013315794058144093
1772810406643133200,7.17213330078125,0.001864211168140173,0.0014647373463958502,0.0009321055840700865
1772810406653013200,7.18201318359375,-0.00026631588116288185,0.0009321055840700865,-0.00013315794058144093
1772810406662893300,7.191893310546875,0.0007989476434886456,0.0009321055840700865,-0.0006657897029072046
1772810406672773400,7.2017734375,0.00026631588116288185,0.0014647373463958502,0.0003994738217443228
1772810406682653400,7.2116533203125,0.0013315794058144093,0.0009321055840700865,0.0009321055840700865
1772810406692533500,7.221533447265625,-0.0007989476434886456,-0.00013315794058144093,0.0009321055840700865
1772810406702413600,7.23141357421875,0.0013315794058144093,0.0003994738217443228,-0.0006657897029072046
1772810406712293600,7.241293701171875,-0.00026631588116288185,0.001997369108721614,0.0003994738217443228
1772810406722173700,7.251173583984375,0.00026631588116288185,-0.0006657897029072046,-0.0011984214652329683
1772810406732053800,7.2610537109375,-0.00026631588116288185,0.0003994738217443228,0.0003994738217443228
1772810406741933800,7.270933837890625,0.00026631588116288185,-0.0022636849898844957,-0.0006657897029072046
1772810406751814100,7.280814208984375,-0.00026631588116288185,0.0009321055840700865,-0.0006657897029072046
1772810406761694200,7.290694091796875,-0.0007989476434886456,0.0009321055840700865,0.0009321055840700865
1772810406771574300,7.30057421875,0.00026631588116288185,-0.003861580276861787,-0.00013315794058144093
1772810406781454300,7.310454345703125,0.0007989476434886456,0.0003994738217443228,-0.0006657897029072046
1772810406791334400,7.32033447265625,0.0007989476434886456,-0.0006657897029072046,-0.00013315794058144093
1772810406801214500,7.33021435546875,0.00026631588116288185,-0.0011984214652329683,-0.0011984214652329683
1772810406811094500,7.340094482421875,0.00026631588116288185,-0.0006657897029072046,-0.00013315794058144093
1772810406820974600,7.349974609375,-0.0007989476434886456,0.0003994738217443228,-0.00013315794058144093
1772810406830854700,7.359854736328125,-0.00026631588116288185,-0.0011984214652329683,-0.0011984214652329683
1772810406840734700,7.369734619140625,0.0007989476434886456,0.0003994738217443228,0.0003994738217443228
1772810406850614800,7.37961474609375,-0.00026631588116288185,-0.0006657897029072046,-0.00013315794058144093
1772810406860494800,7.389494873046875,0.0007989476434886456,0.0003994738217443228,0.0009321055840700865
1772810406870375200,7.399375244140625,0.00026631588116288185,-0.00013315794058144093,-0.0011984214652329683
1772810406880255000,7.4092548828125,-0.0007989476434886456,-0.00013315794058144093,0.0003994738217443228
1772810406890135300,7.41913525390625,0.0007989476434886456,0.0009321055840700865,-0.0006657897029072046
1772810406900015400,7.429015380859375,0.0007989476434886456,0.0009321055840700865,-0.00013315794058144093
1772810406909895400,7.4388955078125,0.0023968429304659367,0.0003994738217443228,-0.0006657897029072046
1772810406919775500,7.448775390625,-0.00026631588116288185,-0.0022636849898844957,0.0014647373463958502
1772810406929655600,7.458655517578125,0.0023968429304659367,-0.0011984214652329683,-0.0006657897029072046
1772810406939535600,7.46853564453125,-0.0007989476434886456,0.0030626326333731413,-0.0006657897029072046
1772810406949415700,7.478415771484375,-0.0013315794058144093,0.0003994738217443228,0.0009321055840700865
1772810406959295700,7.488295654296875,-0.00026631588116288185,0.0009321055840700865,0.0003994738217443228
1772810406969175800,7.49817578125,0.00026631588116288185,0.0009321055840700865,0.0003994738217443228
1772810406979055900,7.508055908203125,0.00026631588116288185,-0.001731053227558732,0.0003994738217443228
1772810406988936000,7.51793603515625,-0.0007989476434886456,0.0009321055840700865,0.0003994738217443228
1772810406998816300,7.527816162109375,0.00026631588116288185,0.0003994738217443228,0.0014647373463958502
1772810407008696300,7.5376962890625,0.0013315794058144093,-0.00013315794058144093,0.0014647373463958502
1772810407018576400,7.547576416015625,0.0007989476434886456,0.0009321055840700865,0.0003994738217443228
1772810407028456400,7.55745654296875,0.00026631588116288185,0.0014647373463958502,-0.00013315794058144093
1772810407038336800,7.567336669921875,0.00026631588116288185,0.0003994738217443228,0.0003994738217443228
1772810407048216800,7.577216796875,-0.00026631588116288185,0.001997369108721614,0.0009321055840700865
1772810407058097000,7.587096923828125,-0.0007989476434886456,-0.0006657897029072046,-0.00013315794058144093
1772810407067977200,7.596977294921875,0.00026631588116288185,0.0014647373463958502,0.0003994738217443228
1772810407077857300,7.606857177734375,0.00026631588116288185,0.0014647373463958502,0.0009321055840700865
1772810407087737300,7.6167373046875,0.00026631588116288185,0.0003994738217443228,-0.0006657897029072046
1772810407097617700,7.62661767578125,-0.0007989476434886456,0.0009321055840700865,0.0009321055840700865
1772810407107497700,7.636497802734375,-0.0007989476434886456,0.001997369108721614,0.0009321055840700865
1772810407117377800,7.646377685546875,-0.00026631588116288185,0.0025300008710473776,0.0003994738217443228
1772810407127257900,7.6562578125,0.00026631588116288185,0.0003994738217443228,-0.0011984214652329683
1772810407137138200,7.66613818359375,0.0013315794058144093,-0.00013315794058144093,0.0003994738217443228
1772810407147018200,7.676018310546875,0.0007989476434886456,-0.001731053227558732,-0.00013315794058144093
1772810407156898300,7.685898193359375,0.00026631588116288185,0.0003994738217443228,0.0003994738217443228
1772810407166778600,7.695778564453125,0.0007989476434886456,-0.00013315794058144093,-0.0006657897029072046
1772810407176658700,7.70565869140625,0.00026631588116288185,-0.0027963167522102594,-0.0006657897029072046
1772810407186538800,7.715538818359375,-0.00026631588116288185,-0.00013315794058144093,0.001997369108721614
1772810407196419000,7.725419189453125,-0.0007989476434886456,0.0014647373463958502,-0.00013315794058144093
1772810407206299100,7.735299072265625,0.0013315794058144093,0.0003994738217443228,-0.00013315794058144093
1772810407216179200,7.74517919921875,-0.0007989476434886456,0.001997369108721614,-0.00013315794058144093
1772810407226059300,7.755059326171875,-0.00026631588116288185,0.0003994738217443228,-0.00013315794058144093
1772810407235939600,7.764939697265625,0.0013315794058144093,-0.001731053227558732,0.0003994738217443228
1772810407245819600,7.774819580078125,0.00026631588116288185,-0.00013315794058144093,0.0003994738217443228
1772810407255699700,7.78469970703125,-0.0013315794058144093,0.0003994738217443228,-0.001731053227558732
1772810407265580000,7.794580078125,0.001864211168140173,0.0003994738217443228,0.0009321055840700865
1772810407275460000,7.804460205078125,-0.00026631588116288185,-0.00013315794058144093,0.0014647373463958502
1772810407285340200,7.814340087890625,-0.00026631588116288185,-0.00013315794058144093,-0.0006657897029072046
1772810407295220500,7.824220458984375,0.0013315794058144093,0.0003994738217443228,-0.0006657897029072046
1772810407305100500,7.8341005859375,0.00026631588116288185,0.0003994738217443228,-0.0011984214652329683
1772810407314980600,7.843980712890625,-0.00026631588116288185,-0.0006657897029072046,-0.0011984214652329683
1772810407324860700,7.853860595703125,-0.0013315794058144093,-0.00013315794058144093,-0.00013315794058144093
1772810407334741000,7.863740966796875,0.0007989476434886456,0.0014647373463958502,0.0003994738217443228
1772810407344621000,7.87362109375,0.00026631588116288185,0.0003994738217443228,0.0003994738217443228
1772810407354501000,7.883501220703125,0.00026631588116288185,-0.0011984214652329683,-0.0011984214652329683
1772810407374261500,7.903261474609375,0.0007989476434886456,0.0009321055840700865,-0.0022636849898844957
1772810407384141600,7.9131416015625,0.00026631588116288185,0.0003994738217443228,-0.00013315794058144093
1772810407403902000,7.93290185546875,0.0007989476434886456,0.001997369108721614,-0.00013315794058144093
1772810407413782000,7.942781982421875,0.0007989476434886456,-0.0006657897029072046,-0.00013315794058144093
1772810407423662300,7.952662353515625,0.0013315794058144093,0.0003994738217443228,-0.0011984214652329683
1772810407433542400,7.96254248046875,-0.00026631588116288185,0.0003994738217443228,0.0003994738217443228
1772810407443422500,7.97242236328125,-0.0013315794058144093,-0.0006657897029072046,-0.0006657897029072046
1772810407453302500,7.982302490234375,0.001864211168140173,-0.00013315794058144093,-0.00013315794058144093
1772810407463182800,7.992182861328125,-0.00026631588116288185,0.001997369108721614,-0.0011984214652329683
1772810407473063000,8.00206298828125,0.00026631588116288185,-0.0006657897029072046,0.0014647373463958502
1772810407482943000,8.01194287109375,-0.0007989476434886456,0.0003994738217443228,0.0003994738217443228
1772810407492823300,8.0218232421875,-0.00026631588116288185,-0.00013315794058144093,-0.0006657897029072046
1772810407502702800,8.031702880859376,0.001864211168140173,0.0014647373463958502,0.0003994738217443228
1772810407512582400,8.04158251953125,0.0007989476434886456,-0.0011984214652329683,0.0003994738217443228
1772810407522462000,8.0514619140625,-0.00026631588116288185,-0.0011984214652329683,0.0009321055840700865
1772810407532341500,8.061341552734374,0.0023968429304659367,0.0003994738217443228,0.0009321055840700865
1772810407542221000,8.071220947265624,0.0007989476434886456,-0.0006657897029072046,-0.00013315794058144093
1772810407552100600,8.0811005859375,-0.0023968429304659367,0.0025300008710473776,0.0003994738217443228
1772810407561980200,8.090980224609375,-0.0007989476434886456,0.0009321055840700865,-0.00013315794058144093
1772810407571859700,8.100859619140625,-0.00026631588116288185,-0.0006657897029072046,0.0014647373463958502
1772810407581739300,8.1107392578125,0.0007989476434886456,-0.0006657897029072046,-0.00013315794058144093
1772810407591618800,8.120618896484375,0.00026631588116288185,-0.0006657897029072046,0.0003994738217443228
1772810407601498000,8.130498046875,-0.001864211168140173,-0.00013315794058144093,0.0009321055840700865
1772810407611377700,8.140377685546875,0.00026631588116288185,-0.0006657897029072046,-0.001731053227558732
1772810407621257200,8.15025732421875,-0.00026631588116288185,-0.00013315794058144093,-0.00013315794058144093
1772810407631136800,8.16013671875,-0.00026631588116288185,0.001997369108721614,-0.0006657897029072046
1772810407641016300,8.170016357421876,0.00026631588116288185,-0.00013315794058144093,0.0014647373463958502
1772810407650896000,8.179895751953126,0.00026631588116288185,0.0009321055840700865,-0.0011984214652329683
1772810407660775400,8.189775390625,-0.0007989476434886456,0.0009321055840700865,-0.0006657897029072046
1772810407670655000,8.199655029296874,-0.0007989476434886456,-0.001731053227558732,-0.001731053227558732
1772810407680534500,8.209534423828124,-0.0007989476434886456,-0.0006657897029072046,-0.0006657897029072046
1772810407690414000,8.2194140625,0.0007989476434886456,0.0003994738217443228,0.001997369108721614
1772810407700293600,8.229293701171875,0.00026631588116288185,0.0014647373463958502,0.0009321055840700865
1772810407710173200,8.239173095703125,-0.0013315794058144093,-0.0022636849898844957,-0.0006657897029072046
1772810407720052700,8.249052734375,0.00026631588116288185,0.0009321055840700865,0.0009321055840700865
1772810407729932300,8.258932373046875,-0.00026631588116288185,0.0003994738217443228,-0.00013315794058144093
1772810407739811800,8.268811767578125,-0.00026631588116288185,-0.001731053227558732,0.0003994738217443228
1772810407749691400,8.27869140625,0.0007989476434886456,-0.00013315794058144093,-0.0022636849898844957
1772810407759571000,8.288571044921875,0.00026631588116288185,-0.00013315794058144093,-0.0006657897029072046
1772810407769450200,8.2984501953125,-0.00026631588116288185,0.0009321055840700865,-0.00013315794058144093
1772810407779330000,8.308330078125,0.00026631588116288185,0.0014647373463958502,-0.001731053227558732
1772810407789209300,8.318209228515625,0.00026631588116288185,-0.0011984214652329683,-0.0006657897029072046
1772810407799089000,8.3280888671875,0.00026631588116288185,-0.00013315794058144093,-0.00013315794058144093
1772810407808968400,8.337968505859376,-0.00026631588116288185,0.0009321055840700865,-0.0006657897029072046
1772810407818848000,8.347847900390626,-0.00026631588116288185,-0.00013315794058144093,0.0003994738217443228
1772810407828727600,8.3577275390625,-0.0007989476434886456,-0.0006657897029072046,0.0003994738217443228
1772810407838607000,8.367607177734374,-0.00026631588116288185,0.0014647373463958502,0.0009321055840700865
1772810407848486700,8.377486572265624,-0.00026631588116288185,-0.0011984214652329683,-0.00013315794058144093
1772810407858366200,8.3873662109375,0.00026631588116288185,-0.0006657897029072046,-0.0006657897029072046
1772810407868245800,8.397245849609375,-0.001864211168140173,0.0009321055840700865,-0.00013315794058144093
1772810407878125300,8.407125244140625,-0.001864211168140173,0.0009321055840700865,0.0009321055840700865
1772810407888004900,8.4170048828125,-0.0003994738217443228,0.0007989476434886456,-0.00013315794058144093
1772810407897884400,8.426884521484375,0.00013315794058144093,0.001864211168140173,0.0009321055840700865
1772810407907764000,8.436763916015625,0.00013315794058144093,-0.00026631588116288185,-0.0006657897029072046
1772810407917643500,8.4466435546875,0.0011984214652329683,0.0013315794058144093,-0.00013315794058144093
1772810407927523000,8.456523193359375,0.0006657897029072046,-0.00026631588116288185,0.0003994738217443228
1772810407937402600,8.466402587890625,0.00013315794058144093,0.00026631588116288185,0.0003994738217443228
1772810407947282200,8.4762822265625,0.0006657897029072046,-0.0007989476434886456,-0.001731053227558732
1772810407957161700,8.48616162109375,0.0011984214652329683,-0.0007989476434886456,-0.0006657897029072046
1772810407967041000,8.496041015625,-0.0003994738217443228,0.0007989476434886456,0.0009321055840700865
1772810407976920600,8.505920654296874,0.00013315794058144093,-0.0013315794058144093,0.0009321055840700865
1772810407986800000,8.515800048828124,-0.0003994738217443228,0.00026631588116288185,-0.00013315794058144093
1772810407996679700,8.5256796875,0.00013315794058144093,0.0023968429304659367,-0.00013315794058144093
1772810408006559500,8.5355595703125,0.00013315794058144093,0.00026631588116288185,0.0003994738217443228
1772810408016439300,8.545439208984375,-0.0009321055840700865,-0.00026631588116288185,-0.0006657897029072046
1772810408026319400,8.5553193359375,0.0006657897029072046,-0.00026631588116288185,-0.00013315794058144093
1772810408036199200,8.56519921875,-0.0003994738217443228,0.0007989476434886456,-0.00013315794058144093
1772810408046079000,8.575078857421875,0.00013315794058144093,-0.001864211168140173,0.0003994738217443228
1772810408055958800,8.584958740234375,0.00013315794058144093,-0.0007989476434886456,0.0003994738217443228
1772810408065838600,8.594838623046876,0.00013315794058144093,-0.0007989476434886456,0.0003994738217443228
1772810408075718400,8.604718505859376,-0.0003994738217443228,0.0013315794058144093,0.0009321055840700865
1772810408085598200,8.61459814453125,0.00013315794058144093,-0.0007989476434886456,0.0009321055840700865
1772810408095478000,8.62447802734375,0.0006657897029072046,0.00026631588116288185,0.0009321055840700865
1772810408105357800,8.63435791015625,-0.0003994738217443228,0.0023968429304659367,-0.00013315794058144093
1772810408125117400,8.654117431640625,0.0006657897029072046,-0.00026631588116288185,-0.0006657897029072046
1772810408134997200,8.663997314453125,-0.0009321055840700865,-0.001864211168140173,-0.00013315794058144093
1772810408144877000,8.673876953125,-0.0014647373463958502,-0.0007989476434886456,0.0003994738217443228
1772810408154756900,8.6837568359375,-0.0003994738217443228,-0.00026631588116288185,0.0003994738217443228
1772810408164636700,8.69363671875,-0.0009321055840700865,-0.0007989476434886456,-0.0022636849898844957
1772810408174516500,8.7035166015625,0.00013315794058144093,-0.00026631588116288185,-0.0006657897029072046
1772810408184396300,8.713396240234376,-0.0014647373463958502,0.00026631588116288185,-0.00013315794058144093
1772810408194276400,8.7232763671875,-0.0003994738217443228,-0.0007989476434886456,0.0003994738217443228
1772810408204156200,8.73315625,-0.0009321055840700865,-0.0013315794058144093,-0.00013315794058144093
1772810408214036000,8.743035888671875,-0.0014647373463958502,-0.001864211168140173,-0.001731053227558732
1772810408223915800,8.752915771484375,0.0006657897029072046,0.00026631588116288185,0.0003994738217443228
1772810408233795600,8.762795654296875,0.00013315794058144093,0.00026631588116288185,-0.00013315794058144093
1772810408243675400,8.77267529296875,0.00013315794058144093,0.0007989476434886456,-0.0006657897029072046
1772810408253555200,8.78255517578125,0.00013315794058144093,-0.001864211168140173,-0.0011984214652329683
1772810408263435000,8.79243505859375,-0.0003994738217443228,0.0007989476434886456,0.0003994738217443228
1772810408273314800,8.802314697265626,-0.0003994738217443228,-0.0013315794058144093,-0.00013315794058144093
1772810408283194600,8.812194580078126,-0.0009321055840700865,0.00026631588116288185,0.0003994738217443228
1772810408293074400,8.822074462890624,0.00013315794058144093,0.00026631588116288185,0.0009321055840700865
1772810408302954200,8.831954345703124,-0.001997369108721614,-0.00026631588116288185,-0.00013315794058144093
1772810408312834000,8.841833984375,0.00013315794058144093,-0.001864211168140173,-0.0011984214652329683
1772810408322713900,8.8517138671875,-0.0003994738217443228,0.00026631588116288185,-0.001731053227558732
1772810408332593700,8.86159375,-0.0009321055840700865,0.0007989476434886456,-0.00013315794058144093
1772810408352353500,8.881353515625,-0.0003994738217443228,-0.0023968429304659367,0.0003994738217443228
1772810408362233300,8.8912333984375,-0.0003994738217443228,0.00026631588116288185,-0.0011984214652329683
1772810408372113200,8.901113037109376,0.0006657897029072046,0.0007989476434886456,-0.00013315794058144093
1772810408381993000,8.910992919921876,-0.0009321055840700865,-0.00026631588116288185,0.0003994738217443228
1772810408391872800,8.920872802734374,0.0006657897029072046,0.00026631588116288185,-0.0006657897029072046
1772810408401752600,8.930752685546874,-0.0009321055840700865,0.00026631588116288185,-0.0011984214652329683
1772810408411632400,8.94063232421875,-0.0009321055840700865,0.00026631588116288185,-0.0006657897029072046
1772810408421512200,8.95051220703125,-0.0003994738217443228,0.00026631588116288185,0.0003994738217443228
1772810408431392000,8.96039208984375,0.0006657897029072046,-0.00026631588116288185,-0.0011984214652329683
1772810408441271800,8.970271728515625,0.00013315794058144093,-0.00026631588116288185,0.0003994738217443228
1772810408451151600,8.980151611328125,-0.0009321055840700865,0.0007989476434886456,-0.0006657897029072046
1772810408461031400,8.990031494140625,-0.0003994738217443228,-0.001864211168140173,-0.0006657897029072046
1772810408470911200,8.9999111328125,-0.0003994738217443228,-0.00026631588116288185,-0.00013315794058144093
1772810408480791000,9.009791015625,0.00013315794058144093,0.00026631588116288185,0.0014647373463958502
1772810408490670800,9.0196708984375,0.00013315794058144093,0.0013315794058144093,-0.00013315794058144093
1772810408500551000,9.029551025390624,0.00013315794058144093,-0.00026631588116288185,-0.00013315794058144093
1772810408510430700,9.0394306640625,0.00013315794058144093,-0.0007989476434886456,-0.0006657897029072046
1772810408520310800,9.049310791015625,0.0006657897029072046,-0.00026631588116288185,0.0003994738217443228
1772810408530190600,9.059190673828125,0.0006657897029072046,-0.00026631588116288185,-0.00013315794058144093
1772810408540070400,9.0690703125,0.0006657897029072046,-0.001864211168140173,0.0003994738217443228
1772810408549950500,9.078950439453125,0.00013315794058144093,0.003462106455117464,0.0003994738217443228
1772810408559830300,9.088830322265625,0.0006657897029072046,-0.001864211168140173,-0.001731053227558732
1772810408569710300,9.09871044921875,-0.0003994738217443228,-0.00026631588116288185,-0.00013315794058144093
1772810408579590100,9.108590087890626,-0.001997369108721614,-0.0007989476434886456,-0.001731053227558732
1772810408589470200,9.11847021484375,0.0006657897029072046,-0.0007989476434886456,-0.00013315794058144093
1772810408599350000,9.12835009765625,0.0022636849898844957,-0.0007989476434886456,0.0003994738217443228
1772810408609230000,9.13822998046875,0.0011984214652329683,0.00026631588116288185,0.0009321055840700865
1772810408619110000,9.14810986328125,0.00013315794058144093,0.00026631588116288185,-0.00013315794058144093
1772810408628990000,9.157989990234375,-0.0014647373463958502,-0.0013315794058144093,0.0003994738217443228
1772810408638869800,9.167869873046875,0.00013315794058144093,0.00026631588116288185,-0.00013315794058144093
1772810408648749800,9.177749755859375,0.0006657897029072046,0.00026631588116288185,-0.0006657897029072046
1772810408658629600,9.187629638671876,0.00013315794058144093,-0.0007989476434886456,0.0009321055840700865
1772810408668509700,9.197509765625,-0.0014647373463958502,0.00026631588116288185,0.0003994738217443228
1772810408678389500,9.207389404296874,0.00013315794058144093,0.00026631588116288185,0.0003994738217443228
1772810408688269300,9.217269287109374,-0.0009321055840700865,-0.001864211168140173,0.0003994738217443228
1772810408698149400,9.2271494140625,-0.0014647373463958502,-0.0007989476434886456,-0.0006657897029072046
1772810408708029200,9.237029296875,0.00013315794058144093,-0.00026631588116288185,-0.0006657897029072046
1772810408717909200,9.2469091796875,0.0006657897029072046,-0.00026631588116288185,-0.0011984214652329683
1772810408727789000,9.2567890625,0.0011984214652329683,0.0007989476434886456,-0.00013315794058144093
1772810408737669000,9.266669189453125,0.00013315794058144093,0.0013315794058144093,0.0003994738217443228
1772810408747549000,9.276548828125,0.0006657897029072046,-0.00026631588116288185,-0.00013315794058144093
1772810408757429000,9.286428955078126,-0.0003994738217443228,0.00026631588116288185,0.0003994738217443228
1772810408767308800,9.296308837890624,-0.0009321055840700865,-0.0007989476434886456,-0.0006657897029072046
1772810408777188900,9.30618896484375,-0.0003994738217443228,-0.00026631588116288185,-0.00013315794058144093
1772810408787068700,9.316068603515625,-0.0003994738217443228,-0.00026631588116288185,0.0003994738217443228
1772810408796948700,9.32594873046875,0.0011984214652329683,0.0013315794058144093,0.0009321055840700865
1772810408806828500,9.33582861328125,0.00013315794058144093,0.0013315794058144093,-0.00013315794058144093
1772810408816708600,9.34570849609375,0.0011984214652329683,0.0007989476434886456,-0.0011984214652329683
1772810408826588400,9.35558837890625,0.0011984214652329683,0.00026631588116288185,0.0014647373463958502
1772810408836468200,9.36546826171875,0.0006657897029072046,-0.00026631588116288185,0.0003994738217443228
1772810408846348300,9.375348388671876,0.00013315794058144093,-0.00026631588116288185,0.0003994738217443228
1772810408856228000,9.38522802734375,-0.0003994738217443228,-0.0013315794058144093,-0.0006657897029072046
1772810408866108200,9.395108154296874,-0.0009321055840700865,-0.00026631588116288185,0.0009321055840700865
1772810408875988000,9.404988037109375,0.00013315794058144093,-0.0023968429304659367,-0.0006657897029072046
1772810408885868000,9.414867919921875,0.00013315794058144093,0.0007989476434886456,0.0009321055840700865
1772810408895747800,9.424747802734375,0.0011984214652329683,-0.0013315794058144093,-0.0006657897029072046
1772810408905628000,9.4346279296875,0.0006657897029072046,-0.00026631588116288185,0.0003994738217443228
1772810408915507700,9.4445078125,0.0006657897029072046,0.0007989476434886456,0.0003994738217443228
1772810408925387500,9.454387451171876,-0.0014647373463958502,0.00026631588116288185,0.0009321055840700865
1772810408935267600,9.464267578125,0.00013315794058144093,-0.0007989476434886456,-0.001731053227558732
1772810408945147600,9.474147705078124,-0.0003994738217443228,0.00026631588116288185,0.0009321055840700865
1772810408955027500,9.48402734375,-0.0009321055840700865,-0.0007989476434886456,-0.0006657897029072046
1772810408964907300,9.4939072265625,0.00013315794058144093,0.0007989476434886456,-0.001731053227558732
1772810408974787300,9.503787353515625,-0.0014647373463958502,-0.00026631588116288185,-0.00013315794058144093
1772810408984667100,9.513667236328125,0.0006657897029072046,-0.0013315794058144093,-0.00013315794058144093
1772810408994547200,9.523547119140625,-0.0003994738217443228,0.00026631588116288185,-0.0011984214652329683
1772810409004427300,9.53342724609375,-0.0003994738217443228,0.0007989476434886456,-0.0006657897029072046
1772810409014307300,9.543307373046876,0.0006657897029072046,-0.00026631588116288185,-0.00013315794058144093
1772810409024187600,9.553187744140626,-0.0003994738217443228,-0.0007989476434886456,-0.0006657897029072046
1772810409034067700,9.563067626953124,0.00013315794058144093,-0.0023968429304659367,-0.0006657897029072046
1772810409043947800,9.57294775390625,-0.0025300008710473776,0.0007989476434886456,0.0014647373463958502
1772810409053827800,9.582827880859375,0.00013315794058144093,0.0007989476434886456,0.0009321055840700865
1772810409063708200,9.592708251953125,-0.0009321055840700865,0.0007989476434886456,-0.00013315794058144093
1772810409073588200,9.602588134765625,-0.0003994738217443228,-0.0007989476434886456,-0.00013315794058144093
1772810409083468500,9.612468505859376,0.0006657897029072046,-0.001864211168140173,-0.00013315794058144093
1772810409093348600,9.6223486328125,0.0006657897029072046,-0.00026631588116288185,-0.0006657897029072046
1772810409103228700,9.632228759765624,-0.0003994738217443228,0.00026631588116288185,0.0003994738217443228
1772810409122989000,9.651989013671875,-0.0014647373463958502,0.00026631588116288185,0.0014647373463958502
1772810409132869000,9.661869140625,0.00013315794058144093,0.00026631588116288185,-0.00013315794058144093
1772810409142749400,9.67174951171875,-0.0009321055840700865,-0.0013315794058144093,0.0003994738217443228
1772810409152629500,9.68162939453125,-0.0003994738217443228,0.00026631588116288185,0.0003994738217443228
1772810409162509600,9.691509521484376,0.0011984214652329683,-0.00026631588116288185,-0.00013315794058144093
1772810409172390000,9.701389892578124,0.00013315794058144093,-0.00026631588116288185,0.0009321055840700865
1772810409182270000,9.71127001953125,0.001731053227558732,0.00026631588116288185,-0.00013315794058144093
1772810409192150000,9.72114990234375,0.0006657897029072046,-0.00026631588116288185,-0.0011984214652329683
1772810409202030000,9.731030029296875,0.0011984214652329683,-0.0013315794058144093,-0.001731053227558732
1772810409211910400,9.740910400390625,0.0022636849898844957,-0.00026631588116288185,-0.00013315794058144093
1772810409221790500,9.75079052734375,0.00013315794058144093,0.0007989476434886456,-0.0011984214652329683
1772810409231670800,9.7606708984375,-0.0009321055840700865,-0.0013315794058144093,-0.00013315794058144093
1772810409241550800,9.77055078125,0.00013315794058144093,0.001864211168140173,-0.00013315794058144093
1772810409251431000,9.780430908203124,0.0006657897029072046,-0.00026631588116288185,0.0003994738217443228
1772810409261311000,9.79031103515625,0.001731053227558732,0.00026631588116288185,-0.00013315794058144093
1772810409271191300,9.80019140625,-0.0003994738217443228,-0.0007989476434886456,-0.00013315794058144093
1772810409281071400,9.8100712890625,-0.0003994738217443228,-0.0007989476434886456,-0.00013315794058144093
1772810409290951700,9.81995166015625,0.00013315794058144093,-0.0013315794058144093,0.0009321055840700865
1772810409300831700,9.829831787109375,0.00013315794058144093,-0.0007989476434886456,0.0009321055840700865
1772810409310711800,9.8397119140625,0.0006657897029072046,-0.0013315794058144093,-0.0011984214652329683
1772810409320592100,9.849592041015624,0.00013315794058144093,0.00026631588116288185,-0.0022636849898844957
1772810409330472200,9.85947216796875,0.0011984214652329683,0.00026631588116288185,-0.001731053227558732
1772810409340352300,9.869352294921875,0.0006657897029072046,0.00026631588116288185,0.0009321055840700865
1772810409350232300,9.879232421875,0.00013315794058144093,-0.00026631588116288185,0.0003994738217443228
1772810409360112600,9.889112548828125,0.00013315794058144093,0.0013315794058144093,0.0003994738217443228
1772810409369992700,9.89899267578125,-0.0003994738217443228,-0.0013315794058144093,-0.0011984214652329683
1772810409379873000,9.908873046875,0.0006657897029072046,-0.0007989476434886456,-0.0011984214652329683
1772810409389753000,9.918753173828126,0.0011984214652329683,-0.00026631588116288185,0.0009321055840700865
1772810409409513200,9.93851318359375,0.0006657897029072046,-0.0007989476434886456,-0.0011984214652329683
1772810409419393500,9.9483935546875,0.0006657897029072046,-0.001864211168140173,-0.00013315794058144093
1772810409429273600,9.958273681640625,0.0011984214652329683,0.00026631588116288185,0.0003994738217443228
1772810409439154000,9.96815380859375,0.0006657897029072046,-0.0007989476434886456,-0.00013315794058144093
1772810409449034000,9.978033935546875,0.00013315794058144093,-0.00026631588116288185,-0.0006657897029072046
1772810409458914000,9.9879140625,0.0011984214652329683,0.0007989476434886456,-0.0006657897029072046
1772810409468794000,9.997794189453124,0.00013315794058144093,-0.00026631588116288185,0.0009321055840700865
1772810409478674400,10.00767431640625,0.00013315794058144093,0.001864211168140173,0.0009321055840700865
1772810409488554500,10.017554443359375,-0.0014647373463958502,0.00026631588116288185,-0.0011984214652329683
1772810409498434300,10.027434326171875,-0.0003994738217443228,-0.00026631588116288185,0.0003994738217443228
1772810409508313900,10.03731396484375,-0.0003994738217443228,0.0007989476434886456,0.0025300008710473776
1772810409518193400,10.047193359375,-0.0014647373463958502,-0.00026631588116288185,0.0009321055840700865
1772810409528072700,10.05707275390625,0.00013315794058144093,-0.0007989476434886456,-0.00013315794058144093
1772810409537952300,10.0669521484375,0.00013315794058144093,-0.0007989476434886456,0.0003994738217443228
1772810409547831600,10.07683154296875,-0.0003994738217443228,-0.0007989476434886456,-0.0006657897029072046
1772810409557711000,10.086711181640625,-0.0003994738217443228,0.0007989476434886456,0.0003994738217443228
1772810409567590700,10.096590576171875,0.0011984214652329683,0.00026631588116288185,-0.0006657897029072046
1772810409577470000,10.106469970703126,0.00013315794058144093,0.001864211168140173,0.0003994738217443228
1772810409587349500,10.116349609375,0.00013315794058144093,0.0013315794058144093,-0.0011984214652329683
1772810409597229000,10.12622900390625,-0.0030626326333731413,0.0013315794058144093,0.0003994738217443228
1772810409607108400,10.1361083984375,0.0006657897029072046,-0.001864211168140173,0.0003994738217443228
1772810409616988000,10.14598779296875,0.00013315794058144093,0.00026631588116288185,-0.0006657897029072046
1772810409626867500,10.155867431640624,0.0006657897029072046,-0.00026631588116288185,-0.0006657897029072046
1772810409636746800,10.165746826171874,-0.0009321055840700865,0.001864211168140173,-0.00013315794058144093
1772810409646626300,10.175626220703125,0.0022636849898844957,-0.0007989476434886456,-0.0006657897029072046
1772810409656505600,10.185505615234375,0.0011984214652329683,0.003462106455117464,0.001997369108721614
1772810409666385200,10.19538525390625,-0.0009321055840700865,0.003595264395698905,0.002130527049303055
1772810409676264700,10.2052646484375,0.00013315794058144093,0.006791055202484131,0.0026631588116288185
1772810409686144000,10.21514404296875,-0.0003994738217443228,0.0057257916778326035,0.002130527049303055
1772810409696023600,10.2250234375,0.00013315794058144093,0.00519315991550684,0.0010652635246515274
1772810409705902800,10.23490283203125,0.0006657897029072046,0.0030626326333731413,0.0005326317623257637
1772810409715782400,10.244782470703125,0.00013315794058144093,0.0014647373463958502,0.0010652635246515274
1772810409725662000,10.254661865234375,-0.0014647373463958502,-0.0011984214652329683,-0.0010652635246515274
1772810409735541200,10.264541259765625,-0.0003994738217443228,-0.003328948514536023,-0.001597895286977291
1772810409745420800,10.2744208984375,-0.0014647373463958502,-0.004394211806356907,-0.0005326317623257637
1772810409755300400,10.28430029296875,0.00013315794058144093,-0.006524738855659962,-0.003195790573954582
1772810409765179600,10.2941796875,0.00013315794058144093,-0.005992107093334198,-0.001597895286977291
1772810409775059200,10.30405908203125,-0.0009321055840700865,-0.00013315794058144093,-0.001597895286977291
1772810409784938800,10.313938720703124,-0.0009321055840700865,-0.0006657897029072046,0.0010652635246515274
1772810409794818000,10.323818115234374,0.0011984214652329683,-0.0022636849898844957,0.0005326317623257637
