time,seconds_elapsed,z,y,x
1772810386199062300,0.325062255859375,-0.06541061401367188,0.012404114007949829,0.004760913550853729
1772810386218823400,0.344823486328125,-0.0842742919921875,-0.01176251471042633,-0.002492167055606842
1772810386238584600,0.36458447265625,-0.08906269073486328,-0.00004519522190093994,-0.004904761910438538
1772810386258345500,0.384345458984375,-0.0911569595336914,0.0028540417551994324,0.007199816405773163
1772810386278106600,0.404106689453125,-0.08666801452636719,0.015282131731510162,0.009981140494346619
1772810386297867800,0.42386767578125,-0.0842733383178711,-0.015860557556152344,-0.013990260660648346
1772810386317629000,0.44362890625,-0.04894065856933594,-0.0015910863876342773,-0.006666921079158783
1772810386337389800,0.463389892578125,-0.07259464263916016,0.0031981542706489563,0.0028456300497055054
1772810386357151000,0.48315087890625,-0.09624958038330078,-0.0063366517424583435,0.00038307905197143555
1772810386376912100,0.502912109375,-0.07977962493896484,0.007981397211551666,0.002606593072414398
1772810386396673300,0.52267333984375,-0.08426952362060547,0.010165765881538391,-0.00933460146188736
1772810386416434400,0.542434326171875,-0.06780052185058594,0.007922425866127014,-0.004612088203430176
1772810386436195600,0.562195556640625,-0.08666610717773438,0.007818669080734253,-0.006870761513710022
1772810386455956500,0.58195654296875,-0.07978248596191406,0.0007872730493545532,0.0032496824860572815
1772810386475717600,0.601717529296875,-0.053732872009277344,0.012761175632476807,-0.00594610720872879
1772810386495478800,0.621478759765625,-0.07978439331054688,0.0031756311655044556,-0.0035152211785316467
1772810386515239400,0.641239501953125,-0.07499122619628906,-0.004169471561908722,-0.017901644110679626
1772810386535000000,0.661,-0.07978248596191406,0.0004633292555809021,-0.005888350307941437
1772810386554760700,0.6807607421875,-0.07768821716308594,0.012486718595027924,-0.012882694602012634
1772810386574521600,0.700521484375,-0.0914621353149414,0.0052973926067352295,-0.0027188360691070557
1772810386594282200,0.7202822265625,-0.09176349639892578,0.002899870276451111,-0.00008288770914077759
1772810386614043000,0.74004296875,-0.08248424530029297,0.012477591633796692,-0.0022888481616973877
1772810386633803500,0.759803466796875,-0.09146785736083984,0.024601690471172333,-0.0023047104477882385
1772810386653564400,0.779564453125,-0.09176826477050781,0.0012933388352394104,0.021733097732067108
1772810386673325000,0.799324951171875,-0.07709598541259766,0.003032773733139038,0.0020061060786247253
1772810386693085700,0.819085693359375,-0.0773916244506836,-0.006758689880371094,0.003930628299713135
1772810386712846300,0.838846435546875,-0.0773916244506836,-0.006811037659645081,-0.013203397393226624
1772810386732607200,0.858607177734375,-0.07709407806396484,0.01953233778476715,0.006200246512889862
1772810386752367900,0.878367919921875,-0.08457756042480469,0.019373856484889984,-0.001108415424823761
1772810386772128500,0.89812841796875,-0.08697509765625,0.002601630985736847,0.011004619300365448
1772810386791889400,0.917889404296875,-0.08188247680664062,0.00025609880685806274,-0.008381418883800507
1772810386811650000,0.937650146484375,-0.06331920623779297,0.0027537569403648376,0.0013882070779800415
1772810386831410700,0.95741064453125,-0.07229900360107422,-0.0021431148052215576,-0.00607144832611084
1772810386851171300,0.97717138671875,-0.08188247680664062,0.0028507933020591736,0.003492511808872223
1772810386870932200,0.99693212890625,-0.07529544830322266,-0.011471763253211975,0.004177585244178772
1772810386890692900,1.01669287109375,-0.10104846954345703,-0.00402890145778656,-0.00541996955871582
1772810386910453500,1.03645361328125,-0.08458232879638672,-0.0037719160318374634,0.001851700246334076
1772810386930214100,1.056214111328125,-0.08668231964111328,0.00820142775774002,0.011670492589473724
1772810386949975000,1.07597509765625,-0.09386825561523438,0.013037286698818207,0.009358257055282593
1772810386969735700,1.095735595703125,-0.07740211486816406,-0.01321064680814743,0.00949455052614212
1772810386989496300,1.115496337890625,-0.09147357940673828,0.01068345457315445,-0.0002575218677520752
1772810387009256400,1.13525634765625,-0.07260704040527344,0.0010468214750289917,0.004308529198169708
1772810387029016000,1.15501611328125,-0.09865283966064453,0.0058852508664131165,-0.005598768591880798
1772810387048776200,1.174776123046875,-0.048946380615234375,-0.0013545230031013489,0.0038612335920333862
1772810387068535800,1.194535888671875,-0.0845794677734375,0.008168429136276245,0.002099372446537018
1772810387088295700,1.214295654296875,-0.08487701416015625,-0.0058019161224365234,0.006818763911724091
1772810387108055600,1.2340556640625,-0.0845804214477539,0.01055765151977539,-0.00017862021923065186
1772810387127815400,1.2538154296875,-0.07769203186035156,0.011006101965904236,0.009201854467391968
1772810387147575300,1.2735751953125,-0.07289886474609375,0.006509214639663696,-0.01733911782503128
1772810387167335200,1.293335205078125,-0.08697032928466797,0.004006028175354004,-0.012688964605331421
1772810387187095000,1.313094970703125,-0.07289791107177734,-0.008021630346775055,-0.019704341888427734
1772810387206855000,1.33285498046875,-0.08697319030761719,0.0014557987451553345,0.0068573057651519775
1772810387226614800,1.35261474609375,-0.07289791107177734,0.010977514088153839,0.001972205936908722
1772810387246374700,1.372374755859375,-0.060924530029296875,-0.020057879388332367,-0.007234364748001099
1772810387266134500,1.392134521484375,-0.08907318115234375,0.0034473463892936707,-0.019844070076942444
1772810387285894400,1.411894287109375,-0.09147071838378906,0.001202024519443512,-0.0030129924416542053
1772810387305654300,1.431654296875,-0.063323974609375,-0.005984075367450714,0.009072437882423401
1772810387325414100,1.4514140625,-0.08907413482666016,-0.008430913090705872,-0.0077862367033958435
1772810387345174000,1.471174072265625,-0.09626197814941406,0.003492496907711029,0.006797589361667633
1772810387364933600,1.49093359375,-0.08907604217529297,0.005932711064815521,-0.012453943490982056
1772810387384693800,1.51069384765625,-0.08907508850097656,0.003426492214202881,-0.010094523429870605
1772810387404453400,1.530453369140625,-0.08218574523925781,0.017735086381435394,-0.01023467630147934
1772810387424213200,1.550213134765625,-0.08697891235351562,0.005855083465576172,-0.002882920205593109
1772810387443973000,1.56997314453125,-0.06542110443115234,0.010743215680122375,-0.010005123913288116
1772810387463733000,1.58973291015625,-0.0729074478149414,0.005996793508529663,-0.0028590410947799683
1772810387483492900,1.609492919921875,-0.08937644958496094,0.008591845631599426,-0.017266079783439636
1772810387503252000,1.629251953125,-0.07769775390625,-0.008277833461761475,0.00005822628736495972
1772810387523010300,1.64901025390625,-0.0800933837890625,0.008483588695526123,-0.007167354226112366
1772810387542768600,1.6687685546875,-0.07769584655761719,0.010971106588840485,-0.007359430193901062
1772810387562527000,1.68852685546875,-0.09386539459228516,0.013254262506961823,-0.0097414031624794
1772810387582285600,1.70828564453125,-0.07529926300048828,-0.007797904312610626,-0.01951003074645996
1772810387602044000,1.7280439453125,-0.07050609588623047,0.011005744338035583,-0.014856509864330292
1772810387621802200,1.74780224609375,-0.0917673110961914,-0.012500397861003876,-0.00021692365407943726
1772810387641560600,1.767560546875,-0.08937549591064453,0.00186891108751297,0.01685994863510132
1772810387661319000,1.78731884765625,-0.10345172882080078,-0.0057709962129592896,0.004898428916931152
1772810387681077500,1.807077392578125,-0.09865856170654297,0.008241139352321625,-0.007766567170619965
1772810387700835800,1.8268359375,-0.0818929672241211,0.00854436308145523,-0.0057108476758003235
1772810387720594200,1.84659423828125,-0.07260990142822266,0.003752104938030243,0.00866333395242691
1772810387740352500,1.8663525390625,-0.06572151184082031,0.0012994930148124695,0.006171002984046936
1772810387760110800,1.88611083984375,-0.06781578063964844,0.013214118778705597,-0.0011606067419052124
1772810387779869400,1.905869384765625,-0.09146881103515625,0.010703280568122864,-0.0013042613863945007
1772810387799627800,1.925627685546875,-0.07949066162109375,0.003462843596935272,-0.010923713445663452
1772810387819386000,1.94538623046875,-0.08667755126953125,-0.0018891841173171997,-0.0035702139139175415
1772810387839144400,1.96514453125,-0.08189010620117188,0.0004008263349533081,-0.0008562728762626648
1772810387858902800,1.98490283203125,-0.07740116119384766,-0.003988474607467651,0.0024037957191467285
1772810387878661000,2.0046611328125,-0.0753021240234375,0.0032432079315185547,-0.006874658167362213
1772810387898419700,2.024419677734375,-0.08248424530029297,0.0011426955461502075,-0.004879653453826904
1772810387918178000,2.044177978515625,-0.0821828842163086,0.0013859421014785767,-0.00023411214351654053
1772810387937936400,2.063936279296875,-0.07289981842041016,0.010956116020679474,0.0021695345640182495
1772810387957694700,2.08369482421875,-0.07050514221191406,0.010942608118057251,-0.00011193007230758667
1772810387977453000,2.103453125,-0.0845804214477539,-0.013162069022655487,0.0191512331366539
1772810387997211600,2.123211669921875,-0.07050418853759766,-0.0060259997844696045,-0.009733542799949646
1772810388016970500,2.142970458984375,-0.08727359771728516,-0.0036327987909317017,0.002355329692363739
1772810388036729300,2.162729248046875,-0.07769203186035156,-0.0036848485469818115,-0.00955469161272049
1772810388056488400,2.182488525390625,-0.07769393920898438,0.012617453932762146,0.007175520062446594
1772810388076247300,2.202247314453125,-0.08428096771240234,-0.004604361951351166,0.00703420490026474
1772810388096006100,2.222006103515625,-0.06331634521484375,-0.002054370939731598,-0.007789194583892822
1772810388115765200,2.24176513671875,-0.0773935317993164,0.0028327852487564087,-0.000489257276058197
1772810388135524000,2.261524169921875,-0.08457756042480469,-0.006645128130912781,0.006495296955108643
1772810388155283000,2.281282958984375,-0.08457660675048828,-0.006695322692394257,-0.007913999259471893
1772810388175042000,2.3010419921875,-0.08907032012939453,-0.008985459804534912,0.016141310334205627
1772810388194801000,2.32080078125,-0.0797891616821289,0.012612991034984589,-0.007747374475002289
1772810388214559700,2.340559814453125,-0.060924530029296875,0.005160793662071228,0.014068275690078735
1772810388234318800,2.36031884765625,-0.07499504089355469,-0.004420742392539978,-0.012676060199737549
1772810388254077700,2.38007763671875,-0.0749959945678711,-0.001975707709789276,-0.0030308812856674194
1772810388273836500,2.39983642578125,-0.09176254272460938,0.014725714921951294,0.0023140832781791687
1772810388293595400,2.419595458984375,-0.08457469940185547,0.00726974755525589,-0.0025162696838378906
1772810388313354500,2.4393544921875,-0.08697032928466797,0.0077126771211624146,-0.021807067096233368
1772810388333113300,2.45911328125,-0.08696937561035156,-0.00870051234960556,-0.0027871057391166687
1772810388352872200,2.4788720703125,-0.09175777435302734,0.0008241087198257446,-0.005271650850772858
1772810388372631300,2.49863134765625,-0.0728902816772461,0.012475796043872833,0.00426521897315979
1772810388392390100,2.51839013671875,-0.07977771759033203,0.014802627265453339,0.004271015524864197
1772810388412149000,2.53814892578125,-0.07767963409423828,-0.006650879979133606,0.004018239676952362
1772810388431908000,2.557908203125,-0.09624099731445312,-0.0018106475472450256,0.01333928108215332
1772810388451667000,2.5776669921875,-0.05162620544433594,0.012599848210811615,0.006104886531829834
1772810388471425800,2.59742578125,-0.058508872985839844,-0.002630189061164856,0.0005682557821273804
1772810388491185000,2.617184814453125,-0.08456230163574219,-0.0025794431567192078,-0.011235646903514862
1772810388510944800,2.63694482421875,-0.07048892974853516,0.01890571415424347,0.005641147494316101
1772810388530704600,2.65670458984375,-0.09144973754882812,0.0045753344893455505,-0.0039791539311409
1772810388550464800,2.67646484375,-0.0890512466430664,0.0021218210458755493,0.0030073896050453186
1772810388570224600,2.696224609375,-0.08695507049560547,0.006798841059207916,0.0030654817819595337
1772810388589984800,2.71598486328125,-0.09863090515136719,0.006582878530025482,-0.0017670616507530212
1772810388609745000,2.735744873046875,-0.08905029296875,0.01848684251308441,-0.0016530156135559082
1772810388629504800,2.7555048828125,-0.0962362289428711,0.015918664634227753,0.003246299922466278
1772810388649265000,2.775264892578125,-0.07976913452148438,0.013403989374637604,0.005851291120052338
1772810388669024800,2.795024658203125,-0.0890512466430664,0.010994106531143188,0.003461390733718872
1772810388688785000,2.814784912109375,-0.07048320770263672,0.001561768352985382,0.0054992735385894775
1772810388708544800,2.834544677734375,-0.0866537094116211,0.004001133143901825,0.00305812805891037
1772810388728305000,2.854304931640625,-0.07287788391113281,0.006490282714366913,0.0029091164469718933
1772810388748065000,2.87406494140625,-0.06808757781982422,0.008562661707401276,-0.01831267774105072
1772810388767825000,2.893824951171875,-0.0914459228515625,0.01104593276977539,0.005645714700222015
1772810388787585000,2.9135849609375,-0.0866556167602539,-0.0008840635418891907,-0.013391904532909393
1772810388807345000,2.933344970703125,-0.07976722717285156,0.006500229239463806,-0.01368001103401184
1772810388827105000,2.95310498046875,-0.07737064361572266,0.013719998300075531,0.012563668191432953
1772810388846865200,2.972865234375,-0.09862804412841797,-0.0006058737635612488,0.012405559420585632
1772810388866625000,2.992625,-0.08455181121826172,0.001578204333782196,-0.016469642519950867
1772810388886385200,3.01238525390625,-0.08215999603271484,0.016035526990890503,-0.0019321665167808533
1772810388906145000,3.03214501953125,-0.08425617218017578,0.0041167885065078735,-0.009189806878566742
1772810388925905200,3.0519052734375,-0.09383392333984375,-0.00549866259098053,-0.0021859705448150635
1772810388945665000,3.0716650390625,-0.07497310638427734,-0.003088623285293579,0.0027795135974884033
1772810388965425200,3.091425048828125,-0.08665084838867188,0.004056550562381744,0.005138114094734192
1772810388985185000,3.11118505859375,-0.09144306182861328,-0.005661293864250183,0.0006258115172386169
1772810389004945700,3.130945556640625,-0.09623527526855469,-0.010427594184875488,-0.013608366250991821
1772810389024706800,3.150706787109375,-0.07976436614990234,-0.005567148327827454,-0.001916550099849701
1772810389044468000,3.170468017578125,-0.07467460632324219,0.013594277203083038,-0.009019732475280762
1772810389064228900,3.190228759765625,-0.08904647827148438,-0.022456906735897064,0.0029767826199531555
1772810389083990000,3.209989990234375,-0.07018566131591797,-0.015090003609657288,-0.004077911376953125
1772810389103751000,3.2297509765625,-0.07257747650146484,-0.010378904640674591,-0.0019162893295288086
1772810389123512000,3.249511962890625,-0.09383964538574219,0.01596398651599884,0.0031004101037979126
1772810389143273200,3.269273193359375,-0.07497978210449219,0.01595906913280487,-0.003998219966888428
1772810389163034000,3.2890341796875,-0.05850982666015625,-0.0033437833189964294,-0.0017745718359947205
1772810389182795300,3.308795166015625,-0.0749807357788086,-0.0010363459587097168,0.01265612244606018
1772810389202556200,3.32855615234375,-0.0797719955444336,-0.005757249891757965,-0.006529822945594788
1772810389222317300,3.3483173828125,-0.09623908996582031,-0.0033972933888435364,0.0054627880454063416
1772810389242078200,3.368078125,-0.08187007904052734,-0.001092575490474701,0.005685068666934967
1772810389261839400,3.38783935546875,-0.0821676254272461,0.006151773035526276,0.003451026976108551
1772810389281600500,3.4076005859375,-0.08426380157470703,-0.012881383299827576,0.0012718439102172852
1772810389301361400,3.427361328125,-0.06809425354003906,-0.0009931400418281555,-0.003689512610435486
1772810389321122600,3.44712255859375,-0.08426284790039062,-0.001187644898891449,0.0007721558213233948
1772810389340883500,3.466883544921875,-0.10312843322753906,0.0012672469019889832,-0.003939308226108551
1772810389360644600,3.48664453125,-0.08426475524902344,-0.0010109394788742065,-0.006357640027999878
1772810389380405500,3.506405517578125,-0.09624290466308594,0.010913334786891937,0.005789473652839661
1772810389400166700,3.526166748046875,-0.09864044189453125,-0.0032879188656806946,-0.003663778305053711
1772810389419927800,3.545927734375,-0.08456611633300781,0.006247013807296753,-0.013414308428764343
1772810389439688700,3.565688720703125,-0.10103416442871094,0.00640445202589035,-0.006404109299182892
1772810389459449900,3.585449951171875,-0.06809616088867188,-0.005357727408409119,-0.010509878396987915
1772810389479210800,3.605210693359375,-0.08696460723876953,-0.0024943947792053223,-0.0024924203753471375
1772810389498971400,3.624971435546875,-0.07049274444580078,0.021238312125205994,-0.005013681948184967
1772810389518731000,3.64473095703125,-0.08247089385986328,0.002133965492248535,-0.0002513602375984192
1772810389538490600,3.66449072265625,-0.0965433120727539,-0.002332247793674469,0.009082421660423279
1772810389558250500,3.68425048828125,-0.08486747741699219,0.002518877387046814,-0.005210421979427338
1772810389578010000,3.704010009765625,-0.06570148468017578,0.00013677775859832764,-0.0098232701420784
1772810389597769700,3.723769775390625,-0.07288837432861328,0.00014778226613998413,-0.007096938788890839
1772810389617529300,3.743529296875,-0.0824737548828125,0.00010944157838821411,0.005204297602176666
1772810389637289000,3.7632890625,-0.0872659683227539,-0.004818536341190338,0.0005377531051635742
1772810389657048800,3.783048828125,-0.09654426574707031,-0.0027074217796325684,0.013758063316345215
1772810389676808400,3.802808349609375,-0.056120872497558594,-0.0006003826856613159,0.005637787282466888
1772810389696568000,3.822568115234375,-0.06301021575927734,0.0014545321464538574,-0.015775978565216064
1772810389716327700,3.84232763671875,-0.07708358764648438,-0.0012247636914253235,-0.008506260812282562
1772810389736087300,3.86208740234375,-0.07947921752929688,0.013040535151958466,-0.0015959665179252625
1772810389755847200,3.88184716796875,-0.07708263397216797,0.0034130439162254333,-0.0019218027591705322
1772810389775606800,3.901606689453125,-0.08666610717773438,0.010751031339168549,-0.011414751410484314
1772810389795366400,3.921366455078125,-0.09834098815917969,0.008300937712192535,0.00037945806980133057
1772810389815126000,3.9411259765625,-0.06510353088378906,0.0057020410895347595,0.010073959827423096
1772810389834885600,3.9608857421875,-0.07948017120361328,0.012934312224388123,-0.0016727820038795471
1772810389854645200,3.980645263671875,-0.08187484741210938,0.010537303984165192,0.00273287296295166
1772810389874405000,4.000405029296875,-0.08427143096923828,0.0016153305768966675,-0.0035286322236061096
1772810389894164700,4.020164794921875,-0.06989669799804688,-0.008096925914287567,-0.008287355303764343
1772810389913924400,4.03992431640625,-0.0609130859375,0.0038875937461853027,0.006098940968513489
1772810389933684000,4.05968408203125,-0.09145641326904297,-0.003126963973045349,0.005956791341304779
1772810389953443600,4.079443603515625,-0.09863948822021484,0.0038596466183662415,0.005815058946609497
1772810389973203500,4.099203369140625,-0.07947254180908203,0.001421608030796051,0.007912002503871918
1772810389992963000,4.118963134765625,-0.06539726257324219,0.01089630275964737,0.005479708313941956
1772810390012722700,4.13872265625,-0.08905601501464844,-0.015265531837940216,-0.011148408055305481
1772810390032482300,4.158482421875,-0.06540203094482422,-0.0079517662525177,0.010469004511833191
1772810390052242000,4.178241943359375,-0.09145355224609375,0.00413571298122406,-0.003928966820240021
1772810390072001500,4.19800146484375,-0.07528305053710938,0.006431587040424347,0.006212502717971802
1772810390091761400,4.217761474609375,-0.08456611633300781,-0.010257750749588013,0.0014404654502868652
1772810390111521000,4.23752099609375,-0.07528400421142578,0.004225127398967743,0.0038000568747520447
1772810390131280600,4.25728076171875,-0.07288837432861328,-0.0030484944581985474,0.003868021070957184
1772810390151040300,4.277040283203125,-0.07498550415039062,-0.0032402798533439636,-0.003136090934276581
1772810390170799900,4.2967998046875,-0.07977867126464844,0.004054531455039978,0.0017261505126953125
1772810390190559500,4.3165595703125,-0.0585174560546875,0.006400898098945618,-0.0006978362798690796
1772810390210319400,4.3363193359375,-0.07528495788574219,0.011135034263134003,0.001665852963924408
1772810390230079000,4.356078857421875,-0.08456707000732422,0.0014570057392120361,0.013594843447208405
1772810390249838600,4.375838623046875,-0.08936023712158203,-0.003263719379901886,0.009264588356018066
1772810390269598200,4.39559814453125,-0.07498931884765625,-0.008029438555240631,-0.0021829456090927124
1772810390289357800,4.41535791015625,-0.08487224578857422,0.01565489172935486,-0.0018484517931938171
1772810390309117400,4.435117431640625,-0.058521270751953125,-0.0034391209483146667,0.007588699460029602
1772810390328877000,4.454876953125,-0.09415340423583984,0.015867069363594055,-0.011639371514320374
1772810390348637000,4.474636962890625,-0.0728921890258789,0.0018038004636764526,-0.006971642374992371
1772810390368396500,4.494396484375,-0.08487224578857422,0.0070493221282958984,0.00033952295780181885
1772810390388156200,4.51415625,-0.08247852325439453,0.0021113306283950806,-0.009103305637836456
1772810390407915800,4.533915771484375,-0.09894657135009766,-0.0004791244864463806,-0.011356495320796967
1772810390427675400,4.55367529296875,-0.08457279205322266,-0.0007245838642120361,0.010208934545516968
1772810390447435300,4.573435302734375,-0.09176254272460938,0.006362505257129669,0.012965865433216095
1772810390467195000,4.59319482421875,-0.0654134750366211,0.03153112530708313,0.011977434158325195
1772810390486954500,4.61295458984375,-0.09386253356933594,0.00782400369644165,0.007454231381416321
1772810390506714000,4.632714111328125,-0.0726022720336914,-0.0021473392844200134,0.00029031187295913696
1772810390526473700,4.6524736328125,-0.08428382873535156,-0.013833597302436829,0.00025995075702667236
1772810390546233600,4.672233642578125,-0.055840492248535156,0.012456327676773071,-0.02098579704761505
1772810390565993200,4.6919931640625,-0.07949447631835938,-0.0020056068897247314,-0.00239504873752594
1772810390585753000,4.711753173828125,-0.07709980010986328,0.007626913487911224,0.0000225752592086792
1772810390605512700,4.7315126953125,-0.07470703125,0.007883042097091675,0.0048799067735672
1772810390625272300,4.751272216796875,-0.10315227508544922,-0.006362996995449066,-0.004777818918228149
1772810390645032200,4.7710322265625,-0.05584526062011719,-0.0015079006552696228,-0.009324319660663605
1772810390664791800,4.790791748046875,-0.06991863250732422,0.012806303799152374,-0.004206500947475433
1772810390684551700,4.8105517578125,-0.0771017074584961,0.010896831750869751,0.003063477575778961
1772810390704311300,4.830311279296875,-0.09387016296386719,0.008550010621547699,-0.020925894379615784
1772810390724071000,4.85007080078125,-0.07021427154541016,-0.005853936076164246,0.0006163120269775391
1772810390743830800,4.869830810546875,-0.07260608673095703,0.005968861281871796,0.005125373601913452
1772810390763590400,4.88959033203125,-0.07500267028808594,-0.005986124277114868,0.0028111860156059265
1772810390783350300,4.909350341796875,-0.06063270568847656,-0.0011310875415802002,-0.016032494604587555
1772810390803110000,4.92910986328125,-0.07021522521972656,0.010746307671070099,0.010182090103626251
1772810390822869500,4.948869384765625,-0.07261085510253906,0.010741449892520905,-0.004149705171585083
1772810390842629400,4.96862939453125,-0.0818948745727539,0.00818750262260437,-0.001560807228088379
1772810390862389000,4.988388916015625,-0.07740211486816406,-0.0082574263215065,0.008239373564720154
1772810390882148900,5.00814892578125,-0.07261085510253906,-0.01296260952949524,-0.013067871332168579
1772810390901908500,5.027908447265625,-0.08908462524414062,0.013427764177322388,-0.012702003121376038
1772810390921668400,5.04766845703125,-0.0798025131225586,0.008632279932498932,0.004043981432914734
1772810390941428000,5.067427978515625,-0.07051753997802734,0.011018805205821991,-0.005698405206203461
1772810390961187600,5.0871875,-0.10345268249511719,-0.0011550337076187134,-0.005766652524471283
1772810390980947500,5.106947509765625,-0.06332206726074219,-0.0037375837564468384,-0.0014441236853599548
1772810391000706800,5.126706787109375,-0.09386634826660156,-0.0014310851693153381,0.0034784898161888123
1772810391020466200,5.146466064453125,-0.06811141967773438,0.010488592088222504,-0.003872804343700409
1772810391040225300,5.166225341796875,-0.07529830932617188,0.00320560485124588,0.001002587378025055
1772810391059984600,5.185984619140625,-0.0821847915649414,0.019950926303863525,0.010447092354297638
1772810391079743700,5.20574365234375,-0.08428287506103516,-0.004038907587528229,-0.0036771446466445923
1772810391099503000,5.225503173828125,-0.07709598541259766,0.007833898067474365,0.0035377517342567444
1772810391119262200,5.24526220703125,-0.08667850494384766,0.0006067603826522827,0.005957379937171936
1772810391139021600,5.265021484375,-0.08667469024658203,0.0028549805283546448,-0.001399211585521698
1772810391158780700,5.28478076171875,-0.08907127380371094,-0.009146951138973236,0.001080639660358429
1772810391178539800,5.304539794921875,-0.11541557312011719,-0.0021539852023124695,-0.00647224485874176
1772810391198299100,5.324299072265625,-0.0890645980834961,-0.0070251598954200745,0.0030876994132995605
1772810391218058500,5.34405859375,-0.086669921875,0.012181520462036133,-0.011932559311389923
1772810391237817600,5.363817626953125,-0.06810569763183594,-0.021362468600273132,0.0050198957324028015
1772810391257576700,5.38357666015625,-0.07050323486328125,0.009773224592208862,0.0006654635071754456
1772810391277336000,5.403336181640625,-0.07259941101074219,-0.009517274796962738,-0.003732942044734955
1772810391297095200,5.42309521484375,-0.07738971710205078,0.00251934677362442,0.0009359195828437805
1772810391316854500,5.4428544921875,-0.08218193054199219,0.002574436366558075,0.008196540176868439
1772810391336613600,5.462613525390625,-0.07289600372314453,-0.011871419847011566,0.012794829905033112
1772810391356373000,5.482373046875,-0.09146308898925781,-0.002120174467563629,0.005736395716667175
1772810391376132000,5.502132080078125,-0.08217716217041016,0.00008060038089752197,-0.0016193240880966187
1772810391395891500,5.521891357421875,-0.08457660675048828,-0.004638485610485077,-0.011044003069400787
1772810391415650600,5.541650634765625,-0.0890645980834961,0.00000657886266708374,0.012820705771446228
1772810391435410000,5.561409912109375,-0.07289409637451172,0.0023028627038002014,-0.004006505012512207
1772810391455169000,5.5811689453125,-0.08906269073486328,0.009380422532558441,-0.001676701009273529
1772810391474928400,5.600928466796875,-0.08906173706054688,0.0023553073406219482,-0.00005155801773071289
1772810391494687500,5.6206875,-0.10792255401611328,0.0018559098243713379,-0.009838730096817017
1772810391514447400,5.640447265625,-0.08905982971191406,0.011129453778266907,-0.0049011483788490295
1772810391534207200,5.660207275390625,-0.08187484741210938,-0.0008860602974891663,-0.004806503653526306
1772810391553967000,5.679967041015625,-0.0794830322265625,0.006351307034492493,-0.002062380313873291
1772810391573726700,5.699726806640625,-0.0866689682006836,-0.007943034172058105,0.00016018003225326538
1772810391593486600,5.719486572265625,-0.07708740234375,-0.0007970631122589111,0.004534639418125153
1772810391613246500,5.73924658203125,-0.08906173706054688,0.00857274979352951,-0.002766244113445282
1772810391633006300,5.75900634765625,-0.07468795776367188,0.01823469251394272,0.009023681282997131
1772810391652766200,5.77876611328125,-0.08666324615478516,-0.005647867918014526,-0.0007795616984367371
1772810391672525800,5.79852587890625,-0.07767772674560547,0.0045359209179878235,0.009758636355400085
1772810391692285700,5.81828564453125,-0.09384441375732422,0.0019381716847419739,0.0027999207377433777
1772810391712045600,5.838045654296875,-0.0917510986328125,0.0044381096959114075,0.005674712359905243
1772810391731805400,5.857805419921875,-0.08007335662841797,0.011664636433124542,0.005596473813056946
1772810391751565000,5.87756494140625,-0.0869588851928711,-0.004630662500858307,-0.0066429078578948975
1772810391771325000,5.897324951171875,-0.07767391204833984,0.00743720680475235,0.005256034433841705
1772810391791084800,5.917084716796875,-0.07976722717285156,0.0025507137179374695,0.00024048984050750732
1772810391810844700,5.9368447265625,-0.09174442291259766,0.00474364310503006,0.01238267868757248
1772810391830604500,5.9566044921875,-0.08485698699951172,-0.009805314242839813,0.010002531111240387
1772810391850364200,5.9763642578125,-0.11090755462646484,0.004517659544944763,-0.0019368529319763184
1772810391870124000,5.9961240234375,-0.08455562591552734,0.008446365594863892,-0.01211133599281311
1772810391889884000,6.0158837890625,-0.07287883758544922,-0.01541922241449356,-0.004786856472492218
1772810391909643800,6.035643798828125,-0.06538772583007812,-0.005966737866401672,0.0020786821842193604
1772810391929403600,6.055403564453125,-0.08664894104003906,-0.0035538449883461,-0.00028142333030700684
1772810391949163300,6.075163330078125,-0.08185958862304688,0.001191660761833191,0.009071849286556244
1772810391968923100,6.094923095703125,-0.07467269897460938,0.010815314948558807,-0.005554728209972382
1772810391988683000,6.11468310546875,-0.09144210815429688,0.0011408030986785889,-0.005407862365245819
1772810392008443400,6.134443359375,-0.08904838562011719,-0.00836559385061264,-0.005309291183948517
1772810392028203800,6.154203857421875,-0.07736873626708984,-0.0014231950044631958,-0.0005341842770576477
1772810392047964200,6.173964111328125,-0.07946395874023438,0.0007218644022941589,0.009117819368839264
1772810392067724500,6.193724609375,-0.07257461547851562,0.0005257502198219299,-0.0005314871668815613
1772810392087485000,6.21348486328125,-0.07466697692871094,0.0147780179977417,0.0016373395919799805
1772810392107245600,6.23324560546875,-0.08903789520263672,-0.01408340036869049,-0.0008256807923316956
1772810392127006000,6.253005859375,-0.07945442199707031,0.014193296432495117,0.00154857337474823
1772810392146766300,6.272766357421875,-0.0749654769897461,-0.021180778741836548,-0.005643419921398163
1772810392166526700,6.292526611328125,-0.05340290069580078,0.021307922899723053,0.0060483962297439575
1772810392186287400,6.312287353515625,-0.086639404296875,-0.01882098615169525,-0.013157635927200317
1772810392206047700,6.3320478515625,-0.09831523895263672,0.00936945527791977,-0.003740258514881134
1772810392225808100,6.35180810546875,-0.06298160552978516,0.01424657553434372,0.015325449407100677
1772810392245568500,6.371568603515625,-0.08184242248535156,0.002274245023727417,0.002964921295642853
1772810392265329000,6.391328857421875,-0.07705116271972656,-0.007178351283073425,0.0049305930733680725
1772810392285089500,6.411089599609375,-0.07944679260253906,-0.007101364433765411,-0.005009539425373077
1772810392304850000,6.430849853515625,-0.08902263641357422,0.002333909273147583,0.013798698782920837
1772810392324610300,6.4506103515625,-0.08902549743652344,-0.018968790769577026,0.011465512216091156
1772810392344370700,6.47037060546875,-0.08663177490234375,-0.006811201572418213,0.004304505884647369
1772810392364131300,6.49013134765625,-0.07704830169677734,-0.006839580833911896,-0.005385801196098328
1772810392383891700,6.5098916015625,-0.07913970947265625,0.002746976912021637,0.0061500221490859985
1772810392403652000,6.529652099609375,-0.08422660827636719,-0.009303800761699677,0.005914434790611267
1772810392423412500,6.54941259765625,-0.06266403198242188,-0.023771636188030243,0.0032887309789657593
1772810392443173000,6.569173095703125,-0.0959005355834961,0.00975693017244339,0.0032127350568771362
1772810392462933500,6.58893359375,-0.09350395202636719,0.00010421127080917358,-0.0013100877404212952
1772810392482694000,6.60869384765625,-0.07223892211914062,0.002330988645553589,0.010612376034259796
1772810392502454500,6.62845458984375,-0.06535053253173828,-0.002414301037788391,0.0056847259402275085
1772810392522215200,6.648215087890625,-0.07493305206298828,-0.007147081196308136,0.008091285824775696
1772810392541975600,6.6679755859375,-0.08182334899902344,-0.007142417132854462,-0.0013045892119407654
1772810392561736200,6.687736083984375,-0.10098457336425781,0.00034111738204956055,-0.006362989544868469
1772810392581496800,6.707496826171875,-0.06984519958496094,0.005059242248535156,-0.0038268864154815674
1772810392601257500,6.727257568359375,-0.09380054473876953,-0.0020934268832206726,0.005906350910663605
1772810392621018000,6.74701806640625,-0.06984519958496094,0.002743639051914215,0.0033475160598754883
1772810392640778800,6.76677880859375,-0.08182144165039062,-0.018488138914108276,-0.01840360462665558
1772810392660539400,6.786539306640625,-0.07463550567626953,0.0028049051761627197,-0.0016013458371162415
1772810392680300000,6.806300048828125,-0.08661079406738281,-0.03032928705215454,0.00300607830286026
1772810392700060700,6.826060791015625,-0.0722360610961914,-0.0017840638756752014,-0.006843879818916321
1772810392719821300,6.8458212890625,-0.0842142105102539,-0.001790858805179596,-0.0020714476704597473
1772810392739582000,6.86558203125,-0.09828853607177734,0.007970854640007019,-0.004378162324428558
1772810392759342600,6.885342529296875,-0.10308265686035156,-0.00400957465171814,0.007818169891834259
1772810392779103200,6.905103271484375,-0.09379863739013672,0.0032123401761054993,-0.009006820619106293
1772810392798864000,6.92486376953125,-0.09619331359863281,0.010266318917274475,-0.006622523069381714
1772810392818624500,6.94462451171875,-0.0818185806274414,-0.009045146405696869,0.010051198303699493
1772810392838385200,6.96438525390625,-0.07732963562011719,0.017260365188121796,-0.00652080774307251
1772810392858145800,6.984145751953125,-0.09140300750732422,-0.004000551998615265,-0.0037901103496551514
1772810392877906400,7.003906494140625,-0.08661556243896484,-0.005889497697353363,-0.008183330297470093
1772810392897667000,7.0236669921875,-0.07284069061279297,-0.0033910125494003296,-0.003461219370365143
1772810392917427700,7.043427734375,-0.07523727416992188,-0.008329108357429504,0.01590423285961151
1772810392937188400,7.063188232421875,-0.09140968322753906,0.008409090340137482,0.001763954758644104
1772810392956949000,7.082948974609375,-0.0752401351928711,-0.0011801421642303467,-0.007824435830116272
1772810392976709600,7.102709716796875,-0.08691692352294922,0.0035938024520874023,0.004718117415904999
1772810392996469800,7.1224697265625,-0.10578536987304688,0.0011855289340019226,-0.011739268898963928
1772810393016228900,7.142228759765625,-0.08452701568603516,0.013175919651985168,-0.0068018510937690735
1772810393035987700,7.16198779296875,-0.08482742309570312,0.0157247856259346,0.0006692111492156982
1772810393055746600,7.18174658203125,-0.08692359924316406,0.006222248077392578,-0.016788318753242493
1772810393075505400,7.20150537109375,-0.08902263641357422,-0.008338451385498047,-0.02205152064561844
1772810393095264300,7.22126416015625,-0.09141731262207031,-0.005834959447383881,0.0018227770924568176
1772810393115023400,7.2410234375,-0.0866250991821289,-0.010663576424121857,-0.01041443645954132
1772810393134782200,7.2607822265625,-0.0842294692993164,0.0009542852640151978,-0.010314598679542542
1772810393154541000,7.280541015625,-0.0818328857421875,-0.006126239895820618,0.0015334412455558777
1772810393174300000,7.3002998046875,-0.09381294250488281,0.012907840311527252,0.006544090807437897
1772810393194058800,7.320058837890625,-0.08662700653076172,-0.015319794416427612,-0.0005607977509498596
1772810393213817900,7.33981787109375,-0.08663082122802734,-0.022466585040092468,-0.007600091397762299
1772810393233576700,7.35957666015625,-0.08183956146240234,0.0033696815371513367,-0.0004351213574409485
1772810393253335600,7.37933544921875,-0.09142112731933594,-0.0014775246381759644,0.009308069944381714
1772810393273094400,7.399094482421875,-0.07255840301513672,0.003894701600074768,-0.014586806297302246
1772810393292853500,7.418853515625,-0.08213996887207031,0.008708983659744263,-0.02185257524251938
1772810393312612400,7.4386123046875,-0.07944297790527344,0.020683683454990387,0.0019196197390556335
1772810393332371200,7.45837109375,-0.070159912109375,-0.0007810220122337341,-0.012500189244747162
1772810393352130000,7.478130126953125,-0.06536865234375,0.023371241986751556,0.0023404285311698914
1772810393371889000,7.497888916015625,-0.0629739761352539,-0.012543149292469025,0.0024156272411346436
1772810393391647700,7.517647705078125,-0.08663463592529297,-0.00992719829082489,-0.004476219415664673
1772810393411406800,7.53740673828125,-0.07974433898925781,0.006814576685428619,-0.00001693516969680786
1772810393431165700,7.557165771484375,-0.08184146881103516,-0.005059517920017242,-0.0024296119809150696
1772810393450924500,7.576924560546875,-0.09860801696777344,-0.00261572003364563,-0.007280498743057251
1772810393470683400,7.596683349609375,-0.09860992431640625,-0.0047110989689826965,-0.006536439061164856
1772810393490442200,7.616442138671875,-0.058487892150878906,0.007135525345802307,-0.008727364242076874
1772810393510202000,7.6362021484375,-0.10580062866210938,-0.009221203625202179,-0.0037962868809700012
1772810393529962200,7.655962158203125,-0.08214855194091797,-0.011548921465873718,-0.0036054402589797974
1772810393549722400,7.675722412109375,-0.09412479400634766,0.009772717952728271,-0.005908466875553131
1772810393569482500,7.695482421875,-0.08244895935058594,-0.004598855972290039,0.003898836672306061
1772810393589242400,7.715242431640625,-0.07526683807373047,0.012133359909057617,-0.007671937346458435
1772810393609002500,7.73500244140625,-0.08484840393066406,-0.004534006118774414,-0.016794323921203613
1772810393628762400,7.754762451171875,-0.08964157104492188,-0.011499553918838501,0.004834771156311035
1772810393648522500,7.7745224609375,-0.0728759765625,0.01236741989850998,-0.009231537580490112
1772810393668282600,7.79428271484375,-0.0797586441040039,0.004462987184524536,0.007834233343601227
1772810393688042500,7.81404248046875,-0.07946014404296875,0.004292063415050507,-0.004004776477813721
1772810393707802600,7.833802734375,-0.08424949645996094,0.00905444473028183,-0.0041232481598854065
1772810393727562800,7.853562744140625,-0.09383106231689453,0.018336661159992218,0.005526363849639893
1772810393747323000,7.873322998046875,-0.08903884887695312,0.008723318576812744,-0.0161738321185112
1772810393767082800,7.893082763671875,-0.07945919036865234,-0.010324575006961823,0.007895290851593018
1772810393786843000,7.9128427734375,-0.09383106231689453,0.00367823988199234,-0.008927732706069946
1772810393806602800,7.932602783203125,-0.08185195922851562,-0.008186332881450653,0.005202934145927429
1772810393826363000,7.95236279296875,-0.060593605041503906,-0.02465011179447174,-0.009368181228637695
1772810393846123000,7.972123046875,-0.07706546783447266,-0.005586199462413788,0.012047424912452698
1772810393865883000,7.9918828125,-0.09143829345703125,-0.014844633638858795,-0.011306717991828918
1772810393885643000,8.01164306640625,-0.08185958862304688,-0.003065355122089386,0.0009026750922203064
1772810393905403100,8.031403076171875,-0.06778526306152344,0.01598893105983734,0.005741342902183533
1772810393925163000,8.0511630859375,-0.09144306182861328,-0.000881098210811615,-0.005966782569885254
1772810393944923100,8.070923095703124,-0.08425712585449219,-0.0009938105940818787,0.006129376590251923
1772810393964683300,8.090683349609375,-0.09623336791992188,-0.015238873660564423,0.005391299724578857
1772810393984443100,8.110443115234375,-0.0866537094116211,-0.010537251830101013,-0.008881434798240662
1772810394004203300,8.130203369140625,-0.07707405090332031,0.001377783715724945,-0.01569535583257675
1772810394023963100,8.149963134765626,-0.05102062225341797,-0.0010237321257591248,-0.008770309388637543
1772810394043723000,8.169722900390624,-0.0626983642578125,0.00613904744386673,-0.00872163474559784
1772810394063483000,8.18948291015625,-0.0914449691772461,-0.003549829125404358,-0.008270688354969025
1772810394083243000,8.209242919921875,-0.06778621673583984,0.008295543491840363,0.0038195550441741943
1772810394103003000,8.2290029296875,-0.08186149597167969,-0.0033331140875816345,-0.0009409114718437195
1772810394122762800,8.2487626953125,-0.0938405990600586,-0.00785864144563675,0.0015311241149902344
1772810394142522600,8.268522705078125,-0.12677478790283203,-0.012846298515796661,-0.010498806834220886
1772810394162282500,8.288282470703125,-0.0132904052734375,0.01296871155500412,-0.0008325055241584778
1772810394182042400,8.30804248046875,-0.1127004623413086,-0.0012666955590248108,-0.010466285049915314
1772810394201802500,8.327802490234374,-0.10551261901855469,0.0008708089590072632,-0.005842149257659912
1772810394221562400,8.347562255859375,-0.034847259521484375,0.010109975934028625,-0.0030998587608337402
1772810394241322200,8.367322265625,-0.09383392333984375,-0.006316617131233215,0.0017031729221343994
1772810394261082000,8.38708203125,-0.10790824890136719,0.009866893291473389,-0.010598912835121155
1772810394280842200,8.40684228515625,-0.07017803192138672,-0.016510672867298126,0.005807593464851379
1772810394300602000,8.42660205078125,-0.10071849822998047,-0.00006411224603652954,-0.0037136897444725037
1772810394320362000,8.446362060546875,-0.08425331115722656,0.002521201968193054,-0.006043463945388794
1772810394340121900,8.466121826171875,-0.08874320983886719,-0.009600155055522919,-0.0035877302289009094
1772810394359881700,8.4858818359375,-0.06299114227294922,-0.00003199279308319092,-0.003576532006263733
1772810394379641600,8.5056416015625,-0.08904075622558594,-0.007111161947250366,-0.006163053214550018
1772810394399401700,8.525401611328125,-0.08185577392578125,0.009825415909290314,-0.006248600780963898
1772810394419161600,8.54516162109375,-0.06988525390625,-0.016806423664093018,-0.0005779191851615906
1772810394438921500,8.56492138671875,-0.08635425567626953,-0.0024913176894187927,0.004152365028858185
1772810394458681300,8.584681396484376,-0.09593486785888672,0.016620174050331116,0.00932544469833374
1772810394478441500,8.60444140625,-0.0794687271118164,-0.002006933093070984,0.0074216872453689575
1772810394498201000,8.624201171875,-0.0630025863647461,0.023973830044269562,0.0029879435896873474
1772810394517961000,8.6439609375,-0.08187198638916016,-0.004680372774600983,-0.0013340488076210022
1772810394537720800,8.663720947265626,-0.06300926208496094,0.012046314775943756,-0.0010709315538406372
1772810394557480400,8.68348046875,-0.07708358764648438,0.012004561722278595,-0.0057944655418396
1772810394577240300,8.703240234375,-0.07258987426757812,0.009419716894626617,-0.005779355764389038
1772810394597000000,8.723,-0.09863948822021484,-0.014515876770019531,-0.010697536170482635
1772810394616759800,8.742759765625,-0.08456707000732422,0.0044683367013931274,0.009056366980075836
1772810394636519400,8.76251953125,-0.08187580108642578,-0.0027263835072517395,-0.016745612025260925
1772810394656279300,8.782279296875,-0.11032390594482422,-0.005123250186443329,-0.004951708018779755
1772810394676039000,8.802038818359375,-0.07469367980957031,-0.0025282949209213257,-0.00030277669429779053
1772810394695798800,8.821798828125,-0.07948493957519531,0.0021424144506454468,-0.007367558777332306
1772810394715558700,8.84155859375,-0.07229804992675781,0.00435919314622879,-0.00012695789337158203
1772810394735318300,8.861318359375,-0.058526039123535156,0.004438154399394989,0.007251732051372528
1772810394755078100,8.881078125,-0.09385967254638672,0.006804116070270538,0.012066848576068878
1772810394774837800,8.900837646484375,-0.0938558578491211,-0.007462054491043091,-0.0050486549735069275
1772810394794597600,8.92059765625,-0.07978439331054688,0.007086746394634247,-0.014696702361106873
1772810394814357200,8.940357177734375,-0.07708740234375,-0.00967206060886383,0.016304492950439453
1772810394834117000,8.9601171875,-0.09146308898925781,0.004726700484752655,-0.017034418880939484
1772810394853876700,8.979876708984374,-0.07709217071533203,-0.002415873110294342,-0.00005733966827392578
1772810394873636600,8.99963671875,-0.0702066421508789,0.000017233192920684814,-0.007120802998542786
1772810394893396200,9.019396240234375,-0.08428287506103516,0.013937555253505707,0.0003783106803894043
1772810394913156000,9.039156005859375,-0.09626007080078125,0.0070208534598350525,-0.01396016776561737
1772810394932916000,9.058916015625,-0.08907699584960938,0.00002763420343399048,0.0005161389708518982
1772810394952675600,9.078675537109374,-0.07260704040527344,0.0024016648530960083,-0.0019225627183914185
1772810394972435500,9.098435546875,-0.09147357940673828,0.002235725522041321,0.005512021481990814
1772810394992195000,9.118195068359375,-0.08668136596679688,0.005008019506931305,0.007684364914894104
1772810395011954200,9.1379541015625,-0.0771026611328125,-0.004318349063396454,-0.006722144782543182
1772810395031713300,9.15771337890625,-0.04416465759277344,-0.008996307849884033,-0.001975931227207184
1772810395051472400,9.177472412109376,-0.09626579284667969,-0.004105523228645325,-0.009190507233142853
1772810395071231500,9.1972314453125,-0.07979679107666016,0.003213830292224884,0.0007843077182769775
1772810395090990800,9.216990966796875,-0.09386920928955078,-0.006470009684562683,-0.004046417772769928
1772810395110750000,9.23675,-0.07261276245117188,-0.0014830678701400757,-0.0013868510723114014
1772810395130509000,9.256509033203125,-0.05853748321533203,0.003181546926498413,-0.008703015744686127
1772810395150268200,9.27626806640625,-0.10105419158935547,0.015109308063983917,0.015009559690952301
1772810395170027300,9.29602734375,-0.08219242095947266,0.007942669093608856,0.0008422955870628357
1772810395189786400,9.315786376953126,-0.07290935516357422,0.0006894990801811218,0.0032836049795150757
1772810395209545500,9.33554541015625,-0.07500648498535156,0.0005713477730751038,-0.013295397162437439
1772810395229304600,9.3553046875,-0.10345458984375,-0.011237308382987976,-0.00604160875082016
1772810395249063700,9.375063720703125,-0.09148120880126953,-0.0038997381925582886,0.001946777105331421
1772810395268822800,9.39482275390625,-0.06573104858398438,-0.008684009313583374,0.0016052797436714172
1772810395288582100,9.41458203125,-0.08908939361572266,0.003375135362148285,-0.0007353201508522034
1772810395308341200,9.43434130859375,-0.07262134552001953,-0.015660136938095093,-0.0030699148774147034
1772810395328100400,9.454100341796876,-0.08220291137695312,0.020208396017551422,0.0016162320971488953
1772810395347859500,9.473859375,-0.10345745086669922,0.008142098784446716,-0.0011855661869049072
1772810395367618600,9.49361865234375,-0.07980537414550781,-0.006023719906806946,0.003701910376548767
1772810395387377700,9.513377685546875,-0.09148120880126953,0.005873270332813263,0.0035919547080993652
1772810395407136800,9.53313671875,-0.08668899536132812,0.0034556016325950623,-0.0012456774711608887
1772810395426896000,9.552895751953125,-0.07022476196289062,-0.001142248511314392,0.011070072650909424
1772810395446655000,9.572655029296875,-0.09867477416992188,0.001287207007408142,0.004184916615486145
1772810395466414000,9.5924140625,-0.0890970230102539,0.00794624537229538,-0.010502241551876068
1772810395486173200,9.612173095703126,-0.08670330047607422,-0.01104656606912613,-0.0033076927065849304
1772810395505932800,9.631932861328124,-0.08430671691894531,0.0013257712125778198,-0.01560528576374054
1772810395525692400,9.6516923828125,-0.08191204071044922,-0.003263220191001892,0.0005124732851982117
1772810395545452000,9.6714521484375,-0.08910274505615234,0.01574474573135376,0.001027911901473999
1772810395565211600,9.691211669921875,-0.07472801208496094,-0.010644450783729553,-0.006295643746852875
1772810395584971300,9.71097119140625,-0.06065177917480469,0.0037088096141815186,-0.006485506892204285
1772810395604731000,9.73073095703125,-0.09628677368164062,-0.008208416402339935,0.005632847547531128
1772810395624490500,9.750490478515625,-0.08191871643066406,-0.0012396201491355896,-0.012980304658412933
1772810395644250000,9.77025,-0.09599685668945312,-0.0017642825841903687,0.0022652819752693176
1772810395664009700,9.790009765625,-0.09151458740234375,0.007775843143463135,-0.005619160830974579
1772810395683769300,9.809769287109376,-0.07535076141357422,0.005653269588947296,0.005118153989315033
1772810395703529200,9.829529296875,-0.08223152160644531,-0.0010811462998390198,-0.002986893057823181
1772810395723288800,9.849288818359375,-0.10826778411865234,-0.0026067346334457397,-0.0025967955589294434
1772810395743048400,9.86904833984375,-0.09179210662841797,-0.0025121569633483887,-0.008190855383872986
