time,seconds_elapsed,z,y,x
1772810494463808800,0.356808837890625,-0.09358787536621094,-0.00286228209733963,0.000863388180732727
1772810494483568600,0.376568603515625,-0.08370590209960938,0.0067666396498680115,0.022196315228939056
1772810494503327200,0.3963271484375,-0.07412242889404297,-0.003294728696346283,0.007581964135169983
1772810494523085300,0.416085205078125,-0.06693458557128906,0.015438131988048553,0.004895195364952087
1772810494542843400,0.435843505859375,-0.07412338256835938,0.010723195970058441,-0.006919585168361664
1772810494562601500,0.4556015625,-0.09089279174804688,-0.0013320371508598328,0.009958803653717041
1772810494582359600,0.475359619140625,-0.09089088439941406,-0.0015630796551704407,0.007568970322608948
1772810494602117400,0.495117431640625,-0.07412338256835938,0.008044779300689697,0.007626540958881378
1772810494621875500,0.51487548828125,-0.06453895568847656,0.015049651265144348,0.002491205930709839
1772810494641633500,0.534633544921875,-0.08609867095947266,0.014817439019680023,0.004696175456047058
1772810494661391600,0.5543916015625,-0.07651615142822266,0.005260936915874481,-0.004878610372543335
1772810494681149400,0.5741494140625,-0.08130931854248047,-0.0021064504981040955,0.012102283537387848
1772810494700907500,0.593907470703125,-0.07202529907226562,-0.013860508799552917,0.007864557206630707
1772810494720665600,0.61366552734375,-0.07921123504638672,0.01020987331867218,0.025289051234722137
1772810494740423700,0.633423583984375,-0.08609867095947266,-0.008928261697292328,0.027637287974357605
1772810494760181500,0.653181396484375,-0.0720224380493164,-0.018586471676826477,0.00837676227092743
1772810494779939600,0.672939697265625,-0.06752967834472656,-0.021107159554958344,0.006285898387432098
1772810494799697700,0.69269775390625,-0.09088897705078125,-0.011345244944095612,-0.0004896223545074463
1772810494819455700,0.712455810546875,-0.09358501434326172,0.012581869959831238,-0.012355320155620575
1772810494839213600,0.732213623046875,-0.07921218872070312,-0.0065030381083488464,0.011552385985851288
1772810494858971600,0.7519716796875,-0.07232189178466797,0.005447164177894592,-0.0006242766976356506
1772810494878729700,0.771729736328125,-0.07951164245605469,-0.0017647743225097656,0.00203559547662735
1772810494898487800,0.79148779296875,-0.062744140625,-0.0016468465328216553,-0.0025925040245056152
1772810494918246000,0.811245849609375,-0.09089088439941406,-0.011345498263835907,0.011031165719032288
1772810494938003700,0.831003662109375,-0.0555572509765625,-0.009180009365081787,0.004005178809165955
1772810494957761800,0.85076171875,-0.06963348388671875,0.01490030437707901,0.006612889468669891
1772810494977519900,0.870519775390625,-0.07681846618652344,-0.009184412658214569,0.011409983038902283
1772810494997278500,0.890278564453125,-0.08370494842529297,-0.011500582098960876,-0.003058403730392456
1772810495017038800,0.910038818359375,-0.07681751251220703,-0.0018908381462097168,-0.0032070279121398926
1772810495036799000,0.929799072265625,-0.0651388168334961,-0.0019662082195281982,0.006378978490829468
1772810495056559400,0.949559326171875,-0.08609962463378906,0.01003286987543106,-0.003142803907394409
1772810495076319700,0.96931982421875,-0.09568309783935547,-0.006500653922557831,-0.0007412955164909363
1772810495096080000,0.989079833984375,-0.08610153198242188,-0.011367283761501312,-0.013059042394161224
1772810495115840300,1.00884033203125,-0.08400344848632812,-0.0036069750785827637,0.002063274383544922
1772810495135600600,1.0286005859375,-0.06993293762207031,0.008497089147567749,-0.004857093095779419
1772810495155360800,1.04836083984375,-0.08909797668457031,0.01330847293138504,0.011967241764068604
1772810495175121200,1.06812109375,-0.07951641082763672,0.010882310569286346,0.0026917308568954468
1772810495194881500,1.087881591796875,-0.07712173461914062,-0.005805894732475281,0.005442492663860321
1772810495214641700,1.1076416015625,-0.07472515106201172,-0.0010921955108642578,-0.0017883852124214172
1772810495234402000,1.127402099609375,-0.06753826141357422,0.0037755444645881653,0.005402587354183197
1772810495254162400,1.147162353515625,-0.08191585540771484,-0.007967181503772736,0.017484210431575775
1772810495273922600,1.166922607421875,-0.07472896575927734,0.013611264526844025,0.003118462860584259
1772810495293683000,1.186682861328125,-0.08191871643066406,0.0017164647579193115,-0.0013829618692398071
1772810495313443300,1.206443359375,-0.07653236389160156,0.013161368668079376,0.002450034022331238
1772810495333203700,1.22620361328125,-0.09330081939697266,-0.0036827251315116882,-0.016598567366600037
1772810495352963800,1.2459638671875,-0.0813283920288086,-0.0059977248311042786,0.014605112373828888
1772810495372724200,1.26572412109375,-0.0909109115600586,-0.0015294328331947327,0.00483018159866333
1772810495392484400,1.285484375,-0.06965446472167969,0.0030388012528419495,0.01227639615535736
1772810495412244700,1.30524462890625,-0.06486320495605469,0.0053541213274002075,-0.013958379626274109
1772810495432005000,1.325005126953125,-0.06725883483886719,0.005271308124065399,0.012395910918712616
1772810495451765500,1.344765625,-0.053183555603027344,0.010132938623428345,0.019479870796203613
1772810495471525600,1.364525634765625,-0.0765380859375,0.0005737915635108948,0.019222408533096313
1772810495491286000,1.3842861328125,-0.0789346694946289,0.005235485732555389,0.007401786744594574
1772810495511046100,1.404046142578125,-0.06755352020263672,0.0054975152015686035,0.006258882582187653
1772810495530806300,1.42380615234375,-0.08162784576416016,0.00531383603811264,0.006366245448589325
1772810495550566400,1.44356640625,-0.060364723205566406,0.0051818788051605225,0.018291063606739044
1772810495570326500,1.463326416015625,-0.08641624450683594,-0.006466031074523926,0.01339617371559143
1772810495590086400,1.48308642578125,-0.07922649383544922,0.0008407384157180786,0.001216694712638855
1772810495609846500,1.502846435546875,-0.06754779815673828,0.007946468889713287,0.0036682263016700745
1772810495629606700,1.522606689453125,-0.07473468780517578,-0.0042076557874679565,0.01340370625257492
1772810495649366800,1.54236669921875,-0.07952594757080078,0.0006596818566322327,0.013600289821624756
1772810495669127000,1.562126953125,-0.0891103744506836,0.005576230585575104,0.009369142353534698
1772810495688887000,1.581886962890625,-0.08432388305664062,0.0008093640208244324,0.01686418056488037
1772810495708647000,1.60164697265625,-0.07444381713867188,0.024634547531604767,-0.004935212433338165
1772810495728407000,1.621406982421875,-0.06515789031982422,-0.00922289490699768,0.00414518266916275
1772810495748167200,1.641167236328125,-0.06485462188720703,-0.007005266845226288,-0.0008965134620666504
1772810495767927300,1.66092724609375,-0.09090518951416016,-0.0001544952392578125,0.001659303903579712
1772810495787687400,1.6806875,-0.06994438171386719,-0.004968859255313873,-0.0013279244303703308
1772810495807447600,1.700447509765625,-0.08641433715820312,-0.009833849966526031,0.008308693766593933
1772810495827207700,1.720207763671875,-0.10048675537109375,-0.012248791754245758,0.02028127759695053
1772810495846967800,1.7399677734375,-0.07203865051269531,0.011622987687587738,-0.006163120269775391
1772810495866728000,1.75972802734375,-0.053475379943847656,-0.021823711693286896,0.0010288506746292114
1772810495886487800,1.77948779296875,-0.09329986572265625,-0.002631835639476776,0.0011369287967681885
1772810495906248000,1.799248046875,-0.07443809509277344,0.004678025841712952,-0.003643631935119629
1772810495926008000,1.819008056640625,-0.07683086395263672,0.011676192283630371,0.003444276750087738
1772810495945768200,1.838768310546875,-0.07683277130126953,-0.009800702333450317,0.005997851490974426
1772810495965528300,1.8585283203125,-0.08162212371826172,-0.010080493986606598,0.0012136250734329224
1772810495985288400,1.878288330078125,-0.07204055786132812,-0.01718048006296158,0.0036656782031059265
1772810496005048800,1.898048828125,-0.08162593841552734,0.00674254447221756,0.00871681421995163
1772810496024809700,1.917809814453125,-0.055571556091308594,-0.0005755051970481873,0.006119489669799805
1772810496044570400,1.9375703125,-0.06485366821289062,-0.0030982866883277893,0.01580110192298889
1772810496064331300,1.957331298828125,-0.07683086395263672,-0.0007284805178642273,0.01574581116437912
1772810496084092200,1.977092041015625,-0.06514930725097656,-0.015222527086734772,0.003515593707561493
1772810496103852800,1.996852783203125,-0.09329700469970703,0.00625387579202652,0.015696212649345398
1772810496123613700,2.01661376953125,-0.07443523406982422,-0.00330304354429245,0.006273284554481506
1772810496143374600,2.03637451171875,-0.09569263458251953,0.01582513004541397,0.00851365178823471
1772810496163135500,2.056135498046875,-0.06485271453857422,0.006368264555931091,-0.003403879702091217
1772810496182896000,2.075896240234375,-0.0579681396484375,0.008936502039432526,0.013466179370880127
1772810496202657000,2.095656982421875,-0.0651540756225586,-0.01034904271364212,-0.0007969439029693604
1772810496222418000,2.11541796875,-0.07683086395263672,-0.012861743569374084,0.008679650723934174
1772810496242178600,2.135178466796875,-0.0723409652709961,-0.0009619668126106262,0.013674125075340271
1772810496261939500,2.154939453125,-0.08162307739257812,-0.02497737854719162,0.008883491158485413
1772810496281700000,2.1747001953125,-0.07653141021728516,0.0013775825500488281,0.003953218460083008
1772810496301461000,2.1944609375,-0.08401679992675781,0.01584998518228531,0.020919330418109894
1772810496321222000,2.214221923828125,-0.06754589080810547,-0.00809265673160553,-0.0004254058003425598
1772810496340982500,2.233982421875,-0.07473564147949219,-0.010123871266841888,0.018897645175457
1772810496360743400,2.253743408203125,-0.0768280029296875,-0.007821232080459595,0.011463694274425507
1772810496380504300,2.27350439453125,-0.0792226791381836,0.013382449746131897,0.013796873390674591
1772810496400265200,2.29326513671875,-0.07712745666503906,-0.00028017163276672363,0.0017502978444099426
1772810496420025900,2.31302587890625,-0.05796337127685547,0.006854042410850525,0.004264965653419495
1772810496439786800,2.332786865234375,-0.06994152069091797,0.007010206580162048,0.013802163302898407
1772810496459547400,2.35254736328125,-0.0840139389038086,0.00222209095954895,0.006474830210208893
1772810496479308300,2.372308349609375,-0.07712554931640625,0.011647149920463562,-0.007327906787395477
1772810496499068700,2.392068603515625,-0.10078144073486328,-0.002818085253238678,0.007209844887256622
1772810496518828300,2.411828369140625,-0.07682514190673828,-0.010743938386440277,-0.008490443229675293
1772810496538588000,2.431587890625,-0.08371257781982422,0.0036337003111839294,-0.00851844996213913
1772810496558347800,2.45134765625,-0.07652473449707031,-0.006091400980949402,0.0035252347588539124
1772810496578107400,2.471107421875,-0.07413005828857422,-0.018047742545604706,-0.001195266842842102
1772810496597867000,2.490866943359375,-0.10736751556396484,-0.004016555845737457,-0.008903883397579193
1772810496617626600,2.510626708984375,-0.08131790161132812,-0.003657907247543335,-0.0041420236229896545
1772810496637386200,2.53038623046875,-0.07413005828857422,-0.008782632648944855,0.015024244785308838
1772810496657145900,2.550145751953125,-0.07173538208007812,0.005448795855045319,0.0030609965324401855
1772810496676905700,2.56990576171875,-0.08371353149414062,0.0005622580647468567,0.0030746012926101685
1772810496696665300,2.589665283203125,-0.0861053466796875,-0.006663858890533447,-0.004348404705524445
1772810496716425000,2.609425048828125,-0.06724166870117188,0.012991450726985931,0.0012124404311180115
1772810496736184600,2.6291845703125,-0.08131790161132812,0.000916019082069397,0.011008821427822113
1772810496755944200,2.648944091796875,-0.06484794616699219,-0.011097967624664307,0.011017724871635437
1772810496775703800,2.668703857421875,-0.06724357604980469,-0.015919536352157593,-0.005624718964099884
1772810496795463400,2.68846337890625,-0.08371639251708984,0.005641214549541473,0.004177212715148926
1772810496815223300,2.708223388671875,-0.0792236328125,0.003196209669113159,-0.0034417659044265747
1772810496834983000,2.72798291015625,-0.08371257781982422,0.0005997046828269958,-0.0060617029666900635
1772810496854742500,2.747742431640625,-0.09090137481689453,0.005494304001331329,0.0011417344212532043
1772810496874502100,2.767502197265625,-0.0792226791381836,-0.001631908118724823,-0.0037319883704185486
1772810496894261800,2.78726171875,-0.07653045654296875,0.010144159197807312,0.006069667637348175
1772810496914021600,2.807021728515625,-0.0768280029296875,0.00794115662574768,0.011346310377120972
1772810496933781200,2.82678125,-0.08640766143798828,0.0007138922810554504,-0.0007528364658355713
1772810496953540900,2.846540771484375,-0.09089851379394531,0.003162853419780731,0.0015563592314720154
1772810496973300500,2.866300537109375,-0.07203292846679688,0.0006153285503387451,0.015830397605895996
1772810496993060000,2.88606005859375,-0.07233142852783203,-0.023463129997253418,0.0062585920095443726
1772810497012819700,2.90581982421875,-0.07712078094482422,-0.0021016597747802734,0.013397559523582458
1772810497032579300,2.925579345703125,-0.07472705841064453,-0.002195596694946289,0.018445387482643127
1772810497052338700,2.945338623046875,-0.09359169006347656,0.012067869305610657,0.0023427605628967285
1772810497072098300,2.965098388671875,-0.0885019302368164,0.00014784932136535645,0.004802629351615906
1772810497091858000,2.98485791015625,-0.07472896575927734,-0.009211182594299316,0.007156237959861755
1772810497111617500,3.004617431640625,-0.07173442840576172,0.004564784467220306,-0.0013124793767929077
1772810497131377200,3.024377197265625,-0.0885009765625,-0.0026640519499778748,0.005782037973403931
1772810497151136800,3.04413671875,-0.07173442840576172,0.011496998369693756,0.010837309062480927
1772810497170896100,3.063896240234375,-0.0861063003540039,0.004313088953495026,0.00116778165102005
1772810497190655700,3.08365576171875,-0.0813150405883789,0.0019209757447242737,0.0010814517736434937
1772810497210415400,3.103415283203125,-0.062453269958496094,-0.00509963184595108,0.010876648128032684
1772810497230175000,3.123175048828125,-0.07892417907714844,-0.014608971774578094,0.006251990795135498
1772810497249934600,3.1429345703125,-0.08132076263427734,0.014128178358078003,-0.013179898262023926
1772810497269694200,3.162694091796875,-0.07892227172851562,-0.005022168159484863,0.012615345418453217
1772810497289453600,3.18245361328125,-0.07652664184570312,0.002219453454017639,0.01256784051656723
1772810497309213200,3.202213134765625,-0.057663917541503906,0.004666589200496674,0.003156043589115143
1772810497328972800,3.221972900390625,-0.06934261322021484,0.016580238938331604,-0.008742369711399078
1772810497348732400,3.241732421875,-0.08850574493408203,0.004657343029975891,0.010374389588832855
1772810497368492000,3.261491943359375,-0.08850860595703125,-0.007203996181488037,0.012928642332553864
1772810497388251600,3.281251708984375,-0.08611488342285156,-0.007135912775993347,0.0010173767805099487
1772810497408011300,3.30101123046875,-0.07414054870605469,-0.016488410532474518,0.010760918259620667
1772810497427770600,3.3207705078125,-0.07414054870605469,-0.014123700559139252,0.0203898623585701
1772810497447530200,3.3405302734375,-0.08372211456298828,-0.011811040341854095,-0.01784905046224594
1772810497467289900,3.360289794921875,-0.0645599365234375,0.002616986632347107,0.01339750736951828
1772810497487049500,3.380049560546875,-0.07893180847167969,-0.016624465584754944,-0.0011116638779640198
1772810497506809900,3.399809814453125,-0.07653999328613281,-0.01385384052991867,0.006991401314735413
1772810497526570500,3.419570556640625,-0.06516170501708984,0.0032173022627830505,0.002864547073841095
1772810497546331400,3.439331298828125,-0.0933074951171875,-0.008743569254875183,-0.004351340234279633
1772810497566092300,3.45909228515625,-0.07923507690429688,-0.0064373016357421875,0.010026901960372925
1772810497585853000,3.47885302734375,-0.06965255737304688,0.005589038133621216,0.009982757270336151
1772810497605613800,3.49861376953125,-0.055576324462890625,-0.018491044640541077,0.0026034563779830933
1772810497625374700,3.518374755859375,-0.08162879943847656,0.005564697086811066,0.017325349152088165
1772810497645135400,3.53813525390625,-0.08402156829833984,0.012535922229290009,0.005554556846618652
1772810497664896300,3.557896240234375,-0.08641815185546875,0.014919675886631012,0.024860277771949768
1772810497684657200,3.5776572265625,-0.060367584228515625,-0.0041813477873802185,-0.001470409333705902
1772810497704417800,3.597417724609375,-0.08642005920410156,-0.0017263442277908325,0.015049159526824951
1772810497724178700,3.6171787109375,-0.08133125305175781,-0.006502918899059296,0.010118387639522552
1772810497743939600,3.636939697265625,-0.06276416778564453,-0.0159553661942482,0.02427218109369278
1772810497763700200,3.6567001953125,-0.095703125,-0.008753418922424316,0.005223222076892853
1772810497783461000,3.676461181640625,-0.0909109115600586,0.01289936900138855,-0.00937904417514801
1772810497803222000,3.696221923828125,-0.0885171890258789,-0.010932177305221558,0.012182004749774933
1772810497822982700,3.715982666015625,-0.07683849334716797,0.01301371306180954,0.012131482362747192
1772810497842743600,3.73574365234375,-0.08611774444580078,-0.013368070125579834,0.014919772744178772
1772810497862504400,3.75550439453125,-0.08612060546875,0.003403313457965851,0.01756724715232849
1772810497882265000,3.77526513671875,-0.07923507690429688,-0.0035667195916175842,0.019955091178417206
1772810497902026000,3.79502587890625,-0.0909128189086914,-0.001513063907623291,0.014614202082157135
1772810497921787000,3.814786865234375,-0.07414627075195312,-0.01392192393541336,0.011478759348392487
1772810497941547500,3.834547607421875,-0.048394203186035156,0.00045645982027053833,0.006346464157104492
1772810497961308400,3.854308349609375,-0.07414436340332031,-0.014098554849624634,0.006304197013378143
1772810497981069300,3.8740693359375,-0.06695747375488281,-0.018909893929958344,0.01114942878484726
1772810498000829700,3.89382958984375,-0.059769630432128906,7.748603820800781e-7,0.008761025965213776
1772810498020589600,3.913589599609375,-0.09539985656738281,-0.028854750096797943,0.0205727219581604
1772810498040349700,3.933349609375,-0.07174301147460938,0.004632696509361267,0.00610409677028656
1772810498060109600,3.953109619140625,-0.07173824310302734,-0.01499757170677185,0.017202697694301605
1772810498079869700,3.97286962890625,-0.07623481750488281,0.0013841316103935242,0.012861266732215881
1772810498099629800,3.9926298828125,-0.0810251235961914,-0.0012504532933235168,0.010557472705841064
1772810498119389700,4.0123896484375,-0.08611869812011719,0.0017602592706680298,0.004821658134460449
1772810498139149800,4.03214990234375,-0.06485557556152344,-0.007844075560569763,0.00476556271314621
1772810498158909700,4.05190966796875,-0.10258769989013672,-0.01439327746629715,0.014483623206615448
1772810498178669800,4.071669921875,-0.07893180847167969,-0.018985047936439514,0.004639029502868652
1772810498198430000,4.091429931640625,-0.0837240219116211,-0.007031768560409546,0.009625285863876343
1772810498218189800,4.11118994140625,-0.08162498474121094,-0.016673944890499115,0.0022298917174339294
1772810498237950000,4.130949951171875,-0.0789327621459961,-0.004825800657272339,0.0025890469551086426
1772810498257709800,4.150709716796875,-0.06485939025878906,0.0021706148982048035,0.0027928426861763
1772810498277470000,4.170469970703125,-0.0885171890258789,-0.002391234040260315,0.017544575035572052
1772810498297229800,4.190229736328125,-0.07684040069580078,0.0023646950721740723,0.010694809257984161
1772810498316990000,4.209989990234375,-0.0741434097290039,0.0019786208868026733,0.01954801380634308
1772810498336750000,4.22975,-0.0861196517944336,0.011314839124679565,0.009902045130729675
1772810498356510000,4.249510009765625,-0.06725597381591797,-0.004726715385913849,0.00983874499797821
1772810498376270000,4.26927001953125,-0.07923412322998047,0.0024739280343055725,0.0074348002672195435
1772810498396030000,4.289030029296875,-0.0765390396118164,-0.004743881523609161,0.002628318965435028
1772810498415790000,4.3087900390625,-0.07204151153564453,0.009484730660915375,0.016929395496845245
1772810498435550200,4.32855029296875,-0.09569644927978516,-0.0050201863050460815,-0.004217512905597687
1772810498455310000,4.34831005859375,-0.07174205780029297,-0.004943534731864929,0.01726720482110977
1772810498475070200,4.3680703125,-0.07892799377441406,-0.007309526205062866,0.014748252928256989
1772810498494830000,4.387830078125,-0.07413387298583984,0.009309157729148865,-0.002170264720916748
1772810498514589200,4.407589111328125,-0.0744333267211914,0.0013884231448173523,-0.005054503679275513
1772810498534348300,4.427348388671875,-0.062455177307128906,-0.01533614844083786,-0.0027066096663475037
1772810498554107600,4.447107666015625,-0.07413482666015625,0.003842391073703766,0.00452490895986557
1772810498573866800,4.46686669921875,-0.074432373046875,0.0060417428612709045,0.009251438081264496
1772810498593625900,4.4866259765625,-0.08611106872558594,-0.01776394248008728,0.0212494358420372
1772810498613385000,4.506385009765625,-0.07413005828857422,-0.013038821518421173,0.0017754137516021729
1772810498633144300,4.526144287109375,-0.057662010192871094,0.020483888685703278,0.009106181561946869
1772810498652903400,4.5459033203125,-0.09089851379394531,0.020625032484531403,-0.005411393940448761
1772810498672662500,4.56566259765625,-0.06454849243164062,-0.0008634477853775024,-0.005503930151462555
1772810498692421600,4.585421630859375,-0.09329509735107422,-0.0008951649069786072,0.018526792526245117
1772810498712181000,4.605180908203125,-0.062155723571777344,0.004012979567050934,0.009035058319568634
1772810498731940000,4.624940185546875,-0.07413291931152344,-0.0008616670966148376,-0.017286844551563263
1772810498751699200,4.64469921875,-0.07652950286865234,-0.024709470570087433,0.0018765628337860107
1772810498771458300,4.664458251953125,-0.062455177307128906,0.006542779505252838,-0.0005673542618751526
1772810498791217700,4.6842177734375,-0.10018634796142578,0.0042108818888664246,0.009207628667354584
1772810498810976800,4.703976806640625,-0.07893085479736328,0.0018302202224731445,0.01189635694026947
1772810498830736000,4.72373583984375,-0.07892799377441406,0.004186294972896576,0.0045492202043533325
1772810498850495000,4.743494873046875,-0.057669639587402344,0.004198715090751648,0.016656942665576935
1772810498870254300,4.76325439453125,-0.08611297607421875,0.0064504072070121765,0.006856903433799744
1772810498890013400,4.783013427734375,-0.07892417907714844,-0.007995910942554474,0.0019104927778244019
1772810498909772500,4.8027724609375,-0.057964324951171875,0.0019014403223991394,0.002208039164543152
1772810498929531600,4.82253173828125,-0.10048580169677734,0.0023688599467277527,0.02413349598646164
1772810498949291000,4.842291015625,-0.10527801513671875,-0.011968031525611877,0.007458418607711792
1772810498969050000,4.862050048828125,-0.07922649383544922,0.00974658876657486,0.017109103500843048
1772810498988809200,4.881809326171875,-0.093597412109375,-0.009435653686523438,0.002929098904132843
1772810499008569300,4.9015693359375,-0.08850669860839844,0.01711210608482361,0.02434687316417694
1772810499028329500,4.92132958984375,-0.09090042114257812,0.009877108037471771,0.02893664687871933
1772810499048089600,4.941089599609375,-0.07682609558105469,-0.002129681408405304,-0.01431235671043396
1772810499067850000,4.96085009765625,-0.06514835357666016,0.01692066341638565,0.007495507597923279
1772810499087610000,4.980610107421875,-0.07472991943359375,0.0006661415100097656,0.00025794655084609985
1772810499107370200,5.000370361328125,-0.06964111328125,-0.009180814027786255,0.009628824889659882
1772810499127130600,5.020130615234375,-0.08371257781982422,0.0025647953152656555,0.013942413032054901
1772810499146890800,5.039890869140625,-0.06963443756103516,0.00013415515422821045,0.020736202597618103
1772810499166651100,5.059651123046875,-0.06035137176513672,0.0002558976411819458,0.00869431346654892
1772810499186411300,5.079411376953125,-0.06484508514404297,0.007501468062400818,0.013566598296165466
1772810499206171600,5.099171630859375,-0.06484603881835938,0.005219444632530212,-0.005586452782154083
1772810499225931800,5.118931884765625,-0.07413005828857422,-0.006624378263950348,0.0015466287732124329
1772810499245692000,5.13869189453125,-0.07652473449707031,0.007856681942939758,0.0014425665140151978
1772810499265452300,5.158452392578125,-0.0861043930053711,0.007705904543399811,0.027593694627285004
1772810499285212400,5.17821240234375,-0.0789175033569336,0.005216024816036224,-0.0034365281462669373
1772810499304972800,5.197972900390625,-0.07891559600830078,0.0003393441438674927,0.005682960152626038
1772810499324733000,5.21773291015625,-0.06963157653808594,0.009274326264858246,0.019775420427322388
1772810499344493000,5.2374931640625,-0.06723403930664062,0.002103164792060852,0.012362837791442871
1772810499364253400,5.25725341796875,-0.07681751251220703,-0.002664007246494293,0.0027769505977630615
1772810499384013600,5.277013671875,-0.07412242889404297,-0.00045440346002578735,0.000535815954208374
1772810499403774000,5.29677392578125,-0.08130836486816406,0.0019058436155319214,0.012440524995326996
1772810499423534000,5.3165341796875,-0.09538078308105469,0.004312328994274139,0.002906017005443573
1772810499443294200,5.336294189453125,-0.08370590209960938,-0.002748042345046997,-0.008899740874767303
1772810499463054600,5.3560546875,-0.09059429168701172,-0.017125360667705536,-0.0063881948590278625
1772810499482814700,5.375814697265625,-0.07412528991699219,-0.010006040334701538,-0.001541830599308014
1772810499502574800,5.395574951171875,-0.052863121032714844,0.004381358623504639,-0.014104560017585754
1772810499522334500,5.41533447265625,-0.07172679901123047,-0.005173303186893463,-0.0018745139241218567
1772810499542094000,5.435093994140625,-0.07651805877685547,0.006864480674266815,0.002859443426132202
1772810499561854000,5.45485400390625,-0.08130741119384766,-0.0028496980667114258,0.010030046105384827
1772810499581613600,5.474613525390625,-0.08130931854248047,-0.010050319135189056,-0.004231877624988556
1772810499601373400,5.49437353515625,-0.059749603271484375,0.006931096315383911,0.0052389949560165405
1772810499621133000,5.514133056640625,-0.08370304107666016,-0.0051224008202552795,0.009858980774879456
1772810499640892700,5.533892578125,-0.07172298431396484,0.006756313145160675,0.00027932971715927124
1772810499660652500,5.553652587890625,-0.07890892028808594,-0.00035981833934783936,0.004207305610179901
1772810499680412200,5.573412109375,-0.07411766052246094,0.006676919758319855,-0.009990565478801727
1772810499700172000,5.593172119140625,-0.07412052154541016,0.006838224828243256,0.01653769612312317
1772810499719931600,5.612931640625,-0.08370113372802734,0.00037232786417007446,-0.0046718791127204895
1772810499739691500,5.63269140625,-0.06244087219238281,-0.001947559416294098,0.005396120250225067
1772810499759451100,5.652451171875,-0.067230224609375,-0.01153932511806488,0.005283080041408539
1772810499779210800,5.672210693359375,-0.08370113372802734,0.0027964934706687927,0.005428306758403778
1772810499798970600,5.691970703125,-0.072021484375,-0.009093016386032104,0.01721995323896408
1772810499818730200,5.711730224609375,-0.07411575317382812,-0.013943642377853394,0.007522612810134888
1772810499838490000,5.731489990234375,-0.08130168914794922,0.005331113934516907,0.00014410167932510376
1772810499858249700,5.751249755859375,-0.0789041519165039,0.015009388327598572,0.004732176661491394
1772810499878009300,5.77100927734375,-0.07201862335205078,-0.011146947741508484,-0.00482679158449173
1772810499897769200,5.790769287109375,-0.07471656799316406,-0.006171226501464844,0.009697072207927704
1772810499917528800,5.81052880859375,-0.06932735443115234,-0.009076371788978577,-0.0004188418388366699
1772810499937288700,5.830288818359375,-0.10495948791503906,0.002758033573627472,0.009057208895683289
1772810499957048300,5.85004833984375,-0.08130550384521484,0.010100118815898895,0.011444531381130219
1772810499976808200,5.86980810546875,-0.08370304107666016,-0.00887385755777359,0.01871318370103836
1772810499996567800,5.88956787109375,-0.08130741119384766,0.0005206391215324402,0.02596711367368698
1772810500016327700,5.90932763671875,-0.08848953247070312,-0.011520564556121826,0.013720035552978516
1772810500036087800,5.929087890625,-0.06962299346923828,0.010090038180351257,-0.0110054612159729
1772810500055847700,5.94884765625,-0.07411479949951172,-0.0018158629536628723,0.012837521731853485
1772810500075607800,5.96860791015625,-0.08848953247070312,-0.006679743528366089,0.0011301115155220032
1772810500095367700,5.98836767578125,-0.07172012329101562,-0.011483654379844666,-0.006132833659648895
1772810500115127800,6.0081279296875,-0.07411861419677734,0.003213532269001007,-0.005511194467544556
1772810500134887700,6.0278876953125,-0.07651233673095703,0.0055117011070251465,0.001584470272064209
1772810500154647800,6.047647705078125,-0.06693172454833984,-0.003940321505069733,0.004089094698429108
1772810500174407700,6.06740771484375,-0.07172298431396484,-0.011242702603340149,0.020987190306186676
1772810500194167600,6.08716748046875,-0.09777450561523438,0.0031938478350639343,0.006615050137042999
1772810500213927700,6.106927734375,-0.09328174591064453,0.000661022961139679,-0.0006086751818656921
1772810500233687600,6.1266875,-0.07411766052246094,-0.004258587956428528,0.008970364928245544
1772810500253447700,6.14644775390625,-0.07651519775390625,-0.001790061593055725,0.0018978044390678406
1772810500273207600,6.16620751953125,-0.062439918518066406,0.0006229057908058167,0.011368811130523682
1772810500292967700,6.1859677734375,-0.07651519775390625,0.0055753812193870544,0.0066312626004219055
1772810500312727600,6.2057275390625,-0.09567832946777344,-0.013492494821548462,-0.007816195487976074
1772810500332487700,6.22548779296875,-0.07651901245117188,0.020076483488082886,0.004475310444831848
1772810500352247600,6.24524755859375,-0.05765247344970703,-0.004005514085292816,-0.00040462613105773926
1772810500372007700,6.265007568359375,-0.07412052154541016,0.002831496298313141,0.004495501518249512
1772810500391767600,6.284767578125,-0.08130931854248047,-0.006926000118255615,0.0048103779554367065
1772810500411527400,6.30452734375,-0.08370304107666016,-0.01650288701057434,0.014290757477283478
1772810500431287600,6.32428759765625,-0.09089088439941406,0.0003807768225669861,-0.004763305187225342
1772810500451047400,6.34404736328125,-0.06004905700683594,-0.011399611830711365,-0.00006205588579177856
1772810500470807600,6.3638076171875,-0.07651996612548828,0.002986900508403778,-0.009612016379833221
1772810500490567400,6.3835673828125,-0.07172870635986328,0.0007118359208106995,0.019110053777694702
1772810500510327600,6.40332763671875,-0.07652091979980469,-0.001716606318950653,-0.007209815084934235
1772810500530088000,6.423087890625,-0.08370304107666016,-0.006734587252140045,0.0021238401532173157
1772810500549847800,6.442847900390625,-0.07172489166259766,0.012371115386486053,0.004524663090705872
1772810500569608200,6.462608154296875,-0.07651615142822266,-0.011491812765598297,-0.000302731990814209
1772810500589368300,6.482368408203125,-0.0555572509765625,-0.006719313561916351,-0.004915587604045868
1772810500609128400,6.50212841796875,-0.07172679901123047,0.0076584964990615845,0.009451180696487427
1772810500628888600,6.521888671875,-0.09059333801269531,-0.0017999634146690369,0.007159270346164703
1772810500648648700,6.541648681640625,-0.08609867095947266,-0.016431845724582672,0.01178579032421112
1772810500668408800,6.561408935546875,-0.08849239349365234,0.004980310797691345,-0.002516530454158783
1772810500688169000,6.5811689453125,-0.08370208740234375,-0.009459465742111206,0.007065601646900177
1772810500707929000,6.60092919921875,-0.055258750915527344,-0.0021987929940223694,0.0021919608116149902
1772810500727689200,6.620689208984375,-0.10226821899414062,-0.00446561723947525,-0.00547490268945694
1772810500747449300,6.640449462890625,-0.06693649291992188,-0.01395021378993988,0.02100253850221634
1772810500767209500,6.66020947265625,-0.0813131332397461,0.026840120553970337,0.004445381462574005
1772810500786969600,6.679969482421875,-0.04807758331298828,-0.009054258465766907,0.011828325688838959
1772810500806729700,6.699729736328125,-0.09059333801269531,0.005276545882225037,-0.007566273212432861
1772810500826489900,6.71948974609375,-0.0881967544555664,-0.0115022212266922,0.01616305112838745
1772810500846250000,6.73925,-0.06453895568847656,0.0005442053079605103,0.008714720606803894
1772810500866010000,6.759010009765625,-0.07172489166259766,-0.009001776576042175,0.0014367029070854187
1772810500885770200,6.778770263671875,-0.08609867095947266,-0.006678730249404907,-0.0009424760937690735
1772810500905530400,6.7985302734375,-0.08370018005371094,-0.002071082592010498,-0.005461141467094421
1772810500925290500,6.81829052734375,-0.07651424407958984,-0.01873299479484558,-0.00045778602361679077
1772810500945050600,6.838050537109375,-0.086090087890625,0.024354688823223114,0.02065873146057129
1772810500964810800,6.857810791015625,-0.06962299346923828,-0.00425836443901062,0.0015556514263153076
1772810500984571000,6.87757080078125,-0.06692790985107422,0.009957574307918549,0.01357056200504303
1772810501004331000,6.8973310546875,-0.0693216323852539,-0.009221240878105164,0.01823517680168152
1772810501024091000,6.9170908203125,-0.06003761291503906,0.005056515336036682,0.010936960577964783
1772810501043850800,6.936850830078125,-0.0836944580078125,0.007298573851585388,0.003963485360145569
1772810501063611000,6.95661083984375,-0.08129596710205078,0.002315714955329895,0.010985076427459717
1772810501083370800,6.976370849609375,-0.07171440124511719,-0.00001125037670135498,0.008638165891170502
1772810501103130600,6.996130615234375,-0.08848285675048828,0.002798140048980713,0.010973304510116577
1772810501122890500,7.015890380859375,-0.07201671600341797,0.005252741277217865,0.001608327031135559
1772810501142650600,7.035650634765625,-0.0980691909790039,0.009831815958023071,0.004917219281196594
1772810501162410500,7.055410400390625,-0.06033897399902344,-0.023493394255638123,0.024045489728450775
1772810501182170400,7.07517041015625,-0.0744161605834961,-0.004044525325298309,0.00020729005336761475
1772810501201930200,7.09493017578125,-0.067230224609375,-0.001523539423942566,0.002559348940849304
1772810501221690400,7.1146904296875,-0.07681560516357422,-0.0013480037450790405,0.0027740374207496643
1772810501241450200,7.1344501953125,-0.09328365325927734,0.005791075527667999,0.002834104001522064
1772810501261210000,7.154210205078125,-0.09088611602783203,-0.0013276562094688416,0.00258743017911911
1772810501280970000,7.173969970703125,-0.08400154113769531,-0.0107651948928833,0.004985809326171875
1772810501300730000,7.193730224609375,-0.08160686492919922,0.007998310029506683,0.018887318670749664
1772810501320490000,7.213489990234375,-0.08130741119384766,-0.001861274242401123,0.006311625242233276
1772810501340249900,7.233249755859375,-0.06933212280273438,0.0007553398609161377,0.011145785450935364
1772810501360009700,7.253009765625,-0.06214618682861328,-0.009241357445716858,0.006210312247276306
1772810501379769900,7.272769775390625,-0.0905914306640625,-0.004722706973552704,0.017864078283309937
1772810501399529700,7.29252978515625,-0.06693744659423828,-0.011866249144077301,0.005940280854701996
1772810501419289600,7.31228955078125,-0.08819770812988281,-0.00236375629901886,0.015553437173366547
1772810501439049500,7.332049560546875,-0.08340930938720703,-0.0046782419085502625,-0.008267514407634735
1772810501458809600,7.3518095703125,-0.08580493927001953,0.009691491723060608,0.006209045648574829
1772810501478569500,7.371569580078125,-0.06693840026855469,0.0024134889245033264,0.00849800556898117
1772810501498329300,7.391329345703125,-0.06903648376464844,0.00237254798412323,-0.013460442423820496
1772810501518089200,7.411089111328125,-0.0765237808227539,-0.0018488243222236633,0.002768412232398987
1772810501537849300,7.430849365234375,-0.07413291931152344,-0.016115710139274597,0.005577705800533295
1772810501557609200,7.450609130859375,-0.06694698333740234,-0.008789487183094025,-0.0016421526670455933
1772810501577369000,7.470369140625,-0.07652759552001953,0.007927276194095612,0.000611618161201477
1772810501597129000,7.49012890625,-0.09089946746826172,0.017541751265525818,-0.001870468258857727
1772810501616888800,7.509888916015625,-0.07203483581542969,-0.00176306813955307,-0.013722047209739685
1772810501636649000,7.52964892578125,-0.07173919677734375,-0.008516699075698853,-0.011104464530944824
1772810501656408800,7.549408935546875,-0.08850765228271484,-0.02019072324037552,0.003303922712802887
1772810501676168700,7.569168701171875,-0.07173919677734375,0.005610555410385132,0.012798458337783813
1772810501695928600,7.588928466796875,-0.0696420669555664,-0.017747558653354645,0.010372459888458252
1772810501715688700,7.608688720703125,-0.09299945831298828,0.015063561499118805,-0.013457320630550385
1772810501735448600,7.628448486328125,-0.07413578033447266,-0.01842270791530609,0.012960225343704224
1772810501755208400,7.64820849609375,-0.07892608642578125,-0.0016902163624763489,0.003310270607471466
1772810501774968300,7.66796826171875,-0.06245613098144531,-0.01357811689376831,0.0031943470239639282
1772810501794728400,7.687728515625,-0.09090137481689453,-0.0038752704858779907,-0.0017036274075508118
1772810501814488300,7.70748828125,-0.08371353149414062,0.008140161633491516,0.005298927426338196
1772810501834248200,7.727248291015625,-0.06934261322021484,-0.010988764464855194,0.01739836484193802
1772810501854008000,7.747008056640625,-0.06963825225830078,0.003385506570339203,0.0026517286896705627
1772810501873768200,7.766768310546875,-0.08850479125976562,0.010711029171943665,0.0026906728744506836
1772810501893528000,7.786528076171875,-0.08850383758544922,0.013136982917785645,0.014577291905879974
1772810501913288000,7.806287841796875,-0.06694602966308594,-0.005953006446361542,0.004483222961425781
1772810501933047800,7.8260478515625,-0.07892417907714844,0.00134296715259552,0.004517547786235809
1772810501952808000,7.845807861328125,-0.08102035522460938,-0.008213341236114502,0.00445026159286499
1772810501972567800,7.86556787109375,-0.07173919677734375,-0.0010152161121368408,0.011809691786766052
1772810501992327700,7.88532763671875,-0.07653141021728516,0.0013338550925254822,0.004761092364788055
1772810502012087000,7.905087158203125,-0.0906057357788086,0.006224840879440308,0.012015074491500854
1772810502031846400,7.924846435546875,-0.08611488342285156,-0.017730310559272766,0.014369338750839233
1772810502051605800,7.944605712890625,-0.07174015045166016,-0.01773262768983841,0.01193992793560028
1772810502071365000,7.964365234375,-0.08132266998291016,-0.008176833391189575,-0.0024846792221069336
1772810502091124500,7.98412451171875,-0.07892799377441406,-0.010641120374202728,-0.004722662270069122
1772810502110883800,8.0038837890625,-0.07652854919433594,0.0035797134041786194,0.002789922058582306
1772810502130643500,8.0236435546875,-0.07173728942871094,0.0009854882955551147,0.0004890784621238708
1772810502150402800,8.04340283203125,-0.09090137481689453,0.005822896957397461,0.0005842447280883789
1772810502170162200,8.063162109375,-0.08131980895996094,-0.013407200574874878,0.0029161497950553894
1772810502189921500,8.082921630859374,-0.0885019302368164,0.003208644688129425,-0.011644594371318817
1772810502209681000,8.102680908203125,-0.0932931900024414,-0.013467296957969666,0.012273892760276794
1772810502229440300,8.122440185546875,-0.08371162414550781,0.012760408222675323,0.002729639410972595
1772810502249199600,8.14219970703125,-0.0837106704711914,-0.001599043607711792,-0.004557430744171143
1772810502268959000,8.161958984375,-0.10736560821533203,-0.008755601942539215,0.005004309117794037
1772810502288718300,8.18171826171875,-0.06963634490966797,0.012785568833351135,-0.0021853670477867126
1772810502308477700,8.201477783203124,-0.08131694793701172,-0.011286303400993347,0.005237936973571777
1772810502328237000,8.221237060546875,-0.0765237808227539,0.01732581853866577,0.00038727372884750366
1772810502347996400,8.240996337890625,-0.08850288391113281,-0.0019282102584838867,0.005365267395973206
1772810502367756000,8.260756103515625,-0.0741281509399414,-0.009033985435962677,0.007633604109287262
1772810502387515400,8.280515380859375,-0.074127197265625,-0.00905599445104599,0.0027264058589935303
1772810502407274800,8.300274658203126,-0.07172775268554688,-0.006636485457420349,0.011964380741119385
1772810502427034000,8.3200341796875,-0.08130741119384766,-0.004477880895137787,0.011773906648159027
1772810502446793500,8.33979345703125,-0.07651615142822266,-0.006951235234737396,0.014284014701843262
1772810502466552800,8.359552734375,-0.05525398254394531,0.0049727559089660645,0.018972955644130707
1772810502486312200,8.379312255859375,-0.07411861419677734,-0.0020957067608833313,-0.009963855147361755
1772810502506072300,8.399072265625,-0.08100318908691406,0.009764432907104492,0.008821532130241394
1772810502525833200,8.418833251953124,-0.09297847747802734,-0.011708617210388184,0.001171611249446869
1772810502545593900,8.43859375,-0.052555084228515625,0.000329822301864624,0.015450119972229004
1772810502565354500,8.4583544921875,-0.01992034912109375,0.005066730082035065,0.011041484773159027
1772810502585115100,8.478115234375,-0.12592029571533203,0.0025194063782691956,-0.015230424702167511
1772810502604875800,8.497875732421875,-0.048069000244140625,0.009797230362892151,0.01596973091363907
1772810502624636700,8.51763671875,-0.07651329040527344,0.02396930754184723,0.0040269047021865845
1772810502644397300,8.537397216796874,-0.1070566177368164,0.004856608808040619,0.006397850811481476
1772810502664158000,8.557157958984375,-0.0905914306640625,-0.004653237760066986,0.009073831140995026
1772810502683918600,8.576918701171875,-0.07412147521972656,-0.01414170116186142,-0.00300656259059906
1772810502703679200,8.59667919921875,-0.06453895568847656,0.007160991430282593,0.009242847561836243
1772810502723440000,8.616440185546875,-0.07202816009521484,0.0051665157079696655,0.00971810519695282
1772810502743200800,8.63620068359375,-0.005543708801269531,-0.00023442506790161133,-0.0002804771065711975
1772810502762961400,8.65596142578125,-0.18071937561035156,-0.016491100192070007,0.004644066095352173
1772810502782722000,8.67572216796875,0.02020740509033203,-0.019140198826789856,0.006708867847919464
1772810502802482700,8.695482666015625,-0.12861251831054688,0.024084649980068207,0.011515714228153229
1772810502822243600,8.71524365234375,0.0061321258544921875,-0.011861249804496765,0.009197138249874115
1772810502842004200,8.735004150390624,-0.03189563751220703,-0.00008124858140945435,0.0021036341786384583
1772810502861764900,8.754764892578125,-0.13579463958740234,-0.021436259150505066,0.004118777811527252
1772810502881525500,8.774525390625,-0.09776973724365234,-0.004792824387550354,-0.0029132962226867676
1772810502901286100,8.7942861328125,-0.04357624053955078,0.000058338046073913574,-0.0073313042521476746
1772810502921047000,8.814047119140625,-0.05046367645263672,0.009728662669658661,0.004578210413455963
1772810502940807700,8.8338076171875,-0.09058284759521484,0.007272250950336456,0.001861758530139923
1772810502960568300,8.853568359375,-0.11903190612792969,-0.004529349505901337,0.0043405815958976746
1772810502980329000,8.873328857421875,-0.08849048614501953,0.0002190619707107544,-0.00040577352046966553
1772810503000089300,8.89308935546875,-0.06004524230957031,-0.0070449113845825195,-0.00498490035533905
1772810503019849000,8.912848876953126,-0.07890892028808594,0.011997438967227936,0.004577994346618652
1772810503039608800,8.93260888671875,-0.08100509643554688,-0.0023611262440681458,-0.01520710438489914
1772810503059368700,8.95236865234375,-0.10017013549804688,-0.011853180825710297,0.00917138159275055
1772810503079128300,8.97212841796875,-0.08130168914794922,0.002471834421157837,0.010975353419780731
1772810503098888200,8.99188818359375,-0.0696258544921875,-0.009372644126415253,-0.010564282536506653
1772810503118648000,9.01164794921875,-0.0786123275756836,0.005048394203186035,-0.010340042412281036
1772810503138408000,9.031407958984374,-0.0834054946899414,0.00270824134349823,0.004169464111328125
1772810503158167600,9.05116748046875,-0.08130931854248047,-0.006899602711200714,-0.0006274208426475525
1772810503177927400,9.070927490234375,-0.07891368865966797,0.01702199876308441,0.00902990996837616
1772810503197687300,9.090687255859375,-0.06693363189697266,-0.007061876356601715,-0.0029985830187797546
1772810503217447000,9.110447021484376,-0.08101272583007812,-0.006981618702411652,-0.0025887489318847656
1772810503237206800,9.130206787109374,-0.08819961547851562,0.005248166620731354,-0.00269152969121933
1772810503256966700,9.149966552734375,-0.08341121673583984,0.01506049931049347,0.0020872652530670166
1772810503276726300,9.169726318359375,-0.0717306137084961,-0.011203967034816742,0.004208885133266449
1772810503296486100,9.189486083984375,-0.0693349838256836,-0.013505920767784119,0.004140175879001617
1772810503316246000,9.20924609375,-0.07891464233398438,0.01754944771528244,0.013527974486351013
1772810503336005600,9.229005615234374,-0.06693553924560547,0.003127358853816986,0.01353946328163147
1772810503355765500,9.248765625,-0.09089088439941406,0.003384634852409363,-0.003382071852684021
1772810503375525400,9.268525390625,-0.08849906921386719,-0.00134345144033432,-0.003123268485069275
1772810503395285000,9.288284912109376,-0.08819580078125,0.005734853446483612,0.001398526132106781
1772810503415044900,9.308044921875,-0.08370018005371094,-0.001748993992805481,-0.0011042281985282898
1772810503434804700,9.3278046875,-0.08100605010986328,-0.016021177172660828,0.008294455707073212
1772810503454564400,9.347564453125,-0.09088325500488281,-0.004077546298503876,0.0009438842535018921
1772810503474324200,9.36732421875,-0.06932544708251953,-0.004058830440044403,0.01776561141014099
1772810503494084000,9.387083984375,-0.07651042938232422,-0.0018067732453346252,0.008055046200752258
1772810503513843500,9.406843505859374,-0.08818626403808594,-0.0067277029156684875,-0.0033742189407348633
1772810503533602600,9.4266025390625,-0.07651233673095703,-0.0019233748316764832,-0.005453638732433319
1772810503553362000,9.44636181640625,-0.09807109832763672,-0.016145803034305573,-0.003160819411277771
1772810503573121300,9.466121337890625,-0.07650947570800781,-0.0019642114639282227,0.0039047226309776306
1772810503592880600,9.485880615234375,-0.0789022445678711,-0.0021546706557273865,0.008562922477722168
1772810503612639700,9.5056396484375,-0.07411003112792969,-0.004584513604640961,-0.015513688325881958
1772810503632399000,9.525399169921876,-0.0789022445678711,0.0074869319796562195,0.003736741840839386
1772810503652158500,9.545158447265624,-0.08369255065917969,-0.006912074983119965,-0.0034999102354049683
1772810503671917800,9.564917724609375,-0.07890510559082031,0.005216062068939209,0.006317563354969025
1772810503691677000,9.584677001953125,-0.09327983856201172,-0.011462502181529999,0.006447978317737579
1772810503711436300,9.604436279296875,-0.06692981719970703,-0.023629561066627502,0.001253671944141388
1772810503731195600,9.624195556640625,-0.09267902374267578,-0.0026129409670829773,-0.006275765597820282
1772810503750955000,9.643955078125,-0.0765085220336914,-0.00045546144247055054,0.010006673634052277
1772810503770714000,9.663714111328124,-0.10226058959960938,-0.009652674198150635,-0.006753765046596527
1772810503790473500,9.683473388671874,-0.0765085220336914,0.011688105762004852,0.00027170777320861816
1772810503810232800,9.70323291015625,-0.07171630859375,-0.004958778619766235,-0.0046160295605659485
1772810503829992200,9.7229921875,-0.08339405059814453,0.0022301822900772095,0.014350734651088715
1772810503849751300,9.742751220703125,-0.07860183715820312,0.00223492830991745,-0.00003028661012649536
1772810503869510700,9.7625107421875,-0.08579063415527344,-0.0074743181467056274,-0.004508025944232941
1772810503889270000,9.78227001953125,-0.08099937438964844,-0.014562912285327911,-0.004608139395713806
1772810503909029400,9.802029296875,-0.07411384582519531,-0.018999725580215454,-0.0042012035846710205
1772810503928788500,9.82178857421875,-0.0645303726196289,-0.01381305605173111,-0.0017163828015327454
1772810503948547800,9.8415478515625,-0.04566383361816406,-0.004159428179264069,-0.0019761696457862854
1772810503968307200,9.86130712890625,-0.07650375366210938,-0.013751834630966187,-0.006910696625709534
1772810503988066600,9.881066650390625,-0.07650375366210938,0.012574784457683563,0.00021732598543167114
1772810504007826700,9.90082666015625,-0.07171249389648438,-0.011343047022819519,-0.002128124237060547
1772810504027587000,9.920587158203125,-0.0905752182006836,0.005213126540184021,0.007428690791130066
1772810504047347700,9.94034765625,-0.0809926986694336,-0.0021653398871421814,-0.004596412181854248
1772810504067108400,9.9601083984375,-0.08368206024169922,-0.004694342613220215,-0.004901915788650513
1772810504086868700,9.97986865234375,-0.08338069915771484,0.00249384343624115,0.009286083281040192
1772810504106629400,9.99962939453125,-0.09535884857177734,0.004937484860420227,-0.00269249826669693
1772810504126389800,10.0193896484375,-0.06451606750488281,-0.0022892728447914124,0.012244343757629395
1772810504146150400,10.039150390625,-0.06930923461914062,0.0023507699370384216,-0.004159934818744659
1772810504165910800,10.058910888671875,-0.088470458984375,0.00225086510181427,0.01002531498670578
1772810504185671400,10.07867138671875,-0.0932607650756836,-0.004916027188301086,0.0051629990339279175
1772810504205431800,10.098431884765626,-0.069305419921875,-0.007333822548389435,0.0026492923498153687
1772810504225192400,10.1181923828125,-0.07199954986572266,0.011914364993572235,-0.00463731586933136
1772810504244952800,10.137952880859375,-0.0836782455444336,0.007166646420955658,0.012144207954406738
1772810504264713500,10.15771337890625,-0.07409477233886719,0.019208893179893494,0.014392562210559845
1772810504284473900,10.177473876953124,-0.07648563385009766,0.016726262867450714,-0.005125254392623901
1772810504304234500,10.197234375,-0.09085845947265625,-0.0022279471158981323,0.0065292492508888245
1772810504323995000,10.216994873046875,-0.10493087768554688,0.009539462625980377,0.0061018094420433044
1772810504343755500,10.236755615234374,-0.07648277282714844,-0.00003375113010406494,-0.003684408962726593
1772810504363516200,10.25651611328125,-0.06450366973876953,0.004752516746520996,0.0010982230305671692
1772810504383276500,10.276276611328125,-0.07648468017578125,0.011919215321540833,0.00851307064294815
1772810504403037200,10.296037109375,-0.07169151306152344,0.004833690822124481,0.0035506263375282288
1772810504422797600,10.315797607421874,-0.08576488494873047,0.007219910621643066,0.0011444762349128723
1772810504442558000,10.335557861328125,-0.07169055938720703,-0.014396488666534424,0.0010309070348739624
1772810504462318600,10.355318603515625,-0.08606243133544922,-0.012012124061584473,0.01052606850862503
1772810504482079200,10.375079345703124,-0.0908498764038086,0.011714838445186615,0.0008313283324241638
1772810504501839600,10.394839599609375,-0.0764780044555664,-0.007666543126106262,-0.0019704923033714294
1772810504521600000,10.41460009765625,-0.08336353302001953,-0.008041515946388245,-0.009438984096050262
1772810504541360400,10.4343603515625,-0.09025096893310547,-0.0031825080513954163,0.00008359551429748535
1772810504561120500,10.45412060546875,-0.09024906158447266,0.006390996277332306,0.0072445496916770935
1772810504580881000,10.473880859375,-0.08306407928466797,-0.0006824955344200134,0.016777031123638153
1772810504600641300,10.493641357421875,-0.07408332824707031,-0.010178342461585999,-0.009453058242797852
1772810504620401700,10.513401611328124,-0.0644998550415039,0.008869759738445282,0.0025619640946388245
1772810504640162000,10.533162109375,-0.08336830139160156,0.006415911018848419,-0.00914212316274643
1772810504659922400,10.55292236328125,-0.07378578186035156,-0.005639560520648956,0.00048151612281799316
1772810504679682800,10.572682861328126,-0.08816051483154297,0.006587043404579163,-0.009032808244228363
1772810504699443200,10.592443115234374,-0.06660175323486328,0.0020594522356987,0.01238386332988739
1772810504719203600,10.61220361328125,-0.07678413391113281,-0.004405595362186432,0.004034280776977539
1772810504738964000,10.6319638671875,-0.08606433868408203,-0.0022014081478118896,-0.000917293131351471
1772810504758724400,10.651724365234376,-0.0884561538696289,0.01453709602355957,-0.013125978410243988
1772810504778484700,10.671484619140625,-0.0668954849243164,-0.014266222715377808,0.0012364983558654785
1772810504798245000,10.6912451171875,-0.0788717269897461,0.004843324422836304,0.0034088268876075745
1772810504818005200,10.711005126953125,-0.062399864196777344,0.002449922263622284,0.010459057986736298
1772810504837765600,10.730765625,-0.10013008117675781,0.002450093626976013,-0.006196834146976471
1772810504857526000,10.750526123046875,-0.08126544952392578,0.00484120100736618,0.008045442402362823
1772810504877286400,10.770286376953125,-0.07437610626220703,0.016977772116661072,0.00552704930305481
1772810504897046800,10.790046875,-0.07407474517822266,-0.0019257739186286926,0.003364481031894684
1772810504916807200,10.80980712890625,-0.08574962615966797,0.006244868040084839,-0.010194942355155945
1772810504936567600,10.829567626953125,-0.08096122741699219,-0.0009323209524154663,0.006653450429439545
1772810504956328000,10.849327880859375,-0.07167625427246094,-0.005543358623981476,-0.0031869634985923767
1772810504976088300,10.86908837890625,-0.08575057983398438,-0.0078076645731925964,0.008709408342838287
1772810504995848400,10.888848388671875,-0.057303428649902344,-0.02928241342306137,0.001460641622543335
1772810505015607800,10.90860791015625,-0.1046152114868164,-0.0005283579230308533,-0.0008881315588951111
1772810505035367000,10.928366943359375,-0.06449127197265625,-0.0004129856824874878,0.008714690804481506
1772810505055126300,10.948126220703125,-0.06688594818115234,-0.009907916188240051,-0.0009756162762641907
1772810505074885600,10.9678857421875,-0.07167911529541016,-0.01465316116809845,-0.01526421308517456
1772810505094645000,10.98764501953125,-0.06209564208984375,-0.0002711862325668335,-0.003933541476726532
1772810505114404400,11.007404296875,-0.08125877380371094,0.007450632750988007,0.006770506501197815
1772810505134163700,11.027163818359375,-0.05760383605957031,-0.00933346152305603,0.002017468214035034
1772810505153923000,11.046923095703125,-0.07646560668945312,-0.012049533426761627,0.0019528642296791077
1772810505173682200,11.06668212890625,-0.0908365249633789,-0.014541693031787872,-0.007635787129402161
1772810505193441500,11.086441650390626,-0.0860452651977539,-0.014534085988998413,-0.007732227444648743
1772810505213201000,11.106200927734376,-0.0644826889038086,0.014198847115039825,-0.007983475923538208
1772810505232960300,11.125960205078124,-0.078857421875,-0.009501367807388306,-0.00026332587003707886
1772810505252719600,11.1457197265625,-0.08813762664794922,0.004985101521015167,0.004295609891414642
1772810505272479000,11.16547900390625,-0.06957626342773438,0.009928911924362183,-0.00025050342082977295
1772810505292238300,11.18523828125,-0.08125591278076172,0.00037010014057159424,-0.009770162403583527
1772810505311997400,11.20499755859375,-0.06448650360107422,0.014325357973575592,-0.007862500846385956
1772810505331756800,11.2247568359375,-0.08125591278076172,-0.012123741209506989,-0.006065182387828827
1772810505351516200,11.24451611328125,-0.08125782012939453,-0.01390165090560913,0.005830727517604828
1772810505371275500,11.264275634765625,-0.08096122741699219,-0.00015198439359664917,-0.008279077708721161
1772810505391035000,11.284034912109375,-0.0833587646484375,-0.009633295238018036,0.011047892272472382
1772810505410794000,11.3037939453125,-0.08365821838378906,0.0000241696834564209,-0.00810956209897995
1772810505430553300,11.32355322265625,-0.09743404388427734,-0.011899709701538086,-0.012778274714946747
1772810505450312700,11.343312744140626,-0.06928634643554688,0.004829287528991699,0.01118437945842743
1772810505470072000,11.363072021484374,-0.08545303344726562,-0.0025325119495391846,0.006258688867092133
1772810505489831400,11.38283154296875,-0.07616996765136719,-0.000010184943675994873,-0.003534562885761261
1772810505509590800,11.4025908203125,-0.06928253173828125,0.00010616332292556763,0.006769582629203796
1772810505529350100,11.42235009765625,-0.07646465301513672,-0.00684434175491333,0.026141636073589325
1772810505549109500,11.442109619140625,-0.09053897857666016,-0.002024829387664795,-0.00017112493515014648
1772810505568868900,11.461868896484376,-0.06957435607910156,-0.0019970759749412537,0.004337310791015625
1772810505588628200,11.481628173828126,-0.0836496353149414,0.0027074962854385376,0.011582031846046448
1772810505608387600,11.5013876953125,-0.10251235961914062,0.005062870681285858,-0.007578030228614807
1772810505628147000,11.52114697265625,-0.09772300720214844,-0.014145798981189728,0.0021910592913627625
1772810505647906300,11.54090625,-0.0812540054321289,0.009702689945697784,0.014169640839099884
1772810505667665700,11.560665771484375,-0.06957721710205078,-0.0045330822467803955,-0.0025531649589538574
1772810505687425000,11.580425048828126,-0.07197189331054688,-0.004199594259262085,0.009334608912467957
1772810505707184400,11.600184326171876,-0.10462665557861328,-0.0003145933151245117,0.023105494678020477
1772810505726943700,11.61994384765625,-0.02438831329345703,-0.024790532886981964,-0.012619979679584503
1772810505746703000,11.639703125,-0.09775733947753906,-0.006402440369129181,0.00530705600976944
1772810505766462700,11.659462646484375,-0.07410526275634766,0.0030011311173439026,-0.016122370958328247
1772810505786222000,11.67922216796875,-0.09534931182861328,0.006382159888744354,-0.011036686599254608
1772810505805981400,11.6989814453125,-0.08575630187988281,0.014328055083751678,-0.01022852212190628
