time,seconds_elapsed,z,y,x
1772810513028252000,0.377251953125,-0.05470752716064453,-0.007584869861602783,0.005914337933063507
1772810513048013300,0.397013427734375,-0.09273624420166016,-0.010002046823501587,-0.0012345761060714722
1772810513067775000,0.41677490234375,-0.0855560302734375,-0.00004187971353530884,-0.007720917463302612
1772810513087536400,0.436536376953125,-0.0903472900390625,0.002627260982990265,-0.014516018331050873
1772810513107297800,0.4562978515625,-0.08106231689453125,0.000053182244300842285,-0.005050092935562134
1772810513127059200,0.47605908203125,-0.07147979736328125,0.007215559482574463,0.0021233558654785156
1772810513146820600,0.495820556640625,-0.09513568878173828,0.009740345180034637,-0.017051808536052704
1772810513166582000,0.51558203125,-0.06908512115478516,0.0001353621482849121,-0.012273475527763367
1772810513186343400,0.535343505859375,-0.08346080780029297,0.007449835538864136,-0.01218084990978241
1772810513206104800,0.555104736328125,-0.08346176147460938,-0.001847289502620697,-0.01224372535943985
1772810513225866200,0.5748662109375,-0.06220054626464844,0.0005727037787437439,-0.00985851138830185
1772810513245627600,0.594627685546875,-0.06908607482910156,0.010027974843978882,-0.002788744866847992
1772810513265389300,0.614389404296875,-0.06669425964355469,0.010012269020080566,-0.005340456962585449
1772810513285150700,0.634150634765625,-0.07358551025390625,0.007501237094402313,-0.02460886538028717
1772810513304912100,0.653912109375,-0.09723472595214844,-0.016634218394756317,-0.0033695772290229797
1772810513324673500,0.673673583984375,-0.07837677001953125,-0.01889512687921524,-0.010207206010818481
1772810513344435000,0.69343505859375,-0.0762796401977539,0.00034552812576293945,-0.007925398647785187
1772810513364196400,0.7131962890625,-0.07837772369384766,-0.018789932131767273,-0.010124921798706055
1772810513383957800,0.732957763671875,-0.07838058471679688,-0.016313999891281128,-0.02674676477909088
1772810513403719200,0.75271923828125,-0.05711936950683594,-0.006600022315979004,-0.012591429054737091
1772810513423480600,0.77248046875,-0.08556747436523438,-0.011309139430522919,-0.00531429797410965
1772810513443242000,0.792241943359375,-0.09005165100097656,-0.011435598134994507,0.006185181438922882
1772810513463003600,0.812003662109375,-0.05950927734375,-0.001977793872356415,-0.003957830369472504
1772810513482765000,0.83176513671875,-0.0666952133178711,0.0028598234057426453,-0.010584600269794464
1772810513502526500,0.8515263671875,-0.06908798217773438,0.007490694522857666,-0.01816011220216751
1772810513522287600,0.87128759765625,-0.08076286315917969,-0.00948413461446762,-0.0018883049488067627
1772810513542049000,0.891049072265625,-0.09004497528076172,-0.006985865533351898,0.010147430002689362
1772810513561810400,0.910810546875,-0.06399154663085938,-0.00214531272649765,-0.0021298080682754517
1772810513581571600,0.930571533203125,-0.08524894714355469,0.00008948147296905518,-0.00701131671667099
1772810513601333000,0.9503330078125,-0.04751873016357422,0.007168516516685486,0.0024761781096458435
1772810513621094400,0.970094482421875,-0.09692573547363281,-0.004862599074840546,-0.004647888243198395
1772810513640855600,0.98985546875,-0.0828542709350586,-0.00007475912570953369,-0.0237446129322052
1772810513660617000,1.009616943359375,-0.08045768737792969,-0.002474159002304077,0.00011735409498214722
1772810513680378400,1.02937841796875,-0.08763790130615234,0.016420751810073853,0.0004695132374763489
1772810513700139500,1.049139404296875,-0.08763885498046875,0.0017847493290901184,-0.013682715594768524
1772810513719901000,1.06890087890625,-0.075958251953125,0.004122905433177948,-0.004295744001865387
1772810513739662300,1.088662353515625,-0.08075237274169922,-0.005252920091152191,-0.0017876699566841125
1772810513759423700,1.108423828125,-0.08075618743896484,-0.010091796517372131,-0.006208114326000214
1772810513779185000,1.128184814453125,-0.07387065887451172,0.006772555410861969,0.013014227151870728
1772810513798946300,1.1479462890625,-0.05710601806640625,-0.0026052743196487427,-0.0035885199904441833
1772810513818707700,1.167707763671875,-0.0900411605834961,-0.005104362964630127,0.001055985689163208
1772810513838468900,1.18746875,-0.08315753936767578,-0.002866692841053009,-0.01059829443693161
1772810513858230300,1.207230224609375,-0.05471229553222656,-0.019528493285179138,0.006280921399593353
1772810513877991700,1.22699169921875,-0.08076667785644531,-0.0028656795620918274,0.0017570331692695618
1772810513897752800,1.2467529296875,-0.064300537109375,-0.005209691822528839,0.0044179633259773254
1772810513917514200,1.26651416015625,-0.06669807434082031,0.004365488886833191,0.009422771632671356
1772810513937275600,1.286275634765625,-0.0690908432006836,-0.00048269331455230713,-0.007538147270679474
1772810513957036800,1.306036865234375,-0.07628059387207031,-0.000434190034866333,-0.00018725544214248657
1772810513976798200,1.325798095703125,-0.06669902801513672,-0.005227759480476379,-0.007308878004550934
1772810513996559000,1.34555908203125,-0.07868099212646484,-0.007574528455734253,0.007330350577831268
1772810514016318500,1.365318359375,-0.07838058471679688,-0.005229339003562927,-0.0022943317890167236
1772810514036077800,1.385077880859375,-0.07149124145507812,-0.0075766220688819885,0.004695281386375427
1772810514055837000,1.4048369140625,-0.08765888214111328,0.004242129623889923,-0.0025846436619758606
1772810514075596300,1.42459619140625,-0.08316516876220703,-0.003103099763393402,-0.0338558629155159
1772810514095355600,1.444355712890625,-0.07388496398925781,-0.012478478252887726,-0.007388561964035034
1772810514115115000,1.464114990234375,-0.06190776824951172,-0.010082483291625977,0.007042884826660156
1772810514134874000,1.4838740234375,-0.07628154754638672,0.001994580030441284,-0.01444929838180542
1772810514154633500,1.503633544921875,-0.07358360290527344,-0.005450837314128876,-0.007404908537864685
1772810514174392800,1.523392822265625,-0.09724044799804688,0.001886226236820221,-0.007340565323829651
1772810514194152200,1.543152099609375,-0.07598209381103516,0.0018330290913581848,-0.011963173747062683
1772810514213911600,1.56291162109375,-0.07867717742919922,-0.010245420038700104,-0.002371072769165039
1772810514233670700,1.582670654296875,-0.06669902801513672,-0.014733850955963135,-0.01198895275592804
1772810514253430000,1.602429931640625,-0.06909370422363281,-0.008005611598491669,-0.014313563704490662
1772810514273189400,1.622189453125,-0.0738821029663086,-0.017282843589782715,-0.012160718441009521
1772810514292948700,1.64194873046875,-0.08077144622802734,-0.010446824133396149,-0.004806779325008392
1772810514312707800,1.661707763671875,-0.07628154754638672,0.004023171961307526,-0.0046913400292396545
1772810514332467200,1.68146728515625,-0.07388973236083984,-0.0031675174832344055,-0.004471540451049805
1772810514352226600,1.7012265625,-0.06670379638671875,-0.012695111334323883,-0.009093061089515686
1772810514371986000,1.72098583984375,-0.08347225189208984,0.018487058579921722,0.002787455916404724
1772810514391745000,1.7407451171875,-0.07868099212646484,0.0089988112449646,-0.006935380399227142
1772810514411504400,1.76050439453125,-0.09006309509277344,-0.007717795670032501,0.014935113489627838
1772810514431263700,1.780263671875,-0.0831766128540039,-0.0004860609769821167,-0.0042150989174842834
1772810514451023000,1.800023193359375,-0.08556938171386719,-0.015010073781013489,0.007664799690246582
1772810514470782200,1.8197822265625,-0.08557510375976562,0.002012483775615692,-0.008934669196605682
1772810514490541600,1.83954150390625,-0.071502685546875,-0.012150898575782776,-0.008816547691822052
1772810514510301200,1.85930126953125,-0.10923385620117188,0.0021133124828338623,-0.003858901560306549
1772810514530060500,1.879060546875,-0.09725570678710938,0.004451625049114227,0.010568030178546906
1772810514549820200,1.898820068359375,-0.08318233489990234,-0.005184151232242584,-0.011025764048099518
1772810514569579800,1.918579833984375,-0.0643157958984375,-0.014813266694545746,-0.003929898142814636
1772810514589339100,1.938339111328125,-0.08287906646728516,-0.015066780149936676,-0.018332988023757935
1772810514609098800,1.9580986328125,-0.08078384399414062,0.006327740848064423,-0.0014496594667434692
1772810514628858000,1.977858154296875,-0.08078479766845703,-0.008042857050895691,-0.010912477970123291
1772810514648617700,1.99761767578125,-0.09246826171875,-0.01033194363117218,-0.015220008790493011
1772810514668377300,2.01737744140625,-0.1164255142211914,0.0015846863389015198,0.001363024115562439
1772810514688136700,2.03713671875,-0.04036712646484375,0.0014772117137908936,-0.0013730674982070923
1772810514707896300,2.056896240234375,-0.06162548065185547,-0.005761072039604187,0.0010315552353858948
1772810514727656000,2.076656005859375,-0.0780954360961914,0.0032609105110168457,-0.006040304899215698
1772810514747415300,2.096415283203125,-0.07330703735351562,0.010190434753894806,0.008541710674762726
1772810514767175000,2.1161748046875,-0.07810115814208984,-0.0089191272854805,-0.006210021674633026
1772810514786934500,2.1359345703125,-0.08529090881347656,-0.006469748914241791,0.001138843595981598
1772810514806694000,2.15569384765625,-0.06612491607666016,-0.020932771265506744,-0.015661954879760742
1772810514826453500,2.17545361328125,-0.08289718627929688,-0.02550196647644043,-0.010648168623447418
1772810514846212900,2.195212890625,-0.06852436065673828,0.010261401534080505,-0.010526128113269806
1772810514865972500,2.214972412109375,-0.05923938751220703,-0.01588522642850876,-0.005628377199172974
1772810514885732000,2.234732177734375,-0.08768653869628906,-0.015629492700099945,0.0070550888776779175
1772810514905491500,2.254491455078125,-0.0781097412109375,0.0012873411178588867,-0.009138643741607666
1772810514925251000,2.2742509765625,-0.04996299743652344,-0.005847126245498657,0.009976036846637726
1772810514945010700,2.2940107421875,-0.07840824127197266,0.008364267647266388,-0.009122110903263092
1772810514964770000,2.31377001953125,-0.07600688934326172,0.000916115939617157,0.007288210093975067
1772810514984529700,2.33352978515625,-0.08080196380615234,0.0032551810145378113,-0.009155042469501495
1772810515004289000,2.3532890625,-0.08079814910888672,-0.0182393416762352,0.00007304549217224121
1772810515024048400,2.37304833984375,-0.07151508331298828,-0.013440720736980438,-0.007099039852619171
1772810515043808000,2.39280810546875,-0.07390975952148438,-0.011040613055229187,0.00961972028017044
1772810515063567400,2.4125673828125,-0.06432533264160156,0.0031707510352134705,0.002337843179702759
1772810515083326700,2.43232666015625,-0.09247016906738281,0.01024017482995987,0.007133297622203827
1772810515103086300,2.45208642578125,-0.0903768539428711,0.0054914578795433044,-0.00961747020483017
1772810515122845700,2.471845703125,-0.08768177032470703,-0.018453076481819153,0.000025860965251922607
1772810515142605000,2.49160498046875,-0.06672191619873047,0.0009130015969276428,0.0024285390973091125
1772810515162364700,2.51136474609375,-0.08559036254882812,-0.029916368424892426,-0.004333078861236572
1772810515182124000,2.5311240234375,-0.08109569549560547,0.0005186647176742554,-0.0021331682801246643
1772810515201883400,2.55088330078125,-0.10445308685302734,0.0124797523021698,0.005512863397598267
1772810515221642800,2.570642822265625,-0.08828353881835938,0.0009496957063674927,0.010449960827827454
1772810515241402400,2.59040234375,-0.0715179443359375,-0.0010463893413543701,0.003424994647502899
1772810515261161700,2.61016162109375,-0.08080196380615234,-0.005918122828006744,-0.0035299137234687805
1772810515280921000,2.629921142578125,-0.09038352966308594,-0.006295539438724518,-0.011233508586883545
1772810515300680700,2.6496806640625,-0.07151603698730469,0.005348488688468933,0.0034443438053131104
1772810515320440000,2.669440185546875,-0.08109569549560547,0.007852233946323395,-0.0014297813177108765
1772810515340199400,2.689199462890625,-0.07629871368408203,0.0009853914380073547,-0.009156286716461182
1772810515359959000,2.708958984375,-0.09246826171875,-0.001178346574306488,-0.002105340361595154
1772810515379718400,2.728718505859375,-0.08079338073730469,-0.025038234889507294,-0.01150202751159668
1772810515399477800,2.748477783203125,-0.08348751068115234,-0.012925893068313599,0.0026820972561836243
1772810515419237000,2.768237060546875,-0.07390117645263672,-0.008208826184272766,0.004782631993293762
1772810515438996700,2.787996826171875,-0.07869243621826172,-0.015408903360366821,-0.014298297464847565
1772810515458756000,2.807756103515625,-0.05952644348144531,-0.017664574086666107,0.016641244292259216
1772810515478515500,2.827515380859375,-0.0643148422241211,-0.010901570320129395,-0.008091196417808533
1772810515498275000,2.847275146484375,-0.06910324096679688,0.010261870920658112,-0.02018166333436966
1772810515518034400,2.867034423828125,-0.05951976776123047,-0.015960201621055603,0.0013451650738716125
1772810515537794000,2.8867939453125,-0.08796310424804688,-0.004255220293998718,0.0034973174333572388
1772810515557553700,2.9065537109375,-0.05472564697265625,0.010231494903564453,-0.0014785006642341614
1772810515577313300,2.926313232421875,-0.07628536224365234,0.0054555535316467285,-0.013422787189483643
1772810515597072600,2.94607275390625,-0.08077239990234375,-0.004205070436000824,-0.0017335936427116394
1772810515616832300,2.965832275390625,-0.09005260467529297,-0.01121474802494049,-0.016174249351024628
1772810515636591900,2.985591796875,-0.09484386444091797,0.005318082869052887,-0.013743661344051361
1772810515656351200,3.005351318359375,-0.07357978820800781,0.009807877242565155,-0.009128935635089874
1772810515676110800,3.02511083984375,-0.09274101257324219,-0.003990843892097473,-0.013495609164237976
1772810515695870500,3.044870361328125,-0.09992790222167969,-0.008802935481071472,-0.0038909688591957092
1772810515715629800,3.0646298828125,-0.09064674377441406,0.000644981861114502,-0.027695052325725555
1772810515735389400,3.084389404296875,-0.0762777328491211,-0.01853077858686447,-0.010689251124858856
1772810515755149000,3.104149169921875,-0.06908893585205078,0.0007565021514892578,-0.006078876554965973
1772810515774908400,3.123908447265625,-0.07148265838623047,-0.004010438919067383,-0.0014725923538208008
1772810515794668000,3.14366796875,-0.06908702850341797,0.010627694427967072,-0.01830371469259262
1772810515814427600,3.163427734375,-0.06939029693603516,0.0034592673182487488,-0.008538775146007538
1772810515834187300,3.183187255859375,-0.08585929870605469,0.008000515401363373,-0.010199517011642456
1772810515853946600,3.202946533203125,-0.06459999084472656,-0.01596689224243164,0.0018981918692588806
1772810515873706200,3.222706298828125,-0.08556270599365234,-0.006761297583580017,-0.006004713475704193
1772810515893465900,3.2424658203125,-0.07597827911376953,-0.00952932983636856,-0.009474411606788635
1772810515913225500,3.2622255859375,-0.08526325225830078,-0.004660092294216156,-0.02130630612373352
1772810515932984800,3.28198486328125,-0.07118701934814453,-0.014100849628448486,-0.021521903574466705
1772810515952744400,3.301744384765625,-0.08765602111816406,-0.004543967545032501,-0.014403842389583588
1772810515972504000,3.321504150390625,-0.07088470458984375,-0.009150110185146332,-0.026640795171260834
1772810515992263700,3.341263671875,-0.08526039123535156,0.004784576594829559,-0.007243536412715912
1772810516012023800,3.36102392578125,-0.07807540893554688,-0.0051241666078567505,-0.014537148177623749
1772810516031784200,3.3807841796875,-0.07088851928710938,-0.0003131553530693054,-0.010117121040821075
1772810516051544600,3.400544677734375,-0.07358169555664062,-0.0242198184132576,-0.017470188438892365
1772810516071305000,3.420304931640625,-0.08556079864501953,-0.004626505076885223,-0.014388874173164368
1772810516091065300,3.4400654296875,-0.0666952133178711,-0.0018586665391921997,0.0004481002688407898
1772810516110825700,3.45982568359375,-0.0927438735961914,-0.01355290412902832,-0.028399311006069183
1772810516130586000,3.479586181640625,-0.0903482437133789,-0.004046745598316193,-0.011599518358707428
1772810516150346500,3.499346435546875,-0.0714864730834961,-0.0039204806089401245,-0.023579686880111694
1772810516170107000,3.51910693359375,-0.08106803894042969,-0.015610642731189728,-0.006237447261810303
1772810516189867300,3.5388671875,-0.09962940216064453,-0.003659762442111969,-0.008809991180896759
1772810516209627600,3.558627685546875,-0.06908702850341797,-0.010864466428756714,-0.013564854860305786
1772810516229388000,3.578387939453125,-0.061903953552246094,-0.00854027271270752,-0.006042376160621643
1772810516249148400,3.5981484375,-0.08825397491455078,-0.008457578718662262,-0.013399899005889893
1772810516268908800,3.61790869140625,-0.08076763153076172,-0.01335461437702179,-0.01182856410741806
1772810516288669200,3.637669189453125,-0.07118701934814453,-0.01117292046546936,-0.00037825852632522583
1772810516308429600,3.6574296875,-0.08286571502685547,0.003166496753692627,-0.002752065658569336
1772810516328190000,3.67718994140625,-0.09484291076660156,-0.011276774108409882,-0.012195467948913574
1772810516347950600,3.69695068359375,-0.06879138946533203,-0.016026869416236877,-0.0026941224932670593
1772810516367710700,3.716710693359375,-0.09244823455810547,-0.016038253903388977,-0.014479123055934906
1772810516387471000,3.73647119140625,-0.08526420593261719,-0.009522363543510437,0.004801712930202484
1772810516407231500,3.7562314453125,-0.08526802062988281,-0.006787724792957306,-0.01008652150630951
1772810516426991900,3.775991943359375,-0.08526992797851562,-0.006658442318439484,-0.017178431153297424
1772810516446752300,3.795752197265625,-0.04993247985839844,-0.016404777765274048,-0.017343178391456604
1772810516466512600,3.8155126953125,-0.07089424133300781,0.0030747801065444946,-0.014558278024196625
1772810516486273000,3.83527294921875,-0.08766365051269531,-0.0037382543087005615,-0.011878684163093567
1772810516506032600,3.85503271484375,-0.06161308288574219,-0.0060017406940460205,-0.004718363285064697
1772810516525791700,3.874791748046875,-0.08526897430419922,-0.015390492975711823,-0.009579367935657501
1772810516545550800,3.89455078125,-0.08077621459960938,-0.0058298259973526,-0.0097036212682724
1772810516565310000,3.91431005859375,-0.0759897232055664,0.003870464861392975,-0.01419828087091446
1772810516585069000,3.934069091796875,-0.0735931396484375,-0.003187626600265503,-0.021543458104133606
1772810516604828200,3.953828125,-0.09485244750976562,0.003963187336921692,-0.0023064836859703064
1772810516624587500,3.97358740234375,-0.07149505615234375,-0.008031606674194336,-0.002491958439350128
1772810516644346600,3.9933466796875,-0.05472373962402344,0.0014159157872200012,0.0021599680185317993
1772810516664105700,4.013105712890625,-0.0828714370727539,-0.005687281489372253,-0.009591259062290192
1772810516683864800,4.03286474609375,-0.07807731628417969,0.003859899938106537,-0.0053323134779930115
1772810516703624000,4.0526240234375,-0.0711832046508789,-0.0060007572174072266,-0.012793019413948059
1772810516723383000,4.072383056640625,-0.07567596435546875,-0.008416786789894104,-0.005579084157943726
1772810516743142100,4.09214208984375,-0.07806873321533203,0.015333250164985657,-0.012833237648010254
1772810516762901200,4.1119013671875,-0.05920219421386719,0.005660638213157654,-0.005773954093456268
1772810516782660400,4.131660400390625,-0.07117557525634766,0.0007849261164665222,-0.010788045823574066
1772810516802419500,4.15141943359375,-0.0756673812866211,-0.015941806137561798,-0.01798126846551895
1772810516822178600,4.171178466796875,-0.0828561782836914,-0.008723050355911255,-0.02032894641160965
1772810516841937700,4.190937744140625,-0.06638431549072266,-0.006400957703590393,-0.01560019701719284
1772810516861696800,4.21069677734375,-0.08524894714355469,-0.013497963547706604,-0.008587993681430817
1772810516881455900,4.230455810546875,-0.07356834411621094,-0.0037363842129707336,-0.015938512980937958
1772810516901215000,4.250215087890625,-0.08284854888916016,0.005599565804004669,-0.015999644994735718
1772810516920974000,4.26997412109375,-0.08075332641601562,0.0008822977542877197,-0.025630831718444824
1772810516940733200,4.289733154296875,-0.09243202209472656,0.005581945180892944,-0.013408593833446503
1772810516960492300,4.3094921875,-0.07117462158203125,-0.0014763027429580688,0.0010323747992515564
1772810516980251400,4.32925146484375,-0.07357120513916016,-0.01585651934146881,-0.008467055857181549
1772810517000011300,4.34901123046875,-0.08554744720458984,-0.003903709352016449,0.0034721046686172485
1772810517019772000,4.36877197265625,-0.07596588134765625,0.020146414637565613,-0.015804938971996307
1772810517039532800,4.38853271484375,-0.082855224609375,-0.0014401674270629883,0.0035273805260658264
1772810517059293400,4.40829345703125,-0.06189727783203125,-0.0013151466846466064,-0.020325221121311188
1772810517079054000,4.42805419921875,-0.083160400390625,-0.013250164687633514,-0.007513053715229034
1772810517098815000,4.44781494140625,-0.08555221557617188,-0.010555505752563477,-0.010289579629898071
1772810517118575600,4.46757568359375,-0.08076190948486328,-0.027364812791347504,-0.007863178849220276
1772810517138336300,4.487336181640625,-0.09992408752441406,-0.0035356879234313965,-0.010277748107910156
1772810517158097200,4.50709716796875,-0.07866668701171875,-0.0010640621185302734,-0.0077489688992500305
1772810517177857800,4.52685791015625,-0.09483528137207031,-0.02455848455429077,-0.0006455481052398682
1772810517197618400,4.546618408203125,-0.07387638092041016,-0.019819147884845734,-0.012533091008663177
1772810517217379300,4.56637939453125,-0.06908512115478516,-0.009886927902698517,0.0015962868928909302
1772810517237140000,4.586139892578125,-0.07627201080322266,-0.007209770381450653,-0.005264222621917725
1772810517256900600,4.605900634765625,-0.06908607482910156,0.00015226751565933228,-0.0217319056391716
1772810517276661500,4.62566162109375,-0.06848716735839844,0.008597977459430695,-0.026020392775535583
1772810517296422100,4.645422119140625,-0.07327842712402344,-0.0009575709700584412,-0.002096734941005707
1772810517316183000,4.66518310546875,-0.06130218505859375,0.003695957362651825,-0.008992485702037811
1772810517335943700,4.684943603515625,-0.08765220642089844,0.0013720840215682983,-0.0024857521057128906
1772810517355704300,4.704704345703125,-0.06848907470703125,-0.0009447634220123291,-0.009691745042800903
1772810517375465200,4.72446533203125,-0.07807254791259766,-0.010588586330413818,-0.014339901506900787
1772810517395225900,4.744225830078125,-0.07088470458984375,-0.001487933099269867,-0.019133634865283966
1772810517414986500,4.763986572265625,-0.0777750015258789,-0.02792567014694214,-0.014044560492038727
1772810517434747400,4.783747314453125,-0.07089042663574219,0.0006954148411750793,-0.0118585005402565
1772810517454508000,4.803508056640625,-0.08706092834472656,-0.0015703290700912476,-0.016956284642219543
1772810517474268700,4.8232685546875,-0.08766555786132812,-0.0007919073104858398,-0.022880546748638153
1772810517494029600,4.843029541015625,-0.07838249206542969,-0.019408248364925385,-0.010020963847637177
1772810517513789400,4.86278955078125,-0.0900564193725586,-0.00037854909896850586,-0.01711910218000412
1772810517533549600,4.882549560546875,-0.07598209381103516,-0.014860272407531738,0.002359241247177124
1772810517553309700,4.902309814453125,-0.05951404571533203,-0.0052462294697761536,-0.0239858478307724
1772810517573069600,4.922069580078125,-0.09724235534667969,-0.00043255090713500977,-0.016805507242679596
1772810517592829700,4.94182958984375,-0.07598495483398438,-0.012109391391277313,-0.024037830531597137
1772810517612589600,4.961589599609375,-0.061911582946777344,-0.009676441550254822,0.009605906903743744
1772810517632349700,4.981349609375,-0.06430912017822266,-0.00012293457984924316,-0.02870800346136093
1772810517652109800,5.00110986328125,-0.07628631591796875,0.009469568729400635,-0.02152155339717865
1772810517671869700,5.02086962890625,-0.06430912017822266,-0.01418989896774292,-0.012201249599456787
1772810517691629800,5.0406298828125,-0.0804758071899414,-0.005187109112739563,-0.0006065145134925842
1772810517711390000,5.060389892578125,-0.06640434265136719,0.0045638307929039,-0.007657766342163086
1772810517731149800,5.08014990234375,-0.07119560241699219,-0.00034624338150024414,-0.007782474160194397
1772810517750910000,5.099909912109375,-0.07328987121582031,-0.000125005841255188,-0.019864477217197418
1772810517770669800,5.119669921875,-0.07568645477294922,-0.00045315176248550415,-0.007803790271282196
1772810517790430000,5.139429931640625,-0.06640148162841797,-0.002974271774291992,-0.012607522308826447
1772810517810190000,5.159190185546875,-0.06879997253417969,-0.00513043999671936,-0.005342863500118256
1772810517829950000,5.178949951171875,-0.06849956512451172,0.0016734376549720764,-0.010201424360275269
1772810517849710000,5.1987099609375,-0.0711984634399414,0.006528541445732117,-0.024308837950229645
1772810517869470200,5.21847021484375,-0.07808780670166016,0.006693512201309204,-0.005416154861450195
1772810517889230000,5.23822998046875,-0.06641006469726562,0.004365257918834686,-0.007429495453834534
1772810517908990200,5.257990234375,-0.08527755737304688,0.002042517066001892,-0.016965553164482117
1772810517928750000,5.27775,-0.08288288116455078,-0.00033098459243774414,-0.011980324983596802
1772810517948510200,5.29751025390625,-0.06881046295166016,-0.03084918111562729,0.004901275038719177
1772810517968270300,5.317270263671875,-0.0733041763305664,-0.009498551487922668,-0.0073445141315460205
1772810517988030200,5.3370302734375,-0.08767509460449219,-0.007571958005428314,-0.007613569498062134
1772810518007790000,5.3567900390625,-0.0828857421875,-0.017152465879917145,-0.009974092245101929
1772810518027549700,5.3765498046875,-0.0876779556274414,-0.01898708939552307,-0.009989961981773376
1772810518047309000,5.39630908203125,-0.07809734344482422,0.00483626127243042,0.0019514039158821106
1772810518067068700,5.416068603515625,-0.0828866958618164,0.016704529523849487,-0.009990788996219635
1772810518086828300,5.435828369140625,-0.0828847885131836,0.004690080881118774,-0.005430355668067932
1772810518106588000,5.455587890625,-0.09246635437011719,-0.00486329197883606,-0.010183990001678467
1772810518126347500,5.475347412109375,-0.07090568542480469,0.004371762275695801,-0.022155284881591797
1772810518146107100,5.495107177734375,-0.07569599151611328,-0.010012291371822357,-0.0030195489525794983
1772810518165866800,5.51486669921875,-0.052039146423339844,-0.014859676361083984,-0.005488209426403046
1772810518185626400,5.53462646484375,-0.061614990234375,-0.003010779619216919,-0.015384472906589508
1772810518205386000,5.554385986328125,-0.09006214141845703,-0.0054797157645225525,-0.012998066842556
1772810518225145600,5.5741455078125,-0.07329273223876953,0.006455376744270325,0.0013402923941612244
1772810518244905200,5.5939052734375,-0.06401538848876953,0.0019948258996009827,0.001613117754459381
1772810518264664800,5.613664794921875,-0.07569694519042969,-0.0003746598958969116,-0.0030009299516677856
1772810518284424400,5.633424560546875,-0.068511962890625,-0.005288675427436829,-0.007553033530712128
1772810518304184000,5.65318408203125,-0.09007072448730469,-0.007701277732849121,-0.01718815416097641
1772810518323943700,5.672943603515625,-0.09725379943847656,-0.0028838887810707092,-0.007883168756961823
1772810518343703300,5.692703369140625,-0.08287906646728516,0.006658248603343964,-0.00800623744726181
1772810518363463000,5.712462890625,-0.07089805603027344,-0.007884547114372253,-0.003396958112716675
1772810518383222500,5.732222412109375,-0.08766746520996094,-0.007899828255176544,-0.015225008130073547
1772810518402982100,5.751982177734375,-0.07808303833007812,-0.022170059382915497,-0.0009859129786491394
1772810518422741500,5.771741455078125,-0.10413169860839844,0.0015036016702651978,-0.010787822306156158
1772810518442501000,5.791501220703125,-0.07598400115966797,0.0015705600380897522,-0.010901778936386108
1772810518462260700,5.8112607421875,-0.08286857604980469,-0.015201367437839508,-0.006337717175483704
1772810518482020400,5.831020263671875,-0.07598114013671875,-0.002704523503780365,-0.008098900318145752
1772810518501780500,5.850780517578125,-0.07358264923095703,0.004650913178920746,-0.010817527770996094
1772810518521540900,5.870540771484375,-0.07358074188232422,0.006748281419277191,-0.008389085531234741
1772810518541301200,5.89030126953125,-0.08765506744384766,-0.009823694825172424,0.0035990700125694275
1772810518561061600,5.9100615234375,-0.08765602111816406,-0.0025067925453186035,-0.006005421280860901
1772810518580822000,5.929822021484375,-0.08286571502685547,0.0071849822998046875,0.004032537341117859
1772810518600582400,5.94958251953125,-0.059510231018066406,-0.026331789791584015,-0.007808178663253784
1772810518620343000,5.969343017578125,-0.06879425048828125,-0.00463780015707016,-0.012557275593280792
1772810518640103400,5.989103515625,-0.07358455657958984,-0.00944044440984726,0.004170186817646027
1772810518659863800,6.00886376953125,-0.10412788391113281,0.0024507269263267517,-0.022017382085323334
1772810518679624200,6.028624267578125,-0.05681800842285156,0.004108421504497528,-0.012940168380737305
1772810518699384600,6.048384521484375,-0.08287239074707031,-0.00040305405855178833,-0.005672276020050049
1772810518719145000,6.06814501953125,-0.08527088165283203,0.014016732573509216,-0.008178554475307465
1772810518738905600,6.087905517578125,-0.0828704833984375,0.01640162616968155,-0.006361015141010284
1772810518758666000,6.107666015625,-0.07568740844726562,-0.0004972591996192932,-0.015637248754501343
1772810518778426400,6.12742626953125,-0.061618804931640625,0.011534631252288818,-0.01294175535440445
1772810518798186800,6.147186767578125,-0.06850337982177734,-0.00520285964012146,-0.02022486925125122
1772810518817947100,6.166947021484375,-0.07329654693603516,-0.012355469167232513,-0.01533064991235733
1772810518837707800,6.186707763671875,-0.07569313049316406,0.004621922969818115,-0.010549776256084442
1772810518857468200,6.20646826171875,-0.05443572998046875,-0.0025505051016807556,-0.015184909105300903
1772810518877228500,6.226228515625,-0.09006977081298828,0.01001499593257904,-0.012041546404361725
1772810518896989000,6.245989013671875,-0.09006595611572266,0.00039123743772506714,-0.012306071817874908
1772810518916749300,6.265749267578125,-0.10204410552978516,-0.01872449368238449,0.004473820328712463
1772810518936509700,6.285509765625,-0.07150459289550781,-0.01623304933309555,-0.004376828670501709
1772810518956270000,6.30527001953125,-0.09006786346435547,-0.018841251730918884,-0.011621370911598206
1772810518976030700,6.32503076171875,-0.07599449157714844,0.009895920753479004,-0.011577092111110687
1772810518995790800,6.344790771484375,-0.10683631896972656,-0.021194085478782654,0.0004207193851470947
1772810519015550700,6.36455078125,-0.09486103057861328,0.0004271566867828369,-0.008967936038970947
1772810519035310600,6.384310546875,-0.08527946472167969,0.010103672742843628,0.0005822554230690002
1772810519055070200,6.4040703125,-0.09246826171875,0.010042086243629456,-0.0159265398979187
1772810519074830000,6.423830078125,-0.06402111053466797,-0.004259936511516571,-0.004723243415355682
1772810519094590000,6.44358984375,-0.07839584350585938,0.0027762502431869507,-0.004485927522182465
1772810519114349600,6.463349609375,-0.0712118148803711,0.005170315504074097,-0.01630483567714691
1772810519134109400,6.483109375,-0.07361125946044922,-0.011461898684501648,-0.008923731744289398
1772810519153869000,6.502869140625,-0.08768749237060547,0.0005256682634353638,-0.015851177275180817
1772810519173629000,6.52262890625,-0.06642913818359375,-0.018540658056735992,-0.0014008581638336182
1772810519193388800,6.542388916015625,-0.06433486938476562,-0.006694518029689789,-0.015565499663352966
1772810519213148400,6.5621484375,-0.0829019546508789,-0.01129738986492157,-0.0298570916056633
1772810519232908300,6.581908203125,-0.07811355590820312,0.005365699529647827,-0.01283378154039383
1772810519252668200,6.601668212890625,-0.08529949188232422,-0.006537601351737976,-0.008107513189315796
1772810519272427800,6.621427734375,-0.07572078704833984,-0.016426123678684235,-0.008162833750247955
1772810519292187600,6.641187744140625,-0.05925273895263672,-0.00213034451007843,-0.02053147554397583
1772810519311947500,6.660947509765625,-0.0897979736328125,0.0026650801301002502,-0.017923198640346527
1772810519331707100,6.68070703125,-0.06614303588867188,-0.00465528666973114,0.003856249153614044
1772810519351467000,6.700467041015625,-0.09698200225830078,-0.0024013444781303406,-0.016058020293712616
1772810519371226600,6.7202265625,-0.07811832427978516,0.0071759894490242004,-0.006544068455696106
1772810519390986500,6.739986572265625,-0.07332706451416016,-0.004936739802360535,0.007938303053379059
1772810519410746400,6.759746337890625,-0.05895233154296875,-0.026328235864639282,-0.00421491265296936
1772810519430506000,6.779506103515625,-0.07332515716552734,-0.00479869544506073,-0.006627574563026428
1772810519450265900,6.799265869140625,-0.09428882598876953,-0.004677370190620422,-0.01599951833486557
1772810519470025700,6.819025634765625,-0.07332706451416016,-0.005161993205547333,0.00098467618227005
1772810519489785300,6.838785400390625,-0.07571887969970703,-0.017004571855068207,0.0011508315801620483
1772810519509545500,6.85854541015625,-0.07332611083984375,-0.0002784803509712219,-0.010626964271068573
1772810519529305300,6.878305419921875,-0.06853199005126953,0.011579431593418121,-0.005954861640930176
1772810519549065500,6.8980654296875,-0.08529853820800781,-0.0005418583750724792,-0.0036334097385406494
1772810519568825600,6.91782568359375,-0.07811450958251953,-0.012588299810886383,-0.015349410474300385
1772810519588585700,6.937585693359375,-0.07572650909423828,-0.012400209903717041,-0.01010105013847351
1772810519608345600,6.957345703125,-0.09009933471679688,-0.014603734016418457,-0.007769070565700531
1772810519628105700,6.977105712890625,-0.10417461395263672,-0.014563091099262238,0.006610862910747528
1772810519647865900,6.996865966796875,-0.07812309265136719,0.006937548518180847,-0.010164394974708557
1772810519667626000,7.0166259765625,-0.10207939147949219,-0.009555898606777191,-0.0024441182613372803
1772810519687385900,7.0363857421875,-0.0853118896484375,-0.006990715861320496,-0.006796814501285553
1772810519707146000,7.05614599609375,-0.09489250183105469,0.002493061125278473,0.01236211508512497
1772810519726906000,7.075906005859375,-0.06674766540527344,-0.014183782041072845,-0.0019329637289047241
1772810519746666200,7.095666259765625,-0.07842445373535156,-0.014091260731220245,0.009838387370109558
1772810519766426000,7.115426025390625,-0.07842063903808594,-0.002049177885055542,-0.009097732603549957
1772810519786186200,7.135186279296875,-0.10686683654785156,-0.009050138294696808,-0.0019903331995010376
1772810519805946400,7.1549462890625,-0.06644344329833984,-0.00907307118177414,0.0028686895966529846
1772810519825706500,7.17470654296875,-0.09009933471679688,0.007430523633956909,-0.02564571052789688
1772810519845466400,7.19446630859375,-0.07602596282958984,0.007476888597011566,-0.00421084463596344
1772810519865226500,7.2142265625,-0.07363033294677734,0.00005381554365158081,0.002341322600841522
1772810519884986600,7.233986572265625,-0.07811927795410156,0.018733374774456024,-0.01756860315799713
1772810519904746500,7.25374658203125,-0.09727954864501953,0.004309356212615967,-0.012986540794372559
1772810519924506600,7.273506591796875,-0.09218788146972656,-0.005302496254444122,-0.017873086035251617
1772810519944266800,7.293266845703125,-0.061646461486816406,-0.010061793029308319,-0.010590136051177979
1772810519964027000,7.31302685546875,-0.10177230834960938,-0.00764155387878418,0.0015092939138412476
1772810519983786800,7.332786865234375,-0.12991619110107422,-0.00553344190120697,0.011035449802875519
1772810520003546600,7.352546630859375,0.00003910064697265625,0.013510100543498993,-0.0033583790063858032
1772810520023306500,7.372306396484375,-0.10416507720947266,-0.0031870603561401367,-0.0009416937828063965
1772810520043066000,7.392066162109375,-0.08260726928710938,0.003898248076438904,-0.010273627936840057
1772810520062825700,7.41182568359375,-0.08769798278808594,-0.005763433873653412,-0.003307051956653595
1772810520082585600,7.431585693359375,-0.0664377212524414,-0.008337914943695068,-0.007759258151054382
1772810520102345200,7.45134521484375,-0.09698200225830078,-0.008260644972324371,-0.017178133130073547
1772810520122104800,7.471104736328125,-0.06643962860107422,-0.008389085531234741,-0.005166195333003998
1772810520141864700,7.49086474609375,-0.08051395416259766,-0.010701723396778107,-0.01718655228614807
1772810520161624300,7.510624267578125,-0.10177135467529297,-0.0083828866481781,-0.010162413120269775
1772810520181384000,7.530384033203125,-0.0640420913696289,-0.006016403436660767,-0.012456558644771576
1772810520201143800,7.550143798828125,-0.0640401840209961,-0.003601066768169403,-0.0054437220096588135
1772810520220903400,7.5699033203125,-0.059250831604003906,0.0008891001343727112,-0.03627736121416092
1772810520240663300,7.589663330078125,-0.08529853820800781,-0.0015473663806915283,0.004201650619506836
1772810520260423000,7.6094228515625,-0.08529853820800781,0.0008013918995857239,-0.000616021454334259
1772810520280182500,7.6291826171875,-0.06433868408203125,-0.019558101892471313,0.00573296844959259
1772810520299942400,7.6489423828125,-0.07392120361328125,-0.019402220845222473,0.010769911110401154
1772810520319702000,7.668701904296875,-0.07392024993896484,-0.007553800940513611,-0.008404694497585297
1772810520339462000,7.6884619140625,-0.06912994384765625,-0.005085423588752747,0.006028555333614349
1772810520359221500,7.708221435546875,-0.07631969451904297,0.0022576451301574707,0.008583709597587585
1772810520378981000,7.727981201171875,-0.06913089752197266,-0.007248483598232269,0.016098536550998688
1772810520398741000,7.747740966796875,-0.09068679809570312,0.009353280067443848,-0.005529880523681641
1772810520418500600,7.76750048828125,-0.08350276947021484,-0.014563120901584625,-0.01027410477399826
1772810520438260200,7.78726025390625,-0.07631778717041016,0.009585440158843994,-0.00305822491645813
1772810520458020000,7.80702001953125,-0.08110618591308594,-0.004273638129234314,0.01354759931564331
1772810520477779700,7.82677978515625,-0.0781106948852539,0.005648806691169739,-0.017534397542476654
1772810520497539600,7.84653955078125,-0.0924844741821289,-0.001678474247455597,-0.0005889460444450378
1772810520517299500,7.866299560546875,-0.08739376068115234,0.0030618906021118164,-0.007735364139080048
1772810520537059600,7.8860595703125,-0.08051013946533203,-0.0159500390291214,-0.003464139997959137
1772810520556819700,7.90581982421875,-0.06853199005126953,-0.0015624314546585083,-0.005876876413822174
1772810520576579600,7.92557958984375,-0.07092475891113281,0.0004419088363647461,-0.013219751417636871
1772810520596339700,7.945339599609375,-0.08260536193847656,-0.004613608121871948,-0.010638624429702759
1772810520616099800,7.965099853515625,-0.07332706451416016,-0.016380496323108673,0.00379016250371933
1772810520635859700,7.984859619140625,-0.09428215026855469,-0.004661351442337036,-0.008878737688064575
1772810520655619800,8.004619873046876,-0.07781124114990234,-0.002233147621154785,0.00761750340461731
1772810520675380000,8.0243798828125,-0.07092475891113281,-0.0151972696185112,0.006991192698478699
1772810520695139800,8.044139892578125,-0.08290481567382812,0.01330680400133133,-0.009635582566261292
1772810520714900000,8.06389990234375,-0.0664358139038086,0.010720804333686829,0.0071189627051353455
1772810520734659800,8.083659912109376,-0.08530044555664062,0.006038583815097809,-0.007235676050186157
1772810520754420000,8.103419921875,-0.09248733520507812,-0.015003576874732971,-0.007217288017272949
1772810520774180000,8.12318017578125,-0.07332324981689453,-0.015041008591651917,-0.004809968173503876
1772810520793940000,8.14293994140625,-0.09009075164794922,-0.0005812421441078186,0.007047034800052643
1772810520813700000,8.1627001953125,-0.07841014862060547,0.0018911436200141907,-0.007616229355335236
1772810520833460200,8.182460205078126,-0.04966449737548828,-0.01720215380191803,-0.010141551494598389
1772810520853220000,8.20222021484375,-0.0805044174194336,0.004325248301029205,-0.014999590814113617
1772810520872980200,8.221980224609375,-0.09008121490478516,-0.00561320036649704,-0.008403755724430084
1772810520892740000,8.241739990234375,-0.09007740020751953,-0.00368383526802063,-0.004263393580913544
1772810520912500200,8.261500244140626,-0.0664215087890625,0.0036280378699302673,-0.01142178475856781
1772810520932260400,8.28126025390625,-0.09247303009033203,-0.0010273680090904236,-0.011497460305690765
1772810520952020200,8.301020263671875,-0.06402111053466797,-0.0131511390209198,-0.018999308347702026
1772810520971780400,8.3207802734375,-0.08288383483886719,-0.006231144070625305,0.00016633421182632446
1772810520991540500,8.34054052734375,-0.07570075988769531,0.0011861100792884827,-0.011780373752117157
1772810521011301400,8.36030126953125,-0.078094482421875,0.015396937727928162,0.00014776736497879028
1772810521031062500,8.3800625,-0.0921630859375,0.0011540651321411133,0.004516735672950745
1772810521050823700,8.39982373046875,-0.08288002014160156,-0.010716132819652557,-0.014766708016395569
1772810521070584600,8.41958447265625,-0.07808589935302734,-0.02032654732465744,-0.014935575425624847
1772810521090345700,8.439345703125,-0.0804891586303711,-0.010638751089572906,-0.01443566381931305
1772810521110107000,8.45910693359375,-0.09456157684326172,0.013414271175861359,0.011838771402835846
1772810521129867800,8.47886767578125,-0.0804910659790039,-0.015268944203853607,-0.0024733617901802063
1772810521149629000,8.49862890625,-0.07569503784179688,-0.020243287086486816,-0.012281686067581177
1772810521169390000,8.51839013671875,-0.07569694519042969,-0.015291720628738403,-0.012265056371688843
1772810521189151000,8.53815087890625,-0.08288097381591797,-0.029764316976070404,-0.014713890850543976
1772810521208912100,8.557912109375,-0.07330036163330078,0.0015579015016555786,0.004390008747577667
1772810521228673300,8.57767333984375,-0.07809066772460938,-0.012705981731414795,-0.014839261770248413
1772810521248434400,8.597434326171875,-0.06162261962890625,0.001800350844860077,-0.005297034978866577
1772810521268195300,8.6171953125,-0.0993499755859375,0.006849691271781921,-0.009814329445362091
1772810521287956500,8.63695654296875,-0.10204410552978516,-0.002450093626976013,-0.0024244487285614014
1772810521307717600,8.656717529296875,-0.0667104721069336,-0.004908174276351929,-0.014365628361701965
1772810521327478500,8.676478515625,-0.09724903106689453,0.004538767039775848,0.0004507005214691162
1772810521347239700,8.69623974609375,-0.08317852020263672,0.009236268699169159,-0.006616361439228058
1772810521367000800,8.716000732421875,-0.08556842803955078,-0.000521443784236908,-0.006856687366962433
1772810521386762000,8.735761962890624,-0.07389068603515625,-0.000748760998249054,-0.004345327615737915
1772810521406523000,8.75552294921875,-0.07119560241699219,-0.010276757180690765,0.005174852907657623
1772810521426284000,8.775283935546875,-0.08077716827392578,0.004115253686904907,0.00033357739448547363
1772810521446045200,8.795045166015624,-0.09245014190673828,-0.010357297956943512,0.0024142786860466003
1772810521465806000,8.81480615234375,-0.07118701934814453,-0.00826619565486908,0.008726701140403748
1772810521485567200,8.834567138671876,-0.07568168640136719,-0.008412860333919525,-0.008463673293590546
1772810521505327400,8.854327392578124,-0.09005260467529297,0.003429017961025238,-0.0013230592012405396
1772810521525086700,8.874086669921875,-0.0732889175415039,-0.013174578547477722,-0.022620663046836853
1772810521544846000,8.89384619140625,-0.0804758071899414,-0.005997233092784882,-0.005835928022861481
1772810521564605700,8.913605712890625,-0.0732889175415039,-0.010680943727493286,-0.010703109204769135
1772810521584365000,8.933364990234375,-0.09664630889892578,0.0038173049688339233,-0.010677553713321686
1772810521604124700,8.953124755859376,-0.06131172180175781,-0.01288796216249466,-0.013793200254440308
1772810521623884000,8.972884033203124,-0.0684976577758789,0.003899596631526947,-0.013860546052455902
1772810521643643600,8.9926435546875,-0.07568168640136719,-0.013064153492450714,0.00046034157276153564
1772810521663403000,9.012403076171875,-0.08286476135253906,-0.013157427310943604,-0.016473814845085144
1772810521683162600,9.03216259765625,-0.07837200164794922,-0.002990901470184326,-0.0034953877329826355
1772810521702922000,9.051921875,-0.08047008514404297,-0.014693260192871094,-0.010708391666412354
1772810521722681300,9.071681396484376,-0.0714874267578125,-0.005121007561683655,0.0016695931553840637
1772810521742441000,9.09144091796875,-0.07118415832519531,0.00676475465297699,-0.0006282255053520203
1772810521762200300,9.111200439453125,-0.06669330596923828,0.0066244155168533325,0.006750255823135376
1772810521781960000,9.1309599609375,-0.08556079864501953,-0.0028689131140708923,-0.009992934763431549
1772810521801719300,9.15071923828125,-0.061903953552246094,-0.0196080282330513,-0.007579296827316284
1772810521821479000,9.17047900390625,-0.08077049255371094,-0.002803429961204529,0.0020509883761405945
1772810521841238300,9.19023828125,-0.07597923278808594,-0.021987929940223694,-0.0003418475389480591
1772810521860997600,9.20999755859375,-0.0690908432006836,0.0018907636404037476,-0.007560767233371735
1772810521880757200,9.22975732421875,-0.08047008514404297,0.0034099072217941284,-0.004554085433483124
1772810521900516600,9.2495166015625,-0.0897512435913086,0.015130892395973206,-0.011813007295131683
1772810521920276200,9.269276123046875,-0.09903335571289062,0.01756390929222107,-0.00023616105318069458
1772810521940035600,9.28903564453125,-0.0801706314086914,0.000772915780544281,-0.005261234939098358
1772810521959795200,9.308795166015624,-0.058910369873046875,-0.0017420276999473572,-0.00041607022285461426
1772810521979554600,9.328554443359375,-0.09184551239013672,0.010033220052719116,-0.017141111195087433
1772810521999314000,9.34831396484375,-0.06369781494140625,-0.018690355122089386,-0.012471713125705719
1772810522019073000,9.368072998046875,-0.08944892883300781,-0.0020438581705093384,-0.01034834235906601
1772810522038832400,9.387832275390625,-0.08704948425292969,-0.006944000720977783,-0.02048761397600174
1772810522058591500,9.407591552734376,-0.058605194091796875,-0.016407161951065063,-0.003654889762401581
1772810522078350600,9.4273505859375,-0.06099510192871094,0.000287763774394989,-0.0031599774956703186
1772810522098110000,9.44710986328125,-0.07327556610107422,-0.006307035684585571,-0.01633428782224655
1772810522117869000,9.466869140625,-0.0684823989868164,0.0007009208202362061,-0.014005936682224274
1772810522137628200,9.486628173828125,-0.092437744140625,-0.008933790028095245,-0.013568393886089325
1772810522157387500,9.506387451171875,-0.09932708740234375,-0.0014133825898170471,0.0013071000576019287
1772810522177146600,9.526146728515625,-0.07806587219238281,0.002946309745311737,-0.003628477454185486
1772810522196905700,9.54590576171875,-0.07327461242675781,-0.0014082938432693481,-0.0036695972084999084
1772810522216665000,9.5656650390625,-0.08525276184082031,0.0012625977396965027,-0.003608405590057373
1772810522236424200,9.585424072265624,-0.06399059295654297,-0.013096146285533905,-0.01570243388414383
1772810522256183600,9.60518359375,-0.059502601623535156,-0.0012432560324668884,0.010883159935474396
1772810522275942700,9.624942626953125,-0.06159687042236328,-0.01092468947172165,-0.02020544558763504
1772810522295701800,9.64470166015625,-0.063995361328125,0.0010811015963554382,-0.0032728612422943115
1772810522315460900,9.6644609375,-0.09004402160644531,-0.008605808019638062,0.006295338273048401
1772810522335220200,9.68422021484375,-0.08526134490966797,-0.013129860162734985,-0.015018254518508911
1772810522354979300,9.703979248046876,-0.0711832046508789,-0.006053753197193146,-0.014587931334972382
1772810522374738700,9.72373876953125,-0.08285999298095703,-0.0010690242052078247,-0.00048473477363586426
1772810522394497800,9.743497802734375,-0.06908702850341797,-0.008350595831871033,-0.009836003184318542
1772810522414257000,9.7632568359375,-0.0735788345336914,0.010880984365940094,0.0020304545760154724
1772810522434016300,9.783016357421875,-0.06189918518066406,-0.0035985782742500305,0.0020770132541656494
1772810522453775400,9.802775390625,-0.10202407836914062,0.0058531686663627625,-0.017046131193637848
1772810522473534500,9.822534423828126,-0.07837104797363281,-0.01592394709587097,-0.003163456916809082
1772810522493293800,9.8422939453125,-0.07328128814697266,-0.006533898413181305,-0.00853283703327179
1772810522513053700,9.8620537109375,-0.06609439849853516,-0.030528798699378967,0.0031887441873550415
1772810522532813300,9.881813232421875,-0.09454345703125,-0.004280783236026764,-0.011200562119483948
1772810522552573200,9.9015732421875,-0.08286476135253906,-0.009265989065170288,0.007890313863754272
1772810522572333000,9.9213330078125,-0.08047008514404297,0.005340956151485443,-0.011298753321170807
1772810522592093000,9.941093017578124,-0.07088756561279297,-0.01639655977487564,-0.011219479143619537
1772810522611852800,9.960852783203125,-0.05890846252441406,0.002101212739944458,-0.004127033054828644
1772810522631612700,9.98061279296875,-0.07328128814697266,0.0018800795078277588,-0.01118428260087967
1772810522651372500,10.00037255859375,-0.08256149291992188,-0.007796436548233032,-0.006533607840538025
1772810522671132400,10.02013232421875,-0.08046150207519531,-0.004954114556312561,-0.004089124500751495
1772810522690892300,10.039892333984374,-0.06638622283935547,-0.014016546308994293,-0.010352298617362976
1772810522710652000,10.05965185546875,-0.0948324203491211,-0.0019935518503189087,-0.01765163242816925
1772810522730411800,10.079411865234375,-0.07566452026367188,-0.0046455711126327515,-0.0009859949350357056
1772810522750171600,10.099171630859376,-0.08763885498046875,-0.007190130650997162,-0.0035286620259284973
1772810522769931500,10.118931640625,-0.09722137451171875,-0.007183864712715149,-0.020248107612133026
1772810522789691400,10.13869140625,-0.08793926239013672,-0.00010997802019119263,-0.015421316027641296
1772810522809451300,10.158451171875,-0.07596588134765625,-0.016588732600212097,0.008911840617656708
1772810522829211100,10.178211181640625,-0.09722328186035156,0.007281869649887085,-0.014809802174568176
1772810522848971000,10.197970947265626,-0.07835960388183594,0.00034449249505996704,0.0017959251999855042
1772810522868731000,10.21773095703125,-0.09003639221191406,0.0002811998128890991,-0.020065970718860626
1772810522888490500,10.237490478515625,-0.08524608612060547,-0.009286932647228241,-0.003487788140773773
1772810522908250400,10.25725048828125,-0.08524894714355469,0.006801672279834747,0.0015047937631607056
1772810522928010200,10.27701025390625,-0.08764362335205078,-0.004873648285865784,-0.0009426549077033997
1772810522947770000,10.29677001953125,-0.0708780288696289,0.000010631978511810303,-0.012735046446323395
1772810522967530000,10.316530029296874,-0.06878185272216797,-0.01180236041545868,-0.010315291583538055
1772810522987289900,10.336289794921875,-0.0852499008178711,0.0022010281682014465,0.006436102092266083
1772810523007049700,10.3560498046875,-0.09243965148925781,0.001992732286453247,-0.014935187995433807
1772810523026809900,10.375809814453126,-0.07596874237060547,-0.00011242181062698364,0.006502144038677216
1772810523046569700,10.39556982421875,-0.10172271728515625,-0.002256624400615692,-0.010190419852733612
1772810523066329900,10.415329833984375,-0.07836627960205078,0.009336702525615692,0.008598186075687408
1772810523086089700,10.43508984375,-0.07806777954101562,0.00920073688030243,-0.020191937685012817
1772810523105849900,10.454849853515626,-0.07088470458984375,-0.0004931241273880005,-0.015106432139873505
1772810523125609700,10.474609619140624,-0.07088279724121094,0.0044790878891944885,-0.015376664698123932
1772810523145369900,10.494369873046875,-0.06399726867675781,0.009339258074760437,-0.000848032534122467
1772810523165130000,10.5141298828125,-0.08526325225830078,-0.012148529291152954,-0.010693907737731934
1772810523184889900,10.533889892578125,-0.080474853515625,0.023710094392299652,-0.020018666982650757
1772810523204650000,10.55364990234375,-0.0780801773071289,0.009353116154670715,-0.005580775439739227
1772810523224409900,10.573409912109375,-0.08257484436035156,0.014148838818073273,-0.0004807412624359131
1772810523244170000,10.593169921875,-0.07778644561767578,0.006675995886325836,-0.0025611817836761475
1772810523263929900,10.612929931640625,-0.08527565002441406,-0.01490975171327591,-0.002194926142692566
1772810523283690000,10.63268994140625,-0.09725189208984375,-0.012051299214363098,-0.015384301543235779
1772810523303450000,10.6524501953125,-0.09006214141845703,-0.005073241889476776,-0.008331052958965302
1772810523323210000,10.6722099609375,-0.08527278900146484,-0.00039795786142349243,-0.005766294896602631
1772810523342970000,10.69197021484375,-0.07569026947021484,0.00650247186422348,-0.005649834871292114
1772810523362730000,10.71172998046875,-0.06910514831542969,-0.0036002248525619507,-0.0074577778577804565
1772810523382490000,10.731489990234374,-0.068817138671875,0.005647607147693634,0.0034968629479408264
1772810523402250000,10.75125,-0.09247875213623047,-0.001805335283279419,-0.0026099979877471924
1772810523422010000,10.771010009765625,-0.08079814910888672,0.008002720773220062,-0.01262548565864563
1772810523441770200,10.790770263671876,-0.08078765869140625,-0.015153028070926666,-0.009204402565956116
1772810523461530000,10.810530029296874,-0.0951547622680664,0.004089921712875366,-0.002476699650287628
