time,seconds_elapsed,z,y,x
1772810454817836000,0.1738359375,0.00013315794058144093,0.003195790573954582,0.003328948514536023
1772810454827716600,0.183716552734375,-0.0003994738217443228,-0.0005326317623257637,0.001731053227558732
1772810454837597200,0.19359716796875,0.0011984214652329683,0,0.0006657897029072046
1772810454847477500,0.2034775390625,0.0006657897029072046,0,-0.0003994738217443228
1772810454857358000,0.213358154296875,-0.0003994738217443228,0.0010652635246515274,0.0011984214652329683
1772810454867238700,0.22323876953125,0.0006657897029072046,0,0.0011984214652329683
1772810454877119000,0.233118896484375,0.00013315794058144093,0.0005326317623257637,0.00013315794058144093
1772810454886999600,0.24299951171875,-0.0003994738217443228,0.0010652635246515274,0.00013315794058144093
1772810454896879900,0.2528798828125,-0.0003994738217443228,0.0005326317623257637,0.00013315794058144093
1772810454906760400,0.262760498046875,0.0006657897029072046,-0.0005326317623257637,-0.0003994738217443228
1772810454916641000,0.27264111328125,0.00013315794058144093,-0.0010652635246515274,-0.0003994738217443228
1772810454926521300,0.282521240234375,0.001731053227558732,0.0010652635246515274,0.0006657897029072046
1772810454936402000,0.29240185546875,0.00013315794058144093,0.0005326317623257637,0.0011984214652329683
1772810454946282200,0.3022822265625,0.00013315794058144093,-0.0005326317623257637,0.0006657897029072046
1772810454956162800,0.312162841796875,0.0011984214652329683,-0.002130527049303055,0.0006657897029072046
1772810454966043400,0.32204345703125,-0.0003994738217443228,0.0010652635246515274,0.0006657897029072046
1772810454975923700,0.331923828125,0.00013315794058144093,0,0.00013315794058144093
1772810454985804300,0.34180419921875,0.0006657897029072046,0.001597895286977291,0.0011984214652329683
1772810454995684600,0.3516845703125,-0.0009321055840700865,0,0.0006657897029072046
1772810455005565000,0.36156494140625,-0.0014647373463958502,-0.001597895286977291,0.001731053227558732
1772810455015445500,0.371445556640625,-0.0009321055840700865,0,-0.0003994738217443228
1772810455025325800,0.381325927734375,0.0006657897029072046,0.0010652635246515274,0.00013315794058144093
1772810455035206100,0.3912060546875,-0.0003994738217443228,-0.0010652635246515274,0.0006657897029072046
1772810455045086500,0.40108642578125,0.00013315794058144093,0.001597895286977291,0.001731053227558732
1772810455054966800,0.410966796875,0.001731053227558732,0.0010652635246515274,-0.0009321055840700865
1772810455064847400,0.420847412109375,0.00013315794058144093,0.0010652635246515274,0.0006657897029072046
1772810455074727700,0.430727783203125,0.0011984214652329683,0.0005326317623257637,0.00013315794058144093
1772810455084608000,0.44060791015625,-0.0009321055840700865,-0.0026631588116288185,-0.0003994738217443228
1772810455094488300,0.45048828125,0.00013315794058144093,0.0005326317623257637,-0.0014647373463958502
1772810455104368600,0.46036865234375,0.0011984214652329683,0,-0.0009321055840700865
1772810455114249000,0.4702490234375,0.00013315794058144093,0.0005326317623257637,0.00013315794058144093
1772810455124129500,0.480129638671875,0.0006657897029072046,0,0.00013315794058144093
1772810455134009900,0.490009765625,-0.0003994738217443228,0.0026631588116288185,-0.0009321055840700865
1772810455143890200,0.49989013671875,0.00013315794058144093,0.0005326317623257637,0.0006657897029072046
1772810455153770500,0.5097705078125,0.00013315794058144093,0.0010652635246515274,0.0006657897029072046
1772810455163651000,0.519651123046875,0.0011984214652329683,-0.0010652635246515274,0.0006657897029072046
1772810455173531400,0.529531494140625,-0.0009321055840700865,0.002130527049303055,-0.0009321055840700865
1772810455183411700,0.53941162109375,0.00013315794058144093,0,0.001731053227558732
1772810455193292000,0.5492919921875,0.00013315794058144093,0.0010652635246515274,0.00013315794058144093
1772810455203172400,0.55917236328125,0.0011984214652329683,0.0005326317623257637,0.0011984214652329683
1772810455213052700,0.569052734375,0.0006657897029072046,0.0005326317623257637,0.0011984214652329683
1772810455222933200,0.578933349609375,0.0022636849898844957,0.0005326317623257637,0.00013315794058144093
1772810455232813600,0.5888134765625,0.00013315794058144093,0.0010652635246515274,-0.0003994738217443228
1772810455242694000,0.59869384765625,-0.0014647373463958502,0.0005326317623257637,0.0006657897029072046
1772810455252574200,0.60857421875,0.0006657897029072046,-0.0010652635246515274,0.0011984214652329683
1772810455262454500,0.61845458984375,-0.0003994738217443228,0.001597895286977291,0.0006657897029072046
1772810455272335000,0.628335205078125,0.00013315794058144093,0.0005326317623257637,-0.0009321055840700865
1772810455282215400,0.63821533203125,0.0006657897029072046,-0.0005326317623257637,0.0022636849898844957
1772810455292095700,0.648095703125,0.00013315794058144093,0,0.0006657897029072046
1772810455301976000,0.65797607421875,-0.0009321055840700865,0,0.0006657897029072046
1772810455311856400,0.6678564453125,-0.0014647373463958502,-0.0010652635246515274,0.0006657897029072046
1772810455321737000,0.677737060546875,-0.0003994738217443228,0.001597895286977291,0.00013315794058144093
1772810455331617300,0.6876171875,0.0006657897029072046,-0.002130527049303055,0.0011984214652329683
1772810455341497600,0.69749755859375,-0.0010652635246515274,-0.0007989476434886456,-0.0007989476434886456
1772810455351378000,0.7073779296875,0.0005326317623257637,0.00026631588116288185,0.0013315794058144093
1772810455361258200,0.71725830078125,0.0010652635246515274,0.00026631588116288185,0.00026631588116288185
1772810455371138800,0.727138916015625,0,-0.00026631588116288185,-0.001864211168140173
1772810455381019100,0.73701904296875,-0.0005326317623257637,0.0007989476434886456,0.00026631588116288185
1772810455390899500,0.7468994140625,-0.001597895286977291,0.0007989476434886456,-0.0013315794058144093
1772810455400779800,0.75677978515625,-0.0010652635246515274,0.0007989476434886456,0.00026631588116288185
1772810455410660000,0.76666015625,-0.0010652635246515274,-0.001864211168140173,-0.00026631588116288185
1772810455420540700,0.776540771484375,-0.0010652635246515274,0.0007989476434886456,0.00026631588116288185
1772810455430421000,0.7864208984375,-0.0005326317623257637,0.00026631588116288185,-0.0007989476434886456
1772810455440301300,0.79630126953125,-0.0005326317623257637,0.00026631588116288185,0.00026631588116288185
1772810455450181600,0.806181640625,-0.0010652635246515274,0.0007989476434886456,-0.0007989476434886456
1772810455460062000,0.81606201171875,-0.0005326317623257637,0.00026631588116288185,0.0007989476434886456
1772810455469942500,0.825942626953125,0.0005326317623257637,-0.00026631588116288185,0.00026631588116288185
1772810455479822800,0.83582275390625,0,-0.00026631588116288185,0.0007989476434886456
1772810455489703200,0.845703125,-0.0005326317623257637,0.0007989476434886456,-0.001864211168140173
1772810455499583200,0.855583251953125,0.0005326317623257637,-0.001864211168140173,-0.00026631588116288185
1772810455509463000,0.865463134765625,0.0005326317623257637,-0.00026631588116288185,0.0023968429304659367
1772810455519343000,0.875343017578125,0,-0.00026631588116288185,0.0013315794058144093
1772810455529223000,0.885222900390625,-0.001597895286977291,-0.00026631588116288185,0.00026631588116288185
1772810455539102700,0.895102783203125,-0.0010652635246515274,0.0007989476434886456,0.00026631588116288185
1772810455548982500,0.904982421875,-0.0005326317623257637,0.001864211168140173,-0.00026631588116288185
1772810455558862300,0.9148623046875,0,0.0007989476434886456,0.00026631588116288185
1772810455568742400,0.924742431640625,0,-0.00026631588116288185,-0.00026631588116288185
1772810455578622200,0.934622314453125,0,0.00026631588116288185,0.0007989476434886456
1772810455588502000,0.944501953125,0,0.0007989476434886456,-0.0007989476434886456
1772810455598381800,0.9543818359375,0.001597895286977291,-0.0007989476434886456,0.00026631588116288185
1772810455608262000,0.964261962890625,-0.001597895286977291,-0.001864211168140173,0.00026631588116288185
1772810455618141700,0.9741416015625,0,-0.00026631588116288185,0.0013315794058144093
1772810455628021500,0.984021484375,0.0010652635246515274,-0.0013315794058144093,0.00026631588116288185
1772810455637901300,0.9939013671875,0,0.00026631588116288185,0.0007989476434886456
1772810455647781400,1.003781494140625,-0.0005326317623257637,0.00026631588116288185,-0.00026631588116288185
1772810455657661200,1.0136611328125,0.0005326317623257637,-0.0007989476434886456,0.0007989476434886456
1772810455667541000,1.023541015625,0.0005326317623257637,-0.0007989476434886456,-0.00026631588116288185
1772810455677420800,1.0334208984375,0,0.0023968429304659367,0.0007989476434886456
1772810455687300900,1.04330078125,0.0010652635246515274,0.001864211168140173,0.0007989476434886456
1772810455697180700,1.0531806640625,0.0005326317623257637,-0.0013315794058144093,0.00026631588116288185
1772810455707060500,1.063060546875,-0.0005326317623257637,0.0023968429304659367,0.00026631588116288185
1772810455716940500,1.0729404296875,0.002130527049303055,0.00026631588116288185,-0.00026631588116288185
1772810455726820400,1.0828203125,-0.0010652635246515274,-0.00026631588116288185,-0.0013315794058144093
1772810455736700200,1.0927001953125,0,0.00026631588116288185,-0.0007989476434886456
1772810455746580000,1.102580078125,-0.0010652635246515274,-0.001864211168140173,-0.00026631588116288185
1772810455756460000,1.1124599609375,-0.0005326317623257637,-0.0023968429304659367,-0.00026631588116288185
1772810455766339800,1.12233984375,0.0005326317623257637,-0.0007989476434886456,-0.0007989476434886456
1772810455776219600,1.1322197265625,0.0005326317623257637,0.001864211168140173,-0.0007989476434886456
1772810455786099500,1.142099365234375,0.002130527049303055,-0.0013315794058144093,0.00026631588116288185
1772810455795979300,1.151979248046875,0,-0.00026631588116288185,-0.00026631588116288185
1772810455805859300,1.161859375,0,-0.0007989476434886456,-0.00026631588116288185
1772810455815739100,1.1717392578125,-0.002130527049303055,0.0007989476434886456,-0.0007989476434886456
1772810455825619000,1.181618896484375,0.0005326317623257637,-0.0029294746927917004,0.0007989476434886456
1772810455835498800,1.191498779296875,0,-0.00026631588116288185,-0.00026631588116288185
1772810455845378800,1.20137890625,0,0.00026631588116288185,0.0013315794058144093
1772810455855258600,1.211258544921875,-0.0010652635246515274,-0.0023968429304659367,-0.00026631588116288185
1772810455865138400,1.221138427734375,0.0005326317623257637,-0.0007989476434886456,-0.00026631588116288185
1772810455875018200,1.231018310546875,-0.0005326317623257637,-0.0007989476434886456,0.0029294746927917004
1772810455884898300,1.240898193359375,-0.0010652635246515274,0.001864211168140173,0.00026631588116288185
1772810455894778000,1.250778076171875,0,-0.00026631588116288185,0.00026631588116288185
1772810455904658000,1.260657958984375,0.0010652635246515274,-0.001864211168140173,0.00026631588116288185
1772810455914537700,1.270537841796875,0.0005326317623257637,-0.001864211168140173,-0.00026631588116288185
1772810455924417800,1.280417724609375,-0.0005326317623257637,-0.0007989476434886456,-0.0023968429304659367
1772810455934297600,1.290297607421875,0,0.0007989476434886456,0.0007989476434886456
1772810455944177400,1.300177490234375,-0.0026631588116288185,0.003994738217443228,-0.00026631588116288185
1772810455954057200,1.31005712890625,-0.0005326317623257637,0.001864211168140173,0.001864211168140173
1772810455963937000,1.31993701171875,0,0.001864211168140173,-0.0013315794058144093
1772810455973817000,1.329817138671875,-0.0010652635246515274,-0.00026631588116288185,0.0007989476434886456
1772810455983697000,1.33969677734375,0,-0.0013315794058144093,0.0007989476434886456
1772810455993576700,1.34957666015625,0.0010652635246515274,-0.00026631588116288185,-0.0013315794058144093
1772810456003456800,1.359456787109375,0,-0.00026631588116288185,-0.00026631588116288185
1772810456013336600,1.369336669921875,0,-0.00026631588116288185,-0.0023968429304659367
1772810456023216600,1.379216552734375,-0.0005326317623257637,-0.0007989476434886456,0.00026631588116288185
1772810456033096700,1.3890966796875,0,-0.00026631588116288185,-0.00026631588116288185
1772810456042976500,1.3989765625,-0.001597895286977291,-0.0007989476434886456,-0.0007989476434886456
1772810456052856600,1.408856689453125,0.0010652635246515274,-0.00026631588116288185,-0.00026631588116288185
1772810456062736600,1.418736572265625,0,-0.0007989476434886456,0.00026631588116288185
1772810456072616400,1.428616455078125,0.001597895286977291,0.0013315794058144093,0.001864211168140173
1772810456082496500,1.43849658203125,0.0010652635246515274,0.00026631588116288185,0.0013315794058144093
1772810456092376300,1.448376220703125,0,0.0013315794058144093,-0.00026631588116288185
1772810456102256400,1.45825634765625,0.0010652635246515274,0.0007989476434886456,-0.0007989476434886456
1772810456112136200,1.46813623046875,0.002130527049303055,-0.0007989476434886456,0.00026631588116288185
1772810456122016300,1.478016357421875,0.0010652635246515274,0.00026631588116288185,-0.0007989476434886456
1772810456131896300,1.487896240234375,-0.0005326317623257637,-0.0007989476434886456,-0.00026631588116288185
1772810456141776100,1.497776123046875,0.0010652635246515274,0.001864211168140173,0.0007989476434886456
1772810456151656200,1.50765625,0.0005326317623257637,0.0013315794058144093,-0.00026631588116288185
1772810456161536000,1.517535888671875,0,0.0013315794058144093,-0.00026631588116288185
1772810456171416000,1.527416015625,-0.0005326317623257637,0.003462106455117464,-0.00026631588116288185
1772810456181296000,1.537296142578125,0.0010652635246515274,-0.00026631588116288185,0.0007989476434886456
1772810456191176000,1.547176025390625,0.0005326317623257637,0.0013315794058144093,-0.0007989476434886456
1772810456201056000,1.557055908203125,0,0.0007989476434886456,0.0007989476434886456
1772810456210936000,1.56693603515625,0.0010652635246515274,0.00026631588116288185,-0.0007989476434886456
1772810456220816000,1.57681591796875,-0.0005326317623257637,-0.0007989476434886456,0.0007989476434886456
1772810456230696000,1.586696044921875,0,0.001864211168140173,-0.0007989476434886456
1772810456240575700,1.59657568359375,0.0005326317623257637,0.0007989476434886456,0.00026631588116288185
1772810456250455800,1.606455810546875,0.0005326317623257637,0.00026631588116288185,-0.0013315794058144093
1772810456260335600,1.616335693359375,0,-0.0013315794058144093,0.0007989476434886456
1772810456270215700,1.626215576171875,-0.0005326317623257637,-0.0007989476434886456,0.00026631588116288185
1772810456280095700,1.636095703125,0.0005326317623257637,0.00026631588116288185,0.0013315794058144093
1772810456289975600,1.6459755859375,0,0.0013315794058144093,-0.00026631588116288185
1772810456299855600,1.655855712890625,0.0010652635246515274,-0.00026631588116288185,0.0007989476434886456
1772810456309735700,1.665735595703125,0.0005326317623257637,0.001864211168140173,0.00026631588116288185
1772810456319615500,1.675615478515625,0.001597895286977291,0.0013315794058144093,-0.0007989476434886456
1772810456329495600,1.68549560546875,-0.0005326317623257637,0.0013315794058144093,-0.00026631588116288185
1772810456339375400,1.695375244140625,-0.0010652635246515274,0.0007989476434886456,-0.0007989476434886456
1772810456349255400,1.70525537109375,-0.001597895286977291,0.00026631588116288185,-0.0007989476434886456
1772810456359135500,1.715135498046875,-0.0010652635246515274,-0.00026631588116288185,0.0007989476434886456
1772810456369015300,1.725015380859375,0.0010652635246515274,-0.0007989476434886456,0.00026631588116288185
1772810456378895400,1.734895263671875,-0.002130527049303055,-0.0013315794058144093,0.0007989476434886456
1772810456388775200,1.744775146484375,-0.0005326317623257637,-0.00026631588116288185,-0.0007989476434886456
1772810456398655200,1.7546552734375,0.001597895286977291,-0.0007989476434886456,-0.0013315794058144093
1772810456408535300,1.764535400390625,0.0010652635246515274,-0.0023968429304659367,-0.00026631588116288185
1772810456418415000,1.7744150390625,0.0010652635246515274,0.001864211168140173,0.00026631588116288185
1772810456428295200,1.784295166015625,-0.001597895286977291,-0.0007989476434886456,-0.00026631588116288185
1772810456438175200,1.79417529296875,-0.002130527049303055,-0.0013315794058144093,-0.00026631588116288185
1772810456448055000,1.804054931640625,0.0010652635246515274,0.00026631588116288185,0.00026631588116288185
1772810456467815000,1.82381494140625,0,-0.0013315794058144093,-0.001864211168140173
1772810456477695000,1.833695068359375,-0.0005326317623257637,0.0013315794058144093,-0.0013315794058144093
1772810456487574800,1.84357470703125,-0.0010652635246515274,0.0007989476434886456,0.0007989476434886456
1772810456497454800,1.853454833984375,-0.0005326317623257637,-0.00026631588116288185,-0.0007989476434886456
1772810456507334400,1.86333447265625,-0.0005326317623257637,0.0013315794058144093,-0.0013315794058144093
1772810456517214200,1.873214111328125,-0.0005326317623257637,0.00026631588116288185,-0.00026631588116288185
1772810456527093800,1.88309375,0.0005326317623257637,0.00026631588116288185,0.0007989476434886456
1772810456536973600,1.8929736328125,0.0010652635246515274,0.0007989476434886456,0.00026631588116288185
1772810456546853000,1.90285302734375,0,-0.0007989476434886456,-0.0013315794058144093
1772810456556733000,1.91273291015625,-0.0010652635246515274,-0.0013315794058144093,-0.0007989476434886456
1772810456566612700,1.92261279296875,-0.0005326317623257637,-0.00026631588116288185,-0.00026631588116288185
1772810456576492300,1.9324921875,0.0005326317623257637,0.0013315794058144093,-0.0013315794058144093
1772810456586372000,1.9423720703125,0,-0.0013315794058144093,0.00026631588116288185
1772810456596251600,1.952251708984375,-0.0005326317623257637,-0.0007989476434886456,0.00026631588116288185
1772810456606131500,1.96213134765625,0,0.00026631588116288185,0.0007989476434886456
1772810456616011000,1.972010986328125,-0.0005326317623257637,-0.0007989476434886456,-0.00026631588116288185
1772810456625890800,1.981890869140625,0.0005326317623257637,0.00026631588116288185,-0.0007989476434886456
1772810456635770400,1.991770263671875,0.001597895286977291,-0.0007989476434886456,-0.0007989476434886456
1772810456645650200,2.001650146484375,-0.0005326317623257637,0.0007989476434886456,-0.00026631588116288185
1772810456655530000,2.011530029296875,-0.001597895286977291,0.0007989476434886456,0.00026631588116288185
1772810456665409500,2.021409423828125,0.0005326317623257637,-0.0013315794058144093,-0.00026631588116288185
1772810456675289300,2.031289306640625,0.0005326317623257637,-0.001864211168140173,0.00026631588116288185
1772810456685169000,2.0411689453125,-0.0005326317623257637,0.0007989476434886456,-0.00026631588116288185
1772810456695048700,2.051048583984375,-0.001597895286977291,-0.00026631588116288185,-0.00026631588116288185
1772810456704928500,2.060928466796875,-0.0005326317623257637,-0.00026631588116288185,-0.0013315794058144093
1772810456714808000,2.07080810546875,0,-0.0023968429304659367,-0.00026631588116288185
1772810456724688000,2.08068798828125,-0.0005326317623257637,0.003462106455117464,-0.00026631588116288185
1772810456734567400,2.0905673828125,-0.0005326317623257637,0.0007989476434886456,-0.0007989476434886456
1772810456744447200,2.100447265625,0.0005326317623257637,0.00026631588116288185,-0.00026631588116288185
1772810456754326800,2.110326904296875,-0.0010652635246515274,0.0007989476434886456,-0.00026631588116288185
1772810456764206600,2.12020654296875,-0.0010652635246515274,-0.0013315794058144093,0.00026631588116288185
1772810456774086100,2.130086181640625,0.0005326317623257637,-0.001864211168140173,-0.001864211168140173
1772810456783966000,2.139966064453125,0,-0.0007989476434886456,0.00026631588116288185
1772810456793845800,2.149845703125,-0.0010652635246515274,-0.00026631588116288185,-0.0007989476434886456
1772810456803725300,2.159725341796875,-0.002130527049303055,0.00026631588116288185,0.0007989476434886456
1772810456813605000,2.169605224609375,0,-0.00026631588116288185,0.001864211168140173
1772810456823484700,2.179484619140625,-0.0005326317623257637,-0.00026631588116288185,0.00026631588116288185
1772810456833364500,2.189364501953125,-0.0005326317623257637,-0.0013315794058144093,0.00026631588116288185
1772810456843244000,2.199244140625,0.0010652635246515274,0.00026631588116288185,-0.0013315794058144093
1772810456853123800,2.209123779296875,0.0010652635246515274,-0.0007989476434886456,0.00026631588116288185
1772810456863003400,2.21900341796875,0.0010652635246515274,0.00026631588116288185,-0.0007989476434886456
1772810456872883200,2.22888330078125,0.0005326317623257637,0.0007989476434886456,-0.00026631588116288185
1772810456882763000,2.238762939453125,0.0010652635246515274,0.00026631588116288185,-0.0013315794058144093
1772810456892642600,2.248642578125,0,-0.00026631588116288185,0.00026631588116288185
1772810456902522400,2.2585224609375,0.0005326317623257637,0.001864211168140173,-0.0007989476434886456
1772810456912402000,2.26840185546875,0.0010652635246515274,-0.0013315794058144093,-0.00026631588116288185
1772810456922281700,2.27828173828125,-0.0005326317623257637,0.0007989476434886456,0.0007989476434886456
1772810456932161300,2.288161376953125,0.001597895286977291,-0.00026631588116288185,0.0013315794058144093
1772810456942041000,2.298041015625,0.0010652635246515274,0.00026631588116288185,0.00026631588116288185
1772810456951921000,2.3079208984375,0,0.00026631588116288185,-0.0007989476434886456
1772810456961800400,2.317800537109375,0.0005326317623257637,-0.00026631588116288185,0.00026631588116288185
1772810456971680300,2.32768017578125,0.001597895286977291,-0.00026631588116288185,0.00026631588116288185
1772810456981559800,2.337559814453125,0,-0.00026631588116288185,0.00026631588116288185
1772810456991439600,2.347439697265625,0.0005326317623257637,-0.00026631588116288185,-0.0013315794058144093
1772810457001319400,2.3573193359375,0.0005326317623257637,0.0007989476434886456,0.0007989476434886456
1772810457011199500,2.367199462890625,0,0.0007989476434886456,0.0007989476434886456
1772810457021079600,2.37707958984375,0,0.0007989476434886456,-0.00026631588116288185
1772810457030959600,2.386959716796875,0,0.00026631588116288185,-0.0007989476434886456
1772810457040839700,2.396839599609375,-0.0010652635246515274,0.00026631588116288185,-0.00026631588116288185
1772810457050719700,2.4067197265625,-0.0010652635246515274,0.00026631588116288185,-0.0007989476434886456
1772810457060599800,2.416599853515625,-0.001597895286977291,0.001864211168140173,0.0007989476434886456
1772810457070480000,2.42647998046875,0.001597895286977291,-0.001864211168140173,-0.00026631588116288185
1772810457080359700,2.436359619140625,0.0010652635246515274,-0.00026631588116288185,-0.0007989476434886456
1772810457090239700,2.44623974609375,0.001597895286977291,0.00026631588116288185,-0.0013315794058144093
1772810457100119800,2.456119873046875,0.001597895286977291,0.0007989476434886456,0.00026631588116288185
1772810457109999900,2.465999755859375,-0.0010652635246515274,-0.00026631588116288185,-0.0007989476434886456
1772810457119880000,2.4758798828125,-0.0005326317623257637,0.00026631588116288185,0.0009321055840700865
1772810457129760000,2.485760009765625,-0.0005326317623257637,-0.0013315794058144093,-0.00013315794058144093
1772810457139640000,2.49564013671875,-0.0026631588116288185,-0.001864211168140173,0.0009321055840700865
1772810457149520100,2.50552001953125,0.001597895286977291,0.0007989476434886456,-0.0006657897029072046
1772810457159400200,2.515400146484375,-0.0010652635246515274,-0.0007989476434886456,0.0009321055840700865
1772810457169280000,2.525280029296875,-0.0005326317623257637,-0.0013315794058144093,-0.0006657897029072046
1772810457179160000,2.53516015625,-0.0005326317623257637,0.001864211168140173,-0.00013315794058144093
1772810457189040000,2.5450400390625,-0.0010652635246515274,0.0013315794058144093,-0.0006657897029072046
1772810457198920200,2.554920166015625,0,0.00026631588116288185,0.0009321055840700865
1772810457208800300,2.56480029296875,-0.0005326317623257637,0.00026631588116288185,0.0003994738217443228
1772810457218680300,2.574680419921875,0,0.0013315794058144093,0.0003994738217443228
1772810457228560400,2.584560302734375,0.0005326317623257637,0.0007989476434886456,0.0003994738217443228
1772810457238440400,2.5944404296875,-0.001597895286977291,0.0007989476434886456,-0.0006657897029072046
1772810457248320300,2.6043203125,0.0010652635246515274,0.001864211168140173,0.0009321055840700865
1772810457258200300,2.614200439453125,0.0010652635246515274,-0.0013315794058144093,-0.00013315794058144093
1772810457268080400,2.624080322265625,0,-0.00026631588116288185,-0.0022636849898844957
1772810457277960400,2.63396044921875,0,-0.00026631588116288185,0.0003994738217443228
1772810457287840500,2.643840576171875,-0.0005326317623257637,0.00026631588116288185,0.0025300008710473776
1772810457297720600,2.653720458984375,-0.001597895286977291,0.0013315794058144093,-0.0006657897029072046
1772810457307600600,2.6636005859375,-0.0005326317623257637,-0.00026631588116288185,-0.0011984214652329683
1772810457317480700,2.673480712890625,0,0.001864211168140173,-0.00013315794058144093
1772810457327360500,2.683360595703125,0,-0.00026631588116288185,-0.0006657897029072046
1772810457337240600,2.693240478515625,-0.001597895286977291,0.0007989476434886456,0.0025300008710473776
1772810457347120600,2.70312060546875,-0.0010652635246515274,-0.00026631588116288185,0.0009321055840700865
1772810457357000700,2.713000732421875,-0.0010652635246515274,0.00026631588116288185,0.0009321055840700865
1772810457366880800,2.722880859375,0,0.0007989476434886456,-0.0006657897029072046
1772810457376760800,2.7327607421875,0,-0.00026631588116288185,0.0009321055840700865
1772810457386641000,2.742640869140625,-0.0010652635246515274,-0.0007989476434886456,0.0009321055840700865
1772810457396521000,2.75252099609375,-0.0005326317623257637,0.00026631588116288185,-0.001731053227558732
1772810457406401000,2.762401123046875,-0.0010652635246515274,0.001864211168140173,-0.00013315794058144093
1772810457416280800,2.77228076171875,-0.0005326317623257637,0.00026631588116288185,0.0009321055840700865
1772810457426161000,2.782160888671875,-0.0005326317623257637,-0.00026631588116288185,-0.00013315794058144093
1772810457436041000,2.792041015625,-0.0010652635246515274,0.00026631588116288185,0.0003994738217443228
1772810457445921000,2.801921142578125,-0.0005326317623257637,0.0007989476434886456,0.0003994738217443228
1772810457455801000,2.811801025390625,0,-0.0013315794058144093,-0.0006657897029072046
1772810457465681200,2.82168115234375,-0.001597895286977291,0.0007989476434886456,0.0009321055840700865
1772810457475561200,2.831561279296875,-0.0005326317623257637,-0.00026631588116288185,-0.00013315794058144093
1772810457485441300,2.841441162109375,-0.0005326317623257637,-0.0007989476434886456,-0.00013315794058144093
1772810457495321000,2.851321044921875,0,0.0007989476434886456,0.0009321055840700865
1772810457505201200,2.861201171875,-0.0005326317623257637,-0.001864211168140173,-0.00013315794058144093
1772810457515081200,2.871081298828125,-0.0010652635246515274,0.00026631588116288185,0.0003994738217443228
1772810457524961000,2.8809609375,0,0.00026631588116288185,0.0003994738217443228
1772810457534841000,2.890841064453125,-0.0005326317623257637,0.0013315794058144093,0.0009321055840700865
1772810457544721000,2.900720947265625,-0.0005326317623257637,0.00026631588116288185,-0.0011984214652329683
1772810457554601000,2.91060107421875,-0.0005326317623257637,0.001864211168140173,0.0003994738217443228
1772810457564480800,2.920480712890625,0.0026631588116288185,-0.0007989476434886456,-0.0022636849898844957
1772810457574360800,2.93036083984375,0.0010652635246515274,0.0007989476434886456,-0.00013315794058144093
1772810457584240600,2.94024072265625,0,0.00026631588116288185,0.0003994738217443228
1772810457594120700,2.95012060546875,0,0.0013315794058144093,-0.001731053227558732
1772810457604000500,2.96000048828125,-0.0010652635246515274,-0.0007989476434886456,0.0003994738217443228
1772810457613880600,2.969880615234375,-0.0005326317623257637,0.001864211168140173,0.0003994738217443228
1772810457623760600,2.9797607421875,0,0.001864211168140173,-0.00013315794058144093
1772810457633640400,2.989640380859375,-0.0005326317623257637,0.00026631588116288185,-0.0022636849898844957
1772810457643520300,2.999520263671875,0.003195790573954582,0.0013315794058144093,0.0003994738217443228
1772810457653400300,3.009400390625,-0.0010652635246515274,-0.0007989476434886456,-0.00013315794058144093
1772810457663280400,3.0192802734375,0.0005326317623257637,0.001864211168140173,0.0009321055840700865
1772810457673160200,3.02916015625,-0.0005326317623257637,-0.0007989476434886456,0.0009321055840700865
1772810457683040300,3.039040283203125,0.0005326317623257637,0.001864211168140173,-0.00013315794058144093
1772810457692920000,3.048920166015625,-0.0010652635246515274,-0.00026631588116288185,-0.00013315794058144093
1772810457702800100,3.058800048828125,-0.0010652635246515274,0.00026631588116288185,-0.00013315794058144093
1772810457712680000,3.068679931640625,0.0005326317623257637,-0.001864211168140173,-0.0011984214652329683
1772810457722560000,3.07856005859375,0.0010652635246515274,-0.0007989476434886456,-0.00013315794058144093
1772810457732439800,3.088439697265625,0,0.0013315794058144093,-0.0006657897029072046
1772810457742319900,3.09831982421875,0,-0.0007989476434886456,-0.0006657897029072046
1772810457752199700,3.10819970703125,0.001597895286977291,-0.001864211168140173,0.0003994738217443228
1772810457762079700,3.118079833984375,-0.0005326317623257637,0.0013315794058144093,-0.00013315794058144093
1772810457771959800,3.127959716796875,0.0005326317623257637,0.0007989476434886456,-0.0011984214652329683
1772810457781839600,3.137839599609375,-0.0010652635246515274,-0.0007989476434886456,0.0003994738217443228
1772810457791719400,3.147719482421875,-0.0005326317623257637,0.0007989476434886456,0.0014647373463958502
1772810457801599500,3.157599609375,0,-0.00026631588116288185,-0.00013315794058144093
1772810457811479600,3.1674794921875,0.0005326317623257637,0.00026631588116288185,0.0009321055840700865
1772810457821359400,3.177359375,0.0005326317623257637,-0.0029294746927917004,-0.00013315794058144093
1772810457831239400,3.187239501953125,0.0005326317623257637,0.0007989476434886456,-0.00013315794058144093
1772810457841119200,3.197119140625,0.001597895286977291,-0.00026631588116288185,-0.0006657897029072046
1772810457850999300,3.206999267578125,0.0005326317623257637,0.0013315794058144093,0.0014647373463958502
1772810457860879000,3.216879150390625,0,-0.00026631588116288185,-0.00013315794058144093
1772810457870759200,3.22675927734375,-0.001597895286977291,0.0007989476434886456,-0.0006657897029072046
1772810457880639000,3.236638916015625,-0.0005326317623257637,0.001864211168140173,-0.0006657897029072046
1772810457890519000,3.24651904296875,0,0.00026631588116288185,-0.0011984214652329683
1772810457900398800,3.25639892578125,0,0.0007989476434886456,0.0009321055840700865
1772810457910279000,3.26627880859375,-0.001597895286977291,0.00026631588116288185,0.0003994738217443228
1772810457920159000,3.276158935546875,0.001597895286977291,-0.00026631588116288185,-0.00013315794058144093
1772810457930038800,3.286038818359375,-0.0010652635246515274,0.00026631588116288185,0.001997369108721614
1772810457939918600,3.295918701171875,0.0005326317623257637,-0.0013315794058144093,-0.00013315794058144093
1772810457949798700,3.305798583984375,0.0005326317623257637,-0.0007989476434886456,0.0003994738217443228
1772810457959678700,3.3156787109375,0.0005326317623257637,0.00026631588116288185,-0.00013315794058144093
1772810457969558500,3.32555859375,0.0005326317623257637,-0.001864211168140173,-0.00013315794058144093
1772810457979438600,3.3354384765625,-0.001597895286977291,0.001864211168140173,0.0009321055840700865
1772810457989318400,3.345318359375,0,0.0029294746927917004,-0.00013315794058144093
1772810457999198700,3.35519873046875,-0.0005326317623257637,-0.0007989476434886456,-0.0011984214652329683
1772810458009079300,3.365079345703125,-0.0005326317623257637,-0.00026631588116288185,-0.0006657897029072046
1772810458018960000,3.3749599609375,-0.0005326317623257637,-0.00026631588116288185,0.0003994738217443228
1772810458028840700,3.3848408203125,0.0005326317623257637,0.0007989476434886456,0.001997369108721614
1772810458038721300,3.39472119140625,-0.0010652635246515274,-0.00026631588116288185,0.0009321055840700865
1772810458048602000,3.40460205078125,0,0.00026631588116288185,0.0014647373463958502
1772810458058482700,3.414482666015625,0,0.00026631588116288185,-0.0006657897029072046
1772810458068363300,3.42436328125,0.0005326317623257637,0.001864211168140173,0.0014647373463958502
1772810458078244000,3.434244140625,0,-0.001864211168140173,0.0009321055840700865
1772810458088124700,3.444124755859375,-0.0010652635246515274,0.0013315794058144093,-0.0006657897029072046
1772810458098005500,3.454005615234375,-0.0005326317623257637,-0.0013315794058144093,-0.00013315794058144093
1772810458107886000,3.463885986328125,0.0005326317623257637,-0.0007989476434886456,0.0009321055840700865
1772810458117766700,3.4737666015625,-0.0005326317623257637,0.0007989476434886456,-0.0011984214652329683
1772810458127647200,3.483647216796875,0.001597895286977291,-0.00026631588116288185,-0.0006657897029072046
1772810458137528000,3.493528076171875,0.0005326317623257637,-0.0013315794058144093,-0.0006657897029072046
1772810458147408600,3.50340869140625,0.0010652635246515274,0.0007989476434886456,0.0003994738217443228
1772810458157289500,3.51328955078125,-0.0010652635246515274,-0.00026631588116288185,-0.00013315794058144093
1772810458167170000,3.523170166015625,-0.0010652635246515274,-0.001864211168140173,-0.0006657897029072046
1772810458177050600,3.533050537109375,0,0.00026631588116288185,-0.0011984214652329683
1772810458186931500,3.542931396484375,0,-0.0007989476434886456,0.0003994738217443228
1772810458196812000,3.55281201171875,0.0010652635246515274,-0.00026631588116288185,-0.00013315794058144093
1772810458206692900,3.56269287109375,0.001597895286977291,0.00026631588116288185,0.0003994738217443228
1772810458216573400,3.572573486328125,-0.002130527049303055,0.001864211168140173,0.0003994738217443228
1772810458226454000,3.5824541015625,0,0.0007989476434886456,-0.0011984214652329683
1772810458236334800,3.5923349609375,-0.0005326317623257637,-0.00026631588116288185,-0.00013315794058144093
1772810458246215400,3.60221533203125,-0.0010652635246515274,-0.00026631588116288185,0.0003994738217443228
1772810458256096000,3.612095947265625,0,-0.00026631588116288185,-0.001731053227558732
1772810458265976800,3.621976806640625,-0.0010652635246515274,0.00026631588116288185,-0.00013315794058144093
1772810458275857400,3.631857421875,-0.0010652635246515274,-0.0023968429304659367,0.0009321055840700865
1772810458285738200,3.64173828125,-0.0005326317623257637,0.0013315794058144093,0.0009321055840700865
1772810458295618800,3.651618896484375,-0.0005326317623257637,0.0007989476434886456,0.0003994738217443228
1772810458305499400,3.66149951171875,0.0005326317623257637,-0.00026631588116288185,0.0003994738217443228
1772810458315380200,3.671380126953125,0,0.0023968429304659367,0.0009321055840700865
1772810458325260800,3.6812607421875,-0.0010652635246515274,-0.00026631588116288185,-0.0027963167522102594
1772810458335141600,3.6911416015625,-0.0010652635246515274,-0.0013315794058144093,-0.0006657897029072046
1772810458345022200,3.701022216796875,0.0010652635246515274,0.0007989476434886456,-0.00013315794058144093
1772810458354902800,3.71090283203125,-0.0010652635246515274,-0.00026631588116288185,0.0009321055840700865
1772810458364783600,3.72078369140625,-0.0010652635246515274,0.00026631588116288185,0.0003994738217443228
1772810458374664200,3.730664306640625,0,0.0007989476434886456,-0.0006657897029072046
1772810458384544800,3.740544677734375,-0.0010652635246515274,-0.0013315794058144093,-0.00013315794058144093
1772810458394425600,3.750425537109375,0,0.00026631588116288185,-0.00013315794058144093
1772810458404306200,3.76030615234375,-0.001597895286977291,0.001864211168140173,-0.00013315794058144093
1772810458414187000,3.77018701171875,0.0005326317623257637,0.0013315794058144093,-0.00013315794058144093
1772810458424067600,3.780067626953125,-0.0010652635246515274,0.0007989476434886456,-0.0006657897029072046
1772810458433948200,3.7899482421875,0.0005326317623257637,-0.00026631588116288185,0.0014647373463958502
1772810458443829000,3.7998291015625,0.0005326317623257637,-0.0013315794058144093,-0.0011984214652329683
1772810458453709600,3.80970947265625,0.0005326317623257637,0.0007989476434886456,-0.00013315794058144093
1772810458463590400,3.81959033203125,0.0010652635246515274,-0.001864211168140173,0.0009321055840700865
1772810458473471000,3.829470947265625,-0.0005326317623257637,0.0007989476434886456,-0.00013315794058144093
1772810458483351600,3.8393515625,0.0005326317623257637,-0.00026631588116288185,0.0009321055840700865
1772810458493232000,3.849232177734375,0.0026631588116288185,-0.0007989476434886456,0.0009321055840700865
1772810458503112200,3.8591123046875,0.002130527049303055,-0.00026631588116288185,0.001997369108721614
1772810458512992000,3.868991943359375,-0.0005326317623257637,0.0007989476434886456,-0.00013315794058144093
1772810458522872000,3.8788720703125,-0.0010652635246515274,-0.00026631588116288185,0.0014647373463958502
1772810458532752000,3.888751953125,0.0010652635246515274,-0.00026631588116288185,0.0003994738217443228
1772810458542631700,3.898631591796875,-0.0005326317623257637,-0.00026631588116288185,-0.0011984214652329683
1772810458552511500,3.908511474609375,0.0005326317623257637,-0.0007989476434886456,0.0003994738217443228
1772810458562391600,3.9183916015625,-0.0010652635246515274,0.0013315794058144093,-0.00013315794058144093
1772810458572271400,3.928271240234375,-0.001597895286977291,0.00026631588116288185,0.0009321055840700865
1772810458582151200,3.938151123046875,0,0.0013315794058144093,0.0014647373463958502
1772810458592031200,3.94803125,0,0.00026631588116288185,0.0003994738217443228
1772810458601911000,3.9579111328125,0,-0.0007989476434886456,-0.00013315794058144093
1772810458611790800,3.967790771484375,-0.0005326317623257637,-0.0007989476434886456,0.0009321055840700865
1772810458621670700,3.977670654296875,0,-0.00026631588116288185,-0.0006657897029072046
1772810458631550500,3.987550537109375,-0.0005326317623257637,0.0007989476434886456,0.0009321055840700865
1772810458641430500,3.997430419921875,0,-0.00026631588116288185,0.0009321055840700865
1772810458651310300,4.007310302734375,-0.0005326317623257637,0.0013315794058144093,-0.00013315794058144093
1772810458661190100,4.017190185546875,0.002130527049303055,-0.0013315794058144093,-0.00013315794058144093
1772810458671070000,4.027070068359375,-0.0010652635246515274,-0.0007989476434886456,-0.001731053227558732
1772810458680950000,4.036949951171875,-0.0010652635246515274,-0.00026631588116288185,0.001997369108721614
1772810458690829800,4.046829833984375,-0.001597895286977291,0.001864211168140173,0.0009321055840700865
1772810458700709600,4.056709716796875,0.0005326317623257637,-0.00026631588116288185,0.0003994738217443228
1772810458710589400,4.06658935546875,-0.003195790573954582,0.0007989476434886456,0.0009321055840700865
1772810458720469500,4.076469482421875,-0.0005326317623257637,-0.0007989476434886456,-0.0006657897029072046
1772810458730349300,4.086349365234375,0.0010652635246515274,-0.001864211168140173,0.0009321055840700865
1772810458740229000,4.09622900390625,0,0.001864211168140173,-0.0006657897029072046
1772810458759989000,4.115989013671875,0,0.0007989476434886456,-0.0006657897029072046
1772810458769868800,4.125868896484375,0,-0.0007989476434886456,0.0003994738217443228
1772810458779748600,4.13574853515625,-0.0005326317623257637,0.0007989476434886456,-0.0006657897029072046
1772810458789628700,4.145628662109375,0.0010652635246515274,0.0007989476434886456,0.0003994738217443228
1772810458799508500,4.155508544921875,-0.0010652635246515274,-0.00026631588116288185,0.0003994738217443228
1772810458809388300,4.16538818359375,0,0.0007989476434886456,-0.0006657897029072046
1772810458829148200,4.185148193359375,0,0.00026631588116288185,-0.0011984214652329683
1772810458839028000,4.195028076171875,-0.001597895286977291,0.0013315794058144093,-0.0006657897029072046
1772810458848907800,4.20490771484375,0,-0.00026631588116288185,-0.0011984214652329683
1772810458858787600,4.21478759765625,-0.0010652635246515274,-0.0013315794058144093,-0.0011984214652329683
1772810458868667400,4.22466748046875,0.0005326317623257637,-0.00026631588116288185,-0.0011984214652329683
1772810458878547500,4.23454736328125,0,0.0029294746927917004,-0.00013315794058144093
1772810458888427300,4.24442724609375,0.0005326317623257637,0.0007989476434886456,0.0009321055840700865
1772810458898307000,4.25430712890625,-0.0003994738217443228,0.00013315794058144093,-0.00013315794058144093
1772810458908187100,4.264187255859375,0.0011984214652329683,0.0011984214652329683,-0.00013315794058144093
1772810458918067000,4.27406689453125,0.0006657897029072046,0.0011984214652329683,-0.00013315794058144093
1772810458927946800,4.28394677734375,-0.0003994738217443228,0.0006657897029072046,-0.00013315794058144093
1772810458937826600,4.29382666015625,-0.0003994738217443228,0.00013315794058144093,0.0009321055840700865
1772810458947706600,4.30370654296875,0.0006657897029072046,0.0006657897029072046,-0.0006657897029072046
1772810458957586400,4.31358642578125,0.00013315794058144093,0.001731053227558732,-0.0006657897029072046
1772810458967466200,4.32346630859375,-0.0003994738217443228,-0.0014647373463958502,0.0003994738217443228
1772810458977346000,4.333345947265625,0.0006657897029072046,-0.0014647373463958502,-0.001731053227558732
1772810458987226000,4.34322607421875,-0.0009321055840700865,0.001731053227558732,0.0003994738217443228
1772810458997106000,4.35310595703125,0.0011984214652329683,-0.0014647373463958502,-0.0006657897029072046
1772810459006985500,4.3629853515625,-0.0003994738217443228,0.00013315794058144093,-0.00013315794058144093
1772810459016865000,4.372864990234375,0.0006657897029072046,0.0011984214652329683,0.0003994738217443228
1772810459026744600,4.38274462890625,-0.0003994738217443228,-0.0009321055840700865,0.0009321055840700865
1772810459036624400,4.392624267578125,0.0006657897029072046,0.00013315794058144093,0.0009321055840700865
1772810459046504000,4.40250390625,0.00013315794058144093,-0.0009321055840700865,0.0003994738217443228
1772810459056383500,4.412383544921875,-0.0009321055840700865,-0.0014647373463958502,-0.0011984214652329683
1772810459066263300,4.42226318359375,0.001731053227558732,0.00013315794058144093,-0.00013315794058144093
1772810459076142800,4.432142822265625,0.00013315794058144093,0.0006657897029072046,-0.001731053227558732
1772810459086022700,4.442022705078125,-0.0003994738217443228,0.00013315794058144093,0.0009321055840700865
1772810459095902200,4.451902099609375,-0.0003994738217443228,0.0011984214652329683,-0.0011984214652329683
1772810459105781800,4.46178173828125,-0.0003994738217443228,0.001731053227558732,-0.0006657897029072046
1772810459115661600,4.47166162109375,-0.0003994738217443228,-0.0003994738217443228,-0.00013315794058144093
1772810459125541000,4.481541015625,0.0006657897029072046,-0.0003994738217443228,0.0003994738217443228
1772810459135420700,4.491420654296875,-0.0003994738217443228,0.0006657897029072046,0.0009321055840700865
1772810459145300500,4.501300537109375,-0.0003994738217443228,0.0006657897029072046,0.0003994738217443228
1772810459155180000,4.511179931640625,0.00013315794058144093,-0.0014647373463958502,-0.0006657897029072046
1772810459165059600,4.5210595703125,0.00013315794058144093,-0.0009321055840700865,-0.00013315794058144093
1772810459174939400,4.530939453125,0.00013315794058144093,-0.0003994738217443228,0.0003994738217443228
1772810459184819000,4.54081884765625,-0.0003994738217443228,-0.0003994738217443228,-0.00013315794058144093
1772810459194698500,4.550698486328125,-0.0003994738217443228,-0.0009321055840700865,0.0003994738217443228
1772810459204578300,4.560578369140625,-0.0009321055840700865,0.001731053227558732,0.0014647373463958502
1772810459214457900,4.570457763671875,0.0006657897029072046,0.0011984214652329683,-0.00013315794058144093
1772810459224337400,4.58033740234375,-0.0003994738217443228,-0.0003994738217443228,0.0009321055840700865
1772810459234217200,4.59021728515625,-0.0003994738217443228,0.0011984214652329683,-0.0006657897029072046
1772810459244096800,4.6000966796875,-0.0025300008710473776,0.0011984214652329683,-0.0006657897029072046
1772810459253976300,4.609976318359375,0.0006657897029072046,0.0006657897029072046,-0.00013315794058144093
1772810459263856000,4.619856201171875,0.0011984214652329683,0.0006657897029072046,0.001997369108721614
1772810459273735700,4.629735595703125,0.001731053227558732,0.0006657897029072046,0.0009321055840700865
1772810459283615200,4.639615234375,-0.0003994738217443228,-0.001997369108721614,0.0003994738217443228
1772810459293495000,4.6494951171875,-0.0003994738217443228,0.0011984214652329683,-0.0006657897029072046
1772810459303374600,4.65937451171875,0.00013315794058144093,-0.0009321055840700865,-0.0006657897029072046
1772810459313254400,4.66925439453125,0.0011984214652329683,-0.0003994738217443228,-0.00013315794058144093
1772810459323134000,4.679134033203125,0.0006657897029072046,-0.0014647373463958502,0.0014647373463958502
1772810459333013500,4.689013427734375,0.00013315794058144093,0.0011984214652329683,-0.00013315794058144093
1772810459342893300,4.698893310546875,0.00013315794058144093,-0.0014647373463958502,0.0009321055840700865
1772810459352772900,4.70877294921875,-0.0014647373463958502,-0.0009321055840700865,0.0003994738217443228
1772810459362652400,4.71865234375,0.0006657897029072046,-0.001997369108721614,0.0025300008710473776
1772810459372532200,4.7285322265625,-0.0003994738217443228,0.00013315794058144093,0.0003994738217443228
1772810459382411800,4.738411865234375,0.00013315794058144093,-0.001997369108721614,-0.00013315794058144093
1772810459392291300,4.748291259765625,0.0006657897029072046,-0.0014647373463958502,-0.0006657897029072046
1772810459402171000,4.7581708984375,-0.0014647373463958502,-0.0014647373463958502,-0.0011984214652329683
1772810459412050700,4.76805078125,-0.001997369108721614,-0.0009321055840700865,-0.00013315794058144093
1772810459421930200,4.77793017578125,0.00013315794058144093,0.0011984214652329683,-0.00013315794058144093
1772810459431810000,4.78781005859375,0.0006657897029072046,-0.0009321055840700865,0.0014647373463958502
1772810459441689600,4.797689697265625,0.00013315794058144093,0.00013315794058144093,0.0014647373463958502
1772810459451569200,4.807569091796875,-0.0009321055840700865,-0.001997369108721614,-0.00013315794058144093
1772810459461449000,4.817448974609375,-0.0009321055840700865,-0.0003994738217443228,0.0003994738217443228
1772810459471328500,4.82732861328125,0.00013315794058144093,-0.0009321055840700865,-0.00013315794058144093
1772810459481208000,4.8372080078125,0.0006657897029072046,-0.0003994738217443228,-0.00013315794058144093
1772810459491088000,4.847087890625,0.0006657897029072046,0.0006657897029072046,-0.0006657897029072046
1772810459500967700,4.8569677734375,-0.0009321055840700865,0.0022636849898844957,-0.0006657897029072046
1772810459510847700,4.86684765625,0.0006657897029072046,0.00013315794058144093,-0.00013315794058144093
1772810459520727800,4.876727783203125,-0.0003994738217443228,-0.0003994738217443228,0.0003994738217443228
1772810459530607900,4.88660791015625,0.0006657897029072046,-0.001997369108721614,-0.00013315794058144093
1772810459540488000,4.896488037109375,0.00013315794058144093,0.00013315794058144093,0.0009321055840700865
1772810459550368000,4.906367919921875,0.0006657897029072046,0.00013315794058144093,-0.0006657897029072046
1772810459560247800,4.916247802734375,0.00013315794058144093,-0.0014647373463958502,0.0003994738217443228
1772810459570128000,4.9261279296875,0.0006657897029072046,-0.0003994738217443228,-0.0011984214652329683
1772810459580008200,4.93600830078125,0.0006657897029072046,0.00013315794058144093,-0.00013315794058144093
1772810459589888300,4.94588818359375,-0.0003994738217443228,-0.0003994738217443228,0.0003994738217443228
1772810459599768000,4.95576806640625,-0.001997369108721614,0.00013315794058144093,-0.00013315794058144093
1772810459609648000,4.965648193359375,0.00013315794058144093,0.001731053227558732,0.0009321055840700865
1772810459619528200,4.975528076171875,-0.0009321055840700865,-0.0009321055840700865,0.0003994738217443228
1772810459629408300,4.985408203125,-0.0003994738217443228,-0.0009321055840700865,0.0003994738217443228
1772810459639288300,4.995288330078125,0.0006657897029072046,-0.0009321055840700865,0.0009321055840700865
1772810459649168400,5.00516845703125,-0.001997369108721614,-0.0003994738217443228,0.0009321055840700865
1772810459659048400,5.01504833984375,-0.0014647373463958502,-0.0009321055840700865,-0.001731053227558732
1772810459668928500,5.024928466796875,-0.0003994738217443228,0.00013315794058144093,-0.0006657897029072046
1772810459678808600,5.03480859375,0.00013315794058144093,-0.0009321055840700865,0.0003994738217443228
1772810459688688600,5.044688720703125,-0.0003994738217443228,0.00013315794058144093,-0.0006657897029072046
1772810459708448800,5.06444873046875,0.00013315794058144093,0.0006657897029072046,0.0014647373463958502
1772810459718328800,5.074328857421875,-0.0009321055840700865,-0.0003994738217443228,-0.00013315794058144093
1772810459728209000,5.084208984375,-0.0009321055840700865,0.0022636849898844957,0.0003994738217443228
1772810459738089000,5.0940888671875,0.00013315794058144093,0.0006657897029072046,0.0003994738217443228
1772810459747969000,5.103968994140625,0.0011984214652329683,0.0006657897029072046,0.0009321055840700865
1772810459757849000,5.11384912109375,0.0006657897029072046,-0.0003994738217443228,-0.0011984214652329683
1772810459767729200,5.123729248046875,-0.001997369108721614,-0.0009321055840700865,-0.0006657897029072046
1772810459777609200,5.133609130859375,0.00013315794058144093,-0.0014647373463958502,-0.00013315794058144093
1772810459787489300,5.1434892578125,0.0006657897029072046,-0.0009321055840700865,0.0003994738217443228
1772810459797369300,5.153369384765625,0.00013315794058144093,-0.0003994738217443228,-0.0006657897029072046
1772810459807249400,5.16324951171875,0.0006657897029072046,0.00013315794058144093,-0.00013315794058144093
1772810459817129500,5.17312939453125,0.0011984214652329683,0.00013315794058144093,-0.00013315794058144093
1772810459827009500,5.183009521484375,-0.0009321055840700865,-0.0003994738217443228,-0.0006657897029072046
1772810459836889600,5.1928896484375,0.00013315794058144093,-0.0009321055840700865,-0.0006657897029072046
1772810459846769700,5.202769775390625,-0.0003994738217443228,-0.0014647373463958502,-0.00013315794058144093
1772810459856649500,5.2126494140625,0.00013315794058144093,-0.0003994738217443228,-0.0006657897029072046
1772810459866529500,5.222529541015625,0.0006657897029072046,0.00013315794058144093,-0.0011984214652329683
1772810459876409600,5.23240966796875,0.0011984214652329683,0.001731053227558732,0.0003994738217443228
1772810459886289700,5.24228955078125,-0.0003994738217443228,0.00013315794058144093,-0.00013315794058144093
1772810459896169700,5.252169677734375,0.0006657897029072046,-0.0003994738217443228,-0.00013315794058144093
1772810459906049800,5.2620498046875,-0.0009321055840700865,0.00013315794058144093,-0.0006657897029072046
1772810459915929900,5.271929931640625,-0.0009321055840700865,0.00013315794058144093,-0.0006657897029072046
1772810459925810000,5.281809814453125,-0.0003994738217443228,0.001731053227558732,0.0014647373463958502
1772810459935690000,5.29168994140625,0.00013315794058144093,0.00013315794058144093,-0.0011984214652329683
1772810459945570000,5.301570068359375,0.00013315794058144093,-0.0014647373463958502,0.0003994738217443228
1772810459955450000,5.3114501953125,0.0006657897029072046,0.0006657897029072046,-0.0006657897029072046
1772810459965330200,5.321330078125,0.0006657897029072046,0.0011984214652329683,0.0003994738217443228
1772810459975210200,5.331210205078125,-0.0009321055840700865,-0.0003994738217443228,0.0003994738217443228
1772810459985090300,5.34109033203125,-0.0003994738217443228,-0.0003994738217443228,0.0009321055840700865
1772810459994970400,5.350970458984375,-0.0014647373463958502,-0.0009321055840700865,0.0009321055840700865
1772810460004851000,5.360850830078125,0.0011984214652329683,0.00013315794058144093,-0.00013315794058144093
1772810460014731300,5.370731201171875,0.0006657897029072046,0.0006657897029072046,-0.0011984214652329683
1772810460024611800,5.38061181640625,-0.0014647373463958502,0.0006657897029072046,-0.0006657897029072046
1772810460034492400,5.390492431640625,-0.0003994738217443228,-0.0003994738217443228,-0.0022636849898844957
1772810460044373000,5.400373046875,-0.0009321055840700865,0.0006657897029072046,0.0003994738217443228
1772810460054253600,5.410253662109375,0.0006657897029072046,-0.0014647373463958502,0.0014647373463958502
1772810460064134100,5.420134033203125,-0.0014647373463958502,0.001731053227558732,0.0014647373463958502
1772810460074014500,5.430014404296875,-0.0003994738217443228,0.00013315794058144093,-0.0006657897029072046
1772810460083895000,5.43989501953125,0.00013315794058144093,-0.001997369108721614,0.0003994738217443228
1772810460093775600,5.449775634765625,-0.0009321055840700865,-0.0003994738217443228,0.0014647373463958502
1772810460103656200,5.45965625,-0.0003994738217443228,-0.0014647373463958502,0.0003994738217443228
1772810460113536500,5.46953662109375,0.00013315794058144093,0.0006657897029072046,0.0003994738217443228
1772810460123417000,5.4794169921875,-0.0003994738217443228,0.0011984214652329683,0.0014647373463958502
1772810460133297700,5.489297607421875,0.0011984214652329683,-0.0003994738217443228,-0.0006657897029072046
1772810460143178200,5.49917822265625,-0.0003994738217443228,0.00013315794058144093,-0.0006657897029072046
1772810460153058800,5.509058837890625,0.0011984214652329683,-0.0030626326333731413,0.0003994738217443228
1772810460162939400,5.518939453125,0.0006657897029072046,0.0011984214652329683,0.0009321055840700865
1772810460172819700,5.52881982421875,-0.0003994738217443228,0.0006657897029072046,0.0009321055840700865
1772810460182700300,5.5387001953125,-0.0009321055840700865,0.00013315794058144093,-0.001731053227558732
1772810460192580900,5.548580810546875,0.00013315794058144093,0.0011984214652329683,-0.00013315794058144093
1772810460202461400,5.55846142578125,0.0022636849898844957,-0.0009321055840700865,-0.00013315794058144093
1772810460212341800,5.568341796875,-0.0003994738217443228,0.00013315794058144093,-0.0006657897029072046
1772810460222222300,5.578222412109375,0.00013315794058144093,-0.001997369108721614,-0.0006657897029072046
1772810460232103000,5.58810302734375,-0.0003994738217443228,-0.0009321055840700865,0.0003994738217443228
1772810460241983500,5.5979833984375,0.0006657897029072046,0.0006657897029072046,0.0009321055840700865
1772810460251864000,5.607864013671875,0.0006657897029072046,-0.0014647373463958502,0.0003994738217443228
1772810460261744600,5.61774462890625,0.0011984214652329683,0.0011984214652329683,-0.001731053227558732
1772810460271625000,5.627625,-0.0014647373463958502,-0.0009321055840700865,-0.0006657897029072046
1772810460281505500,5.637505615234375,-0.0009321055840700865,-0.0014647373463958502,0.001997369108721614
1772810460291386000,5.64738623046875,0.0006657897029072046,-0.0003994738217443228,0.0003994738217443228
1772810460301266700,5.6572666015625,0.00013315794058144093,-0.0014647373463958502,-0.0011984214652329683
1772810460311147300,5.667147216796875,0.0006657897029072046,0.00013315794058144093,-0.0011984214652329683
1772810460321027800,5.67702783203125,0.00013315794058144093,-0.0003994738217443228,-0.00013315794058144093
1772810460330908200,5.686908203125,-0.0009321055840700865,-0.001997369108721614,0.0009321055840700865
1772810460340788700,5.696788818359375,0.00013315794058144093,-0.0009321055840700865,-0.0006657897029072046
1772810460350669300,5.70666943359375,0.0006657897029072046,-0.0014647373463958502,0.0009321055840700865
1772810460360550000,5.7165498046875,-0.0009321055840700865,0.001731053227558732,-0.0006657897029072046
1772810460370430200,5.72643017578125,0.0006657897029072046,-0.0025300008710473776,0.0003994738217443228
1772810460380310800,5.736310791015625,0.0006657897029072046,0.001731053227558732,-0.0006657897029072046
1772810460390191400,5.74619140625,-0.0003994738217443228,0.0006657897029072046,-0.00013315794058144093
1772810460400072000,5.756072021484375,0.00013315794058144093,0.0011984214652329683,-0.0006657897029072046
1772810460409952500,5.765952392578125,-0.0009321055840700865,-0.001997369108721614,-0.001731053227558732
1772810460419833000,5.7758330078125,-0.0009321055840700865,0.0011984214652329683,-0.0011984214652329683
1772810460429713400,5.78571337890625,0.00013315794058144093,0.0011984214652329683,-0.0006657897029072046
1772810460439594000,5.795593994140625,-0.0003994738217443228,-0.0003994738217443228,-0.0011984214652329683
1772810460449474600,5.805474609375,0.0006657897029072046,-0.0014647373463958502,0.0003994738217443228
1772810460459355100,5.815355224609375,0.0011984214652329683,-0.001997369108721614,-0.0011984214652329683
1772810460469235700,5.825235595703125,0.00013315794058144093,0.0006657897029072046,0.0003994738217443228
1772810460479116000,5.835115966796875,0.00013315794058144093,-0.0003994738217443228,-0.0006657897029072046
1772810460488996600,5.84499658203125,0.001731053227558732,0.0006657897029072046,-0.00013315794058144093
1772810460498877000,5.854876953125,0.00013315794058144093,-0.0003994738217443228,0.0014647373463958502
1772810460508757000,5.864757080078125,-0.0003994738217443228,0.00013315794058144093,-0.0022636849898844957
1772810460518637000,5.874636962890625,-0.0003994738217443228,-0.0003994738217443228,-0.0011984214652329683
1772810460528516900,5.884516845703125,-0.0003994738217443228,0.001731053227558732,0.0014647373463958502
1772810460538397000,5.89439697265625,-0.0014647373463958502,0.0006657897029072046,-0.00013315794058144093
1772810460548277000,5.904277099609375,-0.0003994738217443228,0.0011984214652329683,-0.0006657897029072046
1772810460558156800,5.91415673828125,0.0011984214652329683,-0.0014647373463958502,0.0009321055840700865
1772810460568036900,5.924036865234375,-0.0009321055840700865,0.00013315794058144093,0.0014647373463958502
1772810460577917000,5.9339169921875,0.0011984214652329683,-0.0014647373463958502,0.0009321055840700865
1772810460597676800,5.9536767578125,0.001731053227558732,-0.0014647373463958502,-0.00013315794058144093
1772810460607556900,5.963556884765625,-0.0003994738217443228,-0.0025300008710473776,0.0009321055840700865
1772810460617437000,5.97343701171875,0.0011984214652329683,0.00013315794058144093,-0.0011984214652329683
1772810460627316700,5.983316650390625,0.001731053227558732,0.0006657897029072046,-0.0011984214652329683
1772810460637196800,5.99319677734375,0.0011984214652329683,0.0011984214652329683,-0.0006657897029072046
1772810460647076900,6.003076904296875,0.00013315794058144093,-0.0003994738217443228,0.0009321055840700865
1772810460656956700,6.012956787109375,0.00013315794058144093,0.0006657897029072046,0.001997369108721614
1772810460666836700,6.022836669921875,0.0011984214652329683,0.00013315794058144093,-0.0006657897029072046
1772810460676716800,6.032716796875,0.0006657897029072046,0.00013315794058144093,-0.001731053227558732
1772810460686596600,6.0425966796875,-0.0003994738217443228,0.0007989476434886456,-0.00013315794058144093
1772810460696476700,6.0524765625,0.00013315794058144093,0.0007989476434886456,0.0003994738217443228
1772810460706356700,6.062356689453125,0.001731053227558732,0.0013315794058144093,-0.0011984214652329683
1772810460716236800,6.07223681640625,-0.0009321055840700865,0.00026631588116288185,-0.0006657897029072046
1772810460726116600,6.08211669921875,-0.0003994738217443228,-0.0029294746927917004,-0.00013315794058144093
1772810460735996700,6.09199658203125,-0.0009321055840700865,-0.00026631588116288185,-0.00013315794058144093
1772810460745876700,6.101876708984375,0.0006657897029072046,0.0023968429304659367,-0.0006657897029072046
1772810460755756500,6.111756591796875,-0.0009321055840700865,0.0007989476434886456,-0.001731053227558732
1772810460765636600,6.12163671875,0.0011984214652329683,-0.00026631588116288185,-0.0006657897029072046
1772810460775516700,6.1315166015625,-0.0003994738217443228,0.00026631588116288185,0.0014647373463958502
1772810460785396700,6.141396728515625,-0.001997369108721614,-0.00026631588116288185,-0.0006657897029072046
1772810460795276500,6.151276611328125,0.0006657897029072046,0.001864211168140173,-0.0006657897029072046
1772810460805156600,6.161156494140625,0.0011984214652329683,-0.0007989476434886456,-0.0027963167522102594
1772810460815036700,6.17103662109375,0.001731053227558732,-0.001864211168140173,-0.0006657897029072046
1772810460824916500,6.18091650390625,0.0011984214652329683,0.0013315794058144093,0.001997369108721614
1772810460834796500,6.190796630859375,0.0011984214652329683,0.0007989476434886456,-0.00013315794058144093
1772810460844676600,6.200676513671875,-0.0009321055840700865,0.0007989476434886456,-0.0006657897029072046
1772810460854556400,6.210556396484375,0.00013315794058144093,0.0013315794058144093,0.0014647373463958502
1772810460864436500,6.2204365234375,0.0011984214652329683,0.00026631588116288185,-0.00013315794058144093
1772810460874316500,6.230316650390625,0.0006657897029072046,-0.0007989476434886456,-0.00013315794058144093
1772810460884196400,6.2401962890625,0.00013315794058144093,0.0013315794058144093,-0.00013315794058144093
1772810460894076400,6.250076416015625,0.0006657897029072046,-0.0007989476434886456,-0.00013315794058144093
1772810460903956500,6.25995654296875,-0.0009321055840700865,-0.0007989476434886456,-0.0006657897029072046
1772810460913836500,6.26983642578125,0.0006657897029072046,-0.00026631588116288185,0.0003994738217443228
1772810460923716400,6.27971630859375,0.0006657897029072046,0.00026631588116288185,0.0003994738217443228
1772810460933596400,6.289596435546875,-0.001997369108721614,-0.00026631588116288185,0.0009321055840700865
1772810460943476500,6.2994765625,-0.0003994738217443228,-0.00026631588116288185,-0.001731053227558732
1772810460953356500,6.3093564453125,-0.0003994738217443228,0.00026631588116288185,0.0014647373463958502
1772810460963236400,6.319236328125,-0.0003994738217443228,0.0007989476434886456,-0.0011984214652329683
1772810460973116400,6.329116455078125,0.00013315794058144093,-0.00026631588116288185,0.0003994738217443228
1772810460982996500,6.33899658203125,0.00013315794058144093,0.0007989476434886456,-0.001731053227558732
1772810460992876300,6.348876220703125,0.00013315794058144093,-0.00026631588116288185,0.001997369108721614
1772810461002756400,6.35875634765625,0.00013315794058144093,-0.001864211168140173,-0.0011984214652329683
1772810461012636200,6.36863623046875,-0.0003994738217443228,-0.0007989476434886456,-0.00013315794058144093
1772810461022516000,6.378515869140625,0.0022636849898844957,0.00026631588116288185,0.0003994738217443228
1772810461032395800,6.388395751953125,-0.0003994738217443228,-0.0007989476434886456,0.0003994738217443228
1772810461042275800,6.39827587890625,-0.001997369108721614,0.00026631588116288185,-0.00013315794058144093
1772810461052155600,6.40815576171875,0.00013315794058144093,-0.00026631588116288185,0.0025300008710473776
1772810461062035500,6.418035400390625,0.0006657897029072046,0.00026631588116288185,0.0009321055840700865
1772810461071915500,6.42791552734375,0.00013315794058144093,-0.00026631588116288185,0.0003994738217443228
1772810461081795300,6.43779541015625,0.001731053227558732,-0.00026631588116288185,-0.0006657897029072046
1772810461091675100,6.447675048828125,0.00013315794058144093,0.00026631588116288185,0.0003994738217443228
1772810461101555000,6.457554931640625,-0.0003994738217443228,0.0007989476434886456,0.0009321055840700865
1772810461111435000,6.46743505859375,0.00013315794058144093,0.00026631588116288185,-0.0006657897029072046
1772810461121314800,6.477314697265625,0.0006657897029072046,0.0013315794058144093,-0.0006657897029072046
1772810461131194600,6.487194580078125,0.00013315794058144093,0.0007989476434886456,0.0009321055840700865
1772810461141074700,6.49707470703125,-0.0014647373463958502,0.00026631588116288185,-0.0006657897029072046
1772810461150954500,6.50695458984375,-0.0003994738217443228,-0.0013315794058144093,-0.00013315794058144093
1772810461160834300,6.516834228515625,-0.0003994738217443228,0.0007989476434886456,-0.00013315794058144093
1772810461170714000,6.526714111328125,0.00013315794058144093,0.001864211168140173,0.0009321055840700865
1772810461180594200,6.53659423828125,0.0011984214652329683,-0.0007989476434886456,0.0003994738217443228
1772810461190474000,6.546473876953125,0.00013315794058144093,0.0013315794058144093,-0.00013315794058144093
1772810461200353800,6.556353759765625,0.0006657897029072046,-0.0013315794058144093,-0.00013315794058144093
1772810461210233600,6.566233642578125,-0.0003994738217443228,-0.00026631588116288185,0.0009321055840700865
1772810461220113700,6.57611376953125,-0.0009321055840700865,0.00026631588116288185,-0.00013315794058144093
1772810461229993500,6.585993408203125,-0.0014647373463958502,0.0007989476434886456,0.0003994738217443228
1772810461239873300,6.595873291015625,-0.0003994738217443228,0.00026631588116288185,-0.00013315794058144093
1772810461249753300,6.60575341796875,0.00013315794058144093,0.0007989476434886456,-0.0006657897029072046
1772810461259633200,6.615633056640625,0.00013315794058144093,-0.0007989476434886456,0.0003994738217443228
1772810461269513000,6.625512939453125,-0.0003994738217443228,-0.0007989476434886456,0.0003994738217443228
1772810461279392800,6.635392822265625,-0.0003994738217443228,0.0007989476434886456,-0.0011984214652329683
1772810461289272800,6.64527294921875,0.00013315794058144093,0.0007989476434886456,0.0009321055840700865
1772810461299152600,6.655152587890625,0.0006657897029072046,0.0007989476434886456,-0.00013315794058144093
1772810461309032400,6.665032470703125,0.00013315794058144093,0.00026631588116288185,-0.00013315794058144093
1772810461318912500,6.67491259765625,-0.0003994738217443228,0.0007989476434886456,0.0003994738217443228
1772810461328792300,6.684792236328125,0.0006657897029072046,0.0013315794058144093,0.0009321055840700865
1772810461338672000,6.694672119140625,-0.0003994738217443228,-0.00026631588116288185,0.0009321055840700865
1772810461348552000,6.704552001953125,0.00013315794058144093,0.00026631588116288185,-0.00013315794058144093
1772810461358432000,6.714431884765625,0.00013315794058144093,-0.00026631588116288185,-0.0022636849898844957
1772810461368311800,6.724311767578125,0.0006657897029072046,0.0007989476434886456,-0.0006657897029072046
1772810461378191600,6.734191650390625,0.00013315794058144093,-0.00026631588116288185,0.0009321055840700865
1772810461388071700,6.74407177734375,0.0011984214652329683,0.00026631588116288185,0.0009321055840700865
1772810461397951500,6.753951416015625,-0.0003994738217443228,-0.00026631588116288185,0.0009321055840700865
1772810461407831300,6.763831298828125,-0.0009321055840700865,0.00026631588116288185,-0.0011984214652329683
1772810461417711000,6.773711181640625,-0.0009321055840700865,-0.00026631588116288185,0.0009321055840700865
1772810461427591200,6.783591064453125,0.00013315794058144093,0.0023968429304659367,0.0003994738217443228
1772810461437471000,6.793470947265625,0.0006657897029072046,0.00026631588116288185,-0.00013315794058144093
1772810461447350800,6.803350830078125,0.0006657897029072046,0.001864211168140173,0.0009321055840700865
1772810461457230800,6.81323095703125,0.0011984214652329683,-0.00026631588116288185,0.0003994738217443228
1772810461467110700,6.823110595703125,0.0011984214652329683,0.00026631588116288185,-0.0006657897029072046
1772810461476990500,6.832990478515625,-0.0003994738217443228,-0.0007989476434886456,-0.0011984214652329683
1772810461486870300,6.842870361328125,0.00013315794058144093,-0.00026631588116288185,-0.0006657897029072046
1772810461496750000,6.85275,-0.001997369108721614,-0.0013315794058144093,-0.0006657897029072046
1772810461506630000,6.8626298828125,-0.0014647373463958502,-0.0013315794058144093,-0.001731053227558732
1772810461516509700,6.872509765625,-0.0009321055840700865,-0.0007989476434886456,0.0009321055840700865
1772810461526389200,6.88238916015625,0.00013315794058144093,-0.0007989476434886456,0.0014647373463958502
1772810461536269000,6.89226904296875,-0.0003994738217443228,0.001864211168140173,0.001997369108721614
1772810461546148900,6.90214892578125,0.00013315794058144093,0.0007989476434886456,0.0003994738217443228
1772810461556028400,6.9120283203125,0.00013315794058144093,-0.0007989476434886456,0.0009321055840700865
1772810461565908200,6.921908203125,0.001731053227558732,-0.0023968429304659367,-0.0006657897029072046
1772810461575787800,6.931787841796875,0.0006657897029072046,0.00026631588116288185,-0.001731053227558732
1772810461585667600,6.94166748046875,0.00013315794058144093,0.0007989476434886456,-0.00013315794058144093
1772810461595547400,6.95154736328125,0.0011984214652329683,0.001864211168140173,-0.001731053227558732
1772810461605427000,6.961427001953125,-0.0003994738217443228,-0.0007989476434886456,-0.0022636849898844957
1772810461615306800,6.971306640625,-0.0003994738217443228,0.0013315794058144093,0.0003994738217443228
1772810461625186300,6.981186279296875,0.0006657897029072046,-0.00026631588116288185,-0.0022636849898844957
1772810461644946000,7.00094580078125,0.001731053227558732,-0.0013315794058144093,0.0009321055840700865
1772810461654825500,7.010825439453125,-0.0003994738217443228,-0.00026631588116288185,0.0003994738217443228
1772810461664705300,7.020705322265625,0.0006657897029072046,-0.00026631588116288185,-0.0006657897029072046
1772810461674585000,7.030585205078125,0.0006657897029072046,-0.0013315794058144093,0.0014647373463958502
1772810461684464600,7.040464599609375,-0.0009321055840700865,0.00026631588116288185,-0.00013315794058144093
1772810461694344400,7.050344482421875,-0.0003994738217443228,-0.0013315794058144093,0.0009321055840700865
1772810461704224300,7.060224365234375,-0.0003994738217443228,-0.0007989476434886456,0.0003994738217443228
1772810461714103800,7.070103759765625,0.0011984214652329683,-0.0023968429304659367,0.0009321055840700865
1772810461723983600,7.079983642578125,-0.0003994738217443228,0.0007989476434886456,0.0009321055840700865
1772810461733863200,7.08986328125,0.00013315794058144093,0.0007989476434886456,0.0003994738217443228
1772810461743743000,7.099742919921875,0.0006657897029072046,0.0007989476434886456,0.0009321055840700865
1772810461753622800,7.109622802734375,-0.0009321055840700865,0.0013315794058144093,0.0003994738217443228
1772810461763502300,7.11950244140625,-0.0009321055840700865,-0.00026631588116288185,-0.00013315794058144093
1772810461773382100,7.129382080078125,0.0006657897029072046,0.0007989476434886456,-0.0006657897029072046
1772810461783261700,7.13926171875,0.0006657897029072046,0.0007989476434886456,-0.0011984214652329683
1772810461793141500,7.1491416015625,0.0011984214652329683,-0.00026631588116288185,-0.0011984214652329683
1772810461803021300,7.159021240234375,0.0006657897029072046,0.00026631588116288185,-0.001731053227558732
1772810461812900900,7.16890087890625,0.0006657897029072046,-0.0013315794058144093,0.0003994738217443228
1772810461822780700,7.17878076171875,-0.0003994738217443228,-0.0007989476434886456,-0.001731053227558732
1772810461832660500,7.188660400390625,0.0006657897029072046,-0.00026631588116288185,0.0009321055840700865
1772810461842540000,7.1985400390625,0.0006657897029072046,0.0013315794058144093,-0.00013315794058144093
1772810461852419800,7.208419921875,-0.0003994738217443228,-0.001864211168140173,-0.0011984214652329683
1772810461862299400,7.21829931640625,-0.0009321055840700865,-0.00026631588116288185,-0.001731053227558732
1772810461872179200,7.22817919921875,-0.0003994738217443228,-0.0007989476434886456,0.0009321055840700865
1772810461882059000,7.23805908203125,-0.0014647373463958502,-0.00026631588116288185,-0.00013315794058144093
1772810461891938600,7.2479384765625,0.0006657897029072046,0.00026631588116288185,0.0003994738217443228
1772810461901818400,7.257818359375,-0.0003994738217443228,0.0007989476434886456,0.0009321055840700865
1772810461911698000,7.267697998046875,0.00013315794058144093,-0.0007989476434886456,-0.0006657897029072046
1772810461921577700,7.27757763671875,0.0006657897029072046,-0.00026631588116288185,-0.00013315794058144093
1772810461931457500,7.28745751953125,-0.0003994738217443228,-0.0007989476434886456,-0.0006657897029072046
1772810461941337000,7.297337158203125,0.0006657897029072046,0.001864211168140173,0.0003994738217443228
1772810461951217000,7.307216796875,0.00013315794058144093,0.00026631588116288185,0.0014647373463958502
1772810461961096700,7.3170966796875,-0.0009321055840700865,0.0007989476434886456,-0.0011984214652329683
1772810461970976300,7.326976318359375,0.00013315794058144093,-0.00026631588116288185,0.0003994738217443228
1772810461980856000,7.33685595703125,-0.0003994738217443228,-0.0013315794058144093,-0.00013315794058144093
1772810461990735600,7.346735595703125,0.0006657897029072046,-0.0013315794058144093,-0.001731053227558732
1772810462000615700,7.35661572265625,-0.0009321055840700865,-0.00026631588116288185,-0.00013315794058144093
1772810462010496000,7.36649609375,0.0022636849898844957,0.00026631588116288185,-0.00013315794058144093
1772810462020376000,7.3763759765625,-0.0009321055840700865,0.00026631588116288185,0.0009321055840700865
1772810462030256400,7.38625634765625,0.0022636849898844957,0.00026631588116288185,0.0003994738217443228
1772810462040136700,7.39613671875,0.0006657897029072046,-0.001864211168140173,-0.00013315794058144093
1772810462050016800,7.406016845703125,0.0006657897029072046,-0.0013315794058144093,0.0009321055840700865
1772810462059897000,7.41589697265625,0.00013315794058144093,-0.0023968429304659367,0.0003994738217443228
1772810462069777200,7.425777099609375,0.0006657897029072046,0.0023968429304659367,-0.0006657897029072046
1772810462079657500,7.435657470703125,0.00013315794058144093,-0.003462106455117464,-0.0006657897029072046
1772810462089537800,7.445537841796875,0.0011984214652329683,-0.0013315794058144093,-0.001731053227558732
1772810462099417900,7.45541796875,0.001731053227558732,-0.00026631588116288185,-0.0006657897029072046
1772810462109298200,7.465298095703125,0.0006657897029072046,-0.00026631588116288185,-0.0006657897029072046
1772810462119178200,7.47517822265625,0.0006657897029072046,-0.0007989476434886456,-0.0006657897029072046
1772810462129058600,7.48505859375,-0.0003994738217443228,-0.0007989476434886456,-0.00013315794058144093
1772810462138938600,7.494938720703125,0.00013315794058144093,-0.0013315794058144093,0.0003994738217443228
1772810462148819000,7.50481884765625,-0.0003994738217443228,0.0007989476434886456,-0.00013315794058144093
1772810462158699000,7.514698974609375,0.00013315794058144093,-0.0007989476434886456,0.0003994738217443228
1772810462168579300,7.524579345703125,0.001731053227558732,-0.0007989476434886456,0.0003994738217443228
1772810462178459600,7.534459716796875,0.0006657897029072046,-0.00026631588116288185,0.0003994738217443228
1772810462188339700,7.544339599609375,-0.0003994738217443228,-0.00026631588116288185,0.0009321055840700865
1772810462198220000,7.554219970703125,-0.0014647373463958502,-0.0007989476434886456,0.0009321055840700865
1772810462208100000,7.56410009765625,0.0006657897029072046,0.00026631588116288185,-0.0006657897029072046
1772810462217980400,7.57398046875,-0.0009321055840700865,0.00026631588116288185,-0.0006657897029072046
1772810462227860700,7.58386083984375,-0.0003994738217443228,-0.001864211168140173,0.0009321055840700865
1772810462237740800,7.59374072265625,0.00013315794058144093,-0.0007989476434886456,-0.00013315794058144093
1772810462247621000,7.60362109375,-0.0003994738217443228,0.00026631588116288185,0.0003994738217443228
1772810462257501200,7.613501220703125,-0.001997369108721614,0.0007989476434886456,-0.0006657897029072046
1772810462267381500,7.623381591796875,0.0027963167522102594,-0.00026631588116288185,0.0009321055840700865
1772810462277261600,7.633261474609375,0.00013315794058144093,0.00026631588116288185,0.0003994738217443228
1772810462287142000,7.643141845703125,0.00013315794058144093,0.00026631588116288185,-0.0006657897029072046
1772810462297022200,7.653022216796875,-0.0003994738217443228,0.00026631588116288185,-0.00013315794058144093
1772810462306902300,7.66290234375,0.0006657897029072046,0.0013315794058144093,0.0014647373463958502
1772810462316782600,7.672782470703125,0.0022636849898844957,-0.0013315794058144093,0.0003994738217443228
1772810462326662700,7.68266259765625,0.0006657897029072046,-0.0007989476434886456,0.0009321055840700865
1772810462336543000,7.69254296875,-0.0003994738217443228,-0.0007989476434886456,-0.0006657897029072046
1772810462346423000,7.702423095703125,-0.0009321055840700865,-0.0029294746927917004,0.0014647373463958502
1772810462356303400,7.712303466796875,-0.0003994738217443228,0.0007989476434886456,0.0003994738217443228
1772810462366183700,7.72218359375,-0.0003994738217443228,-0.0013315794058144093,-0.00013315794058144093
1772810462376063700,7.732063720703125,0.00013315794058144093,0.0007989476434886456,0.0003994738217443228
1772810462385944000,7.741944091796875,-0.0030626326333731413,-0.0029294746927917004,0.0003994738217443228
1772810462395824000,7.75182421875,0.00013315794058144093,-0.00026631588116288185,0.0014647373463958502
1772810462405704400,7.761704345703125,0.00013315794058144093,-0.00026631588116288185,-0.00013315794058144093
1772810462415584800,7.771584716796875,-0.0009321055840700865,-0.001864211168140173,0.0003994738217443228
1772810462425464800,7.78146484375,-0.0003994738217443228,-0.0007989476434886456,0.0003994738217443228
1772810462435345200,7.79134521484375,0.00013315794058144093,0.0007989476434886456,0.0003994738217443228
1772810462445225200,7.80122509765625,0.0006657897029072046,0.001864211168140173,0.0009321055840700865
1772810462455105500,7.81110546875,0.00013315794058144093,0.00026631588116288185,0.0003994738217443228
1772810462464985600,7.820985595703125,-0.0010652635246515274,-0.0022636849898844957,0.0009321055840700865
1772810462474866000,7.830865966796875,-0.0010652635246515274,0.0003994738217443228,-0.0006657897029072046
1772810462484746000,7.84074609375,0.001597895286977291,-0.0027963167522102594,-0.0006657897029072046
1772810462494626300,7.850626220703125,0.0010652635246515274,0.001997369108721614,0.0003994738217443228
1772810462504506600,7.860506591796875,0,-0.0011984214652329683,0.0003994738217443228
1772810462514387000,7.870386962890625,0,-0.00013315794058144093,-0.0011984214652329683
1772810462524267300,7.880267333984375,0,0.0014647373463958502,-0.0011984214652329683
1772810462534147600,7.890147705078125,-0.001597895286977291,0.0003994738217443228,0.0009321055840700865
1772810462544028000,7.90002783203125,0.002130527049303055,-0.00013315794058144093,0.0003994738217443228
1772810462553908200,7.909908203125,0,0.001997369108721614,-0.001731053227558732
1772810462563788500,7.91978857421875,0.001597895286977291,-0.0006657897029072046,-0.00013315794058144093
1772810462573668600,7.929668701171875,-0.0010652635246515274,0.0014647373463958502,0.001997369108721614
1772810462583549000,7.939548828125,0,0.0009321055840700865,-0.0006657897029072046
1772810462593429200,7.94942919921875,-0.0005326317623257637,-0.0011984214652329683,0.0003994738217443228
1772810462603309600,7.9593095703125,-0.0010652635246515274,-0.00013315794058144093,-0.0006657897029072046
1772810462613190000,7.96918994140625,0.0005326317623257637,0.0003994738217443228,-0.0006657897029072046
1772810462623070200,7.9790703125,-0.0010652635246515274,-0.0006657897029072046,-0.00013315794058144093
1772810462632950500,7.988950439453125,0.0005326317623257637,0.0003994738217443228,-0.0006657897029072046
1772810462642830800,7.998830810546875,-0.001597895286977291,0.001997369108721614,-0.001731053227558732
1772810462652711200,8.008711181640624,-0.002130527049303055,-0.001731053227558732,-0.0006657897029072046
1772810462662591500,8.018591552734375,-0.0005326317623257637,0.001997369108721614,0.0014647373463958502
1772810462672471800,8.028471923828125,-0.001597895286977291,-0.00013315794058144093,-0.00013315794058144093
1772810462682351900,8.038351806640625,-0.0005326317623257637,0.0025300008710473776,-0.00013315794058144093
1772810462692232200,8.048232177734375,-0.0010652635246515274,-0.0006657897029072046,-0.001731053227558732
1772810462702112500,8.058112548828126,-0.0005326317623257637,-0.00013315794058144093,-0.0006657897029072046
1772810462711992800,8.067992919921876,0,-0.0006657897029072046,0.001997369108721614
1772810462721873200,8.077873046875,0.0005326317623257637,-0.0006657897029072046,-0.0011984214652329683
1772810462731753500,8.08775341796875,0.0005326317623257637,0.0014647373463958502,0.0003994738217443228
1772810462741633800,8.0976337890625,-0.001597895286977291,0.0003994738217443228,-0.00013315794058144093
1772810462751514000,8.10751416015625,0.0005326317623257637,0.0003994738217443228,-0.00013315794058144093
1772810462761394400,8.11739453125,0,-0.0006657897029072046,-0.00013315794058144093
1772810462771274800,8.127274658203126,0,-0.0006657897029072046,0.0009321055840700865
1772810462781155000,8.137155029296874,0.0010652635246515274,-0.0011984214652329683,-0.00013315794058144093
1772810462791035400,8.147035400390624,0.0005326317623257637,-0.001731053227558732,-0.00013315794058144093
1772810462800915700,8.156915771484375,0,0.0014647373463958502,-0.00013315794058144093
1772810462810795800,8.166795654296875,-0.0010652635246515274,0.0003994738217443228,-0.00013315794058144093
1772810462830556400,8.186556396484375,0,-0.0006657897029072046,-0.00013315794058144093
1772810462840436700,8.196436767578126,0.0005326317623257637,-0.0006657897029072046,-0.001731053227558732
1772810462850317000,8.206317138671874,-0.0005326317623257637,-0.0006657897029072046,0.0009321055840700865
1772810462860197400,8.216197265625,-0.0010652635246515274,0.0009321055840700865,-0.0011984214652329683
1772810462870077700,8.22607763671875,0,0.0009321055840700865,0.0003994738217443228
1772810462879958000,8.2359580078125,0.0005326317623257637,0.0003994738217443228,0.0003994738217443228
1772810462889838300,8.24583837890625,0.0005326317623257637,-0.00013315794058144093,0.0003994738217443228
1772810462899718700,8.25571875,-0.0005326317623257637,0.0009321055840700865,-0.0006657897029072046
1772810462909599000,8.265598876953124,0,0.0003994738217443228,-0.00013315794058144093
1772810462919479300,8.275479248046874,-0.0010652635246515274,-0.00013315794058144093,-0.0006657897029072046
1772810462929359600,8.285359619140625,0.0005326317623257637,-0.001731053227558732,-0.00013315794058144093
1772810462949120000,8.3051201171875,0.0010652635246515274,0.001997369108721614,-0.0006657897029072046
1772810462959000300,8.315000244140625,0.0005326317623257637,-0.00013315794058144093,0.0003994738217443228
1772810462968880600,8.324880615234376,-0.0010652635246515274,-0.0006657897029072046,0.0009321055840700865
1772810462978761000,8.334760986328124,0.001597895286977291,-0.00013315794058144093,0.0014647373463958502
1772810462988641300,8.344641357421875,0,-0.0006657897029072046,-0.0011984214652329683
1772810462998521300,8.354521240234375,0.0005326317623257637,-0.0006657897029072046,-0.00013315794058144093
1772810463008401200,8.364401123046875,-0.0005326317623257637,0.0009321055840700865,0.0009321055840700865
1772810463018280700,8.37428076171875,-0.0005326317623257637,-0.0006657897029072046,-0.00013315794058144093
1772810463028160500,8.384160400390625,-0.002130527049303055,0.0009321055840700865,-0.00013315794058144093
1772810463038040300,8.394040283203125,0,-0.00013315794058144093,-0.00013315794058144093
1772810463047919900,8.403919921875,0.0005326317623257637,0.0009321055840700865,0.0003994738217443228
1772810463057799700,8.413799560546876,-0.0005326317623257637,0.0003994738217443228,-0.00013315794058144093
1772810463067679500,8.423679443359376,-0.0010652635246515274,0.0009321055840700865,-0.0006657897029072046
1772810463077559000,8.43355908203125,0.0005326317623257637,0.0003994738217443228,0.0003994738217443228
1772810463087438800,8.44343896484375,-0.0010652635246515274,-0.001731053227558732,-0.0006657897029072046
1772810463097318700,8.453318603515624,-0.0010652635246515274,-0.0022636849898844957,-0.00013315794058144093
1772810463107198200,8.4631982421875,0.0010652635246515274,-0.00013315794058144093,0.0014647373463958502
1772810463117078000,8.473078125,0,-0.00013315794058144093,0.0003994738217443228
1772810463126957800,8.482957763671875,0.0005326317623257637,-0.0011984214652329683,0.0003994738217443228
1772810463136837600,8.492837646484375,-0.0005326317623257637,0.0014647373463958502,-0.00013315794058144093
1772810463146717200,8.50271728515625,-0.0005326317623257637,0.0003994738217443228,-0.0006657897029072046
1772810463156597000,8.512596923828125,-0.0010652635246515274,0.0014647373463958502,0.0009321055840700865
1772810463166476800,8.522476806640626,0,-0.00013315794058144093,0.0014647373463958502
1772810463176356400,8.5323564453125,0,0.0003994738217443228,-0.0006657897029072046
1772810463186236200,8.542236083984376,0,-0.00013315794058144093,-0.00013315794058144093
1772810463196116000,8.552115966796874,0,-0.00013315794058144093,-0.0006657897029072046
1772810463205995500,8.56199560546875,0,-0.00013315794058144093,-0.001731053227558732
1772810463215875300,8.571875244140625,-0.0005326317623257637,0.0009321055840700865,0.0009321055840700865
1772810463225755100,8.581755126953125,0,0.001997369108721614,0.0003994738217443228
1772810463235634700,8.591634765625,0.0010652635246515274,0.0014647373463958502,0.0009321055840700865
1772810463245514500,8.601514404296875,-0.0010652635246515274,-0.0006657897029072046,-0.00013315794058144093
1772810463255394300,8.611394287109375,-0.0010652635246515274,-0.00013315794058144093,-0.0011984214652329683
1772810463265273900,8.62127392578125,0,0.0014647373463958502,-0.0006657897029072046
1772810463275153700,8.631153564453125,-0.0005326317623257637,0.0009321055840700865,-0.0006657897029072046
1772810463285033500,8.641033447265626,-0.0005326317623257637,-0.0006657897029072046,-0.0006657897029072046
1772810463294913000,8.6509130859375,0.0005326317623257637,0.0014647373463958502,0.0009321055840700865
1772810463304792800,8.660792724609376,-0.0010652635246515274,0.0003994738217443228,-0.0011984214652329683
1772810463314672600,8.670672607421874,-0.0005326317623257637,0.0014647373463958502,0.0014647373463958502
1772810463324552200,8.68055224609375,-0.0005326317623257637,0.0009321055840700865,0.0003994738217443228
1772810463334432000,8.690431884765625,0.001597895286977291,0.0003994738217443228,-0.00013315794058144093
1772810463344311800,8.700311767578125,-0.0005326317623257637,-0.00013315794058144093,-0.00013315794058144093
1772810463354191400,8.71019140625,-0.002130527049303055,0.0009321055840700865,-0.00013315794058144093
1772810463364071200,8.7200712890625,0,-0.00013315794058144093,-0.0006657897029072046
1772810463373951000,8.729950927734375,-0.0010652635246515274,0.0009321055840700865,0.0003994738217443228
1772810463383830500,8.73983056640625,0,-0.00013315794058144093,0.0009321055840700865
1772810463393710300,8.74971044921875,0.001597895286977291,-0.0022636849898844957,-0.00013315794058144093
1772810463403590100,8.759590087890626,0.0005326317623257637,-0.0006657897029072046,0.001997369108721614
1772810463413469700,8.7694697265625,0.0005326317623257637,-0.00013315794058144093,0.0009321055840700865
1772810463423349500,8.779349609375,0,-0.0006657897029072046,0.0003994738217443228
1772810463433229300,8.789229248046874,-0.001597895286977291,0.0014647373463958502,-0.0006657897029072046
1772810463443108900,8.79910888671875,0,0.0009321055840700865,-0.0006657897029072046
1772810463452988700,8.80898876953125,0.0005326317623257637,-0.0027963167522102594,-0.00013315794058144093
1772810463462868500,8.818868408203125,0.0010652635246515274,-0.00013315794058144093,0.0003994738217443228
1772810463472748000,8.828748046875,-0.001597895286977291,-0.0006657897029072046,0.0003994738217443228
1772810463482627800,8.8386279296875,0.0005326317623257637,-0.001731053227558732,-0.00013315794058144093
1772810463492507600,8.848507568359375,-0.0026631588116288185,0.0014647373463958502,0.0009321055840700865
1772810463502387700,8.8583876953125,-0.0005326317623257637,-0.0006657897029072046,-0.0006657897029072046
1772810463522148000,8.878148193359374,0.0005326317623257637,-0.0011984214652329683,0.0009321055840700865
1772810463532028200,8.888028076171874,0.0005326317623257637,-0.001731053227558732,-0.0006657897029072046
1772810463541908200,8.897908203125,-0.0010652635246515274,-0.00013315794058144093,-0.0006657897029072046
1772810463551788500,8.90778857421875,0.0010652635246515274,-0.00013315794058144093,0.0009321055840700865
1772810463561668600,8.917668701171875,-0.001597895286977291,0.0009321055840700865,0.0003994738217443228
1772810463571549000,8.927548828125,0,-0.0006657897029072046,-0.0011984214652329683
1772810463581429000,8.937428955078126,0,0.0009321055840700865,0.0009321055840700865
1772810463591309000,8.94730908203125,0,-0.001731053227558732,0.0003994738217443228
1772810463601189400,8.957189453125,-0.0010652635246515274,-0.0006657897029072046,0.0009321055840700865
1772810463611069400,8.9670693359375,0,0.0009321055840700865,-0.0022636849898844957
1772810463620949500,8.976949462890625,-0.0005326317623257637,-0.0011984214652329683,0.0014647373463958502
1772810463630829800,8.986829833984375,0.0005326317623257637,0.0009321055840700865,0.0014647373463958502
1772810463640710000,8.9967099609375,-0.0010652635246515274,-0.0006657897029072046,-0.00013315794058144093
1772810463650590200,9.006590087890626,-0.002130527049303055,0.0014647373463958502,0.0003994738217443228
1772810463660470300,9.01647021484375,-0.0005326317623257637,-0.0006657897029072046,-0.00013315794058144093
1772810463670350300,9.026350341796874,0,0.0003994738217443228,0.0003994738217443228
1772810463680230700,9.036230712890625,-0.0005326317623257637,-0.0006657897029072046,0.0009321055840700865
1772810463690110700,9.04611083984375,-0.001597895286977291,0.001997369108721614,-0.0006657897029072046
1772810463699990800,9.05599072265625,-0.0005326317623257637,0.0009321055840700865,0.0009321055840700865
1772810463709871000,9.06587109375,-0.0010652635246515274,-0.0011984214652329683,-0.001731053227558732
1772810463719751200,9.075751220703125,-0.0010652635246515274,-0.001731053227558732,-0.00013315794058144093
1772810463729631500,9.085631591796876,-0.0005326317623257637,0.001997369108721614,0.0014647373463958502
1772810463739511600,9.095511474609374,-0.001597895286977291,0.0009321055840700865,-0.00013315794058144093
1772810463749391600,9.1053916015625,0.0010652635246515274,-0.00013315794058144093,-0.00013315794058144093
1772810463759272000,9.11527197265625,0,-0.0006657897029072046,0.0003994738217443228
1772810463779032300,9.1350322265625,0,0.0009321055840700865,0.0003994738217443228
1772810463798792400,9.15479248046875,0.0005326317623257637,-0.00013315794058144093,0.0003994738217443228
1772810463808672800,9.1646728515625,-0.001597895286977291,0.0009321055840700865,-0.00013315794058144093
1772810463818552800,9.174552734375,0.0005326317623257637,-0.0011984214652329683,-0.00013315794058144093
1772810463828433200,9.18443310546875,-0.0010652635246515274,-0.00013315794058144093,0.0003994738217443228
1772810463838313200,9.194313232421875,-0.0005326317623257637,-0.0011984214652329683,-0.001731053227558732
1772810463848193300,9.204193359375,0,-0.00013315794058144093,0.0003994738217443228
1772810463858073600,9.214073486328125,0,0.0014647373463958502,0.0009321055840700865
1772810463867953700,9.22395361328125,0.0005326317623257637,0.0003994738217443228,-0.00013315794058144093
1772810463877834000,9.233833984375,0,-0.00013315794058144093,-0.0006657897029072046
1772810463887714000,9.243714111328124,-0.0010652635246515274,-0.00013315794058144093,-0.001731053227558732
1772810463897594000,9.253593994140624,0.0010652635246515274,0.0009321055840700865,0.0003994738217443228
1772810463907474400,9.263474365234375,0.0010652635246515274,-0.001731053227558732,-0.0006657897029072046
1772810463917354500,9.2733544921875,0,0.0014647373463958502,0.0003994738217443228
1772810463927234600,9.283234619140625,-0.0010652635246515274,0.0009321055840700865,0.0009321055840700865
1772810463937115000,9.293114990234375,0,0.0003994738217443228,0.0003994738217443228
1772810463946995000,9.302994873046876,-0.0005326317623257637,-0.0011984214652329683,-0.00013315794058144093
1772810463956875300,9.312875244140624,0,0.0009321055840700865,-0.0022636849898844957
1772810463966755300,9.32275537109375,-0.0010652635246515274,0.0003994738217443228,-0.0011984214652329683
1772810463976635400,9.332635498046875,-0.0010652635246515274,-0.001731053227558732,-0.00013315794058144093
1772810463986515700,9.342515625,0,-0.001731053227558732,0.0009321055840700865
1772810463996395800,9.352395751953125,-0.0005326317623257637,-0.0006657897029072046,0.0009321055840700865
1772810464006275800,9.36227587890625,0,-0.0006657897029072046,0.0014647373463958502
1772810464016156000,9.372156005859376,-0.0005326317623257637,-0.0006657897029072046,-0.0006657897029072046
1772810464026036000,9.382035888671876,-0.0005326317623257637,-0.00013315794058144093,0.0009321055840700865
1772810464035916000,9.391916015625,0.0005326317623257637,0.0003994738217443228,0.0003994738217443228
1772810464045796000,9.401796142578124,-0.0005326317623257637,0.0003994738217443228,-0.00013315794058144093
1772810464055676200,9.41167626953125,0,0.0009321055840700865,-0.00013315794058144093
1772810464065556200,9.42155615234375,-0.0010652635246515274,0.0003994738217443228,0.0003994738217443228
1772810464075436300,9.431436279296875,-0.0005326317623257637,-0.0006657897029072046,0.0014647373463958502
1772810464085316400,9.44131640625,-0.0005326317623257637,0.0030626326333731413,-0.0006657897029072046
1772810464095196400,9.451196533203126,0,-0.0011984214652329683,-0.0011984214652329683
1772810464105076500,9.461076416015626,-0.0005326317623257637,-0.0011984214652329683,0.0014647373463958502
1772810464114956500,9.47095654296875,-0.001597895286977291,-0.0006657897029072046,0.0003994738217443228
1772810464124836600,9.480836669921874,0,-0.0011984214652329683,0.0009321055840700865
1772810464134716700,9.490716552734375,0,-0.00013315794058144093,-0.00013315794058144093
1772810464144596700,9.5005966796875,0,-0.0006657897029072046,0.0014647373463958502
1772810464154476800,9.510476806640625,-0.0010652635246515274,-0.0011984214652329683,-0.00013315794058144093
1772810464164356900,9.52035693359375,0.002130527049303055,0.0025300008710473776,-0.00013315794058144093
1772810464174237000,9.53023681640625,-0.0010652635246515274,-0.001731053227558732,-0.00013315794058144093
1772810464184117000,9.540116943359376,0.0010652635246515274,0.001997369108721614,-0.0006657897029072046
1772810464193997000,9.5499970703125,0,0.0009321055840700865,-0.001731053227558732
1772810464203877000,9.559877197265624,-0.0010652635246515274,0.0009321055840700865,-0.0022636849898844957
1772810464213757200,9.569757080078125,-0.001597895286977291,-0.0006657897029072046,-0.00013315794058144093
1772810464223637200,9.57963720703125,0.002130527049303055,-0.0011984214652329683,0.001997369108721614
1772810464233517300,9.589517333984375,-0.0005326317623257637,0.0030626326333731413,0.0009321055840700865
1772810464243397400,9.5993974609375,-0.0013315794058144093,-0.00013315794058144093,-0.0006657897029072046
1772810464253277400,9.60927734375,-0.0007989476434886456,0.0009321055840700865,-0.00013315794058144093
1772810464263157500,9.619157470703126,0.0013315794058144093,0.0009321055840700865,-0.0006657897029072046
1772810464273037600,9.62903759765625,-0.00026631588116288185,-0.0011984214652329683,0.0009321055840700865
1772810464282917600,9.638917724609374,-0.0007989476434886456,0.0014647373463958502,0.0014647373463958502
1772810464292797700,9.648797607421875,-0.0013315794058144093,0.0003994738217443228,-0.0011984214652329683
1772810464302677800,9.658677734375,0.0007989476434886456,-0.0011984214652329683,0.0003994738217443228
1772810464312557800,9.668557861328125,0.00026631588116288185,-0.00013315794058144093,-0.0006657897029072046
1772810464332318200,9.688318115234376,-0.00026631588116288185,-0.0006657897029072046,0.0003994738217443228
1772810464342198000,9.698197998046876,-0.00026631588116288185,-0.0011984214652329683,-0.0011984214652329683
1772810464352078000,9.708078125,0.00026631588116288185,-0.001731053227558732,-0.0011984214652329683
1772810464361958400,9.71795849609375,-0.0013315794058144093,0.0003994738217443228,-0.00013315794058144093
1772810464371838500,9.72783837890625,0.0007989476434886456,0.0003994738217443228,0.0003994738217443228
1772810464381718300,9.73771826171875,0.0007989476434886456,-0.0011984214652329683,-0.00013315794058144093
1772810464391598600,9.7475986328125,-0.00026631588116288185,-0.0011984214652329683,0.0003994738217443228
1772810464401478700,9.757478759765625,0.0007989476434886456,-0.0006657897029072046,0.0003994738217443228
1772810464411358700,9.767358642578126,-0.00026631588116288185,0.0014647373463958502,0.0009321055840700865
1772810464421238800,9.77723876953125,0.00026631588116288185,0.0009321055840700865,-0.0006657897029072046
1772810464431118800,9.787118896484374,0.00026631588116288185,0.0003994738217443228,-0.0006657897029072046
1772810464440999000,9.7969990234375,0.00026631588116288185,-0.0011984214652329683,-0.00013315794058144093
1772810464450879000,9.80687890625,-0.00026631588116288185,0.0003994738217443228,-0.0006657897029072046
1772810464460759000,9.816759033203125,0.0013315794058144093,0.0009321055840700865,0.0014647373463958502
1772810464480519200,9.836519287109375,-0.00026631588116288185,0.0003994738217443228,0.0003994738217443228
1772810464490399200,9.846399169921876,0.00026631588116288185,0.0009321055840700865,-0.0011984214652329683
1772810464500279300,9.856279296875,-0.00026631588116288185,0.0009321055840700865,-0.0011984214652329683
1772810464510159600,9.86615966796875,0.0013315794058144093,-0.0011984214652329683,0.0003994738217443228
1772810464520039700,9.876039794921875,0.00026631588116288185,-0.0006657897029072046,-0.00013315794058144093
1772810464529919700,9.885919677734375,0.00026631588116288185,-0.001731053227558732,0.0003994738217443228
1772810464539800000,9.895800048828125,0.0007989476434886456,-0.0011984214652329683,-0.00013315794058144093
1772810464549680400,9.905680419921875,0.00026631588116288185,0.0003994738217443228,-0.001731053227558732
1772810464559560400,9.915560546875,0.0007989476434886456,0.0009321055840700865,-0.0006657897029072046
1772810464569440800,9.925440673828126,0.0007989476434886456,0.0009321055840700865,-0.00013315794058144093
1772810464579320800,9.93532080078125,0.00026631588116288185,0.0009321055840700865,-0.0006657897029072046
1772810464589201200,9.945201171875,-0.001864211168140173,-0.0011984214652329683,-0.00013315794058144093
1772810464599081200,9.955081298828125,0.00026631588116288185,-0.00013315794058144093,-0.0011984214652329683
1772810464608961500,9.96496142578125,0.00026631588116288185,-0.003328948514536023,-0.00013315794058144093
1772810464618841900,9.974841796875,-0.0007989476434886456,0.0009321055840700865,-0.0006657897029072046
1772810464628722000,9.984721923828126,0.0007989476434886456,-0.001731053227558732,-0.0011984214652329683
1772810464638602000,9.99460205078125,-0.00026631588116288185,0.0003994738217443228,-0.00013315794058144093
1772810464648482300,10.004482421875,-0.00026631588116288185,0.0030626326333731413,0.0009321055840700865
1772810464658362600,10.014362548828124,-0.00026631588116288185,0.0014647373463958502,-0.0006657897029072046
1772810464668242700,10.02424267578125,-0.0007989476434886456,-0.00013315794058144093,-0.001731053227558732
1772810464678123000,10.034123046875,-0.00026631588116288185,0.0003994738217443228,-0.00013315794058144093
1772810464688003000,10.044003173828125,0.00026631588116288185,0.0009321055840700865,0.0003994738217443228
1772810464697883400,10.05388330078125,0.00026631588116288185,0.0014647373463958502,0.0003994738217443228
1772810464707763500,10.063763427734376,-0.00026631588116288185,0.0003994738217443228,-0.00013315794058144093
1772810464717643800,10.073643798828124,0.0007989476434886456,0.0014647373463958502,-0.0006657897029072046
1772810464727524000,10.083524169921875,-0.0007989476434886456,0.0003994738217443228,-0.0011984214652329683
1772810464737404200,10.093404052734375,0.0007989476434886456,0.0003994738217443228,-0.0006657897029072046
1772810464747284500,10.103284423828125,-0.0007989476434886456,-0.0006657897029072046,-0.001731053227558732
1772810464757164500,10.11316455078125,-0.0007989476434886456,-0.0006657897029072046,0.0003994738217443228
1772810464767044900,10.123044921875,0.00026631588116288185,0.0003994738217443228,0.0009321055840700865
1772810464776925000,10.132925048828126,-0.0013315794058144093,0.0014647373463958502,0.0003994738217443228
1772810464786805200,10.14280517578125,-0.00026631588116288185,-0.00013315794058144093,0.0003994738217443228
1772810464796685300,10.152685302734374,-0.0013315794058144093,0.001997369108721614,0.0014647373463958502
1772810464806565600,10.162565673828125,0.0007989476434886456,-0.004394211806356907,-0.0011984214652329683
1772810464816445700,10.17244580078125,0.0007989476434886456,0.001997369108721614,-0.0006657897029072046
1772810464826326000,10.182325927734375,-0.00026631588116288185,-0.0011984214652329683,-0.0006657897029072046
1772810464836206300,10.192206298828125,0.0013315794058144093,0.0003994738217443228,-0.0006657897029072046
1772810464846086400,10.20208642578125,-0.00026631588116288185,0.0003994738217443228,0.0003994738217443228
1772810464855966700,10.211966796875,0.00026631588116288185,-0.00013315794058144093,-0.00013315794058144093
1772810464865846800,10.2218466796875,0.00026631588116288185,-0.001731053227558732,0.0014647373463958502
1772810464875727000,10.23172705078125,-0.00026631588116288185,-0.003861580276861787,-0.0006657897029072046
1772810464885607200,10.241607177734375,0.00026631588116288185,-0.00013315794058144093,0.0014647373463958502
1772810464895487500,10.251487548828125,-0.001864211168140173,-0.0006657897029072046,0.001997369108721614
1772810464905367600,10.261367431640625,0.00026631588116288185,0.0003994738217443228,0.0009321055840700865
1772810464915247900,10.271247802734376,-0.00026631588116288185,0.0025300008710473776,-0.0011984214652329683
1772810464925128000,10.2811279296875,0.00026631588116288185,0.0009321055840700865,-0.0006657897029072046
1772810464935008300,10.29100830078125,-0.0013315794058144093,-0.0022636849898844957,0.0003994738217443228
1772810464944888600,10.300888671875,0.0007989476434886456,0.001997369108721614,-0.0011984214652329683
1772810464954768600,10.3107685546875,-0.00026631588116288185,0.004660528153181076,0.001997369108721614
1772810464964649000,10.32064892578125,0.0007989476434886456,-0.00013315794058144093,-0.001731053227558732
1772810464974529000,10.330529052734375,-0.00026631588116288185,0.003595264395698905,0.0014647373463958502
1772810464984409300,10.340409423828126,0.00026631588116288185,0.001997369108721614,0.0003994738217443228
1772810464994289400,10.350289306640626,0.0007989476434886456,0.0003994738217443228,0.0003994738217443228
1772810465004169000,10.3601689453125,-0.00026631588116288185,0.0009321055840700865,0.0003994738217443228
1772810465014048800,10.370048828125,0.0007989476434886456,0.0014647373463958502,-0.0006657897029072046
1772810465023928300,10.37992822265625,0.0007989476434886456,0.0009321055840700865,0.0014647373463958502
1772810465033808000,10.389807861328125,-0.0007989476434886456,-0.0011984214652329683,-0.00013315794058144093
1772810465043687400,10.3996875,0.00026631588116288185,-0.00013315794058144093,-0.0006657897029072046
1772810465053567000,10.40956689453125,0.00026631588116288185,-0.00013315794058144093,0.0003994738217443228
1772810465063446500,10.419446533203125,-0.00026631588116288185,0.0009321055840700865,0.0003994738217443228
1772810465073326000,10.429326171875,0.0013315794058144093,0.0003994738217443228,-0.00013315794058144093
1772810465083205600,10.43920556640625,0.0007989476434886456,-0.00013315794058144093,0.0003994738217443228
1772810465093085200,10.449085205078125,-0.0013315794058144093,0.0009321055840700865,0.0009321055840700865
1772810465102964700,10.45896484375,-0.0007989476434886456,0.0030626326333731413,0.0009321055840700865
1772810465112844300,10.46884423828125,-0.0007989476434886456,-0.0022636849898844957,0.0009321055840700865
1772810465122723800,10.478723876953126,0.0007989476434886456,0.0003994738217443228,0.0003994738217443228
1772810465132603400,10.488603271484376,0.00026631588116288185,-0.0006657897029072046,-0.0006657897029072046
1772810465142483200,10.498483154296874,0.00026631588116288185,-0.00013315794058144093,-0.00013315794058144093
1772810465152362500,10.508362548828124,0.00026631588116288185,-0.00013315794058144093,-0.0022636849898844957
1772810465162242300,10.5182421875,-0.00026631588116288185,-0.0022636849898844957,-0.0006657897029072046
1772810465172121900,10.528121826171875,0.0013315794058144093,-0.0006657897029072046,0.0003994738217443228
1772810465182001400,10.53800146484375,-0.0007989476434886456,-0.00013315794058144093,-0.00013315794058144093
1772810465191881000,10.547880859375,-0.00026631588116288185,-0.00013315794058144093,0.0003994738217443228
1772810465201760500,10.557760498046875,0.0007989476434886456,0.0009321055840700865,-0.00013315794058144093
1772810465211640000,10.56764013671875,0.0013315794058144093,-0.0006657897029072046,-0.00013315794058144093
1772810465221519600,10.57751953125,0.0007989476434886456,-0.00013315794058144093,-0.0011984214652329683
1772810465231399200,10.587399169921875,0.0007989476434886456,-0.00013315794058144093,0.0009321055840700865
1772810465241278700,10.59727880859375,0.00026631588116288185,-0.0006657897029072046,-0.0006657897029072046
1772810465251158300,10.607158203125,0.00026631588116288185,0.0003994738217443228,0.0009321055840700865
1772810465261037800,10.617037841796876,0.0007989476434886456,-0.0011984214652329683,0.0014647373463958502
1772810465270917400,10.62691748046875,0.00026631588116288185,-0.001731053227558732,-0.0006657897029072046
1772810465280797000,10.636796875,-0.0007989476434886456,0.0003994738217443228,-0.0006657897029072046
1772810465290676700,10.6466767578125,-0.00026631588116288185,0.0009321055840700865,-0.0006657897029072046
1772810465300556300,10.656556396484374,-0.00026631588116288185,-0.0006657897029072046,0.0003994738217443228
1772810465310435800,10.666435791015624,-0.00026631588116288185,-0.0006657897029072046,0.0009321055840700865
1772810465320315400,10.6763154296875,0.0007989476434886456,-0.00013315794058144093,-0.0006657897029072046
1772810465330195000,10.68619482421875,0.00026631588116288185,0.0014647373463958502,-0.00013315794058144093
1772810465340074500,10.696074462890625,-0.0007989476434886456,-0.0022636849898844957,-0.00013315794058144093
1772810465349954000,10.7059541015625,0.00026631588116288185,-0.0022636849898844957,-0.00013315794058144093
1772810465359833600,10.71583349609375,0.0007989476434886456,-0.00013315794058144093,-0.0011984214652329683
1772810465369713200,10.725713134765625,0.0007989476434886456,-0.00013315794058144093,0.0003994738217443228
1772810465379592700,10.7355927734375,-0.00026631588116288185,-0.0006657897029072046,-0.00013315794058144093
1772810465389472300,10.74547216796875,0.00026631588116288185,0.0009321055840700865,-0.001731053227558732
1772810465399351800,10.755351806640626,0.00026631588116288185,0.0009321055840700865,0.0003994738217443228
1772810465409231400,10.7652314453125,0.0023968429304659367,0.018508953973650932,0.012650004588067532
1772810465419111000,10.77511083984375,0.00026631588116288185,-0.007057370617985725,-0.003861580276861787
1772810465428990500,10.784990478515626,-0.0013315794058144093,0.006791055202484131,0.003595264395698905
1772810465438870300,10.794870361328124,0.00026631588116288185,0.003595264395698905,0.0009321055840700865
1772810465448749800,10.804749755859374,0.00026631588116288185,0.001997369108721614,0.0009321055840700865
1772810465458629400,10.81462939453125,0.0007989476434886456,0.0014647373463958502,-0.0022636849898844957
1772810465468509000,10.824509033203125,0.00026631588116288185,-0.0011984214652329683,-0.003328948514536023
1772810465478388500,10.834388427734375,0.0007989476434886456,-0.007057370617985725,-0.004394211806356907
1772810465488268000,10.84426806640625,-0.001864211168140173,-0.004926843568682671,-0.003328948514536023
1772810465498147800,10.85414794921875,-0.001864211168140173,-0.0022636849898844957,0.0003994738217443228
