time,seconds_elapsed,z,y,x
1772810864946561300,0.323561279296875,-0.08765983581542969,0.017551366239786148,0.036282312124967575
1772810864966324500,0.343324462890625,-0.07718086242675781,-0.013676583766937256,0.031191136687994003
1772810864986087400,0.36308740234375,-0.08556461334228516,0.06287027150392532,0.016816452145576477
1772810865005847800,0.382847900390625,-0.08406925201416016,0.0247810035943985,0.014575332403182983
1772810865025607400,0.402607421875,-0.06969547271728516,0.0077282339334487915,-0.05900781601667404
1772810865045366800,0.42236669921875,-0.08855915069580078,0.01482607051730156,-0.006592452526092529
1772810865065126400,0.44212646484375,-0.048435211181640625,0.0027623772621154785,-0.011408701539039612
1772810865084885800,0.4618857421875,-0.07688236236572266,-0.016590867191553116,-0.04262576997280121
1772810865104645400,0.481645263671875,-0.09574508666992188,0.06726162135601044,-0.018852174282073975
1772810865124405000,0.501405029296875,-0.06969356536865234,-0.002190902829170227,-0.026269804686307907
1772810865144164400,0.521164306640625,-0.09813976287841797,0.005062233656644821,-0.03821965679526329
1772810865163923700,0.540923828125,-0.06280517578125,0.03616461530327797,-0.011946748942136765
1772810865183683300,0.560683349609375,-0.06280517578125,-0.023703940212726593,-0.01915794610977173
1772810865203443000,0.58044287109375,-0.07208824157714844,-0.04295079782605171,-0.036052778363227844
1772810865223202300,0.600202392578125,-0.07897472381591797,0.03556475043296814,0.011229820549488068
1772810865242962000,0.6199619140625,-0.08137130737304688,-0.04042021930217743,-0.03654802218079567
1772810865262721300,0.63972119140625,-0.08136940002441406,-0.019090063869953156,-0.024748992174863815
1772810865282481000,0.65948095703125,-0.08376312255859375,0.031082335859537125,-0.0033707357943058014
1772810865302240300,0.679240234375,-0.06250476837158203,-0.019101183861494064,-0.03891153633594513
1772810865322000000,0.698999755859375,-0.07208728790283203,0.019084274768829346,-0.027163658291101456
1772810865341759200,0.71875927734375,-0.08616065979003906,0.0020734742283821106,-0.015159063041210175
1772810865361518800,0.738518798828125,-0.07657909393310547,-0.026548415422439575,-0.03897913172841072
1772810865381278200,0.7582783203125,-0.0906515121459961,0.026163049042224884,-0.029574081301689148
1772810865401037800,0.778037841796875,-0.060108184814453125,0.021435987204313278,0.003935240209102631
1772810865420797200,0.797797119140625,-0.07178688049316406,-0.013930108398199081,-0.03147030249238014
1772810865440556800,0.817556884765625,-0.08136940002441406,0.01451878622174263,-0.007902339100837708
1772810865460316200,0.837316162109375,-0.06729507446289062,0.012033771723508835,-0.022193998098373413
1772810865480075800,0.85707568359375,-0.06969070434570312,-0.01664053276181221,-0.04366733133792877
1772810865499836400,0.87683642578125,-0.09334564208984375,0.02659047394990921,-0.017289210110902786
1772810865519599000,0.89659912109375,-0.06759357452392578,0.009887989610433578,-0.005440250039100647
1772810865539361800,0.91636181640625,-0.09334564208984375,-0.002176620066165924,-0.03415340185165405
1772810865559124500,0.93612451171875,-0.0604095458984375,0.026423055678606033,-0.010017022490501404
1772810865578887200,0.95588720703125,-0.09334564208984375,-0.014126330614089966,-0.03404219076037407
1772810865598649900,0.97564990234375,-0.07208728790283203,0.00015861913561820984,-0.031614143401384354
1772810865618412500,0.99541259765625,-0.09334659576416016,0.026021745055913925,-0.019761841744184494
1772810865638175200,1.01517529296875,-0.07418060302734375,0.0027842819690704346,-0.02707090601325035
1772810865657938200,1.034938232421875,-0.08166694641113281,-0.009175144135951996,-0.029433712363243103
1772810865677700900,1.054700927734375,-0.08615779876708984,0.02621859312057495,0.006521664559841156
1772810865697463600,1.074463623046875,-0.08615875244140625,-0.002314940094947815,-0.029872938990592957
1772810865717226200,1.094226318359375,-0.09813690185546875,0.026541654020547867,0.003790438175201416
1772810865736989000,1.113989013671875,-0.08615875244140625,0.031039785593748093,-0.0011299587786197662
1772810865756751600,1.133751708984375,-0.08855342864990234,-0.004224739968776703,-0.03702552616596222
1772810865776514300,1.153514404296875,-0.06010723114013672,0.017199203372001648,-0.02002013847231865
1772810865796277000,1.173277099609375,-0.07178688049316406,0.005339443683624268,-0.012701191008090973
1772810865816039700,1.193039794921875,-0.08376312255859375,-0.006464745849370956,-0.03941565752029419
1772810865835802400,1.21280224609375,-0.06220436096191406,0.0076726749539375305,-0.010838165879249573
1772810865855565000,1.23256494140625,-0.07178592681884766,0.005290422588586807,-0.02757243439555168
1772810865875327700,1.25232763671875,-0.08585929870605469,-0.008959829807281494,-0.02269657701253891
1772810865895090400,1.27209033203125,-0.08106708526611328,0.017007850110530853,0.0010761655867099762
1772810865914853000,1.29185302734375,-0.07417964935302734,-0.0021386146545410156,-0.03546767681837082
1772810865934615800,1.31161572265625,-0.07627677917480469,0.009696520864963531,-0.04750434309244156
1772810865954378800,1.331378662109375,-0.06699371337890625,-0.0024182870984077454,-0.030646897852420807
1772810865974141400,1.351141357421875,-0.09753608703613281,-0.004693146795034409,-0.035502392798662186
1772810865993904000,1.370904052734375,-0.07418060302734375,0.012085933238267899,-0.037805743515491486
1772810866013667300,1.390667236328125,-0.07178592681884766,0.0242653489112854,-0.005934946238994598
1772810866033430800,1.4104306640625,-0.10023117065429688,-0.004112076014280319,-0.029408853501081467
1772810866053194200,1.4301943359375,-0.07657623291015625,0.00782625749707222,-0.01016414538025856
1772810866072957400,1.44995751953125,-0.06699371337890625,0.024494986981153488,-0.027051560580730438
1772810866092721000,1.469720947265625,-0.09095001220703125,-0.009021922945976257,-0.01978011056780815
1772810866112484400,1.489484375,-0.07657623291015625,0.024570759385824203,-0.031873054802417755
1772810866132247800,1.509247802734375,-0.08136653900146484,-0.001814432442188263,-0.02246249094605446
1772810866152011000,1.529010986328125,-0.07897186279296875,-0.021004188805818558,-0.03663843125104904
1772810866171774500,1.5487744140625,-0.08615875244140625,0.017176050692796707,-0.022333431988954544
1772810866191538000,1.568537841796875,-0.07657814025878906,-0.0020230375230312347,-0.019749056547880173
1772810866211301000,1.588301025390625,-0.0834646224975586,-0.016773678362369537,-0.018022146075963974
1772810866231064600,1.608064697265625,-0.06699562072753906,0.009133704006671906,-0.018588826060295105
1772810866250827800,1.627827880859375,-0.07628059387207031,-0.0030840635299682617,-0.020795803517103195
1772810866270591200,1.64759130859375,-0.0810708999633789,0.0039613619446754456,-0.030752044171094894
1772810866290354700,1.667354736328125,-0.08316612243652344,0.030156519263982773,-0.004634983837604523
1772810866310118000,1.687117919921875,-0.09274768829345703,-0.019966594874858856,-0.023763250559568405
1772810866329881300,1.70688134765625,-0.09274578094482422,-0.00786677747964859,-0.033718060702085495
1772810866349644800,1.726644775390625,-0.08585739135742188,0.0017812922596931458,-0.017269033938646317
1772810866369408000,1.746407958984375,-0.08825397491455078,-0.017571065574884415,-0.03188854455947876
1772810866389171500,1.76617138671875,-0.08555889129638672,0.016007959842681885,-0.027293331921100616
1772810866408935000,1.785934814453125,-0.07627487182617188,0.00876527652144432,-0.012773476541042328
1772810866428698000,1.805697998046875,-0.07388019561767578,-0.03403467312455177,-0.03381471708416939
1772810866448461600,1.825461669921875,-0.09274482727050781,0.025536973029375076,-0.029117275029420853
1772810866468225000,1.84522509765625,-0.10232734680175781,0.01131187379360199,-0.019324682652950287
1772810866487988200,1.86498828125,-0.09783554077148438,0.001677192747592926,-0.021714139729738235
1772810866507750400,1.88475048828125,-0.0786733627319336,0.01848534122109413,-0.007189352065324783
1772810866527512000,1.904511962890625,-0.06939125061035156,-0.0008332543075084686,-0.011928629130125046
1772810866547273700,1.924273681640625,-0.09753799438476562,0.008796002715826035,-0.019006013870239258
1772810866567035600,1.94403564453125,-0.09753799438476562,0.05412052944302559,-0.00703120231628418
1772810866586797300,1.96379736328125,-0.07867431640625,-0.003214798867702484,-0.016506940126419067
1772810866606559000,1.98355908203125,-0.09274864196777344,-0.0056071095168590546,-0.009115692228078842
1772810866626320600,2.003320556640625,-0.09993457794189453,0.03280184417963028,-0.016350165009498596
1772810866646082300,2.023082275390625,-0.07418251037597656,-0.005471538752317429,-0.011714182794094086
1772810866665844200,2.04284423828125,-0.06939125061035156,0.0065005868673324585,-0.02623191848397255
1772810866685606000,2.06260595703125,-0.07657718658447266,0.015916503965854645,-0.012064538896083832
1772810866705367600,2.082367431640625,-0.06699371337890625,-0.00798168033361435,-0.014509152621030807
1772810866725129200,2.102129150390625,-0.08346271514892578,-0.00787276029586792,-0.02902371436357498
1772810866744891000,2.121890869140625,-0.059807777404785156,0.011283162981271744,-0.026564814150333405
1772810866764652800,2.14165283203125,-0.06938648223876953,-0.002881273627281189,-0.026862580329179764
1772810866784414500,2.16141455078125,-0.08825016021728516,0.011327479034662247,-0.022424791008234024
1772810866804176100,2.181176025390625,-0.06938648223876953,0.027868568897247314,-0.012944106012582779
1772810866823937800,2.200937744140625,-0.07866764068603516,-0.012638352811336517,-0.030502185225486755
1772810866843699500,2.220699462890625,-0.07836723327636719,-0.0007124058902263641,-0.011543717235326767
1772810866863461000,2.240461181640625,-0.06908416748046875,0.0016814805567264557,-0.01872352883219719
1772810866883223000,2.26022314453125,-0.07597160339355469,-0.01731439307332039,-0.03058166429400444
1772810866902984700,2.279984619140625,-0.08315849304199219,0.004189800471067429,-0.033165670931339264
1772810866922746400,2.299746337890625,-0.0759725570678711,0.0018446221947669983,-0.0016688928008079529
1772810866942508000,2.319508056640625,-0.07836723327636719,-0.014809176325798035,-0.04246949777007103
1772810866962269700,2.339269775390625,-0.07597064971923828,0.022900450974702835,-0.02350158989429474
1772810866982031600,2.359031494140625,-0.09752941131591797,-0.012319084256887436,-0.018754109740257263
1772810867001793500,2.37879345703125,-0.07387542724609375,0.020498160272836685,-0.02577279880642891
1772810867021556200,2.39855615234375,-0.07357597351074219,0.022564638406038284,-0.02417249232530594
1772810867041319000,2.41831884765625,-0.08555316925048828,-0.003783479332923889,-0.01693057268857956
1772810867061081600,2.43808154296875,-0.0783681869506836,-0.001387864351272583,-0.03357789292931557
1772810867080844300,2.45784423828125,-0.09513568878173828,0.005741477012634277,-0.009779796004295349
1772810867100607000,2.47760693359375,-0.09513568878173828,0.003291334956884384,-0.02898033708333969
1772810867120369700,2.49736962890625,-0.0687856674194336,-0.00888608768582344,-0.014605127274990082
1772810867140132400,2.51713232421875,-0.0783681869506836,0.0174478180706501,-0.021731697022914886
1772810867159895000,2.53689501953125,-0.0855560302734375,0.012542501091957092,-0.014542263001203537
1772810867179657700,2.55665771484375,-0.08315849304199219,-0.01613875851035118,-0.04830522462725639
1772810867199420400,2.57642041015625,-0.09723186492919922,0.007860556244850159,-0.03146716579794884
1772810867219183000,2.59618310546875,-0.08525466918945312,-0.011293511837720871,-0.03862890228629112
1772810867238945800,2.61594580078125,-0.10202312469482422,0.01488768681883812,-0.0386560894548893
1772810867258708500,2.63570849609375,-0.0783681869506836,0.007641494274139404,-0.01704007014632225
1772810867278471200,2.65547119140625,-0.0807657241821289,-0.013957485556602478,-0.022367920726537704
1772810867298233900,2.67523388671875,-0.08555793762207031,-0.007074844092130661,-0.007842686027288437
1772810867317996500,2.69499658203125,-0.07837104797363281,0.009632494300603867,-0.0317264087498188
1772810867337759200,2.71475927734375,-0.08286380767822266,0.004838038235902786,-0.02213263139128685
1772810867357522000,2.73452197265625,-0.09244251251220703,0.009721215814352036,-0.022432219237089157
1772810867377284600,2.75428466796875,-0.09004878997802734,0.009658604860305786,-0.02710510790348053
1772810867397047300,2.77404736328125,-0.08525753021240234,0.018623024225234985,-0.029689021408557892
1772810867416810000,2.79381005859375,-0.07837104797363281,0.007277820259332657,-0.017106473445892334
1772810867436572700,2.81357275390625,-0.07148265838623047,0.00756923109292984,-0.042929671704769135
1772810867456335400,2.83333544921875,-0.0831613540649414,0.007509838789701462,-0.05262511223554611
1772810867476098000,2.85309814453125,-0.0855569839477539,0.005004037171602249,-0.004670284688472748
1772810867495860500,2.872860595703125,-0.0855569839477539,0.00016280263662338257,-0.01170908659696579
1772810867515623000,2.892622802734375,-0.09514045715332031,0.0047415755689144135,-0.025560762733221054
1772810867535385000,2.912385009765625,-0.08346176147460938,-0.009726669639348984,-0.01617998629808426
1772810867555147500,2.9321474609375,-0.07867050170898438,-0.011955492198467255,-0.011284071952104568
1772810867574910000,2.951909912109375,-0.08585643768310547,-0.0049200765788555145,-0.020958315581083298
1772810867594672000,2.971672119140625,-0.102325439453125,0.00470845028758049,-0.011477634310722351
1772810867614434600,2.9914345703125,-0.07867145538330078,0.009137090295553207,-0.014261558651924133
1772810867634196700,3.01119677734375,-0.08076858520507812,0.006228044629096985,-0.02198280766606331
1772810867653959200,3.030959228515625,-0.08047008514404297,0.022816147655248642,-0.03143937140703201
1772810867673721300,3.050721435546875,-0.07358360290527344,-0.008316908031702042,-0.014861363917589188
1772810867693483800,3.07048388671875,-0.1065216064453125,-0.01782919093966484,-0.04152902215719223
1772810867713246000,3.090245849609375,-0.06160449981689453,0.00835704430937767,-0.027343224734067917
1772810867733008400,3.11000830078125,-0.08316516876220703,-0.0036164410412311554,-0.022640850394964218
1772810867752770600,3.1297705078125,-0.07358169555664062,-0.008296657353639603,-0.027412712574005127
1772810867772533000,3.149532958984375,-0.1041259765625,0.019931472837924957,-0.031920887529850006
1772810867792295200,3.169295166015625,-0.08975410461425781,-0.02022329717874527,-0.019674036651849747
1772810867812057600,3.1890576171875,-0.09723854064941406,-0.008588377386331558,-0.024252410978078842
1772810867831819800,3.20881982421875,-0.08556175231933594,-0.0058873482048511505,-0.021595150232315063
1772810867851582200,3.228582275390625,-0.08795738220214844,0.0035866759717464447,-0.023870855569839478
1772810867871344600,3.2483447265625,-0.08077144622802734,0.008263707160949707,-0.021513503044843674
1772810867891106800,3.26810693359375,-0.08795738220214844,0.02042357251048088,-0.02607894316315651
1772810867910869000,3.287868896484375,-0.08556365966796875,-0.010653987526893616,-0.03084459900856018
1772810867930631400,3.30763134765625,-0.07837677001953125,-0.003516528755426407,-0.008635427802801132
1772810867950393900,3.327393798828125,-0.07837772369384766,0.00839916616678238,-0.032511260360479355
1772810867970156000,3.347156005859375,-0.08796024322509766,0.013122111558914185,-0.017973318696022034
1772810867989918500,3.36691845703125,-0.08796215057373047,-0.013068459928035736,-0.017807360738515854
1772810868009680400,3.386680419921875,-0.08556556701660156,0.012864451855421066,-0.011123280972242355
1772810868029442600,3.406442626953125,-0.08317184448242188,0.01997542940080166,-0.03982197865843773
1772810868049204700,3.426204833984375,-0.08556842803955078,-0.013804079964756966,-0.022778812795877457
1772810868068967000,3.445966796875,-0.0831747055053711,0.014871569350361824,-0.015635699033737183
1772810868088729000,3.46572900390625,-0.09006118774414062,0.005282498896121979,-0.013183139264583588
1772810868108491300,3.4854912109375,-0.0664052963256836,-0.0020064786076545715,-0.01551898941397667
1772810868128253400,3.50525341796875,-0.0664072036743164,0.026603352278470993,-0.03200066462159157
1772810868148015600,3.525015625,-0.06640815734863281,-0.016530148684978485,-0.027024589478969574
1772810868167777800,3.54477783203125,-0.07119941711425781,0.0027687642723321915,-0.012424450367689133
1772810868187540000,3.5645400390625,-0.09036540985107422,-0.0067700669169425964,-0.026552990078926086
1772810868207302100,3.58430224609375,-0.07599258422851562,0.017095832154154778,-0.024173565208911896
1772810868227064300,3.604064208984375,-0.06880569458007812,-0.006970353424549103,-0.017612792551517487
1772810868246826500,3.623826416015625,-0.08527660369873047,-0.0001008845865726471,-0.03184036165475845
1772810868266588400,3.64358837890625,-0.08048534393310547,0.013885948807001114,-0.022434551268815994
1772810868286350600,3.6633505859375,-0.0897674560546875,-0.014754898846149445,-0.01751543954014778
1772810868306112800,3.68311279296875,-0.0969533920288086,-0.009812872856855392,-0.03158694878220558
1772810868325875000,3.702875,-0.08497905731201172,0.006671687588095665,-0.015292052179574966
1772810868345637000,3.72263720703125,-0.08048725128173828,-0.019361311569809914,-0.015011992305517197
1772810868365399300,3.7423994140625,-0.08737659454345703,-0.00031795911490917206,-0.026643037796020508
1772810868385161500,3.762161376953125,-0.08258533477783203,0.009338313713669777,-0.026605859398841858
1772810868404923600,3.781923583984375,-0.08737468719482422,-0.026370437815785408,-0.024331070482730865
1772810868424685800,3.801685791015625,-0.09006977081298828,-0.018527399748563766,-0.018914595246315002
1772810868444448000,3.821447998046875,-0.06641483306884766,-0.004063170403242111,-0.011400628834962845
1772810868464210200,3.841210205078125,-0.07120704650878906,-0.008859291672706604,-0.03010881319642067
1772810868483972400,3.860972412109375,-0.0876779556274414,-0.00631747767329216,-0.017949964851140976
1772810868503734000,3.880734130859375,-0.07839584350585938,-0.015790484845638275,-0.0248410664498806
1772810868523495400,3.900495361328125,-0.10414791107177734,-0.003824859857559204,-0.031827326864004135
1772810868543256800,3.9202568359375,-0.06881523132324219,0.008382469415664673,-0.0027135349810123444
1772810868563018200,3.940018310546875,-0.0831899642944336,0.0012288950383663177,-0.004944756627082825
1772810868582779600,3.959779541015625,-0.10205364227294922,-0.011009272187948227,-0.024073731154203415
1772810868602541000,3.979541015625,-0.08289146423339844,0.015302948653697968,-0.01426335796713829
1772810868622302500,3.999302490234375,-0.0807952880859375,0.0032003968954086304,-0.023366983979940414
1772810868642064000,4.01906396484375,-0.0879812240600586,-0.0040499065071344376,-0.01859993487596512
1772810868661825300,4.0388251953125,-0.09247303009033203,0.0031158048659563065,-0.018468070775270462
1772810868681586700,4.058586669921875,-0.09247303009033203,-0.0017417427152395248,-0.023533742874860764
1772810868701348000,4.07834814453125,-0.0760040283203125,0.009998157620429993,-0.0044642239809036255
1772810868721109500,4.098109619140625,-0.08768367767333984,0.017195750027894974,-0.008981328457593918
1772810868740871000,4.117870849609375,-0.08798408508300781,-0.004116969183087349,-0.02784544974565506
1772810868760632300,4.13763232421875,-0.08558845520019531,0.0005516018718481064,0.015047259628772736
1772810868780393700,4.157393798828125,-0.09247493743896484,-0.013611195608973503,0.012895572930574417
1772810868800155100,4.177155029296875,-0.07840156555175781,0.027107425034046173,-0.05420205742120743
1772810868819916500,4.19691650390625,-0.09247493743896484,0.03841457888484001,-0.01639533042907715
1772810868839678000,4.216677978515625,-0.08528900146484375,-0.021356726065278053,-0.0020691342651844025
1772810868859439400,4.236439453125,-0.07600784301757812,0.0024227239191532135,-0.04795557260513306
1772810868879200800,4.25620068359375,-0.07361221313476562,0.021589960902929306,-0.04055311530828476
1772810868898962200,4.275962158203125,-0.08528900146484375,-0.05001286417245865,0.00017241761088371277
1772810868918723600,4.2957236328125,-0.09217643737792969,-0.021407533437013626,0.00002053380012512207
1772810868938485000,4.315485107421875,-0.11104202270507812,0.016723508015275,-0.038351915776729584
1772810868958246400,4.335246337890625,-0.07780265808105469,-0.011867048218846321,-0.024147413671016693
1772810868978007800,4.3550078125,-0.06372833251953125,-0.023672081530094147,-0.01698480173945427
1772810868997769500,4.37476953125,-0.0688180923461914,0.03151562437415123,-0.014667846262454987
1772810869017531400,4.394531494140625,-0.07810211181640625,-0.006726296618580818,-0.030984897166490555
1772810869037293600,4.41429345703125,-0.0712127685546875,-0.0014968253672122955,0.016891449689865112
1772810869057055700,4.4340556640625,-0.09007740020751953,-0.0039444975554943085,-0.02603057399392128
1772810869076817700,4.453817626953125,-0.07570457458496094,0.029128286987543106,-0.055001258850097656
1772810869096579800,4.473579833984375,-0.09007930755615234,0.0006131716072559357,0.0004072226583957672
1772810869116342000,4.493342041015625,-0.08558845520019531,-0.02536497637629509,-0.0017249435186386108
1772810869136104000,4.51310400390625,-0.09487152099609375,0.015070628374814987,-0.03973136469721794
1772810869155866000,4.5328662109375,-0.07121753692626953,0.038650691509246826,-0.01788344606757164
1772810869175628000,4.5526279296875,-0.07840347290039062,-0.013293322175741196,0.012982230633497238
1772810869195390200,4.57239013671875,-0.09217548370361328,-0.012981090694665909,-0.018335048109292984
1772810869215152400,4.59215234375,-0.08528804779052734,0.031919799745082855,-0.056727394461631775
1772810869234914300,4.611914306640625,-0.08049774169921875,-0.003971729427576065,-0.001677677035331726
1772810869254676500,4.631676513671875,-0.08049774169921875,-0.006271764636039734,0.005657244473695755
1772810869274438700,4.651438720703125,-0.08049964904785156,0.024813782423734665,-0.028019003570079803
1772810869294200600,4.67120068359375,-0.07810306549072266,-0.0253661647439003,-0.028230853378772736
1772810869313962800,4.690962646484375,-0.07331085205078125,-0.010889843106269836,0.005300462245941162
1772810869333725000,4.710724853515625,-0.05205059051513672,0.008398495614528656,-0.009158365428447723
1772810869353486800,4.73048681640625,-0.06163215637207031,0.013305146247148514,-0.035553932189941406
1772810869373249000,4.7502490234375,-0.06402587890625,0.008741408586502075,0.0006382130086421967
1772810869393011200,4.77001123046875,-0.07570648193359375,0.0038757026195526123,0.0054749734699726105
1772810869412773000,4.789773193359375,-0.07810211181640625,0.030160825699567795,-0.029900871217250824
1772810869432535300,4.809535400390625,-0.07600784301757812,0.018136166036128998,-0.0029349662363529205
1772810869452297200,4.829297119140625,-0.07810497283935547,-0.0010947883129119873,-0.005267824977636337
1772810869472059400,4.849059326171875,-0.0921773910522461,0.010745130479335785,-0.01716308668255806
1772810869491821600,4.868821533203125,-0.07571029663085938,0.020277414470911026,-0.0146893709897995
1772810869511583200,4.888583251953125,-0.07331371307373047,-0.022820740938186646,-0.010085266083478928
1772810869531345200,4.90834521484375,-0.06402969360351562,-0.005904305726289749,-0.0005505792796611786
1772810869551106800,4.92810693359375,-0.08050060272216797,0.027621068060398102,-0.01997925341129303
1772810869570868700,4.94786865234375,-0.07570934295654297,-0.00821126252412796,-0.03464357182383537
1772810869590630400,4.96763037109375,-0.07361316680908203,-0.010606609284877777,0.01160779595375061
1772810869610392300,4.987392333984375,-0.07810497283935547,-0.0031324662268161774,-0.024528909474611282
1772810869630154000,5.007154052734375,-0.07361412048339844,0.0020920224487781525,-0.02153770625591278
1772810869649916000,5.026916015625,-0.08768844604492188,-0.002711273729801178,-0.018849939107894897
1772810869669677600,5.046677490234375,-0.08529472351074219,-0.0026722215116024017,-0.009146858006715775
1772810869689439500,5.066439453125,-0.08050251007080078,-0.004973378032445908,-0.018643498420715332
1772810869709201200,5.086201171875,-0.07122039794921875,0.002192080020904541,-0.016218341886997223
1772810869728963000,5.105963134765625,-0.05954170227050781,-0.01701265573501587,-0.021281085908412933
1772810869748724700,5.125724853515625,-0.07121944427490234,-0.01934148371219635,-0.037931546568870544
1772810869768486700,5.145486572265625,-0.07600975036621094,-0.0023794397711753845,-0.01848575845360756
1772810869788248300,5.165248291015625,-0.08559226989746094,0.004833262413740158,-0.011030320078134537
1772810869808010200,5.18501025390625,-0.07840538024902344,0.012034185230731964,-0.02067730575799942
1772810869827772000,5.20477197265625,-0.07361507415771484,0.007214050740003586,0.0012441202998161316
1772810869847533800,5.224533935546875,-0.08319854736328125,-0.00487508624792099,-0.025163434445858
1772810869867295500,5.24429541015625,-0.08798980712890625,0.004578534513711929,-0.010718058794736862
1772810869887057400,5.264057373046875,-0.07601165771484375,0.023788638412952423,-0.017870157957077026
1772810869906819000,5.283819091796875,-0.09038448333740234,0.007042147219181061,-0.010766278952360153
1772810869926581000,5.3035810546875,-0.08080291748046875,-0.009789776057004929,-0.027458444237709045
1772810869946342700,5.3233427734375,-0.07391548156738281,-0.005134560167789459,-0.022677458822727203
1772810869966104600,5.3431044921875,-0.06643009185791016,0.0020582154393196106,-0.010627664625644684
1772810869985866200,5.3628662109375,-0.07601261138916016,0.0020648017525672913,0.0016486048698425293
1772810870005628400,5.38262841796875,-0.09008598327636719,0.01891450211405754,-0.010060187429189682
1772810870025390600,5.402390625,-0.08739089965820312,-0.0008879527449607849,-0.019316814839839935
1772810870045152800,5.42215283203125,-0.09457588195800781,0.0037519484758377075,-0.007324066013097763
1772810870064915000,5.4419150390625,-0.08499526977539062,0.018411781638860703,-0.014276966452598572
1772810870084677000,5.461677001953125,-0.09218215942382812,-0.0008432827889919281,-0.021216895431280136
1772810870104439300,5.481439208984375,-0.07541275024414062,0.004003111273050308,0.0001902356743812561
1772810870124201500,5.501201416015625,-0.0541534423828125,-0.0009813494980335236,-0.023770425468683243
1772810870143963600,5.520963623046875,-0.08020591735839844,0.006307113915681839,-0.016397707164287567
1772810870163726000,5.54072607421875,-0.07062339782714844,0.023044820874929428,-0.009542584419250488
1772810870183488300,5.56048828125,-0.08499717712402344,-0.005783382803201675,-0.0025452636182308197
1772810870203250400,5.58025048828125,-0.0685281753540039,0.02243659645318985,-0.028635092079639435
1772810870223012600,5.6000126953125,-0.06882762908935547,-0.002752792090177536,-0.010647814720869064
1772810870242774800,5.61977490234375,-0.08290386199951172,-0.0052323415875434875,-0.010369110852479935
1772810870262537000,5.639536865234375,-0.07122516632080078,0.0067437440156936646,-0.022303003817796707
1772810870282299100,5.659299072265625,-0.05445671081542969,0.008936703205108643,-0.017271891236305237
1772810870302061300,5.679061279296875,-0.06403827667236328,0.004447486251592636,-0.022174835205078125
1772810870321823500,5.698823486328125,-0.08559799194335938,-0.00994843989610672,-0.007888268679380417
1772810870341585700,5.718585693359375,-0.07122421264648438,0.02355467900633812,-0.022424984723329544
1772810870361347800,5.738347900390625,-0.05685234069824219,0.013957485556602478,-0.0030979253351688385
1772810870381110000,5.758110107421875,-0.07601547241210938,0.0018833465874195099,-0.003399249166250229
1772810870400872400,5.77787255859375,-0.07361984252929688,-0.009962253272533417,-0.02719821408390999
1772810870420634600,5.797634521484375,-0.06403732299804688,0.015873119235038757,-0.010511461645364761
1772810870440396800,5.817396728515625,-0.08290290832519531,-0.005665656179189682,-0.015271961688995361
1772810870460159000,5.837158935546875,-0.06643295288085938,0.013431977480649948,-0.005831517279148102
1772810870479921200,5.856921142578125,-0.0781097412109375,-0.008049890398979187,-0.0037875771522521973
1772810870499683300,5.876683349609375,-0.06642913818359375,-0.01962887868285179,-0.02789388597011566
1772810870519445500,5.896445556640625,-0.06643009185791016,0.003874499350786209,-0.00637190043926239
1772810870539207700,5.916207763671875,-0.0781097412109375,0.0037740133702754974,-0.013376396149396896
1772810870558969900,5.935969970703125,-0.0757150650024414,0.003674253821372986,-0.018027618527412415
1772810870578732000,5.95573193359375,-0.09697532653808594,-0.0011044517159461975,-0.02506145089864731
1772810870598494200,5.975494140625,-0.054454803466796875,-0.015387158840894699,-0.013109009712934494
1772810870618256400,5.99525634765625,-0.0900888442993164,-0.010019093751907349,-0.022490624338388443
1772810870638018600,6.0150185546875,-0.042778968811035156,-0.0052595362067222595,-0.022290825843811035
1772810870657780700,6.03478076171875,-0.06403732299804688,-0.007578868418931961,-0.0008307136595249176
1772810870677543000,6.05454296875,-0.05445671081542969,0.01630283147096634,-0.015069689601659775
1772810870697305000,6.07430517578125,-0.07841205596923828,-0.009914841502904892,-0.005474794656038284
1772810870717067300,6.0940673828125,-0.06882858276367188,0.011735867708921432,0.0046997033059597015
1772810870736829400,6.113829345703125,-0.06882858276367188,-0.021852001547813416,-0.005076609551906586
1772810870756591900,6.133591796875,-0.0948801040649414,-0.002826288342475891,-0.014472629874944687
1772810870776354000,6.15335400390625,-0.08080863952636719,0.013822618871927261,-0.01428774744272232
1772810870796116200,6.1731162109375,-0.0832052230834961,0.01619701087474823,-0.011712398380041122
1772810870815878400,6.19287841796875,-0.07601737976074219,-0.0030027851462364197,-0.01468668133020401
1772810870835640600,6.212640625,-0.07122611999511719,0.013749320060014725,-0.024569343775510788
1772810870855402800,6.23240283203125,-0.0496673583984375,0.023245498538017273,-0.007885601371526718
1772810870875165000,6.2521650390625,-0.0616455078125,-0.0031917206943035126,-0.017328083515167236
1772810870894927000,6.271927001953125,-0.08769798278808594,0.02073245868086815,0.0020402073860168457
1772810870914689300,6.291689208984375,-0.066436767578125,0.008748818188905716,-0.009760159999132156
1772810870934451500,6.311451416015625,-0.0640401840209961,0.008638046681880951,-0.012387789785861969
1772810870954213600,6.331213623046875,-0.080810546875,-0.0009833090007305145,-0.026757284998893738
1772810870973975800,6.350975830078125,-0.08769702911376953,0.006098363548517227,-0.009915333241224289
1772810870993738000,6.370738037109375,-0.08081245422363281,0.0035510919988155365,-0.028968170285224915
1772810871013499400,6.39049951171875,-0.0688333511352539,-0.0014324933290481567,-0.002867169678211212
1772810871033260800,6.4102607421875,-0.05685615539550781,-0.008334159851074219,-0.021933503448963165
1772810871053022000,6.43002197265625,-0.09009265899658203,-0.006019774824380875,-0.012479566037654877
1772810871072783400,6.449783447265625,-0.0832071304321289,0.008243277668952942,-0.012452807277441025
1772810871092544800,6.469544677734375,-0.085601806640625,0.0036096125841140747,-0.019650008529424667
1772810871112306200,6.48930615234375,-0.07122802734375,0.0011188164353370667,-0.007603399455547333
1772810871132067600,6.509067626953125,-0.0832061767578125,0.001281600445508957,-0.007482707500457764
1772810871151829000,6.5288291015625,-0.07602119445800781,-0.001204855740070343,-0.009598828852176666
1772810871171590400,6.54859033203125,-0.06643867492675781,-0.003326036036014557,0.0003970488905906677
1772810871191351600,6.5683515625,-0.0945882797241211,0.008644431829452515,-0.028083130717277527
1772810871211113000,6.588113037109375,-0.07811927795410156,0.008534383028745651,-0.018162578344345093
1772810871230874400,6.607874267578125,-0.06883621215820312,-0.001086946576833725,0.003587815910577774
1772810871250635800,6.6276357421875,-0.09249305725097656,-0.005855061113834381,-0.027391746640205383
1772810871270397200,6.647397216796875,-0.08081531524658203,-0.0012070313096046448,-0.010754808783531189
1772810871290158600,6.66715869140625,-0.07362747192382812,0.013149209320545197,-0.0038165971636772156
1772810871309920000,6.686919921875,-0.07602310180664062,-0.003498900681734085,-0.010721024125814438
1772810871329681400,6.706681396484375,-0.09518623352050781,0.0038966722786426544,-0.010645251721143723
1772810871349442600,6.726442626953125,-0.08320999145507812,0.011173233389854431,-0.013063870370388031
1772810871369204000,6.746203857421875,-0.08320999145507812,0.008667528629302979,-0.020206037908792496
1772810871388965400,6.76596533203125,-0.07362747192382812,0.020613055676221848,-0.008209232240915298
1772810871408726800,6.785726806640625,-0.08800029754638672,-0.003324311226606369,-0.012970618903636932
1772810871428488200,6.80548828125,-0.0667409896850586,0.01072753593325615,0.0014553368091583252
1772810871448249600,6.82524951171875,-0.07602405548095703,0.005986373871564865,-0.01070234552025795
1772810871468010800,6.8450107421875,-0.09967899322509766,0.0012554936110973358,-0.01789899542927742
1772810871487772200,6.864772216796875,-0.0667409896850586,0.003448180854320526,-0.010634437203407288
1772810871507533800,6.884533935546875,-0.08321094512939453,0.0032970234751701355,-0.0013554207980632782
1772810871527295500,6.90429541015625,-0.076324462890625,0.01509845070540905,0.003586824983358383
1772810871547057400,6.924057373046875,-0.07123470306396484,0.0030214954167604446,-0.010656915605068207
1772810871566819000,6.943819091796875,-0.07363033294677734,-0.013811349868774414,0.0038148239254951477
1772810871586581000,6.9635810546875,-0.08321189880371094,-0.013472048565745354,-0.01501307263970375
1772810871606342700,6.9833427734375,-0.09728527069091797,0.01037728600203991,-0.02663249894976616
1772810871626104300,7.003104248046875,-0.07842254638671875,0.007975239306688309,-0.017196550965309143
1772810871645866200,7.0228662109375,-0.07363319396972656,-0.004189848899841309,-0.0171053484082222
1772810871665628000,7.0426279296875,-0.06884193420410156,0.0197854433208704,-0.017714455723762512
1772810871685389600,7.0623896484375,-0.07842445373535156,0.0030728019773960114,-0.005720868706703186
1772810871705151500,7.0821513671875,-0.08081912994384766,0.003185488283634186,-0.024782683700323105
1772810871724913200,7.1019130859375,-0.05716514587402344,0.0029944200068712234,-0.005305565893650055
1772810871744674800,7.1216748046875,-0.05446910858154297,0.010387128219008446,-0.015018302947282791
1772810871764436700,7.141436767578125,-0.06405067443847656,0.010490812361240387,-0.026636403053998947
1772810871784198400,7.161198486328125,-0.07363414764404297,0.00331922248005867,-0.021806824952363968
1772810871803960000,7.1809599609375,-0.0757303237915039,-0.011266645044088364,-0.004881709814071655
1772810871823722000,7.200721923828125,-0.0901041030883789,0.0006790198385715485,-0.016883283853530884
1772810871843483600,7.220483642578125,-0.0877084732055664,0.005531748756766319,-0.01202288269996643
1772810871863245600,7.24024560546875,-0.05686759948730469,0.019831711426377296,-0.014292892068624496
1772810871883007200,7.26000732421875,-0.06644821166992188,0.0006872080266475677,-0.0025253817439079285
1772810871902769000,7.279768798828125,-0.06405353546142578,0.0005536414682865143,-0.014427285641431808
1772810871922530800,7.29953076171875,-0.05447196960449219,-0.004206543788313866,-0.01419798657298088
1772810871942292500,7.31929248046875,-0.07363605499267578,0.0052833035588264465,-0.014380693435668945
1772810871962054100,7.33905419921875,-0.07363510131835938,0.009723573923110962,-0.009938076138496399
1772810871981816000,7.358816162109375,-0.08321857452392578,-0.009253919124603271,-0.007482815533876419
1772810872001577700,7.37857763671875,-0.07363510131835938,0.006870504468679428,-0.007732551544904709
1772810872021340000,7.39833984375,-0.06644916534423828,0.002590833231806755,-0.007023446261882782
1772810872041102000,7.41810205078125,-0.06195831298828125,-0.0046156346797943115,-0.014135494828224182
1772810872060864300,7.4378642578125,-0.06884479522705078,0.002587411552667618,-0.018738392740488052
1772810872080626400,7.45762646484375,-0.05716705322265625,-0.01184161938726902,-0.007114939391613007
1772810872100388400,7.477388427734375,-0.07842636108398438,-0.009351469576358795,-0.01432901993393898
1772810872120150500,7.497150634765625,-0.0972900390625,-0.009309573099017143,-0.016747932881116867
1772810872139912700,7.51691259765625,-0.08082294464111328,0.014377735555171967,-0.011887069791555405
1772810872159675000,7.5366748046875,-0.08321857452392578,0.009536009281873703,0.01486646756529808
1772810872179436800,7.556436767578125,-0.07602977752685547,-0.007091963663697243,-0.0187920480966568
1772810872199199000,7.576198974609375,-0.061954498291015625,0.007389716804027557,-0.004777915775775909
1772810872218961200,7.595961181640625,-0.07363319396972656,0.007343471050262451,-0.019611425697803497
1772810872238723300,7.615723388671875,-0.08800697326660156,0.007348369807004929,-0.012457873672246933
1772810872258485200,7.6354853515625,-0.07123756408691406,0.007456708699464798,-0.022102467715740204
1772810872278247400,7.655247314453125,-0.07123661041259766,0.002578381448984146,-0.02476116642355919
1772810872298009600,7.675009521484375,-0.05716228485107422,-0.009409185498952866,-0.010477166622877121
1772810872317771800,7.694771728515625,-0.05716228485107422,-0.004482906311750412,-0.00832880288362503
1772810872337534000,7.714533935546875,-0.08321380615234375,0.004903577268123627,-0.013356264680624008
1772810872357295900,7.7342958984375,-0.08081817626953125,0.007253581658005714,0.0035514459013938904
1772810872377058000,7.75405810546875,-0.08321380615234375,-0.011964192613959312,-0.0012955106794834137
1772810872396820200,7.7738203125,-0.09279441833496094,0.016920901834964752,-0.003896709531545639
1772810872416582400,7.79358251953125,-0.08560943603515625,0.021778516471385956,-0.01290854811668396
1772810872436344300,7.81334423828125,-0.06195259094238281,0.00028225965797901154,0.0065771304070949554
1772810872456106500,7.8331064453125,-0.0739297866821289,0.002693643793463707,-0.012563221156597137
1772810872475868700,7.85286865234375,-0.0859079360961914,0.0026586949825286865,-0.0007948093116283417
1772810872495630800,7.872630859375,-0.06943607330322266,0.002829229459166527,-0.005732331424951553
1772810872515393500,7.8923935546875,-0.07422637939453125,-0.01831500604748726,-0.0037970207631587982
1772810872535156200,7.91215625,-0.06703853607177734,0.007637346163392067,-0.005987405776977539
1772810872554919200,7.931919189453125,-0.06943511962890625,-0.013426344841718674,-0.0034447647631168365
1772810872574681900,7.951681884765625,-0.06943321228027344,-0.0063581280410289764,0.005964543670415878
1772810872594444500,7.971444580078125,-0.06464195251464844,0.008018873631954193,-0.010835390537977219
1772810872614207500,7.99120751953125,-0.07871723175048828,0.0074260421097278595,-0.018779229372739792
1772810872633970200,8.01097021484375,-0.07153129577636719,-0.014625689014792442,-0.024265259504318237
1772810872653732900,8.03073291015625,-0.08320808410644531,-0.01441570371389389,-0.01730387657880783
1772810872673495600,8.05049560546875,-0.06643962860107422,-0.00007312744855880737,-0.009947039186954498
1772810872693258500,8.070258544921876,-0.05685710906982422,0.009663408622145653,-0.01018853485584259
1772810872713021200,8.090021240234375,-0.0736246109008789,-0.009302612394094467,-0.01012047752737999
1772810872732783900,8.109783935546876,-0.07841682434082031,-0.00453096441924572,-0.022002622485160828
1772810872752546800,8.129546875,-0.066436767578125,-0.002057282254099846,-0.008072003722190857
1772810872772309500,8.1493095703125,-0.0664377212524414,0.0004617776721715927,-0.0009831450879573822
1772810872792072200,8.169072265625,-0.0832071304321289,0.009939344599843025,-0.005819268524646759
1772810872811835000,8.1888349609375,-0.0832071304321289,-0.013714427128434181,-0.01467214897274971
1772810872831597600,8.20859765625,-0.06913375854492188,-0.0014640819281339645,-0.016489163041114807
1772810872851360500,8.228360595703125,-0.06464099884033203,0.003443898633122444,-0.01183243840932846
1772810872871123200,8.248123291015625,-0.07631969451904297,-0.018256982788443565,-0.014303993433713913
1772810872890886000,8.267885986328125,-0.06464195251464844,0.01760520227253437,0.0026070289313793182
1772810872910648800,8.28764892578125,-0.06434249877929688,-0.0015328563749790192,-0.006573427468538284
1772810872930411500,8.30741162109375,-0.07152748107910156,-0.013456696644425392,0.010062500834465027
1772810872950174200,8.32717431640625,-0.06464004516601562,0.0007819030433893204,-0.011424768716096878
1772810872969937000,8.34693701171875,-0.07632064819335938,-0.006521768867969513,-0.008808363229036331
1772810872989699800,8.366699951171874,-0.08590221405029297,-0.0065365806221961975,-0.02547292783856392
1772810873009461200,8.386461181640625,-0.06913375854492188,-0.023487435653805733,0.0031042397022247314
1772810873029222700,8.40622265625,-0.06703948974609375,0.0005398876965045929,-0.015820741653442383
1772810873048984000,8.425984130859375,-0.08350849151611328,0.003053871914744377,-0.020619913935661316
1772810873068745500,8.445745361328125,-0.06703853607177734,-0.00420333631336689,-0.0013534985482692719
1772810873088507000,8.4655068359375,-0.08829784393310547,-0.0041197557002305984,-0.01590026542544365
1772810873108268300,8.485268310546875,-0.07871627807617188,-0.006579732522368431,-0.011189974844455719
1772810873128029700,8.50502978515625,-0.06464290618896484,-0.0020198263227939606,-0.013557974249124527
1772810873147791000,8.524791015625,-0.06464195251464844,0.014840265735983849,-0.011346057057380676
1772810873167552500,8.544552490234375,-0.08350753784179688,0.014776395633816719,-0.013662386685609818
1772810873187313700,8.564313720703124,-0.06943416595458984,0.0147123783826828,-0.013789501041173935
1772810873207075000,8.584074951171875,-0.06943321228027344,0.0026984643191099167,-0.013865277171134949
1772810873226836500,8.60383642578125,-0.07152938842773438,-0.0120677649974823,-0.012489411979913712
1772810873246598000,8.623597900390624,-0.07602119445800781,0.004762519150972366,-0.019585121423006058
1772810873266359300,8.643359375,-0.07362747192382812,-0.007073381915688515,-0.01445719599723816
1772810873286120700,8.66312060546875,-0.06404495239257812,-0.000019900500774383545,-0.014481045305728912
1772810873305882000,8.682882080078125,-0.06404495239257812,-0.004777709022164345,-0.01923307403922081
1772810873325643500,8.7026435546875,-0.08081531524658203,0.002167360857129097,-0.004803899675607681
1772810873345405000,8.722405029296874,-0.0547637939453125,-0.007529871538281441,-0.009423952549695969
1772810873365166300,8.742166259765625,-0.07123470306396484,0.009289748966693878,-0.007410019636154175
1772810873384927700,8.761927734375,-0.07123470306396484,-0.012425325810909271,-0.02184143289923668
1772810873404689200,8.781689208984375,-0.09009838104248047,0.01375938393175602,-0.007766515016555786
1772810873424450600,8.801450439453125,-0.07841968536376953,-0.002331683412194252,-0.0018321499228477478
1772810873444212000,8.8212119140625,-0.07632255554199219,0.002475336194038391,-0.006922934204339981
1772810873463973000,8.84097314453125,-0.0667409896850586,0.004880255088210106,-0.021252457052469254
1772810873483734500,8.860734619140626,-0.05506324768066406,-0.011934606358408928,-0.023368317633867264
1772810873503496200,8.88049609375,-0.0763235092163086,0.004702996462583542,-0.008592646569013596
1772810873523257600,8.900257568359375,-0.08111572265625,0.01901320181787014,-0.022767316550016403
1772810873543019300,8.920019287109374,-0.08321285247802734,0.0023774094879627228,-0.013009894639253616
1772810873562780700,8.93978076171875,-0.09758567810058594,0.009267453104257584,-0.017511017620563507
1772810873582542300,8.959542236328126,-0.08590984344482422,0.004501502960920334,-0.0077654048800468445
1772810873602303700,8.9793037109375,-0.06464958190917969,-0.0026429686695337296,-0.010094761848449707
1772810873622065400,8.9990654296875,-0.07183647155761719,-0.012315366417169571,-0.014860376715660095
1772810873641827000,9.0188271484375,-0.08112049102783203,-0.010067025199532509,-0.019408494234085083
1772810873661588500,9.03858837890625,-0.0742330551147461,0.0018899943679571152,-0.019371546804904938
1772810873681350100,9.05835009765625,-0.08351707458496094,0.01834050379693508,-0.024062663316726685
1772810873701111600,9.078111572265625,-0.09549427032470703,0.006280772387981415,-0.00967622920870781
1772810873720873200,9.097873291015626,-0.07633113861083984,0.006300957873463631,-0.016729138791561127
1772810873740634600,9.117634521484375,-0.07184123992919922,0.02533589117228985,-0.025948796421289444
1772810873760396300,9.137396240234375,-0.09759235382080078,-0.010587036609649658,-0.016337722539901733
1772810873780157700,9.15715771484375,-0.05746936798095703,-0.0009162407368421555,-0.0036490000784397125
1772810873799919400,9.17691943359375,-0.08352279663085938,0.0109670739620924,-0.019873138517141342
1772810873819680800,9.1966806640625,-0.04549407958984375,0.0037036091089248657,-0.016095995903015137
1772810873839442400,9.2164423828125,-0.08561992645263672,-0.0015540868043899536,-0.006456851959228516
1772810873859204000,9.2362041015625,-0.06885051727294922,-0.020632227882742882,-0.008685857057571411
1772810873878965500,9.255965576171874,-0.07154560089111328,-0.004170075058937073,-0.022910434752702713
1772810873898727200,9.27572705078125,-0.07603740692138672,-0.015928221866488457,0.0031131505966186523
1772810873918488600,9.295488525390626,-0.040703773498535156,-0.00181548111140728,-0.018905840814113617
1772810873938250200,9.315250244140625,-0.040703773498535156,-0.006554624065756798,-0.023648418486118317
1772810873958011600,9.33501171875,-0.049986839294433594,0.014899758622050285,-0.023653104901313782
1772810873977773300,9.354773193359375,-0.052382469177246094,-0.0018801204860210419,-0.01638469472527504
1772810873997535000,9.374534912109375,-0.05717277526855469,0.0029389094561338425,-0.011729974299669266
1772810874017297000,9.394296875,-0.03351879119873047,-0.00863189809024334,-0.015481486916542053
1772810874037059000,9.41405908203125,-0.050586700439453125,-0.005640670657157898,0.0017680823802947998
1772810874056821200,9.4338212890625,-0.05268287658691406,-0.0007102154195308685,-0.00277860090136528
1772810874076583200,9.453583251953125,-0.047890663146972656,0.011377675458788872,-0.023989923298358917
1772810874096345300,9.473345458984374,-0.03621196746826172,-0.007536044344305992,-0.019109956920146942
1772810874116107300,9.493107177734375,-0.03651142120361328,-0.000509282574057579,-0.00011027604341506958
1772810874135869400,9.512869384765626,-0.062262535095214844,-0.0001223050057888031,-0.002354618161916733
1772810874155631600,9.532631591796875,-0.05777168273925781,-0.009850790724158287,-0.009526975452899933
1772810874175393500,9.5523935546875,-0.04130268096923828,-0.014468450099229813,-0.011903457343578339
1772810874195155700,9.57215576171875,-0.048191070556640625,0.002380846068263054,-0.026015836745500565
1772810874214918000,9.59191796875,-0.04819011688232422,-0.002615969628095627,-0.0022199079394340515
1772810874234679800,9.6116796875,-0.08112812042236328,-0.0003799721598625183,-0.02188679575920105
1772810874254442000,9.63144189453125,-0.06226158142089844,0.0019941572099924088,-0.019504811614751816
1772810874274204000,9.651203857421875,-0.07184505462646484,-0.005247253924608231,-0.01697421818971634
1772810874293966000,9.670966064453125,-0.07424259185791016,-0.010029025375843048,0.0025869011878967285
1772810874313728300,9.690728271484375,-0.07184696197509766,0.01631666161119938,-0.0164426751434803
1772810874333490200,9.710490234375,-0.09041309356689453,0.0019744839519262314,-0.030697908252477646
1772810874353252400,9.73025244140625,-0.0763406753540039,-0.007501501590013504,-0.01598537154495716
1772810874373014500,9.7500146484375,-0.06466197967529297,-0.0003300607204437256,-0.020528476685285568
1772810874392776400,9.7697763671875,-0.0811319351196289,-0.002579694613814354,-0.025162992998957634
1772810874412538600,9.78953857421875,-0.08322811126708984,-0.0024864599108695984,-0.013513252139091492
1772810874432300500,9.809300537109374,-0.09520530700683594,0.0091523677110672,-0.0017895940691232681
1772810874452062700,9.829062744140625,-0.07873725891113281,0.006270568817853928,-0.01379447616636753
1772810874471825000,9.848824951171874,-0.07394599914550781,0.011069798842072487,-0.023122085258364677
1772810874491586800,9.8685869140625,-0.05268669128417969,-0.008090410381555557,-0.0018673650920391083
1772810874511349800,9.888349853515624,-0.061969757080078125,0.0015233401209115982,-0.02347075752913952
1772810874531112700,9.90811279296875,-0.07125091552734375,0.006385667249560356,-0.018694503232836723
1772810874550876000,9.9278759765625,-0.03352165222167969,-0.00788043811917305,-0.013929769396781921
1772810874570638800,9.947638916015626,-0.04759693145751953,-0.0007595885545015335,-0.013852789998054504
1772810874590401800,9.96740185546875,-0.07364749908447266,0.0038501527160406113,-0.018762243911623955
1772810874610165000,9.9871650390625,-0.05508136749267578,-0.007618337869644165,-0.02062026597559452
1772810874629928000,10.006927978515625,-0.04100799560546875,-0.0001489780843257904,-0.008188419044017792
1772810874649691000,10.02669091796875,-0.04549884796142578,0.0026266612112522125,-0.02446114644408226
1772810874669454000,10.0464541015625,-0.048193931579589844,0.017095569521188736,-0.024409819394350052
1772810874689217000,10.066217041015625,-0.06945323944091797,0.005090080201625824,-0.024512343108654022
1772810874708980000,10.08597998046875,-0.057476043701171875,0.010294033214449883,-0.010226165875792503
1772810874728743200,10.1057431640625,-0.048193931579589844,0.02230239473283291,-0.014732036739587784
1772810874748506000,10.125506103515624,-0.062267303466796875,0.019944017753005028,-0.04083478823304176
1772810874768269000,10.14526904296875,-0.03172588348388672,-0.004017254337668419,-0.011913949623703957
1772810874788032300,10.1650322265625,-0.05059051513671875,0.005637858062982559,-0.016476767137646675
1772810874807795200,10.184795166015626,-0.045798301696777344,0.005762798711657524,-0.01858656480908394
1772810874827558100,10.20455810546875,-0.06226634979248047,0.005392502993345261,-0.017509233206510544
1772810874847321300,10.2243212890625,-0.05268573760986328,0.003025263547897339,-0.007813604548573494
1772810874867084300,10.244084228515625,-0.0787353515625,-0.004218185320496559,-0.015178170055150986
1772810874886847200,10.26384716796875,-0.05029010772705078,0.007620425894856453,-0.014943772926926613
1772810874906610400,10.2836103515625,-0.0643625259399414,0.012466715648770332,-0.014916257932782173
1772810874926373400,10.303373291015625,-0.08322811126708984,0.010081438347697258,-0.025301067158579826
1772810874946136300,10.32313623046875,-0.0715494155883789,0.014871198683977127,-0.025194790214300156
1772810874965899500,10.3428994140625,-0.06915283203125,0.00785474106669426,-0.02056884579360485
1772810874985662500,10.362662353515624,-0.07843494415283203,0.007973594591021538,-0.03989957273006439
1772810875005425200,10.382425048828125,-0.07603931427001953,0.0033121444284915924,-0.011136377230286598
1772810875025187600,10.4021875,-0.0691518783569336,-0.01826835423707962,-0.008274991065263748
1772810875044950300,10.4219501953125,-0.08352470397949219,-0.01101788692176342,-0.017965275794267654
1772810875064712700,10.441712646484374,-0.08562183380126953,0.005977315828204155,-0.013253958895802498
1772810875084475100,10.46147509765625,-0.07633686065673828,0.01103467121720314,-0.023044707253575325
1772810875104237800,10.48123779296875,-0.07154560089111328,0.0015362091362476349,-0.02040056139230728
1772810875124000300,10.501000244140625,-0.09041118621826172,-0.005601026117801666,-0.02503524161875248
1772810875143762700,10.5207626953125,-0.0739431381225586,0.015747008845210075,-0.01786515675485134
1772810875163525400,10.540525390625,-0.0715475082397461,-0.010591929778456688,-0.015388155356049538
1772810875183287800,10.560287841796875,-0.06675434112548828,-0.03437246009707451,-0.037069834768772125
1772810875203050200,10.58005029296875,-0.08322429656982422,0.02548488974571228,-0.022803904488682747
1772810875222813000,10.59981298828125,-0.10029315948486328,0.006732655689120293,-0.021457400172948837
1772810875242575400,10.619575439453126,-0.06705570220947266,-0.00031432509422302246,-0.016530949622392654
1772810875262337800,10.639337890625,-0.07184600830078125,0.004491396248340607,-0.018951892852783203
1772810875282100200,10.659100341796876,-0.07903289794921875,0.002210289239883423,-0.009484034031629562
1772810875301863000,10.67886279296875,-0.07424068450927734,-0.005049549043178558,-0.007208086550235748
1772810875321625300,10.698625244140626,-0.09550189971923828,-0.0006015431135892868,-0.008965305984020233
1772810875341387800,10.7183876953125,-0.08143329620361328,0.010900406166911125,-0.02259204350411892
1772810875361150500,10.738150390625,-0.07904243469238281,0.014740142971277237,0.009315485134720802
1772810875380913000,10.757912841796875,-0.09072208404541016,0.004955770447850227,-0.004873458296060562
1772810875400675300,10.77767529296875,-0.07904243469238281,0.038461774587631226,-0.03392910212278366
1772810875420438000,10.79743798828125,-0.09041500091552734,0.000016411766409873962,-0.019737305119633675
1772810875440200400,10.817200439453124,-0.0859231948852539,-0.012068184092640877,-0.017641372978687286
