time,seconds_elapsed,z,y,x
1772810512857851400,0.206851318359375,0.003462106455117464,-0.0026631588116288185,0.0009321055840700865
1772810512867731500,0.2167314453125,-0.00026631588116288185,0.001597895286977291,-0.0011984214652329683
1772810512877611300,0.226611328125,-0.00026631588116288185,0.0005326317623257637,-0.0006657897029072046
1772810512887491000,0.236490966796875,-0.0007989476434886456,0.003195790573954582,0.0003994738217443228
1772810512897371000,0.246370849609375,0.0013315794058144093,0.0026631588116288185,-0.00013315794058144093
1772810512907250700,0.256250732421875,0.00026631588116288185,-0.0005326317623257637,-0.00013315794058144093
1772810512917130500,0.266130615234375,0.0013315794058144093,0.0005326317623257637,-0.0006657897029072046
1772810512927010600,0.276010498046875,0.0007989476434886456,-0.002130527049303055,0.0003994738217443228
1772810512936890400,0.285890380859375,-0.0013315794058144093,0.0005326317623257637,-0.0006657897029072046
1772810512946770200,0.295770263671875,0.0007989476434886456,-0.0005326317623257637,-0.00013315794058144093
1772810512956650000,0.30564990234375,-0.00026631588116288185,0.0010652635246515274,0.0003994738217443228
1772810512966529800,0.31552978515625,0.001864211168140173,0.0010652635246515274,-0.0006657897029072046
1772810512976409900,0.325409912109375,-0.00026631588116288185,0.0010652635246515274,-0.00013315794058144093
1772810512986289700,0.33528955078125,0.0013315794058144093,0.001597895286977291,-0.0011984214652329683
1772810512996169500,0.34516943359375,0.001864211168140173,0.0010652635246515274,-0.0011984214652329683
1772810513006050300,0.35505029296875,0.00026631588116288185,0.0005326317623257637,-0.001731053227558732
1772810513015931000,0.364930908203125,-0.00026631588116288185,0.001597895286977291,-0.0011984214652329683
1772810513025811700,0.374811767578125,-0.00026631588116288185,0.0005326317623257637,-0.00013315794058144093
1772810513035692300,0.3846923828125,0.00026631588116288185,0.0005326317623257637,-0.00013315794058144093
1772810513045573000,0.394572998046875,0.0023968429304659367,-0.0005326317623257637,-0.00013315794058144093
1772810513055453700,0.40445361328125,0.00026631588116288185,0.002130527049303055,0.0003994738217443228
1772810513065334500,0.41433447265625,-0.00026631588116288185,0.0026631588116288185,-0.0011984214652329683
1772810513075215000,0.424215087890625,-0.0007989476434886456,0,0.0003994738217443228
1772810513085096000,0.434095947265625,-0.00026631588116288185,0.0005326317623257637,-0.00013315794058144093
1772810513094976800,0.443976806640625,-0.00026631588116288185,0.0010652635246515274,0.0009321055840700865
1772810513104857300,0.453857421875,0.0013315794058144093,-0.0010652635246515274,0.0014647373463958502
1772810513114738200,0.46373828125,-0.0007989476434886456,-0.0026631588116288185,0.0009321055840700865
1772810513124618800,0.47361865234375,0.00026631588116288185,0.0010652635246515274,-0.00013315794058144093
1772810513134499600,0.48349951171875,0.00026631588116288185,0.0010652635246515274,-0.0011984214652329683
1772810513144380200,0.493380126953125,0.00026631588116288185,-0.001597895286977291,0.0003994738217443228
1772810513154261000,0.503260986328125,0.00026631588116288185,0.0010652635246515274,-0.0006657897029072046
1772810513164141600,0.5131416015625,0.0007989476434886456,0,-0.0006657897029072046
1772810513174022400,0.5230224609375,-0.0007989476434886456,0,-0.00013315794058144093
1772810513183903200,0.5329033203125,-0.00026631588116288185,0.0005326317623257637,-0.0006657897029072046
1772810513193783800,0.54278369140625,-0.0013315794058144093,0,-0.00013315794058144093
1772810513203664600,0.55266455078125,-0.00026631588116288185,0,-0.0022636849898844957
1772810513213545200,0.562545166015625,0.00026631588116288185,0.0010652635246515274,-0.0011984214652329683
1772810513223426000,0.572426025390625,-0.0023968429304659367,-0.0010652635246515274,0.0009321055840700865
1772810513233306600,0.582306640625,0.00026631588116288185,0.0005326317623257637,-0.00013315794058144093
1772810513243187500,0.5921875,0.001864211168140173,-0.0010652635246515274,-0.00013315794058144093
1772810513253068000,0.602068115234375,-0.0013315794058144093,-0.0005326317623257637,-0.00013315794058144093
1772810513262948900,0.611948974609375,0.001864211168140173,0.001597895286977291,-0.0011984214652329683
1772810513272829700,0.62182958984375,-0.0023968429304659367,0.002130527049303055,-0.0011984214652329683
1772810513282710300,0.631710205078125,0.0013315794058144093,0.0005326317623257637,-0.0011984214652329683
1772810513292591000,0.641591064453125,0.0013315794058144093,-0.001597895286977291,0.0003994738217443228
1772810513302471700,0.6514716796875,-0.0013315794058144093,-0.001597895286977291,0.0003994738217443228
1772810513312352500,0.6613525390625,-0.0007989476434886456,0,0.0009321055840700865
1772810513322233000,0.671233154296875,0.0007989476434886456,0.002130527049303055,-0.001731053227558732
1772810513332114000,0.681114013671875,-0.00026631588116288185,0.001597895286977291,0.0003994738217443228
1772810513341994500,0.690994384765625,-0.00026631588116288185,-0.0010652635246515274,-0.00013315794058144093
1772810513351875300,0.700875244140625,-0.0007989476434886456,0.0010652635246515274,-0.0011984214652329683
1772810513361756000,0.710755859375,0.00026631588116288185,0.0010652635246515274,0.0003994738217443228
1772810513371636700,0.72063671875,-0.0013315794058144093,0.0005326317623257637,-0.0006657897029072046
1772810513381517600,0.730517578125,-0.00026631588116288185,0,0.0003994738217443228
1772810513391398100,0.740398193359375,0.00026631588116288185,0.0010652635246515274,-0.0006657897029072046
1772810513401279000,0.750279052734375,0.00026631588116288185,-0.003728422336280346,-0.0022636849898844957
1772810513411159600,0.76015966796875,0.0007989476434886456,0.001597895286977291,0.0014647373463958502
1772810513421040400,0.770040283203125,0.00026631588116288185,0.0005326317623257637,-0.0006657897029072046
1772810513430921000,0.7799208984375,-0.0007989476434886456,-0.0010652635246515274,-0.00013315794058144093
1772810513440801800,0.7898017578125,0.00026631588116288185,-0.003195790573954582,-0.00013315794058144093
1772810513450682400,0.799682373046875,0.0007989476434886456,-0.0010652635246515274,0.0009321055840700865
1772810513460563200,0.809563232421875,0.0007989476434886456,0.001597895286977291,0.0003994738217443228
1772810513470443800,0.81944384765625,0.0013315794058144093,0,0.0003994738217443228
1772810513480324600,0.82932470703125,-0.0009321055840700865,-0.0007989476434886456,0.0005326317623257637
1772810513490205200,0.839205078125,0.00013315794058144093,-0.0007989476434886456,0
1772810513500086000,0.8490859375,-0.0009321055840700865,0.0007989476434886456,0.0010652635246515274
1772810513509966600,0.858966552734375,0.00013315794058144093,-0.001864211168140173,0.0005326317623257637
1772810513519847400,0.868847412109375,0.0011984214652329683,-0.0013315794058144093,0.0010652635246515274
1772810513529728000,0.87872802734375,0.0006657897029072046,0.0007989476434886456,0.0005326317623257637
1772810513539608600,0.888608642578125,0.0011984214652329683,-0.0007989476434886456,-0.0005326317623257637
1772810513549489400,0.898489501953125,0.00013315794058144093,0.0007989476434886456,-0.0005326317623257637
1772810513559370000,0.908369873046875,0.0006657897029072046,-0.0023968429304659367,-0.0005326317623257637
1772810513569250600,0.91825048828125,-0.0003994738217443228,-0.001864211168140173,0.0005326317623257637
1772810513579131400,0.92813134765625,-0.0009321055840700865,0.0013315794058144093,0.001597895286977291
1772810513589012000,0.938011962890625,-0.0009321055840700865,-0.001864211168140173,-0.0010652635246515274
1772810513598892500,0.947892578125,0.0011984214652329683,0.00026631588116288185,0.0010652635246515274
1772810513608773400,0.9577734375,-0.0003994738217443228,-0.0007989476434886456,0.0005326317623257637
1772810513618654000,0.967654052734375,0.0006657897029072046,0.00026631588116288185,0.0005326317623257637
1772810513628534500,0.977534423828125,0.0006657897029072046,0.0007989476434886456,-0.0005326317623257637
1772810513638415400,0.987415283203125,0.0006657897029072046,0.00026631588116288185,-0.0010652635246515274
1772810513648296000,0.9972958984375,-0.0003994738217443228,-0.0007989476434886456,0.0026631588116288185
1772810513658176800,1.0071767578125,-0.0009321055840700865,-0.0013315794058144093,-0.0010652635246515274
1772810513668057300,1.017057373046875,-0.0009321055840700865,0.0007989476434886456,0
1772810513677938000,1.02693798828125,-0.001997369108721614,-0.0029294746927917004,0.0005326317623257637
1772810513687818800,1.03681884765625,0.00013315794058144093,0.0007989476434886456,0.003728422336280346
1772810513697699300,1.04669921875,-0.0003994738217443228,0.00026631588116288185,0.001597895286977291
1772810513707580000,1.056579833984375,-0.0009321055840700865,0.00026631588116288185,-0.0010652635246515274
1772810513717460700,1.066460693359375,-0.0003994738217443228,-0.001864211168140173,0.001597895286977291
1772810513727341300,1.07634130859375,0.0006657897029072046,0.0007989476434886456,0.0005326317623257637
1772810513737222000,1.086221923828125,0.0011984214652329683,0.0007989476434886456,-0.002130527049303055
1772810513747102700,1.096102783203125,-0.0003994738217443228,0.001864211168140173,0
1772810513756983300,1.1059833984375,0.0022636849898844957,0.0013315794058144093,0
1772810513766864000,1.11586376953125,0.001731053227558732,0.00026631588116288185,-0.001597895286977291
1772810513776744700,1.12574462890625,-0.001997369108721614,0.00026631588116288185,0
1772810513786625300,1.135625244140625,0.00013315794058144093,0.0007989476434886456,-0.0005326317623257637
1772810513796505900,1.145505859375,0.0006657897029072046,0.00026631588116288185,-0.002130527049303055
1772810513806386700,1.15538671875,0.00013315794058144093,0.0007989476434886456,0
1772810513816267300,1.165267333984375,0.00013315794058144093,-0.0013315794058144093,0.0010652635246515274
1772810513826147800,1.17514794921875,0.0006657897029072046,0.0007989476434886456,0.0005326317623257637
1772810513836028700,1.185028564453125,0.0006657897029072046,0.0013315794058144093,0.0010652635246515274
1772810513845909200,1.1949091796875,-0.0014647373463958502,0.00026631588116288185,0.0010652635246515274
1772810513855789800,1.204789794921875,0.0006657897029072046,0.0007989476434886456,-0.0010652635246515274
1772810513865670700,1.214670654296875,-0.0003994738217443228,0.0029294746927917004,-0.0005326317623257637
1772810513875551200,1.22455126953125,0.0006657897029072046,-0.00026631588116288185,0.0005326317623257637
1772810513885431800,1.234431884765625,-0.0003994738217443228,0.0013315794058144093,0.0010652635246515274
1772810513895312600,1.244312744140625,0.0011984214652329683,0.0007989476434886456,-0.0010652635246515274
1772810513905193200,1.254193115234375,0.00013315794058144093,0.0023968429304659367,0.0005326317623257637
1772810513915073800,1.26407373046875,-0.0014647373463958502,0.0013315794058144093,0.0005326317623257637
1772810513924954600,1.27395458984375,0.00013315794058144093,-0.0013315794058144093,-0.0005326317623257637
1772810513934835200,1.283835205078125,-0.0014647373463958502,-0.0007989476434886456,0
1772810513944716000,1.293716064453125,0.00013315794058144093,0.0007989476434886456,-0.0005326317623257637
1772810513954596600,1.3035966796875,0.0006657897029072046,0.0013315794058144093,-0.0010652635246515274
1772810513964477200,1.313477294921875,0.00013315794058144093,-0.00026631588116288185,0.0010652635246515274
1772810513974358000,1.32335791015625,-0.0003994738217443228,-0.0007989476434886456,0.0005326317623257637
1772810513984238600,1.333238525390625,-0.0003994738217443228,0.0029294746927917004,-0.0005326317623257637
1772810513994119200,1.343119140625,-0.0014647373463958502,-0.00026631588116288185,0.0005326317623257637
1772810514003999000,1.3529990234375,-0.0003994738217443228,0.0023968429304659367,-0.001597895286977291
1772810514013878500,1.36287841796875,0.0011984214652329683,-0.001864211168140173,0.0005326317623257637
1772810514023758300,1.37275830078125,0.00013315794058144093,0.0007989476434886456,0
1772810514033638000,1.382637939453125,-0.0014647373463958502,-0.001864211168140173,0.0005326317623257637
1772810514043517400,1.392517333984375,0.00013315794058144093,-0.0007989476434886456,-0.0005326317623257637
1772810514053397200,1.402397216796875,0.00013315794058144093,-0.0007989476434886456,0.0010652635246515274
1772810514063276800,1.41227685546875,-0.0003994738217443228,-0.0007989476434886456,0.001597895286977291
1772810514073156600,1.422156494140625,-0.0003994738217443228,0.0007989476434886456,0
1772810514083036200,1.4320361328125,0.00013315794058144093,-0.0013315794058144093,0.0005326317623257637
1772810514092915700,1.441915771484375,-0.0009321055840700865,0.0007989476434886456,-0.002130527049303055
1772810514102795500,1.45179541015625,-0.0009321055840700865,-0.0013315794058144093,0
1772810514112675000,1.461675048828125,0.0006657897029072046,0.0013315794058144093,0.0005326317623257637
1772810514122555000,1.471554931640625,0.00013315794058144093,0.0013315794058144093,-0.0005326317623257637
1772810514132434400,1.481434326171875,0.00013315794058144093,-0.0007989476434886456,0
1772810514142314000,1.49131396484375,0.00013315794058144093,0.0007989476434886456,0
1772810514152193800,1.50119384765625,0.0006657897029072046,-0.00026631588116288185,0.002130527049303055
1772810514162073300,1.5110732421875,-0.0009321055840700865,-0.003462106455117464,-0.0010652635246515274
1772810514171953000,1.520952880859375,0.0006657897029072046,0.0013315794058144093,-0.0010652635246515274
1772810514181832700,1.530832763671875,0.0011984214652329683,-0.00026631588116288185,0
1772810514191712300,1.540712158203125,0.00013315794058144093,0.0013315794058144093,0.0005326317623257637
1772810514201592000,1.550592041015625,0.001731053227558732,0.001864211168140173,0.0005326317623257637
1772810514211471600,1.5604716796875,0.00013315794058144093,-0.00026631588116288185,0
1772810514221351200,1.57035107421875,-0.0003994738217443228,-0.0007989476434886456,0.0010652635246515274
1772810514231231000,1.58023095703125,0.00013315794058144093,0.00026631588116288185,0
1772810514241110500,1.590110595703125,-0.0003994738217443228,-0.0007989476434886456,0
1772810514250990000,1.599989990234375,-0.001997369108721614,0.0013315794058144093,0
1772810514260870000,1.609869873046875,-0.0009321055840700865,-0.0013315794058144093,0.0010652635246515274
1772810514270749400,1.61974951171875,0.00013315794058144093,-0.0013315794058144093,-0.0005326317623257637
1772810514280629200,1.629629150390625,0.00013315794058144093,-0.0007989476434886456,0.0010652635246515274
1772810514290508800,1.6395087890625,-0.0003994738217443228,0.0013315794058144093,0
1772810514300388400,1.649388427734375,-0.0003994738217443228,0.0013315794058144093,-0.0005326317623257637
1772810514310268200,1.65926806640625,-0.0003994738217443228,0.0007989476434886456,-0.0005326317623257637
1772810514320147700,1.669147705078125,0.00013315794058144093,-0.00026631588116288185,-0.0005326317623257637
1772810514330027500,1.679027587890625,-0.0009321055840700865,0.0013315794058144093,0.0005326317623257637
1772810514339907000,1.688906982421875,-0.001997369108721614,0.0007989476434886456,-0.0010652635246515274
1772810514349786600,1.69878662109375,0.00013315794058144093,0.0013315794058144093,0
1772810514359666400,1.70866650390625,0.00013315794058144093,-0.0007989476434886456,0
1772810514369546000,1.7185458984375,0.0022636849898844957,0.00026631588116288185,0
1772810514379425500,1.728425537109375,0.00013315794058144093,-0.001864211168140173,-0.0005326317623257637
1772810514389305300,1.738305419921875,0.00013315794058144093,0.00026631588116288185,-0.0005326317623257637
1772810514399185000,1.748184814453125,-0.0003994738217443228,0.00026631588116288185,-0.0005326317623257637
1772810514409064700,1.758064697265625,0.00013315794058144093,0.001864211168140173,0.0005326317623257637
1772810514418944300,1.7679443359375,-0.0009321055840700865,0.0013315794058144093,-0.0010652635246515274
1772810514428823800,1.77782373046875,-0.0014647373463958502,-0.00026631588116288185,0
1772810514438703600,1.78770361328125,-0.0014647373463958502,-0.0013315794058144093,0.0005326317623257637
1772810514448583200,1.797583251953125,-0.0009321055840700865,-0.0007989476434886456,0.0005326317623257637
1772810514458463000,1.807462890625,0.001731053227558732,0.0013315794058144093,0
1772810514468342500,1.817342529296875,0.0006657897029072046,0.0007989476434886456,-0.002130527049303055
1772810514478222000,1.82722216796875,-0.0003994738217443228,-0.00026631588116288185,0
1772810514488102000,1.837101806640625,-0.0003994738217443228,0.0013315794058144093,-0.0010652635246515274
1772810514497981400,1.8469814453125,0.00013315794058144093,0.00026631588116288185,-0.001597895286977291
1772810514507861200,1.856861328125,-0.0003994738217443228,0.00026631588116288185,0.0005326317623257637
1772810514517741000,1.866740966796875,0.00013315794058144093,0.0013315794058144093,0.002130527049303055
1772810514527620600,1.87662060546875,-0.0003994738217443228,-0.00026631588116288185,0
1772810514537500400,1.88650048828125,0.0011984214652329683,0.0007989476434886456,-0.0005326317623257637
1772810514547380200,1.896380126953125,-0.0003994738217443228,-0.00026631588116288185,0.0005326317623257637
1772810514557260000,1.906260009765625,-0.0009321055840700865,0.00026631588116288185,0.0005326317623257637
1772810514567139800,1.916139892578125,-0.0014647373463958502,-0.0007989476434886456,0
1772810514577019600,1.92601953125,0.0006657897029072046,0.00026631588116288185,0.0005326317623257637
1772810514586899200,1.935899169921875,-0.0003994738217443228,-0.0013315794058144093,0.001597895286977291
1772810514596779000,1.945779052734375,-0.0003994738217443228,-0.0007989476434886456,0.0010652635246515274
1772810514606658800,1.955658935546875,-0.0014647373463958502,0.0013315794058144093,0
1772810514616538600,1.96553857421875,0.00013315794058144093,0.0007989476434886456,0.0010652635246515274
1772810514626418400,1.97541845703125,-0.0003994738217443228,0.00026631588116288185,-0.0005326317623257637
1772810514636298200,1.98529833984375,0.0006657897029072046,0.0007989476434886456,0.0010652635246515274
1772810514646177800,1.995177734375,0.0011984214652329683,0.0029294746927917004,-0.0010652635246515274
1772810514656057600,2.0050576171875,-0.0025300008710473776,0.00026631588116288185,-0.0005326317623257637
1772810514665937400,2.0149375,-0.0009321055840700865,0.0013315794058144093,0
1772810514675817200,2.024817138671875,-0.0009321055840700865,-0.0007989476434886456,0.001597895286977291
1772810514685697000,2.034697021484375,0.00013315794058144093,0.00026631588116288185,-0.0010652635246515274
1772810514695576600,2.04457666015625,-0.0003994738217443228,0.001864211168140173,0.001597895286977291
1772810514705456400,2.054456298828125,0.00013315794058144093,-0.0007989476434886456,0.0005326317623257637
1772810514715336200,2.064336181640625,0.00013315794058144093,0.00026631588116288185,-0.0010652635246515274
1772810514725216000,2.074216064453125,0.001731053227558732,0.00026631588116288185,0.002130527049303055
1772810514735095800,2.084095703125,0.0011984214652329683,0.00026631588116288185,0.0005326317623257637
1772810514744975400,2.093975341796875,0.0011984214652329683,0.001864211168140173,0
1772810514754855200,2.103855224609375,0.00013315794058144093,0.00026631588116288185,0.0005326317623257637
1772810514764735000,2.11373486328125,0.0006657897029072046,0.001864211168140173,-0.0005326317623257637
1772810514774614800,2.12361474609375,-0.0003994738217443228,-0.00026631588116288185,-0.001597895286977291
1772810514784494600,2.13349462890625,0.001731053227558732,0.0007989476434886456,0
1772810514794374100,2.1433740234375,0.0011984214652329683,0.0007989476434886456,0.0010652635246515274
1772810514804254000,2.15325390625,-0.0003994738217443228,0.00026631588116288185,0.0005326317623257637
1772810514814133800,2.1631337890625,0.0022636849898844957,-0.00026631588116288185,0.0005326317623257637
1772810514824013600,2.173013671875,-0.0009321055840700865,0.001864211168140173,-0.002130527049303055
1772810514833893400,2.182893310546875,-0.0003994738217443228,0.0007989476434886456,-0.0005326317623257637
1772810514843773200,2.192773193359375,-0.0009321055840700865,-0.00026631588116288185,0.001597895286977291
1772810514853652700,2.20265283203125,-0.0003994738217443228,0.0013315794058144093,0
1772810514863532500,2.212532470703125,-0.0003994738217443228,-0.0023968429304659367,0.0010652635246515274
1772810514873412400,2.222412353515625,-0.0009321055840700865,-0.0013315794058144093,0.0005326317623257637
1772810514883292200,2.232292236328125,0.0006657897029072046,0.00026631588116288185,0.0005326317623257637
1772810514893172000,2.242171875,0.00013315794058144093,0.0023968429304659367,-0.0010652635246515274
1772810514903051800,2.2520517578125,-0.0009321055840700865,0.001864211168140173,-0.0010652635246515274
1772810514912931300,2.261931396484375,-0.0003994738217443228,-0.00026631588116288185,0
1772810514922811100,2.27181103515625,-0.0003994738217443228,-0.0007989476434886456,-0.0005326317623257637
1772810514932691000,2.28169091796875,0.0006657897029072046,0.0013315794058144093,0.0005326317623257637
1772810514942570800,2.29157080078125,0.0022636849898844957,-0.00026631588116288185,0.0005326317623257637
1772810514952450600,2.301450439453125,-0.0003994738217443228,-0.0013315794058144093,0.0010652635246515274
1772810514962330400,2.311330322265625,0.00013315794058144093,-0.001864211168140173,0.001597895286977291
1772810514972210000,2.3212099609375,0.001731053227558732,0.00026631588116288185,0.0010652635246515274
1772810514982089700,2.33108984375,-0.0003994738217443228,0.001864211168140173,-0.0005326317623257637
1772810514991969500,2.340969482421875,0.003328948514536023,-0.0007989476434886456,0.0005326317623257637
1772810515001849300,2.350849365234375,0.00013315794058144093,-0.001864211168140173,-0.0005326317623257637
1772810515011729000,2.36072900390625,0.0006657897029072046,-0.0007989476434886456,0.0005326317623257637
1772810515021608700,2.370608642578125,0.00013315794058144093,-0.00026631588116288185,0.0005326317623257637
1772810515031488300,2.38048828125,0.00013315794058144093,0.00026631588116288185,-0.0010652635246515274
1772810515041368000,2.3903681640625,-0.0009321055840700865,-0.00026631588116288185,0
1772810515051247900,2.400247802734375,0.0006657897029072046,0.00026631588116288185,0
1772810515061127400,2.41012744140625,0.00013315794058144093,-0.0013315794058144093,0.0005326317623257637
1772810515071007200,2.42000732421875,-0.0009321055840700865,0.00026631588116288185,0.001597895286977291
1772810515080887000,2.429886962890625,-0.0003994738217443228,-0.00026631588116288185,0
1772810515090766600,2.4397666015625,-0.0009321055840700865,0.00026631588116288185,0.0010652635246515274
1772810515100646400,2.449646484375,0.00013315794058144093,0.00026631588116288185,-0.0005326317623257637
1772810515110526200,2.459526123046875,-0.0009321055840700865,-0.001864211168140173,-0.0005326317623257637
1772810515120405800,2.46940576171875,-0.0009321055840700865,0.00026631588116288185,0
1772810515140165400,2.489165283203125,0.00013315794058144093,-0.00026631588116288185,-0.0010652635246515274
1772810515150045000,2.499044921875,0.00013315794058144093,0.00026631588116288185,0
1772810515159924700,2.5089248046875,0.00013315794058144093,0.003994738217443228,0.002130527049303055
1772810515169804500,2.518804443359375,0.0006657897029072046,-0.00026631588116288185,0.0010652635246515274
1772810515179684000,2.52868408203125,0.0006657897029072046,-0.0013315794058144093,0.0010652635246515274
1772810515189564000,2.53856396484375,-0.0009321055840700865,-0.00026631588116288185,-0.0010652635246515274
1772810515199443700,2.548443603515625,-0.0014647373463958502,0.0013315794058144093,0
1772810515209323300,2.5583232421875,-0.0003994738217443228,-0.00026631588116288185,0
1772810515219203000,2.568203125,-0.0003994738217443228,-0.001864211168140173,-0.0005326317623257637
1772810515229083000,2.578082763671875,-0.0009321055840700865,0.0007989476434886456,-0.0010652635246515274
1772810515238962400,2.58796240234375,-0.0003994738217443228,0.0007989476434886456,-0.0005326317623257637
1772810515248842200,2.59784228515625,0.0006657897029072046,0.00026631588116288185,0
1772810515258721800,2.6077216796875,-0.0009321055840700865,0.001731053227558732,0.0014647373463958502
1772810515268601600,2.6176015625,-0.0025300008710473776,0.0011984214652329683,-0.00013315794058144093
1772810515278481400,2.6274814453125,-0.0003994738217443228,0.0006657897029072046,-0.00013315794058144093
1772810515288361000,2.63736083984375,-0.0003994738217443228,-0.0003994738217443228,-0.00013315794058144093
1772810515298240800,2.64724072265625,0.0011984214652329683,-0.001997369108721614,-0.00013315794058144093
1772810515308120600,2.65712060546875,0.0011984214652329683,-0.0003994738217443228,0.0014647373463958502
1772810515318000000,2.667000244140625,-0.0003994738217443228,0.0006657897029072046,0.0009321055840700865
1772810515327880000,2.6768798828125,0.0022636849898844957,-0.0030626326333731413,0.0009321055840700865
1772810515337759700,2.686759765625,-0.0009321055840700865,-0.003595264395698905,-0.0011984214652329683
1772810515347639300,2.696639404296875,0.0006657897029072046,0.00013315794058144093,0.0003994738217443228
1772810515357519000,2.70651904296875,0.0011984214652329683,-0.001997369108721614,-0.0011984214652329683
1772810515367399000,2.71639892578125,0.0006657897029072046,0.0006657897029072046,-0.0011984214652329683
1772810515377278500,2.726278564453125,0.00013315794058144093,0.0006657897029072046,-0.00013315794058144093
1772810515387158300,2.736158203125,-0.0003994738217443228,0.0006657897029072046,-0.00013315794058144093
1772810515397038000,2.7460380859375,0.00013315794058144093,-0.0009321055840700865,-0.0011984214652329683
1772810515406917600,2.755917724609375,-0.0009321055840700865,-0.001997369108721614,-0.00013315794058144093
1772810515416797400,2.76579736328125,0.0006657897029072046,-0.0014647373463958502,0.0003994738217443228
1772810515426677200,2.77567724609375,0.0006657897029072046,-0.0003994738217443228,-0.00013315794058144093
1772810515436556800,2.785556884765625,0.0006657897029072046,0.0006657897029072046,-0.00013315794058144093
1772810515446436600,2.7954365234375,0.0011984214652329683,-0.0009321055840700865,0.0009321055840700865
1772810515456316200,2.805316162109375,0.00013315794058144093,0.00013315794058144093,-0.001731053227558732
1772810515466196000,2.815196044921875,-0.0003994738217443228,-0.0003994738217443228,-0.00013315794058144093
1772810515476075800,2.82507568359375,-0.0009321055840700865,-0.0014647373463958502,0.0009321055840700865
1772810515485955300,2.834955322265625,-0.0003994738217443228,-0.0009321055840700865,0.0009321055840700865
1772810515495835100,2.844835205078125,-0.0025300008710473776,-0.0009321055840700865,0.0003994738217443228
1772810515505715000,2.85471484375,-0.0003994738217443228,-0.0003994738217443228,0.0009321055840700865
1772810515515594800,2.8645947265625,-0.0003994738217443228,-0.0009321055840700865,0.0009321055840700865
1772810515525474300,2.874474365234375,0.00013315794058144093,0.0006657897029072046,-0.0011984214652329683
1772810515535354000,2.88435400390625,0.0006657897029072046,-0.0014647373463958502,0.0003994738217443228
1772810515545234000,2.89423388671875,0.0011984214652329683,-0.0014647373463958502,0.0003994738217443228
1772810515555113700,2.90411376953125,-0.0003994738217443228,-0.0009321055840700865,-0.0011984214652329683
1772810515564993500,2.91399365234375,0.00013315794058144093,-0.0009321055840700865,-0.0006657897029072046
1772810515574873300,2.923873291015625,-0.0003994738217443228,0.0011984214652329683,0.0003994738217443228
1772810515584753000,2.9337529296875,0.0006657897029072046,-0.001997369108721614,0.0003994738217443228
1772810515594632700,2.9436328125,-0.0009321055840700865,-0.0025300008710473776,0.0003994738217443228
1772810515604512500,2.953512451171875,0.0006657897029072046,0.00013315794058144093,0.0009321055840700865
1772810515614392300,2.963392333984375,0.00013315794058144093,0.00013315794058144093,-0.00013315794058144093
1772810515624272100,2.973272216796875,-0.0003994738217443228,0.0006657897029072046,-0.0006657897029072046
1772810515634152000,2.98315185546875,-0.001997369108721614,0.00013315794058144093,0.0009321055840700865
1772810515644031700,2.99303173828125,-0.0003994738217443228,-0.0014647373463958502,-0.0011984214652329683
1772810515653911600,3.00291162109375,-0.0009321055840700865,-0.0003994738217443228,0.0030626326333731413
1772810515663791000,3.012791015625,-0.0003994738217443228,-0.0014647373463958502,0.0003994738217443228
1772810515673671000,3.0226708984375,0.0011984214652329683,-0.0014647373463958502,0.0003994738217443228
1772810515683550700,3.03255078125,0.0006657897029072046,0.00013315794058144093,-0.00013315794058144093
1772810515693430500,3.042430419921875,0.00013315794058144093,0.00013315794058144093,0.0003994738217443228
1772810515703310300,3.052310302734375,0.0006657897029072046,0.0011984214652329683,-0.00013315794058144093
1772810515713190100,3.062190185546875,0.00013315794058144093,0.00013315794058144093,0.0003994738217443228
1772810515723070000,3.072070068359375,0.0006657897029072046,0.0011984214652329683,0.0009321055840700865
1772810515732949500,3.081949462890625,-0.0009321055840700865,0.0006657897029072046,0.0009321055840700865
1772810515742829300,3.091829345703125,0.0006657897029072046,0.0011984214652329683,-0.00013315794058144093
1772810515752709000,3.101709228515625,-0.0009321055840700865,-0.0014647373463958502,-0.0006657897029072046
1772810515762589000,3.1115888671875,0.0011984214652329683,-0.0014647373463958502,-0.001731053227558732
1772810515772468700,3.12146875,-0.0003994738217443228,-0.0009321055840700865,0.0003994738217443228
1772810515782348500,3.1313486328125,-0.0014647373463958502,-0.0009321055840700865,-0.00013315794058144093
1772810515792228400,3.141228271484375,-0.0009321055840700865,0.0006657897029072046,-0.0011984214652329683
1772810515802108000,3.15110791015625,0.00013315794058144093,0.00013315794058144093,-0.0022636849898844957
1772810515811987700,3.16098779296875,0.00013315794058144093,0.0006657897029072046,0.0009321055840700865
1772810515821867500,3.170867431640625,-0.0009321055840700865,0.0006657897029072046,-0.00013315794058144093
1772810515831747300,3.180747314453125,-0.0009321055840700865,0.0006657897029072046,0.0014647373463958502
1772810515841627100,3.190627197265625,-0.0014647373463958502,0.0006657897029072046,0.0009321055840700865
1772810515851507000,3.2005068359375,0.0011984214652329683,0.001731053227558732,0.0003994738217443228
1772810515861386500,3.210386474609375,-0.0009321055840700865,-0.0009321055840700865,-0.0006657897029072046
1772810515871266300,3.220266357421875,-0.0003994738217443228,0.0022636849898844957,0.0003994738217443228
1772810515881146000,3.23014599609375,0.0006657897029072046,-0.0009321055840700865,0.0003994738217443228
1772810515891026000,3.24002587890625,-0.0009321055840700865,0.0006657897029072046,0.0009321055840700865
1772810515900905700,3.24990576171875,0.00013315794058144093,-0.001997369108721614,-0.00013315794058144093
1772810515910785500,3.25978564453125,-0.0003994738217443228,0.0006657897029072046,-0.0011984214652329683
1772810515920665300,3.269665283203125,0.0011984214652329683,0.001731053227558732,0.0009321055840700865
1772810515930545000,3.279544921875,0.0006657897029072046,-0.0009321055840700865,-0.0011984214652329683
1772810515940424700,3.2894248046875,0.0011984214652329683,-0.001997369108721614,-0.0006657897029072046
1772810515950304500,3.299304443359375,0.0006657897029072046,-0.0009321055840700865,0.0003994738217443228
1772810515960184300,3.309184326171875,-0.0014647373463958502,-0.0003994738217443228,0.0003994738217443228
1772810515970064100,3.319064208984375,-0.0003994738217443228,-0.001997369108721614,-0.001731053227558732
1772810515979944000,3.32894384765625,0.00013315794058144093,0.0006657897029072046,-0.00013315794058144093
1772810515989823700,3.33882373046875,0.0006657897029072046,0.0011984214652329683,0.0003994738217443228
1772810515999703600,3.34870361328125,-0.0009321055840700865,0.0006657897029072046,0.0003994738217443228
1772810516009583900,3.358583984375,-0.0009321055840700865,0.001731053227558732,0.0003994738217443228
1772810516019464000,3.3684638671875,0.00013315794058144093,0.00013315794058144093,-0.00013315794058144093
1772810516029344300,3.37834423828125,-0.0009321055840700865,-0.0009321055840700865,0.0003994738217443228
1772810516039224300,3.388224365234375,0.00013315794058144093,-0.0014647373463958502,-0.00013315794058144093
1772810516049104600,3.398104736328125,0.0006657897029072046,-0.0014647373463958502,-0.0006657897029072046
1772810516058984700,3.407984619140625,-0.0009321055840700865,0.0006657897029072046,0.0003994738217443228
1772810516068865000,3.417864990234375,0.0006657897029072046,0.0006657897029072046,-0.0006657897029072046
1772810516078745000,3.4277451171875,0.00013315794058144093,-0.0009321055840700865,-0.001731053227558732
1772810516088625400,3.43762548828125,-0.0009321055840700865,-0.0003994738217443228,-0.00013315794058144093
1772810516098505500,3.44750537109375,0.00013315794058144093,0.00013315794058144093,0.0003994738217443228
1772810516108385800,3.4573857421875,-0.0014647373463958502,-0.0003994738217443228,-0.00013315794058144093
1772810516118265900,3.467265869140625,0.001731053227558732,-0.0014647373463958502,0.0009321055840700865
1772810516128146200,3.477146240234375,0.0006657897029072046,0.0011984214652329683,-0.00013315794058144093
1772810516138026200,3.487026123046875,-0.0009321055840700865,-0.0009321055840700865,-0.00013315794058144093
1772810516147906600,3.496906494140625,-0.0009321055840700865,-0.0009321055840700865,-0.0006657897029072046
1772810516157786600,3.50678662109375,0.00013315794058144093,0.0011984214652329683,-0.00013315794058144093
1772810516167667000,3.5166669921875,0.00013315794058144093,-0.0003994738217443228,-0.00013315794058144093
1772810516177547000,3.526547119140625,-0.0009321055840700865,-0.0009321055840700865,0.0003994738217443228
1772810516187427300,3.53642724609375,0.0006657897029072046,-0.0009321055840700865,0.0003994738217443228
1772810516197307400,3.546307373046875,0.0006657897029072046,-0.0009321055840700865,-0.0006657897029072046
1772810516207187700,3.556187744140625,0.00013315794058144093,0.0006657897029072046,0.0003994738217443228
1772810516217067800,3.56606787109375,-0.0014647373463958502,0.0022636849898844957,-0.00013315794058144093
1772810516226948000,3.575947998046875,0.0011984214652329683,0.001731053227558732,0.0009321055840700865
1772810516236828200,3.585828125,-0.0009321055840700865,0.00013315794058144093,-0.00013315794058144093
1772810516246708500,3.59570849609375,0.0006657897029072046,-0.0014647373463958502,-0.0011984214652329683
1772810516256588500,3.605588623046875,0.00013315794058144093,0.00013315794058144093,-0.00013315794058144093
1772810516266468900,3.61546875,0.0011984214652329683,-0.0025300008710473776,-0.00013315794058144093
1772810516276349000,3.625348876953125,0.0006657897029072046,-0.0003994738217443228,-0.0011984214652329683
1772810516286229200,3.635229248046875,-0.0003994738217443228,0.0006657897029072046,-0.00013315794058144093
1772810516296109300,3.645109375,0.0011984214652329683,0.0006657897029072046,-0.0011984214652329683
1772810516305989600,3.65498974609375,0.0006657897029072046,-0.0009321055840700865,0.0009321055840700865
1772810516315869700,3.66486962890625,-0.0003994738217443228,0.0011984214652329683,-0.00013315794058144093
1772810516325750000,3.67475,-0.0014647373463958502,0.0006657897029072046,0.0009321055840700865
1772810516335630000,3.684630126953125,0.0006657897029072046,0.00013315794058144093,-0.00013315794058144093
1772810516345510400,3.694510498046875,-0.0003994738217443228,-0.0003994738217443228,0.0009321055840700865
1772810516355390500,3.704390380859375,0.00013315794058144093,0.0006657897029072046,-0.0006657897029072046
1772810516365270800,3.714270751953125,-0.0003994738217443228,-0.0003994738217443228,-0.00013315794058144093
1772810516375150800,3.72415087890625,0.0006657897029072046,0.0011984214652329683,0.0014647373463958502
1772810516385031200,3.73403125,-0.0009321055840700865,0.0006657897029072046,-0.00013315794058144093
1772810516394911200,3.7439111328125,-0.0009321055840700865,0.0011984214652329683,-0.0022636849898844957
1772810516404791600,3.75379150390625,0.00013315794058144093,0.0006657897029072046,-0.0011984214652329683
1772810516414671600,3.763671630859375,0.00013315794058144093,0.00013315794058144093,-0.0006657897029072046
1772810516424552000,3.773552001953125,0.00013315794058144093,0.0011984214652329683,-0.0011984214652329683
1772810516434432000,3.783431884765625,-0.0025300008710473776,-0.0009321055840700865,-0.00013315794058144093
1772810516444312300,3.793312255859375,0.0006657897029072046,-0.0014647373463958502,0.001997369108721614
1772810516454192400,3.8031923828125,0.00013315794058144093,0.00013315794058144093,-0.0006657897029072046
1772810516464072700,3.81307275390625,0.00013315794058144093,0.00013315794058144093,0.0009321055840700865
1772810516473952800,3.822952880859375,-0.0014647373463958502,0.00013315794058144093,-0.00013315794058144093
1772810516483833000,3.8328330078125,-0.0009321055840700865,-0.0009321055840700865,-0.0006657897029072046
1772810516493713200,3.842713134765625,-0.0003994738217443228,0.0006657897029072046,-0.0006657897029072046
1772810516513472500,3.862472412109375,-0.0003994738217443228,-0.0014647373463958502,-0.001731053227558732
1772810516523352000,3.87235205078125,-0.0014647373463958502,0.0006657897029072046,-0.00013315794058144093
1772810516533231600,3.882231689453125,0.00013315794058144093,-0.0025300008710473776,-0.0011984214652329683
1772810516543111200,3.892111083984375,0.0011984214652329683,0.0006657897029072046,0.0009321055840700865
1772810516552990700,3.90199072265625,-0.0009321055840700865,0.0022636849898844957,-0.0006657897029072046
1772810516562870300,3.911870361328125,0.0006657897029072046,0.0006657897029072046,-0.00013315794058144093
1772810516572749800,3.921749755859375,-0.0003994738217443228,0.0006657897029072046,-0.0006657897029072046
1772810516582629400,3.93162939453125,0.0006657897029072046,-0.0030626326333731413,-0.00013315794058144093
1772810516592509000,3.941509033203125,0.00013315794058144093,0.0006657897029072046,-0.0011984214652329683
1772810516602388500,3.951388427734375,0.00013315794058144093,0.0006657897029072046,0.0003994738217443228
1772810516612268000,3.96126806640625,0.0006657897029072046,-0.0003994738217443228,-0.0006657897029072046
1772810516622147600,3.971147705078125,0.0022636849898844957,-0.0014647373463958502,0.0009321055840700865
1772810516632027100,3.981027099609375,-0.0003994738217443228,-0.0003994738217443228,-0.0006657897029072046
1772810516641906700,3.99090673828125,0.001731053227558732,0.00013315794058144093,0.0014647373463958502
1772810516651786200,4.0007861328125,0.0011984214652329683,-0.0009321055840700865,-0.00013315794058144093
1772810516661665800,4.010665771484375,0.0011984214652329683,-0.0009321055840700865,-0.0006657897029072046
1772810516671545300,4.02054541015625,0.00013315794058144093,-0.0003994738217443228,0.0003994738217443228
1772810516681425000,4.0304248046875,0.0006657897029072046,-0.0009321055840700865,-0.00013315794058144093
1772810516701184000,4.05018408203125,0.0006657897029072046,-0.0009321055840700865,0.001997369108721614
1772810516711063600,4.0600634765625,0.0011984214652329683,-0.0009321055840700865,-0.00013315794058144093
1772810516720943000,4.069943115234375,-0.0009321055840700865,0.0006657897029072046,0.0003994738217443228
1772810516730822700,4.07982275390625,-0.0003994738217443228,0.00013315794058144093,0.0009321055840700865
1772810516740702200,4.0897021484375,0.0011984214652329683,-0.0009321055840700865,0.001997369108721614
1772810516750581800,4.099581787109375,0.00013315794058144093,0.0006657897029072046,-0.0006657897029072046
1772810516760461300,4.10946142578125,0.0006657897029072046,-0.0009321055840700865,-0.00013315794058144093
1772810516770340900,4.1193408203125,-0.0009321055840700865,-0.0014647373463958502,0.0009321055840700865
1772810516780220700,4.129220703125,-0.0003994738217443228,-0.0003994738217443228,0.0009321055840700865
1772810516790100200,4.139100341796875,0.00013315794058144093,-0.0014647373463958502,-0.00013315794058144093
1772810516799979800,4.148979736328125,-0.0009321055840700865,-0.0009321055840700865,-0.00013315794058144093
1772810516809859300,4.158859375,0.00013315794058144093,0.0006657897029072046,-0.0006657897029072046
1772810516819739000,4.16873876953125,-0.0003994738217443228,0.00013315794058144093,0.0003994738217443228
1772810516829618400,4.178618408203125,-0.0003994738217443228,-0.0009321055840700865,-0.00013315794058144093
1772810516839498000,4.188498046875,0.0011984214652329683,-0.0003994738217443228,-0.00013315794058144093
1772810516849377500,4.19837744140625,-0.0003994738217443228,0.0006657897029072046,0.0003994738217443228
1772810516859257000,4.208257080078125,-0.0003994738217443228,-0.0003994738217443228,-0.0011984214652329683
1772810516869136600,4.21813671875,-0.0003994738217443228,-0.001997369108721614,0.0009321055840700865
1772810516879016200,4.22801611328125,-0.0009321055840700865,-0.0009321055840700865,-0.001731053227558732
1772810516888895700,4.237895751953125,-0.0003994738217443228,-0.0009321055840700865,0.0003994738217443228
1772810516898775300,4.247775390625,0.00013315794058144093,0.00013315794058144093,0.001997369108721614
1772810516908654800,4.25765478515625,-0.0003994738217443228,0.00013315794058144093,-0.00013315794058144093
1772810516918534400,4.267534423828125,0.0022636849898844957,-0.0009321055840700865,-0.00013315794058144093
1772810516928414000,4.2774140625,0.00013315794058144093,0.00013315794058144093,-0.0006657897029072046
1772810516938293500,4.28729345703125,-0.0014647373463958502,0.0022636849898844957,-0.00013315794058144093
1772810516948173000,4.297173095703125,0.0027963167522102594,0.0006657897029072046,0.0009321055840700865
1772810516958052600,4.307052490234375,-0.0003994738217443228,0.00013315794058144093,-0.00013315794058144093
1772810516967932200,4.31693212890625,0.0006657897029072046,-0.0003994738217443228,-0.001731053227558732
1772810516977811700,4.326811767578125,0.0006657897029072046,0.001731053227558732,0.0003994738217443228
1772810516987691300,4.336691162109375,0.0006657897029072046,-0.0014647373463958502,0.0009321055840700865
1772810516997571000,4.346571044921875,0.00013315794058144093,0.00013315794058144093,-0.00013315794058144093
1772810517007451400,4.356451416015625,-0.0003994738217443228,-0.0003994738217443228,-0.00013315794058144093
1772810517017331700,4.366331787109375,-0.0003994738217443228,0.00013315794058144093,-0.0006657897029072046
1772810517027212300,4.37621240234375,0.0027963167522102594,-0.0009321055840700865,-0.0006657897029072046
1772810517037092600,4.386092529296875,-0.0009321055840700865,0.0009321055840700865,0.0003994738217443228
1772810517046973000,4.395972900390625,0.00013315794058144093,0.001997369108721614,-0.00013315794058144093
1772810517056853200,4.405853271484375,-0.0025300008710473776,-0.0006657897029072046,-0.0011984214652329683
1772810517066733600,4.415733642578125,-0.0003994738217443228,0.0009321055840700865,0.0003994738217443228
1772810517076614000,4.42561376953125,0.00013315794058144093,-0.0006657897029072046,-0.00013315794058144093
1772810517086494500,4.435494384765625,0.0011984214652329683,0.001997369108721614,-0.001731053227558732
1772810517096374800,4.445374755859375,0.0006657897029072046,-0.003861580276861787,-0.0011984214652329683
1772810517106255000,4.455255126953125,0.001731053227558732,-0.00013315794058144093,-0.0006657897029072046
1772810517116135400,4.465135498046875,-0.0009321055840700865,0.0014647373463958502,0.0003994738217443228
1772810517126015700,4.475015625,-0.0003994738217443228,-0.001731053227558732,0.0009321055840700865
1772810517135896300,4.484896240234375,0.0006657897029072046,0.0009321055840700865,0.0003994738217443228
1772810517145776600,4.494776611328125,0.0006657897029072046,0.0003994738217443228,0.0003994738217443228
1772810517155657000,4.504656982421875,0.00013315794058144093,0.0009321055840700865,-0.0006657897029072046
1772810517165537300,4.514537353515625,-0.0009321055840700865,-0.00013315794058144093,-0.0006657897029072046
1772810517175417600,4.52441748046875,-0.0003994738217443228,-0.0006657897029072046,-0.0006657897029072046
1772810517185298000,4.5342978515625,-0.0014647373463958502,-0.00013315794058144093,-0.00013315794058144093
1772810517195178500,4.544178466796875,-0.0009321055840700865,0.0003994738217443228,0.0003994738217443228
1772810517205058800,4.554058837890625,0.0011984214652329683,0.0003994738217443228,0.0003994738217443228
1772810517214939100,4.563939208984375,0.001731053227558732,-0.001731053227558732,-0.003328948514536023
1772810517224819500,4.5738193359375,0.001731053227558732,-0.0006657897029072046,-0.00013315794058144093
1772810517234699800,4.58369970703125,-0.0014647373463958502,-0.00013315794058144093,0.0003994738217443228
1772810517244580000,4.593580078125,0.0011984214652329683,0.0009321055840700865,-0.0006657897029072046
1772810517254460700,4.603460693359375,-0.0014647373463958502,-0.0006657897029072046,-0.0011984214652329683
1772810517264341000,4.613341064453125,-0.0003994738217443228,-0.00013315794058144093,-0.00013315794058144093
1772810517274221300,4.62322119140625,-0.0003994738217443228,-0.0011984214652329683,-0.00013315794058144093
1772810517284101600,4.6331015625,0.0011984214652329683,-0.0006657897029072046,-0.0006657897029072046
1772810517293982000,4.64298193359375,0.00013315794058144093,0.0009321055840700865,-0.00013315794058144093
1772810517303862300,4.6528623046875,0.0011984214652329683,-0.00013315794058144093,-0.00013315794058144093
1772810517313742800,4.662742919921875,0.00013315794058144093,0.0014647373463958502,0.0009321055840700865
1772810517323623200,4.672623046875,-0.0003994738217443228,0.0003994738217443228,0.0003994738217443228
1772810517333503500,4.68250341796875,0.00013315794058144093,0.0003994738217443228,-0.0006657897029072046
1772810517343383800,4.6923837890625,0.0006657897029072046,-0.0006657897029072046,-0.0006657897029072046
1772810517353264000,4.70226416015625,0.001731053227558732,-0.0006657897029072046,-0.00013315794058144093
1772810517363144700,4.712144775390625,0.0006657897029072046,-0.00013315794058144093,0.0003994738217443228
1772810517373025000,4.72202490234375,0.0006657897029072046,0.001997369108721614,-0.00013315794058144093
1772810517382905300,4.7319052734375,0.0011984214652329683,-0.0006657897029072046,0.0014647373463958502
1772810517392785700,4.74178564453125,-0.0009321055840700865,0.0003994738217443228,0.0009321055840700865
1772810517402666000,4.751666015625,-0.0003994738217443228,0.0014647373463958502,0.0003994738217443228
1772810517412546300,4.76154638671875,0.0022636849898844957,0.0014647373463958502,0.0003994738217443228
1772810517422427000,4.771427001953125,-0.001997369108721614,-0.00013315794058144093,-0.00013315794058144093
1772810517432307200,4.78130712890625,-0.0003994738217443228,-0.0006657897029072046,-0.0006657897029072046
1772810517452067800,4.80106787109375,0.0006657897029072046,-0.00013315794058144093,-0.0011984214652329683
1772810517461948200,4.8109482421875,0.0006657897029072046,0.0003994738217443228,-0.0006657897029072046
1772810517471828500,4.820828369140625,0.00013315794058144093,0.0025300008710473776,-0.00013315794058144093
1772810517481709000,4.830708984375,0.0006657897029072046,-0.00013315794058144093,-0.001731053227558732
1772810517491589400,4.84058935546875,-0.0014647373463958502,-0.00013315794058144093,0.0014647373463958502
1772810517501469400,4.850469482421875,0.00013315794058144093,-0.0006657897029072046,-0.00013315794058144093
1772810517511349500,4.860349609375,-0.001997369108721614,-0.001731053227558732,0.0009321055840700865
1772810517521229600,4.8702294921875,-0.0003994738217443228,-0.00013315794058144093,0.0003994738217443228
1772810517531109600,4.880109619140625,0.00013315794058144093,-0.00013315794058144093,0.0009321055840700865
1772810517540989400,4.889989501953125,-0.0003994738217443228,0.0003994738217443228,0.0009321055840700865
1772810517550869500,4.899869384765625,0.00013315794058144093,0.0009321055840700865,0.0009321055840700865
1772810517560749600,4.90974951171875,0.0006657897029072046,-0.0022636849898844957,-0.001731053227558732
1772810517570629600,4.919629638671875,-0.0003994738217443228,0.0014647373463958502,-0.00013315794058144093
1772810517580509700,4.929509765625,0.0011984214652329683,-0.00013315794058144093,-0.0011984214652329683
1772810517590389800,4.9393896484375,-0.0003994738217443228,-0.00013315794058144093,-0.001731053227558732
1772810517600269600,4.94926953125,-0.0014647373463958502,-0.0006657897029072046,-0.00013315794058144093
1772810517610149600,4.959149658203125,-0.0003994738217443228,0.0009321055840700865,-0.0006657897029072046
1772810517620029700,4.96902978515625,0.0011984214652329683,0.0009321055840700865,0.0003994738217443228
1772810517629909800,4.97890966796875,-0.0003994738217443228,-0.0011984214652329683,0.0003994738217443228
1772810517639789600,4.98878955078125,0.0006657897029072046,-0.00013315794058144093,0.0009321055840700865
1772810517649669600,4.998669677734375,0.001731053227558732,0.0009321055840700865,-0.0006657897029072046
1772810517659549700,5.0085498046875,0.0006657897029072046,-0.001731053227558732,-0.0011984214652329683
1772810517669429800,5.0184296875,0.0006657897029072046,-0.0006657897029072046,0.0003994738217443228
1772810517679309800,5.028309814453125,0.0011984214652329683,0.0025300008710473776,0.0009321055840700865
1772810517689190000,5.03818994140625,-0.0014647373463958502,-0.0022636849898844957,0.0014647373463958502
1772810517699069700,5.048069580078125,0.00013315794058144093,0.0014647373463958502,0.0003994738217443228
1772810517708949800,5.05794970703125,-0.0014647373463958502,-0.00013315794058144093,-0.0006657897029072046
1772810517718829800,5.067829833984375,0.0011984214652329683,0.0003994738217443228,-0.0006657897029072046
1772810517728710000,5.0777099609375,0.00013315794058144093,0.0009321055840700865,-0.0011984214652329683
1772810517738590000,5.08758984375,0.0027963167522102594,-0.0022636849898844957,-0.0011984214652329683
1772810517748470000,5.097469970703125,0.0006657897029072046,-0.0011984214652329683,0.0009321055840700865
1772810517758349800,5.107349853515625,0.00013315794058144093,-0.00013315794058144093,0.0009321055840700865
1772810517768230000,5.11722998046875,-0.0003994738217443228,0.0009321055840700865,-0.00013315794058144093
1772810517778110000,5.12710986328125,-0.0003994738217443228,-0.00013315794058144093,0.0003994738217443228
1772810517787990000,5.136989990234375,0.0011984214652329683,-0.00013315794058144093,0.0009321055840700865
1772810517797870000,5.1468701171875,0.00013315794058144093,0.0003994738217443228,-0.0006657897029072046
1772810517807750000,5.15675,0.0006657897029072046,0.0003994738217443228,-0.0011984214652329683
1772810517817630000,5.1666298828125,0.00013315794058144093,0.0009321055840700865,-0.0006657897029072046
1772810517827510000,5.176510009765625,0.00013315794058144093,-0.0006657897029072046,0.0003994738217443228
1772810517837390000,5.18639013671875,0.0011984214652329683,-0.00013315794058144093,0.0014647373463958502
1772810517847270100,5.196270263671875,0.00013315794058144093,0.0009321055840700865,-0.00013315794058144093
1772810517857150200,5.206150146484375,0.00013315794058144093,0.0009321055840700865,-0.001731053227558732
1772810517867030000,5.216030029296875,-0.0009321055840700865,-0.00013315794058144093,-0.0011984214652329683
1772810517876910000,5.22591015625,0.00013315794058144093,0.0003994738217443228,-0.001731053227558732
1772810517886790100,5.2357900390625,0.0006657897029072046,-0.00013315794058144093,0.0003994738217443228
1772810517896670200,5.245670166015625,-0.0003994738217443228,0.0003994738217443228,-0.00013315794058144093
1772810517906550300,5.25555029296875,0.0022636849898844957,0.0009321055840700865,-0.0006657897029072046
1772810517916430000,5.26543017578125,-0.0009321055840700865,-0.00013315794058144093,-0.0006657897029072046
1772810517926310100,5.27531005859375,-0.0009321055840700865,0.0003994738217443228,-0.00013315794058144093
1772810517936190200,5.285190185546875,0.0006657897029072046,0.0014647373463958502,0.0014647373463958502
1772810517946070300,5.2950703125,0.00013315794058144093,0.0009321055840700865,-0.0006657897029072046
1772810517955950300,5.304950439453125,0.0006657897029072046,0.0003994738217443228,-0.00013315794058144093
1772810517965830400,5.314830322265625,-0.0003994738217443228,-0.00013315794058144093,0.0003994738217443228
1772810517975710200,5.324710205078125,0.00013315794058144093,-0.00013315794058144093,-0.0011984214652329683
1772810517985590300,5.33459033203125,0.0006657897029072046,0.0003994738217443228,0.0009321055840700865
1772810517995470300,5.34447021484375,0.00013315794058144093,0.0009321055840700865,0.0009321055840700865
1772810518005350100,5.35435009765625,0.001731053227558732,-0.0006657897029072046,0.0003994738217443228
1772810518015230000,5.36422998046875,0.00013315794058144093,0.0009321055840700865,-0.0006657897029072046
1772810518025109800,5.37410986328125,-0.0003994738217443228,-0.00013315794058144093,-0.00013315794058144093
1772810518034989600,5.383989501953125,-0.0003994738217443228,-0.0006657897029072046,-0.0027963167522102594
1772810518044869400,5.393869384765625,-0.0009321055840700865,-0.00013315794058144093,-0.00013315794058144093
1772810518054749200,5.403749267578125,0.0006657897029072046,-0.0006657897029072046,-0.0006657897029072046
1772810518064629000,5.41362890625,-0.0009321055840700865,0.0003994738217443228,0.0014647373463958502
1772810518074508800,5.4235087890625,0.001731053227558732,0.0009321055840700865,-0.00013315794058144093
1772810518084388600,5.433388671875,-0.0003994738217443228,-0.0027963167522102594,0.0003994738217443228
1772810518094268200,5.44326806640625,0.00013315794058144093,-0.0006657897029072046,-0.00013315794058144093
1772810518104148000,5.45314794921875,-0.0009321055840700865,0.0003994738217443228,-0.0011984214652329683
1772810518114027800,5.46302783203125,-0.0009321055840700865,-0.00013315794058144093,0.001997369108721614
1772810518123907600,5.472907470703125,0.00013315794058144093,0.0003994738217443228,0.0009321055840700865
1772810518133787400,5.482787353515625,0.00013315794058144093,-0.0011984214652329683,0.001997369108721614
1772810518143667200,5.492667236328125,0.00013315794058144093,-0.00013315794058144093,-0.00013315794058144093
1772810518153547000,5.502547119140625,-0.0009321055840700865,0.0003994738217443228,-0.0006657897029072046
1772810518163426800,5.5124267578125,-0.0009321055840700865,-0.0006657897029072046,0.0009321055840700865
1772810518173306600,5.522306640625,-0.0009321055840700865,-0.0006657897029072046,-0.00013315794058144093
1772810518183186400,5.5321865234375,-0.001997369108721614,-0.0011984214652329683,0.0014647373463958502
1772810518193066200,5.542066162109375,0.0006657897029072046,-0.0011984214652329683,0.0003994738217443228
1772810518202946000,5.551946044921875,-0.0009321055840700865,-0.0006657897029072046,0.0003994738217443228
1772810518212825900,5.561825927734375,-0.0009321055840700865,-0.00013315794058144093,-0.00013315794058144093
1772810518222705700,5.57170556640625,-0.0009321055840700865,-0.0006657897029072046,-0.00013315794058144093
1772810518232585500,5.58158544921875,-0.0003994738217443228,0.0025300008710473776,-0.0011984214652329683
1772810518242465300,5.59146533203125,0.0022636849898844957,0.0003994738217443228,-0.0011984214652329683
1772810518252345000,5.601344970703125,0.00013315794058144093,0.0014647373463958502,-0.0006657897029072046
1772810518262225000,5.611224853515625,0.001731053227558732,0.0003994738217443228,-0.00013315794058144093
1772810518272104700,5.621104736328125,-0.0009321055840700865,0.0009321055840700865,0.0003994738217443228
1772810518281984500,5.630984619140625,0.0006657897029072046,0.0003994738217443228,0.0003994738217443228
1772810518291864300,5.6408642578125,0.00013315794058144093,0.0014647373463958502,0.0009321055840700865
1772810518301744000,5.650744140625,-0.0014647373463958502,-0.0011984214652329683,-0.0006657897029072046
1772810518311624000,5.6606240234375,0.00013315794058144093,-0.00013315794058144093,-0.00013315794058144093
1772810518321503700,5.670503662109375,-0.0003994738217443228,-0.0011984214652329683,0.0003994738217443228
1772810518331383600,5.680383544921875,0.00013315794058144093,-0.001731053227558732,-0.0006657897029072046
1772810518341263400,5.690263427734375,0.0006657897029072046,0.0003994738217443228,0.0003994738217443228
1772810518351143200,5.70014306640625,-0.0003994738217443228,-0.0011984214652329683,0.0003994738217443228
1772810518361023000,5.71002294921875,0.00013315794058144093,-0.00013315794058144093,0.0014647373463958502
1772810518370902800,5.71990283203125,-0.0003994738217443228,-0.0006657897029072046,0.0003994738217443228
1772810518380782600,5.729782470703125,0.0006657897029072046,0.0009321055840700865,0.0003994738217443228
1772810518390662400,5.739662353515625,-0.0009321055840700865,-0.00013315794058144093,0.0003994738217443228
1772810518400542200,5.749542236328125,-0.0014647373463958502,-0.0011984214652329683,0.001997369108721614
1772810518410422000,5.759422119140625,0.00013315794058144093,-0.00013315794058144093,-0.00013315794058144093
1772810518420301800,5.7693017578125,0.00013315794058144093,-0.0022636849898844957,-0.00013315794058144093
1772810518430181600,5.779181640625,-0.001997369108721614,-0.0006657897029072046,0.0003994738217443228
1772810518440061400,5.7890615234375,-0.0009321055840700865,-0.0006657897029072046,-0.0006657897029072046
1772810518449941200,5.798941162109375,-0.0025300008710473776,-0.00013315794058144093,-0.0006657897029072046
1772810518459821000,5.808821044921875,0.00013315794058144093,-0.0006657897029072046,0.0003994738217443228
1772810518469700600,5.81870068359375,-0.0014647373463958502,-0.001731053227558732,0.0003994738217443228
1772810518479580400,5.828580322265625,-0.0014647373463958502,0.0009321055840700865,0.0003994738217443228
1772810518489460500,5.83846044921875,0.00013315794058144093,-0.0022636849898844957,0.0003994738217443228
1772810518499340300,5.84834033203125,-0.0009321055840700865,-0.0022636849898844957,-0.0011984214652329683
1772810518509220400,5.858220458984375,0.00013315794058144093,0.0003994738217443228,-0.0006657897029072046
1772810518519100700,5.8681005859375,0.001731053227558732,-0.0006657897029072046,0.0014647373463958502
1772810518528981000,5.87798095703125,0.0006657897029072046,0.0014647373463958502,0.0014647373463958502
1772810518538861000,5.887861083984375,0.00013315794058144093,-0.0006657897029072046,-0.0011984214652329683
1772810518548741400,5.897741455078125,0.0006657897029072046,0.0003994738217443228,-0.0027963167522102594
1772810518558621400,5.907621337890625,-0.0014647373463958502,0.0009321055840700865,0.0003994738217443228
1772810518568501800,5.917501708984375,0.0011984214652329683,-0.001731053227558732,-0.0006657897029072046
1772810518578382000,5.927382080078125,-0.0009321055840700865,0.0003994738217443228,-0.0006657897029072046
1772810518588262100,5.93726220703125,-0.0009321055840700865,-0.0011984214652329683,-0.0011984214652329683
1772810518598142500,5.947142578125,-0.0003994738217443228,0.0009321055840700865,0.0003994738217443228
1772810518608022500,5.9570224609375,0.00013315794058144093,0.0003994738217443228,0.0014647373463958502
1772810518617902800,5.96690283203125,0.0006657897029072046,-0.00013315794058144093,-0.0006657897029072046
1772810518627783000,5.976782958984375,-0.0009321055840700865,-0.0006657897029072046,-0.0006657897029072046
1772810518637663200,5.986663330078125,0.00013315794058144093,0.0009321055840700865,-0.00013315794058144093
1772810518647543600,5.99654345703125,0.0006657897029072046,-0.00013315794058144093,-0.0006657897029072046
1772810518657423600,6.006423583984375,-0.0014647373463958502,0.0014647373463958502,0.0003994738217443228
1772810518667304000,6.016303955078125,0.001731053227558732,-0.0006657897029072046,0.0014647373463958502
1772810518677184000,6.02618408203125,0.00013315794058144093,0.0009321055840700865,0.0009321055840700865
1772810518687064300,6.036064208984375,-0.0009321055840700865,-0.0006657897029072046,-0.0006657897029072046
1772810518696944600,6.045944580078125,-0.0009321055840700865,0.0003994738217443228,-0.001731053227558732
1772810518706824700,6.05582470703125,-0.0003994738217443228,0.001997369108721614,-0.0006657897029072046
1772810518716705000,6.065705078125,-0.0009321055840700865,0.0009321055840700865,-0.00013315794058144093
1772810518726585000,6.075585205078125,0.001731053227558732,0.0003994738217443228,-0.00013315794058144093
1772810518736465400,6.08546533203125,-0.0014647373463958502,-0.0022636849898844957,-0.00013315794058144093
1772810518746345700,6.095345703125,0.00013315794058144093,-0.00013315794058144093,0.0003994738217443228
1772810518756225800,6.105225830078125,0.00013315794058144093,0.001997369108721614,-0.00013315794058144093
1772810518766106000,6.115106201171875,0.00013315794058144093,-0.00013315794058144093,0.0003994738217443228
1772810518775986200,6.124986083984375,0.001731053227558732,0.0025300008710473776,0.0003994738217443228
1772810518785866500,6.134866455078125,-0.0003994738217443228,0.0009321055840700865,-0.0011984214652329683
1772810518795746600,6.14474658203125,-0.0009321055840700865,-0.0011984214652329683,-0.0006657897029072046
1772810518805627000,6.154626953125,0.0006657897029072046,-0.00013315794058144093,0.0003994738217443228
1772810518815507200,6.164507080078125,0.00013315794058144093,0.0003994738217443228,-0.0005326317623257637
1772810518825387300,6.17438720703125,-0.0003994738217443228,0.0009321055840700865,0
1772810518835267600,6.184267578125,0.0011984214652329683,-0.0006657897029072046,-0.0010652635246515274
1772810518845147600,6.194147705078125,-0.0003994738217443228,-0.0006657897029072046,-0.0005326317623257637
1772810518855028000,6.204028076171875,-0.0003994738217443228,0.0009321055840700865,0
1772810518864908300,6.213908203125,0.00013315794058144093,0.0014647373463958502,0.0005326317623257637
1772810518874788400,6.223788330078125,-0.0009321055840700865,0.0009321055840700865,0
1772810518884668700,6.233668701171875,0.0006657897029072046,-0.0027963167522102594,-0.0005326317623257637
1772810518894548700,6.243548828125,0.0006657897029072046,-0.0011984214652329683,0.0005326317623257637
1772810518904429000,6.253428955078125,-0.0009321055840700865,0.0009321055840700865,0
1772810518914309400,6.263309326171875,0.0022636849898844957,-0.00013315794058144093,0
1772810518924189400,6.273189453125,0.00013315794058144093,0.0003994738217443228,-0.0005326317623257637
1772810518934069800,6.28306982421875,0.0011984214652329683,0.0014647373463958502,0
1772810518943949800,6.29294970703125,0.0006657897029072046,-0.0011984214652329683,0.0010652635246515274
1772810518953830100,6.302830078125,-0.0003994738217443228,-0.00013315794058144093,0.0005326317623257637
1772810518963710200,6.312710205078125,0.0006657897029072046,0.0014647373463958502,0.001597895286977291
1772810518973590500,6.322590576171875,0.0006657897029072046,-0.0006657897029072046,0
1772810518983470800,6.332470947265625,-0.0009321055840700865,-0.0006657897029072046,0
1772810518993351000,6.342350830078125,0.0006657897029072046,0.0009321055840700865,-0.0005326317623257637
1772810519003231000,6.35223095703125,0.00013315794058144093,0.0009321055840700865,0.0010652635246515274
1772810519013110800,6.36211083984375,0.0011984214652329683,0.0009321055840700865,-0.0010652635246515274
1772810519022990600,6.371990478515625,0.0006657897029072046,0.0003994738217443228,-0.0005326317623257637
1772810519032870400,6.381870361328125,0.0011984214652329683,-0.0022636849898844957,-0.0005326317623257637
1772810519042750500,6.39175048828125,-0.0003994738217443228,0.001997369108721614,-0.0005326317623257637
1772810519052630300,6.40163037109375,0.00013315794058144093,0.0014647373463958502,0.0005326317623257637
1772810519062510000,6.411510009765625,0.00013315794058144093,0.0003994738217443228,0.0005326317623257637
1772810519072390100,6.42139013671875,-0.0009321055840700865,-0.0011984214652329683,-0.0005326317623257637
1772810519082270000,6.43127001953125,0.001731053227558732,0.0003994738217443228,0
1772810519092150000,6.44114990234375,-0.0003994738217443228,0.0003994738217443228,0.0010652635246515274
1772810519102029800,6.45102978515625,0.0011984214652329683,0.001997369108721614,0.0005326317623257637
1772810519111909600,6.46090966796875,-0.0003994738217443228,-0.00013315794058144093,-0.0005326317623257637
1772810519121789400,6.47078955078125,-0.0003994738217443228,0.0003994738217443228,0
1772810519131669500,6.48066943359375,0.00013315794058144093,0.0009321055840700865,-0.001597895286977291
1772810519141549300,6.49054931640625,0.00013315794058144093,0.0014647373463958502,0
1772810519151429000,6.50042919921875,0.0011984214652329683,0.0009321055840700865,0.0005326317623257637
1772810519161309200,6.51030908203125,-0.0003994738217443228,0.0003994738217443228,0.0005326317623257637
1772810519171189000,6.52018896484375,0.0006657897029072046,0.0009321055840700865,-0.0010652635246515274
1772810519181068800,6.53006884765625,-0.0014647373463958502,0.0003994738217443228,0.0010652635246515274
1772810519190948900,6.539948974609375,0.00013315794058144093,0.001997369108721614,0.0005326317623257637
1772810519200828700,6.54982861328125,-0.0003994738217443228,-0.00013315794058144093,-0.0005326317623257637
1772810519210708500,6.55970849609375,0.0011984214652329683,-0.00013315794058144093,-0.0010652635246515274
1772810519220588500,6.569588623046875,0.00013315794058144093,0.0014647373463958502,0.0005326317623257637
1772810519230468400,6.57946826171875,-0.0009321055840700865,0.0009321055840700865,0.0005326317623257637
1772810519240348200,6.58934814453125,-0.0009321055840700865,0.0009321055840700865,0
1772810519250228200,6.599228271484375,0.00013315794058144093,-0.0011984214652329683,0
1772810519260108000,6.60910791015625,0.0006657897029072046,0.0003994738217443228,-0.0005326317623257637
1772810519269987800,6.61898779296875,0.00013315794058144093,0.0014647373463958502,0
1772810519279867600,6.62886767578125,0.0011984214652329683,-0.00013315794058144093,0
1772810519289747700,6.638747802734375,0.0006657897029072046,-0.0011984214652329683,-0.001597895286977291
1772810519299627500,6.64862744140625,0.00013315794058144093,0.0009321055840700865,-0.0005326317623257637
1772810519309507300,6.65850732421875,0.00013315794058144093,0.0009321055840700865,0
1772810519319387400,6.668387451171875,0.0011984214652329683,0.0003994738217443228,0.002130527049303055
1772810519329267200,6.67826708984375,0.0006657897029072046,0.0003994738217443228,0
1772810519339147000,6.68814697265625,0.00013315794058144093,0.0003994738217443228,0
1772810519349027000,6.698027099609375,-0.0003994738217443228,-0.00013315794058144093,0.0005326317623257637
1772810519358907000,6.707906982421875,-0.0003994738217443228,-0.0011984214652329683,0.001597895286977291
1772810519368786700,6.71778662109375,0.0006657897029072046,-0.00013315794058144093,-0.0005326317623257637
1772810519378666800,6.727666748046875,-0.0003994738217443228,-0.0006657897029072046,0.0010652635246515274
1772810519388546600,6.737546630859375,-0.0009321055840700865,0.001997369108721614,0.0010652635246515274
1772810519398426400,6.74742626953125,0.001731053227558732,-0.0006657897029072046,-0.0010652635246515274
1772810519408306400,6.757306396484375,0.00013315794058144093,-0.00013315794058144093,0
1772810519418186200,6.767186279296875,0.00013315794058144093,-0.00013315794058144093,-0.0005326317623257637
1772810519428066000,6.777066162109375,0.0011984214652329683,-0.0006657897029072046,0
1772810519437946000,6.786946044921875,-0.0009321055840700865,0.0009321055840700865,0
1772810519447826000,6.796825927734375,-0.0009321055840700865,-0.00013315794058144093,-0.0005326317623257637
1772810519457705700,6.806705810546875,0.001731053227558732,0.0014647373463958502,0.0005326317623257637
1772810519467585800,6.816585693359375,0.0006657897029072046,-0.0011984214652329683,0.0010652635246515274
1772810519477465600,6.826465576171875,-0.001997369108721614,-0.00013315794058144093,0.001597895286977291
1772810519487345400,6.836345458984375,-0.0009321055840700865,-0.0011984214652329683,0.0005326317623257637
1772810519497225500,6.8462255859375,-0.0003994738217443228,-0.00013315794058144093,0.0005326317623257637
1772810519507105300,6.856105224609375,0.00013315794058144093,0.0009321055840700865,0.0005326317623257637
1772810519516985300,6.8659853515625,-0.0014647373463958502,-0.00013315794058144093,0.0005326317623257637
1772810519526865400,6.875865478515625,-0.0009321055840700865,-0.00013315794058144093,0.0005326317623257637
1772810519536745500,6.885745361328125,-0.0009321055840700865,-0.0011984214652329683,0.0005326317623257637
1772810519546625500,6.89562548828125,0.0006657897029072046,-0.001731053227558732,0.0010652635246515274
1772810519556505600,6.905505615234375,0.00013315794058144093,0.0025300008710473776,0
1772810519566385700,6.9153857421875,-0.0003994738217443228,0.0003994738217443228,0.0010652635246515274
1772810519576265500,6.925265380859375,-0.0009321055840700865,0.003595264395698905,-0.0010652635246515274
1772810519586145500,6.9351455078125,-0.001997369108721614,0.0014647373463958502,-0.0005326317623257637
1772810519596025600,6.945025634765625,-0.0009321055840700865,0.0014647373463958502,-0.0010652635246515274
1772810519605905700,6.95490576171875,-0.0003994738217443228,-0.0011984214652329683,0
1772810519615785700,6.96478564453125,-0.0009321055840700865,-0.0006657897029072046,-0.001597895286977291
1772810519625665800,6.974665771484375,0.0006657897029072046,0.0003994738217443228,0.0005326317623257637
1772810519635545900,6.9845458984375,0.00013315794058144093,0.0003994738217443228,0.0005326317623257637
1772810519645426000,6.994426025390625,-0.0009321055840700865,-0.0011984214652329683,0
1772810519655305700,7.0043056640625,-0.0014647373463958502,0.001997369108721614,0.0010652635246515274
1772810519665185800,7.014185791015625,-0.0003994738217443228,0.0003994738217443228,0
1772810519675065900,7.02406591796875,-0.0003994738217443228,0.0014647373463958502,0.0005326317623257637
1772810519684946000,7.03394580078125,0.0006657897029072046,0.0003994738217443228,0.0005326317623257637
1772810519694826000,7.043825927734375,-0.0003994738217443228,0.0009321055840700865,0.0010652635246515274
1772810519704706000,7.0537060546875,0.0006657897029072046,-0.00013315794058144093,0.0005326317623257637
1772810519714586000,7.063586181640625,0.0006657897029072046,0.0009321055840700865,0
1772810519724466000,7.0734658203125,-0.0003994738217443228,-0.00013315794058144093,-0.0005326317623257637
1772810519734346000,7.083345947265625,0.0011984214652329683,-0.0006657897029072046,0
1772810519744226000,7.09322607421875,-0.0003994738217443228,-0.0006657897029072046,-0.001597895286977291
1772810519754106000,7.103106201171875,0.0006657897029072046,-0.0022636849898844957,0.001597895286977291
1772810519763986200,7.112986083984375,-0.0003994738217443228,-0.0011984214652329683,-0.0005326317623257637
1772810519773866200,7.1228662109375,0.00013315794058144093,-0.001731053227558732,-0.0010652635246515274
1772810519783746300,7.132746337890625,0.0011984214652329683,-0.00013315794058144093,-0.0005326317623257637
1772810519793626400,7.14262646484375,0.00013315794058144093,-0.0006657897029072046,-0.0005326317623257637
1772810519803506200,7.152506103515625,0.00013315794058144093,0.0003994738217443228,0.0005326317623257637
1772810519813386200,7.16238623046875,0.0006657897029072046,0.0025300008710473776,0
1772810519823266300,7.172266357421875,-0.0003994738217443228,-0.00013315794058144093,0.002130527049303055
1772810519833146400,7.182146484375,-0.0009321055840700865,-0.00013315794058144093,0.0005326317623257637
1772810519843026400,7.1920263671875,0.0011984214652329683,-0.0011984214652329683,-0.0005326317623257637
1772810519852906500,7.201906494140625,0.00013315794058144093,0.0003994738217443228,0.0005326317623257637
1772810519862786600,7.21178662109375,0.0011984214652329683,-0.0006657897029072046,0
1772810519872666600,7.22166650390625,0.00013315794058144093,-0.00013315794058144093,-0.0005326317623257637
1772810519882546700,7.231546630859375,0.00013315794058144093,-0.00013315794058144093,0.0010652635246515274
1772810519892426500,7.241426513671875,0.00013315794058144093,-0.001731053227558732,0.0010652635246515274
1772810519902306600,7.251306640625,-0.0009321055840700865,-0.0011984214652329683,-0.0005326317623257637
1772810519912186600,7.2611865234375,0.0022636849898844957,-0.0006657897029072046,0.0005326317623257637
1772810519922066700,7.271066650390625,-0.0003994738217443228,-0.0011984214652329683,0
1772810519931946800,7.28094677734375,0.00013315794058144093,0.0014647373463958502,0.0005326317623257637
1772810519941826800,7.290826904296875,0.00013315794058144093,-0.0006657897029072046,0
1772810519951707000,7.300706787109375,0.0006657897029072046,0.0003994738217443228,-0.0005326317623257637
1772810519961587000,7.3105869140625,-0.0009321055840700865,0.0009321055840700865,0
1772810519971466800,7.320466796875,0.00013315794058144093,-0.0011984214652329683,0.0010652635246515274
1772810519981346800,7.330346923828125,0.00013315794058144093,-0.00013315794058144093,0.0010652635246515274
1772810519991227000,7.340226806640625,0.0011984214652329683,0.0003994738217443228,0.0010652635246515274
1772810520001106700,7.350106689453125,0.0006657897029072046,0.0003994738217443228,0.002130527049303055
1772810520020866600,7.369866455078125,0.0022636849898844957,-0.00013315794058144093,0.0010652635246515274
1772810520030746400,7.379746337890625,0.00013315794058144093,0.0009321055840700865,-0.002130527049303055
1772810520040626200,7.389626220703125,0.0006657897029072046,0.0003994738217443228,0.001597895286977291
1772810520050506000,7.399506103515625,0.0006657897029072046,0.001997369108721614,0.0010652635246515274
1772810520060385800,7.4093857421875,-0.0003994738217443228,-0.00013315794058144093,-0.0005326317623257637
1772810520070265600,7.419265625,0.0011984214652329683,0.0003994738217443228,0.0026631588116288185
1772810520080145700,7.429145751953125,0.00013315794058144093,0.0003994738217443228,0.0010652635246515274
1772810520090025500,7.439025390625,-0.0009321055840700865,-0.0011984214652329683,0
1772810520099905300,7.4489052734375,0.00013315794058144093,0.001997369108721614,0
1772810520109785000,7.45878515625,-0.0009321055840700865,-0.0011984214652329683,0
1772810520119665000,7.468664794921875,-0.0009321055840700865,0.0003994738217443228,0.0010652635246515274
1772810520129545000,7.478544921875,-0.0003994738217443228,0.0009321055840700865,0
1772810520139424800,7.4884248046875,0.00013315794058144093,-0.00013315794058144093,-0.0005326317623257637
1772810520149304600,7.4983046875,-0.0014647373463958502,-0.00013315794058144093,0.0005326317623257637
1772810520159184400,7.508184326171875,-0.0009321055840700865,-0.00013315794058144093,0.0005326317623257637
1772810520169064200,7.518064208984375,0.00013315794058144093,-0.0027963167522102594,0
1772810520178944300,7.5279443359375,0.00013315794058144093,0.0009321055840700865,0
1772810520188824000,7.537823974609375,0.00013315794058144093,-0.00013315794058144093,0.0010652635246515274
1772810520198703900,7.547703857421875,0.0011984214652329683,0.0003994738217443228,0
1772810520208583700,7.557583740234375,-0.0003994738217443228,-0.0011984214652329683,0.0005326317623257637
1772810520218463500,7.56746337890625,0.0011984214652329683,0.0003994738217443228,0.002130527049303055
1772810520228343600,7.577343505859375,-0.0003994738217443228,0.0009321055840700865,0
1772810520238223400,7.587223388671875,-0.0014647373463958502,-0.0006657897029072046,0
1772810520248103200,7.597103271484375,0.00013315794058144093,-0.001731053227558732,0.0005326317623257637
1772810520257983000,7.60698291015625,-0.0009321055840700865,0.0009321055840700865,0.0005326317623257637
1772810520267862800,7.61686279296875,-0.001997369108721614,-0.0006657897029072046,0
1772810520277742600,7.62674267578125,0.0006657897029072046,0.0003994738217443228,0.0010652635246515274
1772810520287622700,7.63662255859375,0.0006657897029072046,-0.0006657897029072046,-0.0010652635246515274
1772810520297502500,7.64650244140625,0.00013315794058144093,-0.00013315794058144093,0
1772810520307382300,7.65638232421875,0.00013315794058144093,0.001997369108721614,-0.0005326317623257637
1772810520317262000,7.666261962890625,-0.0003994738217443228,-0.00013315794058144093,0.001597895286977291
1772810520327142000,7.676141845703125,-0.0009321055840700865,-0.0011984214652329683,0
1772810520337021700,7.686021728515625,0.0006657897029072046,0.0009321055840700865,-0.0005326317623257637
1772810520346901800,7.69590185546875,0.00013315794058144093,0.0003994738217443228,0.0005326317623257637
1772810520356781600,7.705781494140625,-0.0009321055840700865,0.0009321055840700865,-0.001597895286977291
1772810520366661400,7.715661376953125,-0.0014647373463958502,0.0003994738217443228,-0.0010652635246515274
1772810520376541200,7.725541259765625,-0.0003994738217443228,-0.0006657897029072046,0
1772810520386421000,7.7354208984375,-0.0009321055840700865,-0.0022636849898844957,0.0010652635246515274
1772810520396301000,7.745301025390625,0.00013315794058144093,0.0003994738217443228,0.001597895286977291
1772810520406180900,7.755180908203125,-0.0009321055840700865,-0.0011984214652329683,-0.001597895286977291
1772810520416060700,7.765060791015625,-0.0009321055840700865,0.0003994738217443228,0.0005326317623257637
1772810520425940500,7.7749404296875,-0.001997369108721614,-0.00013315794058144093,0
1772810520435820300,7.7848203125,-0.0003994738217443228,0.0003994738217443228,-0.001597895286977291
1772810520445700000,7.7947001953125,0.0006657897029072046,0.0003994738217443228,-0.0005326317623257637
1772810520455580200,7.804580078125,-0.0009321055840700865,-0.001731053227558732,0.0010652635246515274
1772810520465460000,7.8144599609375,0.0006657897029072046,0.0009321055840700865,0.0005326317623257637
1772810520475339800,7.82433984375,0.001731053227558732,-0.0011984214652329683,0.0005326317623257637
1772810520485219600,7.834219482421875,0.00013315794058144093,0.0009321055840700865,0.0026631588116288185
1772810520495099600,7.844099609375,0.0006657897029072046,0.0014647373463958502,0.0010652635246515274
1772810520504979500,7.8539794921875,0.00013315794058144093,0.0009321055840700865,-0.0005326317623257637
1772810520514859500,7.863859619140625,-0.0003994738217443228,-0.00013315794058144093,0.0005326317623257637
1772810520524739600,7.873739501953125,-0.0003994738217443228,-0.00013315794058144093,0
1772810520534619600,7.88361962890625,0.001731053227558732,0.0003994738217443228,0
1772810520544499500,7.89349951171875,0.0006657897029072046,-0.0006657897029072046,-0.0010652635246515274
1772810520554379500,7.903379638671875,0.00013315794058144093,0.0003994738217443228,0.0005326317623257637
1772810520564259600,7.913259521484375,0.001731053227558732,-0.00013315794058144093,0
1772810520574139600,7.9231396484375,0.0006657897029072046,-0.00013315794058144093,0.0005326317623257637
1772810520584019700,7.933019775390625,0.001731053227558732,-0.0011984214652329683,-0.0005326317623257637
1772810520593899800,7.942899658203125,-0.0003994738217443228,0.0013315794058144093,0.0003994738217443228
1772810520603779600,7.952779541015625,-0.0009321055840700865,0.0013315794058144093,0.0009321055840700865
1772810520613659600,7.96265966796875,0.00013315794058144093,0.0023968429304659367,0.0003994738217443228
1772810520623539700,7.972539794921875,-0.0003994738217443228,-0.0007989476434886456,-0.00013315794058144093
1772810520633419800,7.982419677734375,0.0006657897029072046,-0.0029294746927917004,0.0009321055840700865
1772810520643299800,7.9922998046875,-0.0003994738217443228,-0.00026631588116288185,-0.0006657897029072046
1772810520653180000,8.002179931640624,-0.0009321055840700865,-0.001864211168140173,-0.00013315794058144093
1772810520663059700,8.012059814453124,-0.0003994738217443228,-0.0007989476434886456,-0.0006657897029072046
1772810520672939800,8.021939697265625,-0.0003994738217443228,-0.00026631588116288185,-0.001731053227558732
1772810520682819800,8.03181982421875,-0.0003994738217443228,0.001864211168140173,-0.0022636849898844957
1772810520692700000,8.041699951171875,-0.0009321055840700865,-0.00026631588116288185,0.0009321055840700865
1772810520702580000,8.051580078125,0.0006657897029072046,0.0007989476434886456,-0.00013315794058144093
1772810520712459800,8.061459716796875,0.00013315794058144093,-0.001864211168140173,-0.00013315794058144093
1772810520722339800,8.07133984375,-0.0014647373463958502,0.0007989476434886456,-0.0006657897029072046
1772810520732220000,8.081219970703126,0.00013315794058144093,-0.0013315794058144093,0.0014647373463958502
1772810520751980000,8.10097998046875,0.00013315794058144093,-0.00026631588116288185,-0.0006657897029072046
1772810520761860000,8.110860107421875,-0.0003994738217443228,-0.00026631588116288185,-0.0011984214652329683
1772810520771740000,8.120739990234375,0.00013315794058144093,-0.0007989476434886456,0.0009321055840700865
1772810520781620000,8.130619873046875,0.003328948514536023,-0.00026631588116288185,0.0003994738217443228
1772810520791500000,8.1405,0.0011984214652329683,0.00026631588116288185,-0.00013315794058144093
1772810520801380000,8.150380126953126,-0.0009321055840700865,-0.00026631588116288185,-0.001731053227558732
1772810520811260200,8.16026025390625,0.00013315794058144093,-0.0023968429304659367,0.0003994738217443228
1772810520821140200,8.17014013671875,0.00013315794058144093,-0.001864211168140173,-0.00013315794058144093
1772810520831020000,8.18002001953125,0.0006657897029072046,-0.00026631588116288185,0.0003994738217443228
1772810520840900000,8.189900146484375,0.0006657897029072046,-0.0007989476434886456,-0.0006657897029072046
1772810520850780200,8.1997802734375,-0.0009321055840700865,-0.00026631588116288185,0.0009321055840700865
1772810520860660200,8.20966015625,0.0011984214652329683,-0.0007989476434886456,-0.0006657897029072046
1772810520870540000,8.2195400390625,0.0006657897029072046,-0.0013315794058144093,0.0003994738217443228
1772810520880420000,8.229420166015625,0.001731053227558732,-0.003462106455117464,0.0014647373463958502
1772810520890300200,8.239300048828126,0.0006657897029072046,-0.00026631588116288185,0.0009321055840700865
1772810520900180200,8.24918017578125,0.0011984214652329683,-0.0013315794058144093,-0.0006657897029072046
1772810520910060300,8.259060302734374,-0.0009321055840700865,-0.00026631588116288185,-0.0011984214652329683
1772810520919940400,8.2689404296875,0.00013315794058144093,-0.0007989476434886456,-0.00013315794058144093
1772810520929820200,8.278820068359375,0.0006657897029072046,-0.00026631588116288185,-0.0011984214652329683
1772810520939700200,8.2887001953125,0.0006657897029072046,-0.0007989476434886456,0.0009321055840700865
1772810520949580300,8.298580322265625,-0.0009321055840700865,-0.0013315794058144093,0.0003994738217443228
1772810520959460400,8.30846044921875,-0.0003994738217443228,-0.001864211168140173,0.001997369108721614
1772810520969340400,8.31834033203125,-0.0009321055840700865,-0.00026631588116288185,0.001997369108721614
1772810520979220500,8.328220458984376,0.00013315794058144093,0.0007989476434886456,-0.0006657897029072046
1772810520989100300,8.338100341796874,-0.001997369108721614,-0.00026631588116288185,-0.0011984214652329683
1772810520998980600,8.347980712890624,0.00013315794058144093,-0.00026631588116288185,-0.001731053227558732
1772810521008861200,8.357861083984375,-0.0014647373463958502,0.0007989476434886456,0.0025300008710473776
1772810521018741800,8.36774169921875,0.0006657897029072046,-0.00026631588116288185,-0.0006657897029072046
1772810521028622300,8.377622314453125,-0.0014647373463958502,-0.0023968429304659367,-0.0011984214652329683
1772810521038502700,8.387502685546876,0.0006657897029072046,-0.003462106455117464,0.0003994738217443228
1772810521048383200,8.39738330078125,0.0006657897029072046,-0.0007989476434886456,-0.00013315794058144093
1772810521058263800,8.407263916015625,-0.0009321055840700865,-0.00026631588116288185,-0.00013315794058144093
1772810521068144400,8.417144287109375,0.00013315794058144093,-0.00026631588116288185,0.0003994738217443228
1772810521078025000,8.42702490234375,-0.0014647373463958502,-0.00026631588116288185,-0.00013315794058144093
1772810521087905500,8.436905517578126,0.0006657897029072046,0.003462106455117464,-0.0006657897029072046
1772810521097786000,8.4467861328125,-0.0014647373463958502,-0.0013315794058144093,-0.00013315794058144093
1772810521107666400,8.45666650390625,-0.0009321055840700865,0.00026631588116288185,-0.00013315794058144093
1772810521117547000,8.466547119140625,-0.0014647373463958502,0.00026631588116288185,-0.001731053227558732
1772810521127427600,8.476427490234375,-0.0014647373463958502,0.00026631588116288185,0.0003994738217443228
1772810521137308200,8.48630810546875,-0.0014647373463958502,-0.0007989476434886456,0.0003994738217443228
1772810521147188700,8.496188720703126,0.00013315794058144093,-0.0007989476434886456,0.0009321055840700865
1772810521157069300,8.5060693359375,-0.001997369108721614,-0.00026631588116288185,-0.00013315794058144093
1772810521166949600,8.51594970703125,0.0006657897029072046,-0.00026631588116288185,-0.00013315794058144093
1772810521176830200,8.525830322265625,0.0006657897029072046,-0.0007989476434886456,0.0014647373463958502
1772810521186710800,8.535710693359375,-0.0003994738217443228,0.0013315794058144093,0.0003994738217443228
1772810521196591400,8.54559130859375,0.00013315794058144093,-0.001864211168140173,-0.0006657897029072046
1772810521206472000,8.555471923828126,-0.0009321055840700865,-0.00026631588116288185,-0.00013315794058144093
1772810521216352500,8.5653525390625,-0.0003994738217443228,-0.00026631588116288185,-0.001731053227558732
1772810521226233000,8.575233154296875,-0.0009321055840700865,-0.0013315794058144093,-0.00013315794058144093
1772810521236113700,8.58511376953125,0.00013315794058144093,-0.0007989476434886456,0.0003994738217443228
1772810521245994000,8.594993896484375,0.0011984214652329683,0.0007989476434886456,-0.0011984214652329683
1772810521255874600,8.60487451171875,0.001731053227558732,-0.00026631588116288185,-0.0006657897029072046
1772810521265755100,8.614755126953124,-0.0014647373463958502,0.00026631588116288185,0.0003994738217443228
1772810521275635700,8.6246357421875,-0.0014647373463958502,-0.0007989476434886456,0.0003994738217443228
1772810521285516300,8.634516357421875,0.00013315794058144093,0.00026631588116288185,-0.00013315794058144093
1772810521295396900,8.64439697265625,-0.0014647373463958502,-0.0013315794058144093,-0.00013315794058144093
1772810521305277200,8.654277099609375,0.00013315794058144093,-0.00026631588116288185,0.0009321055840700865
1772810521315157800,8.66415771484375,0.00013315794058144093,-0.0013315794058144093,0.0009321055840700865
1772810521325038300,8.674038330078124,0.00013315794058144093,-0.00026631588116288185,0.0009321055840700865
1772810521334919000,8.6839189453125,0.0011984214652329683,0.0007989476434886456,-0.00013315794058144093
1772810521344799500,8.693799560546875,0.0011984214652329683,0.00026631588116288185,0.0003994738217443228
1772810521354680000,8.70368017578125,-0.0009321055840700865,0.00026631588116288185,-0.00013315794058144093
1772810521364560600,8.713560546875,0.0006657897029072046,-0.0029294746927917004,0.0014647373463958502
1772810521374441000,8.72344091796875,-0.0003994738217443228,0.0007989476434886456,0.0014647373463958502
1772810521384321500,8.733321533203124,-0.0009321055840700865,0.0013315794058144093,0.0014647373463958502
1772810521394202000,8.7432021484375,-0.0003994738217443228,-0.0007989476434886456,-0.0006657897029072046
1772810521404082700,8.753082763671875,-0.0003994738217443228,0.00026631588116288185,0.0009321055840700865
1772810521413963300,8.76296337890625,0.00013315794058144093,-0.0007989476434886456,-0.0006657897029072046
1772810521423843800,8.77284375,0.00013315794058144093,-0.00026631588116288185,-0.0006657897029072046
1772810521433724200,8.78272412109375,0.00013315794058144093,-0.0007989476434886456,0.0003994738217443228
1772810521443604700,8.792604736328125,0.00013315794058144093,-0.00026631588116288185,-0.00013315794058144093
1772810521453485300,8.8024853515625,0.0006657897029072046,-0.0023968429304659367,0.001997369108721614
1772810521463366000,8.812365966796875,-0.0025300008710473776,-0.0013315794058144093,-0.00013315794058144093
1772810521473246500,8.82224658203125,-0.0009321055840700865,-0.0007989476434886456,-0.0006657897029072046
1772810521483127000,8.832126953125,0.00013315794058144093,0.0007989476434886456,0.0003994738217443228
1772810521502887400,8.851887451171875,-0.0003994738217443228,-0.0007989476434886456,0.0014647373463958502
1772810521512767000,8.86176708984375,-0.0003994738217443228,-0.00026631588116288185,0.0009321055840700865
1772810521522646800,8.871646728515625,0.00013315794058144093,0.0007989476434886456,-0.001731053227558732
1772810521532526600,8.881526611328125,-0.0009321055840700865,0.0007989476434886456,0.0003994738217443228
1772810521542406400,8.891406494140625,-0.0014647373463958502,0.00026631588116288185,-0.00013315794058144093
1772810521552286000,8.901285888671875,0.001731053227558732,-0.00026631588116288185,0.0003994738217443228
1772810521562165800,8.911165771484375,-0.0009321055840700865,-0.0013315794058144093,-0.00013315794058144093
1772810521572045600,8.921045654296876,0.001731053227558732,0.00026631588116288185,-0.0006657897029072046
1772810521581925400,8.93092529296875,-0.0003994738217443228,0.0007989476434886456,-0.0011984214652329683
1772810521591805000,8.940804931640624,0.0006657897029072046,-0.0013315794058144093,-0.0006657897029072046
1772810521601684700,8.950684814453124,0.0006657897029072046,-0.00026631588116288185,-0.0011984214652329683
1772810521611564500,8.960564453125,0.0011984214652329683,-0.0007989476434886456,0.0009321055840700865
1772810521621444000,8.970444091796875,-0.0009321055840700865,-0.00026631588116288185,0.0003994738217443228
1772810521631324000,8.980323974609375,-0.0003994738217443228,-0.0007989476434886456,-0.00013315794058144093
1772810521641203700,8.99020361328125,0.0006657897029072046,-0.0007989476434886456,0.0009321055840700865
1772810521651083300,9.000083251953125,0.0011984214652329683,-0.0007989476434886456,0.001997369108721614
1772810521660963000,9.009963134765625,-0.0003994738217443228,-0.00026631588116288185,0.0009321055840700865
1772810521670843000,9.0198427734375,0.0006657897029072046,-0.0007989476434886456,-0.0006657897029072046
1772810521680722700,9.02972265625,-0.0003994738217443228,-0.0007989476434886456,-0.00013315794058144093
1772810521690602200,9.039602294921876,0.00013315794058144093,-0.0013315794058144093,-0.0006657897029072046
1772810521700482000,9.04948193359375,0.0006657897029072046,0.00026631588116288185,-0.0011984214652329683
1772810521710361900,9.05936181640625,0.0027963167522102594,-0.0007989476434886456,0.0003994738217443228
1772810521720241700,9.06924169921875,-0.0009321055840700865,0.001864211168140173,-0.0006657897029072046
1772810521730121200,9.079121337890625,0.00013315794058144093,0.00026631588116288185,0.0003994738217443228
1772810521740001000,9.0890009765625,-0.0014647373463958502,-0.0023968429304659367,0.0003994738217443228
1772810521749880800,9.098880859375,-0.0009321055840700865,0.00026631588116288185,0.0003994738217443228
1772810521759760600,9.1087607421875,0.00013315794058144093,0.0007989476434886456,0.0009321055840700865
1772810521769640200,9.11864013671875,0.0011984214652329683,0.0013315794058144093,0.0009321055840700865
1772810521779520000,9.12852001953125,-0.0003994738217443228,0.00026631588116288185,-0.0011984214652329683
1772810521789399800,9.13839990234375,0.00013315794058144093,-0.00026631588116288185,-0.0006657897029072046
1772810521799279400,9.148279296875,0.001731053227558732,-0.00026631588116288185,0.0009321055840700865
1772810521809159200,9.1581591796875,0.00013315794058144093,0.00026631588116288185,-0.0006657897029072046
1772810521819039000,9.1680390625,0.0011984214652329683,-0.00026631588116288185,-0.00013315794058144093
1772810521828918500,9.17791845703125,-0.0003994738217443228,0.0007989476434886456,0.0009321055840700865
1772810521838798300,9.18779833984375,-0.0009321055840700865,-0.0007989476434886456,-0.00013315794058144093
1772810521848678100,9.19767822265625,0.001731053227558732,0.00026631588116288185,0.0003994738217443228
1772810521858558000,9.207557861328125,0.00013315794058144093,0.0007989476434886456,0.0009321055840700865
1772810521868437500,9.2174375,0.00013315794058144093,-0.0023968429304659367,-0.00013315794058144093
1772810521878317300,9.2273173828125,0.00013315794058144093,0.0013315794058144093,-0.00013315794058144093
1772810521888197000,9.237197021484375,0.00013315794058144093,-0.00026631588116288185,0.0003994738217443228
1772810521898077000,9.247076904296875,-0.0009321055840700865,-0.0007989476434886456,-0.0011984214652329683
1772810521907956500,9.25695654296875,-0.0009321055840700865,-0.0007989476434886456,-0.00013315794058144093
1772810521917836300,9.266836181640626,-0.0003994738217443228,-0.0007989476434886456,-0.0011984214652329683
1772810521927716000,9.276716064453124,0.0006657897029072046,-0.00026631588116288185,0.0009321055840700865
1772810521937596000,9.286595947265624,0.00013315794058144093,0.00026631588116288185,-0.00013315794058144093
1772810521947475500,9.296475341796874,0.0006657897029072046,0.0013315794058144093,-0.0006657897029072046
1772810521957355300,9.306355224609375,0.00013315794058144093,0.00026631588116288185,0.0009321055840700865
1772810521967235000,9.316235107421875,-0.0009321055840700865,-0.00026631588116288185,0.0014647373463958502
1772810521977114600,9.326114501953125,0.00013315794058144093,0.00026631588116288185,0.0014647373463958502
1772810521986994400,9.335994384765625,0.00013315794058144093,-0.00026631588116288185,-0.0006657897029072046
1772810521996874200,9.345874267578125,-0.0003994738217443228,-0.0013315794058144093,0.0009321055840700865
1772810522006753800,9.35575390625,-0.0009321055840700865,-0.00026631588116288185,-0.00013315794058144093
1772810522016633300,9.36563330078125,-0.0009321055840700865,-0.00026631588116288185,0.0009321055840700865
1772810522026513000,9.375512939453126,-0.0003994738217443228,-0.0013315794058144093,0.0009321055840700865
1772810522036392400,9.385392333984376,-0.0009321055840700865,-0.0013315794058144093,0.0003994738217443228
1772810522046272000,9.39527197265625,-0.0009321055840700865,-0.00026631588116288185,-0.00013315794058144093
1772810522056151600,9.405151611328124,-0.0014647373463958502,0.001864211168140173,-0.00013315794058144093
1772810522066031400,9.41503125,0.00013315794058144093,-0.003462106455117464,-0.00013315794058144093
1772810522075911000,9.424910888671874,-0.0003994738217443228,-0.0007989476434886456,0.0003994738217443228
1772810522085790500,9.43479052734375,0.00013315794058144093,-0.0007989476434886456,0.0009321055840700865
1772810522095670000,9.444669921875,-0.0003994738217443228,0.0007989476434886456,-0.0006657897029072046
1772810522105549600,9.454549560546875,0.00013315794058144093,0.0013315794058144093,0.0009321055840700865
1772810522115429400,9.464429443359375,-0.0003994738217443228,-0.00026631588116288185,0.0009321055840700865
1772810522125309000,9.474308837890625,-0.0009321055840700865,-0.00026631588116288185,0.0009321055840700865
1772810522135188500,9.4841884765625,-0.0003994738217443228,-0.00026631588116288185,0.0003994738217443228
1772810522145068000,9.494068115234375,0.0011984214652329683,0.001864211168140173,0.0003994738217443228
1772810522154947600,9.503947509765625,0.00013315794058144093,0.0013315794058144093,-0.0006657897029072046
1772810522164827100,9.5138271484375,0.0011984214652329683,-0.0007989476434886456,0.001997369108721614
1772810522174707000,9.52370703125,-0.0003994738217443228,-0.0013315794058144093,-0.0006657897029072046
1772810522184586500,9.53358642578125,0.0006657897029072046,0.0007989476434886456,-0.00013315794058144093
1772810522194466000,9.543466064453124,-0.0003994738217443228,-0.0013315794058144093,-0.0011984214652329683
1772810522204345600,9.553345703125,0.0006657897029072046,-0.00026631588116288185,-0.00013315794058144093
1772810522214225200,9.56322509765625,0.00013315794058144093,0.0007989476434886456,-0.00013315794058144093
1772810522224105000,9.57310498046875,0.0006657897029072046,-0.00026631588116288185,0.0003994738217443228
1772810522233984500,9.582984619140625,0.00013315794058144093,-0.0007989476434886456,0.0003994738217443228
1772810522243864000,9.592864013671875,0.001731053227558732,0.00026631588116288185,0.0009321055840700865
1772810522253743600,9.60274365234375,-0.001997369108721614,0.0013315794058144093,0.0003994738217443228
1772810522263623200,9.612623046875,-0.0003994738217443228,0.0023968429304659367,-0.00013315794058144093
1772810522273502700,9.622502685546875,-0.0009321055840700865,-0.0007989476434886456,0.0009321055840700865
1772810522283382300,9.63238232421875,-0.0003994738217443228,-0.0007989476434886456,0.0003994738217443228
1772810522293262000,9.642261962890625,0.00013315794058144093,0.0013315794058144093,0.0003994738217443228
1772810522303141600,9.6521416015625,0.0006657897029072046,-0.00026631588116288185,-0.0006657897029072046
1772810522313021200,9.662021240234376,0.00013315794058144093,-0.00026631588116288185,0.0003994738217443228
1772810522322900700,9.671900634765626,-0.0014647373463958502,0.001864211168140173,-0.00013315794058144093
1772810522332780300,9.6817802734375,-0.0003994738217443228,0.0007989476434886456,-0.0011984214652329683
1772810522342660000,9.69166015625,0.0006657897029072046,-0.00026631588116288185,-0.00013315794058144093
1772810522352539600,9.70153955078125,0.00013315794058144093,-0.0007989476434886456,0.0014647373463958502
1772810522362419200,9.711419189453125,-0.0009321055840700865,-0.001864211168140173,-0.0006657897029072046
1772810522372298800,9.721298828125,-0.0007989476434886456,-0.002130527049303055,-0.0007989476434886456
1772810522382178300,9.73117822265625,-0.0013315794058144093,0.002130527049303055,-0.0007989476434886456
1772810522392057900,9.741057861328125,0.0007989476434886456,0.0005326317623257637,0.00026631588116288185
1772810522401937700,9.750937744140625,-0.0007989476434886456,-0.0005326317623257637,0.0007989476434886456
1772810522411817200,9.760817138671875,0.0007989476434886456,-0.001597895286977291,0.00026631588116288185
1772810522421696800,9.77069677734375,0.0007989476434886456,0.0026631588116288185,-0.0013315794058144093
1772810522431576300,9.780576416015625,-0.0007989476434886456,-0.0010652635246515274,0.00026631588116288185
1772810522441455900,9.790455810546876,-0.00026631588116288185,0,0.00026631588116288185
1772810522451335700,9.800335693359376,-0.00026631588116288185,0,0.0007989476434886456
1772810522461215200,9.81021533203125,0.0007989476434886456,0,0.0007989476434886456
1772810522471094800,9.8200947265625,0.0007989476434886456,0.001597895286977291,0.00026631588116288185
1772810522480974300,9.829974365234374,0.0007989476434886456,-0.0010652635246515274,-0.00026631588116288185
1772810522490854000,9.83985400390625,-0.00026631588116288185,0.0005326317623257637,-0.0013315794058144093
1772810522500733700,9.849733642578125,-0.001864211168140173,0,-0.00026631588116288185
1772810522510613800,9.85961376953125,-0.00026631588116288185,-0.0005326317623257637,0.0007989476434886456
1772810522520493600,9.86949365234375,0.0013315794058144093,0.0010652635246515274,0.0007989476434886456
1772810522530373400,9.879373291015625,-0.00026631588116288185,0.001597895286977291,-0.00026631588116288185
1772810522540253400,9.88925341796875,0.00026631588116288185,0.0010652635246515274,0.0013315794058144093
1772810522550133200,9.89913330078125,0.0013315794058144093,-0.0005326317623257637,0.0013315794058144093
1772810522560013300,9.909013427734376,-0.0013315794058144093,0.0005326317623257637,-0.0007989476434886456
1772810522569893000,9.91889306640625,0.0007989476434886456,-0.0010652635246515274,-0.0013315794058144093
1772810522579773200,9.928773193359374,0.00026631588116288185,0,0.0007989476434886456
1772810522589653000,9.938653076171875,-0.0007989476434886456,0.0005326317623257637,0.0013315794058144093
1772810522599532800,9.94853271484375,0.00026631588116288185,-0.0005326317623257637,-0.00026631588116288185
1772810522609412900,9.958412841796875,0.00026631588116288185,-0.0010652635246515274,0.00026631588116288185
1772810522619292700,9.968292724609375,0.0007989476434886456,0,0.00026631588116288185
1772810522629172700,9.9781728515625,-0.00026631588116288185,0.0005326317623257637,0.0013315794058144093
1772810522639052500,9.988052490234375,0.0007989476434886456,0.0005326317623257637,0.001864211168140173
1772810522648932600,9.9979326171875,0.00026631588116288185,-0.0010652635246515274,0.00026631588116288185
1772810522658812400,10.0078125,0.0013315794058144093,0.0005326317623257637,0.00026631588116288185
1772810522668692500,10.0176923828125,0.00026631588116288185,-0.0026631588116288185,0.0007989476434886456
1772810522678572300,10.027572265625,-0.00026631588116288185,-0.0005326317623257637,0.0007989476434886456
1772810522688452400,10.037452392578125,0.00026631588116288185,-0.0010652635246515274,-0.00026631588116288185
1772810522698332200,10.047332275390625,0.00026631588116288185,0.001597895286977291,0.0013315794058144093
1772810522708212000,10.0572119140625,0.00026631588116288185,-0.002130527049303055,-0.0007989476434886456
1772810522718092000,10.067092041015625,0.00026631588116288185,-0.0005326317623257637,0.00026631588116288185
1772810522727971800,10.076971923828125,0.0007989476434886456,-0.0005326317623257637,0.0007989476434886456
1772810522737852000,10.086851806640626,0.0007989476434886456,-0.0010652635246515274,0.0023968429304659367
1772810522747731700,10.096731689453126,-0.0013315794058144093,-0.001597895286977291,0.00026631588116288185
1772810522757611800,10.10661181640625,-0.0007989476434886456,0,0.0007989476434886456
1772810522767491600,10.11649169921875,0.00026631588116288185,0.0005326317623257637,-0.0007989476434886456
1772810522777371400,10.126371337890625,0.00026631588116288185,0.0010652635246515274,0.00026631588116288185
1772810522787251500,10.13625146484375,0.0007989476434886456,-0.0005326317623257637,0.0007989476434886456
1772810522797131300,10.14613134765625,0.0013315794058144093,0.0005326317623257637,-0.00026631588116288185
1772810522807011300,10.15601123046875,0.00026631588116288185,0,-0.001864211168140173
1772810522816891100,10.16589111328125,0.0007989476434886456,-0.0005326317623257637,-0.0007989476434886456
1772810522826771200,10.175771240234376,-0.001864211168140173,0.001597895286977291,0.0007989476434886456
1772810522836651000,10.185651123046876,-0.0007989476434886456,-0.003195790573954582,-0.0007989476434886456
1772810522846530800,10.19553076171875,0.001864211168140173,-0.0005326317623257637,-0.0013315794058144093
1772810522856411000,10.205410888671874,0.001864211168140173,0.0005326317623257637,-0.00026631588116288185
1772810522866290700,10.215290771484375,-0.00026631588116288185,-0.0005326317623257637,0.0007989476434886456
1772810522876170800,10.225170654296875,0.00026631588116288185,0,0.0007989476434886456
1772810522886050600,10.235050537109375,0.0013315794058144093,-0.0005326317623257637,-0.0007989476434886456
1772810522895930600,10.2449306640625,0.00026631588116288185,0.001597895286977291,0.00026631588116288185
1772810522905810400,10.254810546875,-0.00026631588116288185,0.0005326317623257637,-0.00026631588116288185
1772810522915690500,10.2646904296875,-0.00026631588116288185,0.0010652635246515274,0.0007989476434886456
1772810522925570300,10.2745703125,0.0007989476434886456,-0.0010652635246515274,-0.00026631588116288185
1772810522935450400,10.284450439453124,0.00026631588116288185,0.0010652635246515274,-0.0007989476434886456
1772810522945330200,10.294330078125,0.00026631588116288185,0.0010652635246515274,-0.0013315794058144093
1772810522955210000,10.3042099609375,0.0013315794058144093,0.0005326317623257637,0.0023968429304659367
1772810522965090000,10.314090087890625,0.00026631588116288185,-0.0005326317623257637,-0.0007989476434886456
1772810522974969900,10.323969970703125,0.00026631588116288185,0,0.0013315794058144093
1772810522984850000,10.333849853515625,-0.0007989476434886456,0.0010652635246515274,-0.00026631588116288185
1772810522994729700,10.343729736328125,0.0007989476434886456,0,0.00026631588116288185
1772810523004609800,10.35360986328125,0.001864211168140173,0.0005326317623257637,-0.0007989476434886456
1772810523014489900,10.36348974609375,0.0023968429304659367,0,-0.0007989476434886456
1772810523024369700,10.37336962890625,-0.00026631588116288185,-0.0005326317623257637,0.00026631588116288185
1772810523034249700,10.383249755859374,0.0013315794058144093,0.0005326317623257637,0.00026631588116288185
1772810523044129800,10.3931298828125,-0.0007989476434886456,0.0005326317623257637,-0.001864211168140173
1772810523054009900,10.403009765625,-0.00026631588116288185,-0.0005326317623257637,-0.0007989476434886456
1772810523063889700,10.4128896484375,0.0013315794058144093,0,0.0007989476434886456
1772810523073769700,10.422769775390625,0.00026631588116288185,-0.0010652635246515274,-0.00026631588116288185
1772810523083649800,10.43264990234375,0.0013315794058144093,0.0026631588116288185,0.0007989476434886456
1772810523093529900,10.44252978515625,-0.00026631588116288185,-0.0005326317623257637,0.0013315794058144093
1772810523103409700,10.45240966796875,0.0013315794058144093,0.002130527049303055,-0.00026631588116288185
1772810523113289700,10.462289794921874,-0.0007989476434886456,0,-0.00026631588116288185
1772810523123169800,10.472169677734374,-0.00026631588116288185,-0.0010652635246515274,-0.0007989476434886456
1772810523133049900,10.4820498046875,-0.00026631588116288185,-0.0005326317623257637,-0.0013315794058144093
1772810523142930000,10.491929931640625,0.00026631588116288185,0.0010652635246515274,0.00026631588116288185
1772810523152809700,10.501809814453125,-0.00026631588116288185,0.0005326317623257637,-0.0007989476434886456
1772810523162689800,10.511689697265625,0.0007989476434886456,0.0026631588116288185,-0.00026631588116288185
1772810523172569900,10.52156982421875,-0.0013315794058144093,-0.0005326317623257637,-0.00026631588116288185
1772810523182450000,10.531449951171876,-0.0007989476434886456,0.002130527049303055,0.0007989476434886456
1772810523192330000,10.541330078125,0.0013315794058144093,0.0005326317623257637,-0.00026631588116288185
1772810523202209800,10.551209716796874,-0.0013315794058144093,-0.0005326317623257637,-0.00026631588116288185
1772810523212089900,10.56108984375,-0.00026631588116288185,0.0010652635246515274,-0.00026631588116288185
1772810523221970000,10.570969970703125,0.00026631588116288185,0.001597895286977291,-0.0007989476434886456
1772810523231850000,10.58085009765625,-0.00026631588116288185,0.001597895286977291,0.0013315794058144093
1772810523241730000,10.59072998046875,0.00026631588116288185,0.001597895286977291,0.0013315794058144093
1772810523251609900,10.60060986328125,0.00026631588116288185,0.0026631588116288185,-0.0007989476434886456
1772810523261490000,10.610489990234376,-0.0007989476434886456,0.001597895286977291,0.0013315794058144093
1772810523271370000,10.620369873046876,0.0007989476434886456,0.001597895286977291,-0.00026631588116288185
1772810523281250000,10.63025,-0.00026631588116288185,0,0.0007989476434886456
1772810523291130000,10.640130126953125,-0.0023968429304659367,-0.002130527049303055,0.0013315794058144093
1772810523301010000,10.650010009765625,-0.00026631588116288185,0,0.0007989476434886456
1772810523310890000,10.659889892578125,-0.001864211168140173,-0.0005326317623257637,0.0013315794058144093
1772810523320770000,10.66977001953125,-0.0013315794058144093,0.002130527049303055,0.0007989476434886456
1772810523330650000,10.679650146484375,0.001864211168140173,-0.002130527049303055,0.0013315794058144093
1772810523340530200,10.6895302734375,-0.0013315794058144093,0.0005326317623257637,0.00026631588116288185
1772810523350410000,10.699409912109376,-0.00026631588116288185,0.0026631588116288185,0.0023968429304659367
1772810523360290000,10.7092900390625,-0.001864211168140173,0.003195790573954582,0.0023968429304659367
1772810523370170000,10.719170166015624,-0.00026631588116288185,0.003728422336280346,0.001864211168140173
1772810523380050200,10.72905029296875,0.0007989476434886456,0.006391581147909164,0.001864211168140173
1772810523389930000,10.738929931640625,0.00026631588116288185,0.00426105409860611,0.001864211168140173
1772810523399810000,10.74881005859375,0.00026631588116288185,0.005326317623257637,0.0013315794058144093
1772810523409690000,10.758690185546875,-0.0007989476434886456,0.002130527049303055,0.00026631588116288185
1772810523419570200,10.768570068359375,0.00026631588116288185,-0.001597895286977291,-0.001864211168140173
1772810523429450000,10.778449951171876,-0.0013315794058144093,-0.006391581147909164,-0.001864211168140173
1772810523439330000,10.788330078125,-0.00026631588116288185,-0.007456844672560692,-0.0045273699797689915
1772810523449210000,10.798210205078124,-0.0013315794058144093,-0.009054739959537983,-0.003994738217443228
1772810523459090200,10.808090087890625,-0.0007989476434886456,-0.0010652635246515274,0.00026631588116288185
1772810523468970200,10.81797021484375,-0.00026631588116288185,0,0.0013315794058144093
