time,seconds_elapsed,z,y,x
1772810837637811500,0.1788115234375,-0.0010652635246515274,0.001731053227558732,0.0011984214652329683
1772810837647693800,0.18869384765625,0.001597895286977291,0.0006657897029072046,0.0006657897029072046
1772810837657576000,0.198575927734375,-0.0005326317623257637,0.0006657897029072046,0.00013315794058144093
1772810837667458300,0.208458251953125,0.0005326317623257637,-0.0003994738217443228,-0.0003994738217443228
1772810837677340400,0.21834033203125,-0.0005326317623257637,0.0011984214652329683,0.00013315794058144093
1772810837687222800,0.228222900390625,-0.0010652635246515274,0.00013315794058144093,0.00013315794058144093
1772810837697105000,0.23810498046875,0.0005326317623257637,0.00013315794058144093,0.0006657897029072046
1772810837706987300,0.2479873046875,0.0005326317623257637,0.00013315794058144093,-0.0003994738217443228
1772810837716869400,0.257869384765625,-0.001597895286977291,0.0011984214652329683,-0.0009321055840700865
1772810837726751700,0.267751708984375,-0.0010652635246515274,0.00013315794058144093,-0.0003994738217443228
1772810837736633900,0.2776337890625,0.0005326317623257637,-0.0003994738217443228,0.0006657897029072046
1772810837746516200,0.28751611328125,0.0005326317623257637,-0.0003994738217443228,0.0011984214652329683
1772810837756398300,0.2973984375,-0.0005326317623257637,-0.0009321055840700865,0.001731053227558732
1772810837766280700,0.30728076171875,-0.0005326317623257637,0.0006657897029072046,0.00013315794058144093
1772810837776162800,0.317162841796875,0.0010652635246515274,-0.001997369108721614,0.0011984214652329683
1772810837786045200,0.327045166015625,0.0005326317623257637,0.0006657897029072046,0.0006657897029072046
1772810837795927300,0.33692724609375,0.0010652635246515274,0.0006657897029072046,-0.0014647373463958502
1772810837805809700,0.3468095703125,-0.0005326317623257637,-0.0003994738217443228,0.00013315794058144093
1772810837815691800,0.35669189453125,-0.0010652635246515274,0.0011984214652329683,0.0011984214652329683
1772810837825574100,0.36657421875,0.0005326317623257637,0.00013315794058144093,0.00013315794058144093
1772810837835456300,0.376456298828125,-0.0026631588116288185,0.001731053227558732,-0.0003994738217443228
1772810837845338600,0.386338623046875,-0.0005326317623257637,0.0011984214652329683,0.0006657897029072046
1772810837855220700,0.396220703125,0.0005326317623257637,-0.0009321055840700865,0.00013315794058144093
1772810837865103000,0.40610302734375,-0.0005326317623257637,0.0011984214652329683,0.00013315794058144093
1772810837874985200,0.415985107421875,0,0.0011984214652329683,0.00013315794058144093
1772810837884867600,0.42586767578125,0,0.00013315794058144093,-0.0025300008710473776
1772810837894749700,0.435749755859375,-0.0010652635246515274,-0.0003994738217443228,0.00013315794058144093
1772810837904632000,0.445632080078125,-0.0003994738217443228,0,-0.0011984214652329683
1772810837914514200,0.45551416015625,0.001731053227558732,0.001597895286977291,-0.00013315794058144093
1772810837924396500,0.465396484375,-0.0009321055840700865,0.0005326317623257637,0.0003994738217443228
1772810837934278700,0.475278564453125,-0.0003994738217443228,-0.003195790573954582,-0.0006657897029072046
1772810837944161000,0.4851611328125,0.00013315794058144093,0.001597895286977291,0.0014647373463958502
1772810837954043100,0.495043212890625,-0.0003994738217443228,0.0010652635246515274,-0.0011984214652329683
1772810837963925500,0.504925537109375,-0.0009321055840700865,0.0005326317623257637,-0.00013315794058144093
1772810837973807600,0.5148076171875,-0.0025300008710473776,-0.0005326317623257637,0.0014647373463958502
1772810837983690000,0.52468994140625,0.0006657897029072046,-0.002130527049303055,0.0003994738217443228
1772810837993572000,0.534572021484375,-0.0014647373463958502,0.0010652635246515274,0.0003994738217443228
1772810838003453700,0.54445361328125,0.0006657897029072046,0.001597895286977291,-0.0011984214652329683
1772810838013335000,0.5543349609375,0.00013315794058144093,0.002130527049303055,-0.0006657897029072046
1772810838023216600,0.564216552734375,-0.0014647373463958502,0.0010652635246515274,0.0003994738217443228
1772810838033098000,0.574097900390625,0.00013315794058144093,0,0.0009321055840700865
1772810838042979300,0.583979248046875,-0.0003994738217443228,0.002130527049303055,-0.0006657897029072046
1772810838052861000,0.59386083984375,0.00013315794058144093,0.0010652635246515274,-0.001731053227558732
1772810838062742300,0.6037421875,0.0006657897029072046,-0.002130527049303055,0.0003994738217443228
1772810838072623600,0.61362353515625,0.00013315794058144093,0,0.0003994738217443228
1772810838082505000,0.6235048828125,0.0011984214652329683,0,-0.00013315794058144093
1772810838092386600,0.633386474609375,0.0011984214652329683,-0.002130527049303055,0.0003994738217443228
1772810838102268000,0.643267822265625,0.00013315794058144093,0,-0.00013315794058144093
1772810838112149200,0.653149169921875,-0.0009321055840700865,0,-0.00013315794058144093
1772810838122030800,0.66303076171875,-0.0003994738217443228,0,0.0014647373463958502
1772810838131912200,0.672912109375,0.001731053227558732,-0.0010652635246515274,0.0003994738217443228
1772810838141793500,0.68279345703125,0.0006657897029072046,-0.0010652635246515274,0.0014647373463958502
1772810838151675100,0.692675048828125,0.0011984214652329683,-0.0010652635246515274,-0.00013315794058144093
1772810838161556500,0.702556396484375,-0.0009321055840700865,-0.0005326317623257637,0.0003994738217443228
1772810838171437800,0.712437744140625,0.00013315794058144093,0,0.0009321055840700865
1772810838181319400,0.7223193359375,-0.0003994738217443228,0.001597895286977291,-0.00013315794058144093
1772810838191200800,0.73220068359375,-0.0009321055840700865,0.0005326317623257637,-0.0011984214652329683
1772810838201082000,0.74208203125,-0.0009321055840700865,-0.0010652635246515274,-0.0011984214652329683
1772810838210963500,0.75196337890625,0.00013315794058144093,-0.0005326317623257637,-0.00013315794058144093
1772810838220845000,0.761844970703125,-0.0009321055840700865,0.001597895286977291,-0.0011984214652329683
1772810838230726400,0.771726318359375,0.0011984214652329683,0.0005326317623257637,-0.0006657897029072046
1772810838240607700,0.781607666015625,-0.0014647373463958502,-0.0005326317623257637,-0.0011984214652329683
1772810838250489300,0.7914892578125,0.0006657897029072046,0,-0.0006657897029072046
1772810838260370700,0.80137060546875,0.0006657897029072046,0,-0.00013315794058144093
1772810838270252000,0.811251953125,-0.0014647373463958502,-0.0010652635246515274,-0.0022636849898844957
1772810838280133600,0.821133544921875,0.00013315794058144093,-0.0010652635246515274,0.0003994738217443228
1772810838290015000,0.831014892578125,0.001731053227558732,0.0005326317623257637,-0.0006657897029072046
1772810838299896300,0.840896240234375,-0.0003994738217443228,0.0010652635246515274,0.0003994738217443228
1772810838309778000,0.85077783203125,0.00013315794058144093,0.001597895286977291,-0.00013315794058144093
1772810838319659300,0.8606591796875,-0.0009321055840700865,-0.0010652635246515274,0.0025300008710473776
1772810838329540600,0.87054052734375,0.00013315794058144093,0.0010652635246515274,-0.00013315794058144093
1772810838339422000,0.880421875,0.0006657897029072046,0,0.0003994738217443228
1772810838349303600,0.890303466796875,0.00013315794058144093,0,0.0003994738217443228
1772810838359185000,0.900184814453125,0.00013315794058144093,0,-0.00013315794058144093
1772810838369066200,0.910066162109375,0.00013315794058144093,-0.001597895286977291,-0.0006657897029072046
1772810838378947800,0.91994775390625,0.00013315794058144093,0.0005326317623257637,0.0003994738217443228
1772810838388829200,0.9298291015625,0.001731053227558732,0.0010652635246515274,-0.0011984214652329683
1772810838398710500,0.93971044921875,0.00013315794058144093,-0.0005326317623257637,-0.0011984214652329683
1772810838408592100,0.949592041015625,0.001731053227558732,-0.0010652635246515274,-0.0011984214652329683
1772810838418473500,0.959473388671875,-0.0009321055840700865,-0.0005326317623257637,0.0003994738217443228
1772810838428354800,0.969354736328125,-0.0014647373463958502,0.0010652635246515274,-0.0006657897029072046
1772810838438236200,0.979236083984375,0.0006657897029072046,0.0010652635246515274,-0.00013315794058144093
1772810838448117800,0.98911767578125,0.0006657897029072046,0,-0.0006657897029072046
1772810838457999000,0.9989990234375,0.0011984214652329683,0,-0.0006657897029072046
1772810838467880400,1.00888037109375,0.001731053227558732,0.0010652635246515274,-0.0022636849898844957
1772810838477762000,1.018761962890625,-0.0003994738217443228,0,-0.00013315794058144093
1772810838487643400,1.028643310546875,0.0006657897029072046,-0.0026631588116288185,-0.0006657897029072046
1772810838497524700,1.038524658203125,0.0022636849898844957,-0.002130527049303055,0.001997369108721614
1772810838507405600,1.048405517578125,0.0011984214652329683,-0.0005326317623257637,-0.0006657897029072046
1772810838517286400,1.058286376953125,0.001731053227558732,-0.0010652635246515274,-0.00013315794058144093
1772810838527167200,1.068167236328125,0.0011984214652329683,-0.0010652635246515274,-0.00013315794058144093
1772810838537048000,1.078048095703125,0.0006657897029072046,0.001597895286977291,-0.001731053227558732
1772810838546929000,1.087928955078125,0.00013315794058144093,0.0005326317623257637,0.0009321055840700865
1772810838556809700,1.097809814453125,0.0011984214652329683,0.002130527049303055,-0.00013315794058144093
1772810838566690600,1.107690673828125,0.0006657897029072046,0,0.0003994738217443228
1772810838576571400,1.1175712890625,-0.001997369108721614,0.0010652635246515274,-0.00013315794058144093
1772810838586452200,1.1274521484375,-0.0009321055840700865,-0.0010652635246515274,-0.0006657897029072046
1772810838606214000,1.1472138671875,0.001731053227558732,0.0010652635246515274,0.0009321055840700865
1772810838616094700,1.1570947265625,0.00013315794058144093,-0.001597895286977291,0.0003994738217443228
1772810838625975600,1.1669755859375,0.00013315794058144093,0,-0.00013315794058144093
1772810838635856400,1.1768564453125,-0.0003994738217443228,0.001597895286977291,0.0014647373463958502
1772810838645737200,1.1867373046875,0.001731053227558732,-0.0026631588116288185,-0.0011984214652329683
1772810838655618000,1.1966181640625,0.0011984214652329683,-0.0010652635246515274,-0.00013315794058144093
1772810838665499000,1.206498779296875,0.0006657897029072046,0.0005326317623257637,-0.00013315794058144093
1772810838675379700,1.216379638671875,0.0006657897029072046,-0.0005326317623257637,-0.00013315794058144093
1772810838685260500,1.226260498046875,-0.0009321055840700865,0.001597895286977291,0.0009321055840700865
1772810838695141400,1.236141357421875,0.001731053227558732,-0.0010652635246515274,-0.00013315794058144093
1772810838705022200,1.246022216796875,0.00013315794058144093,-0.0010652635246515274,-0.0006657897029072046
1772810838714903000,1.255903076171875,0.0006657897029072046,-0.001597895286977291,0.0003994738217443228
1772810838724783900,1.265783935546875,-0.0009321055840700865,0,-0.0011984214652329683
1772810838734664700,1.275664794921875,-0.0003994738217443228,0.0005326317623257637,-0.0011984214652329683
1772810838744545500,1.285545654296875,0.0011984214652329683,0.002130527049303055,-0.0006657897029072046
1772810838754426400,1.29542626953125,0.00013315794058144093,0.0026631588116288185,-0.0006657897029072046
1772810838764307200,1.30530712890625,-0.0003994738217443228,-0.002130527049303055,0.0003994738217443228
1772810838774188000,1.31518798828125,-0.0003994738217443228,-0.0005326317623257637,-0.0006657897029072046
1772810838784068900,1.32506884765625,0.0006657897029072046,0.0005326317623257637,-0.0006657897029072046
1772810838793949700,1.33494970703125,-0.0003994738217443228,-0.002130527049303055,-0.00013315794058144093
1772810838803830500,1.34483056640625,-0.0009321055840700865,0.0010652635246515274,-0.00013315794058144093
1772810838813711400,1.35471142578125,0.001731053227558732,0.001597895286977291,0.0003994738217443228
1772810838823592200,1.36459228515625,0.0011984214652329683,-0.0005326317623257637,-0.00013315794058144093
1772810838833473000,1.37447314453125,0.00013315794058144093,0,0.0009321055840700865
1772810838843353900,1.384353759765625,-0.0003994738217443228,0.0010652635246515274,0.0009321055840700865
1772810838853234700,1.394234619140625,0.0006657897029072046,-0.0005326317623257637,-0.0011984214652329683
1772810838863115500,1.404115478515625,-0.0014647373463958502,-0.0026631588116288185,-0.00013315794058144093
1772810838872996400,1.413996337890625,-0.0003994738217443228,-0.001597895286977291,-0.0006657897029072046
1772810838882877200,1.423877197265625,0.00013315794058144093,-0.0005326317623257637,0.0009321055840700865
1772810838892758000,1.433758056640625,0.00013315794058144093,0.0010652635246515274,0.0009321055840700865
1772810838902638800,1.443638916015625,-0.0003994738217443228,0,0.001997369108721614
1772810838912519700,1.453519775390625,0.0022636849898844957,-0.0005326317623257637,0.0014647373463958502
1772810838922400500,1.463400390625,0.00013315794058144093,-0.0005326317623257637,0.0003994738217443228
1772810838932281300,1.47328125,-0.0003994738217443228,0,0.0009321055840700865
1772810838942162200,1.483162109375,0.00013315794058144093,-0.0010652635246515274,0.0003994738217443228
1772810838952043000,1.49304296875,-0.0003994738217443228,-0.002130527049303055,-0.0006657897029072046
1772810838961923800,1.502923828125,-0.0009321055840700865,0.0010652635246515274,-0.0011984214652329683
1772810838971804700,1.5128046875,0.0011984214652329683,0.0005326317623257637,0.0014647373463958502
1772810838981685500,1.522685546875,0.0011984214652329683,0,-0.00013315794058144093
1772810838991566300,1.53256640625,-0.0009321055840700865,0.0005326317623257637,0.0003994738217443228
1772810839001447200,1.542447265625,-0.0003994738217443228,0,-0.0006657897029072046
1772810839011327700,1.55232763671875,0.00013315794058144093,0.0005326317623257637,0.0003994738217443228
1772810839021208300,1.562208251953125,0.0011984214652329683,-0.002130527049303055,0.0009321055840700865
1772810839031089000,1.5720888671875,0.001731053227558732,0.0005326317623257637,-0.0022636849898844957
1772810839040969500,1.581969482421875,0.00013315794058144093,-0.0005326317623257637,-0.00013315794058144093
1772810839050850000,1.59185009765625,0.001731053227558732,-0.0005326317623257637,0.0009321055840700865
1772810839060730600,1.601730712890625,-0.0009321055840700865,-0.0005326317623257637,-0.00013315794058144093
1772810839070611200,1.611611083984375,0.0006657897029072046,-0.0010652635246515274,-0.00013315794058144093
1772810839080491800,1.62149169921875,-0.0003994738217443228,0.0005326317623257637,0.0009321055840700865
1772810839090372400,1.631372314453125,0.00013315794058144093,0.002130527049303055,0.0009321055840700865
1772810839100253000,1.6412529296875,0.00013315794058144093,-0.002130527049303055,-0.00013315794058144093
1772810839110133500,1.651133544921875,-0.0003994738217443228,0.0010652635246515274,-0.0011984214652329683
1772810839120014000,1.66101416015625,-0.0003994738217443228,0.001597895286977291,-0.0006657897029072046
1772810839129894700,1.670894775390625,0.0006657897029072046,0.0026631588116288185,-0.00013315794058144093
1772810839139775200,1.680775146484375,0.00013315794058144093,0,-0.00013315794058144093
1772810839149655800,1.69065576171875,0.0006657897029072046,0,0.0009321055840700865
1772810839159536400,1.700536376953125,0.00013315794058144093,-0.0010652635246515274,-0.0006657897029072046
1772810839169417000,1.7104169921875,0.0011984214652329683,-0.0005326317623257637,0.0003994738217443228
1772810839179297500,1.720297607421875,0.0006657897029072046,0.0010652635246515274,-0.0011984214652329683
1772810839189178000,1.73017822265625,-0.0014647373463958502,0.0005326317623257637,-0.0006657897029072046
1772810839199058700,1.74005859375,-0.0014647373463958502,-0.0005326317623257637,0.0009321055840700865
1772810839208939300,1.749939208984375,0.0006657897029072046,0.0010652635246515274,-0.001731053227558732
1772810839218819800,1.75981982421875,-0.0003994738217443228,0,-0.0022636849898844957
1772810839228700400,1.769700439453125,-0.0003994738217443228,-0.0026631588116288185,0.0009321055840700865
1772810839238581000,1.7795810546875,-0.0009321055840700865,-0.0005326317623257637,-0.0006657897029072046
1772810839248461600,1.789461669921875,0.00013315794058144093,0,0.0014647373463958502
1772810839258342100,1.799342041015625,0.0006657897029072046,-0.0026631588116288185,-0.00013315794058144093
1772810839268222700,1.80922265625,-0.0009321055840700865,-0.0010652635246515274,-0.0011984214652329683
1772810839278103300,1.819103271484375,-0.0014647373463958502,0.0005326317623257637,0.0003994738217443228
1772810839287983900,1.82898388671875,0.0011984214652329683,0.0005326317623257637,-0.00013315794058144093
1772810839297864400,1.838864501953125,0.00013315794058144093,-0.0010652635246515274,-0.00013315794058144093
1772810839307745000,1.8487451171875,0.00013315794058144093,0.0010652635246515274,-0.0006657897029072046
1772810839317625600,1.85862548828125,0.00013315794058144093,0,0.0009321055840700865
1772810839327506200,1.868506103515625,-0.0014647373463958502,-0.003195790573954582,-0.0011984214652329683
1772810839337386800,1.87838671875,0.00013315794058144093,0,-0.0011984214652329683
1772810839347267300,1.888267333984375,0.00013315794058144093,-0.0005326317623257637,-0.0006657897029072046
1772810839357148000,1.89814794921875,-0.0003994738217443228,0,0.0014647373463958502
1772810839367028500,1.908028564453125,-0.0009321055840700865,-0.0005326317623257637,-0.00013315794058144093
1772810839376909000,1.917908935546875,0.00013315794058144093,0.0005326317623257637,0.0003994738217443228
1772810839386789600,1.92778955078125,-0.0003994738217443228,-0.001597895286977291,0.0003994738217443228
1772810839396670200,1.937670166015625,0.00013315794058144093,0,-0.0006657897029072046
1772810839406550800,1.94755078125,0.0011984214652329683,-0.002130527049303055,-0.001731053227558732
1772810839416431400,1.957431396484375,0.00013315794058144093,0.001597895286977291,0.0009321055840700865
1772810839426312000,1.96731201171875,0.00013315794058144093,0.0005326317623257637,-0.0006657897029072046
1772810839436192500,1.977192626953125,0.001731053227558732,0.001597895286977291,-0.001731053227558732
1772810839446073000,1.987072998046875,0.00013315794058144093,-0.0010652635246515274,-0.0006657897029072046
1772810839455953700,1.99695361328125,0.0011984214652329683,0.0005326317623257637,0.0003994738217443228
1772810839465834200,2.006834228515625,0.0011984214652329683,0.0005326317623257637,-0.0006657897029072046
1772810839475714800,2.01671484375,-0.0003994738217443228,0.0005326317623257637,0.0003994738217443228
1772810839485595400,2.026595458984375,0.0006657897029072046,-0.0010652635246515274,-0.00013315794058144093
1772810839495476000,2.03647607421875,0.0006657897029072046,0.0026631588116288185,-0.001731053227558732
1772810839505356500,2.0463564453125,-0.0003994738217443228,-0.001597895286977291,-0.0006657897029072046
1772810839515236900,2.05623681640625,-0.0014647373463958502,-0.001597895286977291,-0.0011984214652329683
1772810839525117400,2.066117431640625,-0.0003994738217443228,-0.0005326317623257637,-0.00013315794058144093
1772810839534997800,2.075997802734375,-0.0003994738217443228,-0.0026631588116288185,0.0003994738217443228
1772810839544878000,2.085878173828125,-0.0003994738217443228,-0.0026631588116288185,-0.0006657897029072046
1772810839554758700,2.095758544921875,0.00013315794058144093,0,-0.00013315794058144093
1772810839564639000,2.105638916015625,0.001731053227558732,0.001597895286977291,0.0003994738217443228
1772810839574519300,2.115519287109375,0.00013315794058144093,0,-0.0006657897029072046
1772810839584400000,2.12539990234375,-0.0003994738217443228,0.0010652635246515274,-0.00013315794058144093
1772810839594280200,2.1352802734375,-0.001997369108721614,-0.001597895286977291,0.0003994738217443228
1772810839604160800,2.145160888671875,0.00013315794058144093,-0.001597895286977291,0.0003994738217443228
1772810839614041000,2.155041015625,0.00013315794058144093,0,-0.00013315794058144093
1772810839623921700,2.164921630859375,-0.0014647373463958502,0.001597895286977291,0.0003994738217443228
1772810839633802000,2.174802001953125,0.00013315794058144093,-0.0005326317623257637,0.0003994738217443228
1772810839643682300,2.184682373046875,0.0006657897029072046,0.0010652635246515274,-0.0022636849898844957
1772810839653563000,2.19456298828125,0.00013315794058144093,-0.0005326317623257637,-0.0006657897029072046
1772810839663443200,2.204443115234375,0.0011984214652329683,0.0005326317623257637,-0.0006657897029072046
1772810839673323500,2.214323486328125,0.00013315794058144093,-0.0010652635246515274,-0.00013315794058144093
1772810839683204000,2.2242041015625,-0.0010652635246515274,-0.0014647373463958502,-0.0005326317623257637
1772810839693084400,2.23408447265625,0.0010652635246515274,0.0006657897029072046,0.0005326317623257637
1772810839702965000,2.243965087890625,0,0.0011984214652329683,-0.0005326317623257637
1772810839712845300,2.25384521484375,0.0005326317623257637,0.0027963167522102594,0.0005326317623257637
1772810839722725600,2.2637255859375,0,0.0022636849898844957,-0.0005326317623257637
1772810839732606200,2.273606201171875,0,0.00013315794058144093,0.0005326317623257637
1772810839742486500,2.283486572265625,-0.0005326317623257637,0.0006657897029072046,-0.0005326317623257637
1772810839752366800,2.293366943359375,0,-0.0003994738217443228,0.0005326317623257637
1772810839762247400,2.303247314453125,0.0005326317623257637,0.00013315794058144093,0.0010652635246515274
1772810839772127700,2.313127685546875,0.0005326317623257637,-0.0009321055840700865,0.0005326317623257637
1772810839782008300,2.32300830078125,-0.0010652635246515274,0.0006657897029072046,0.0005326317623257637
1772810839791888600,2.332888671875,0,0.001731053227558732,0.0005326317623257637
1772810839801769000,2.34276904296875,-0.0010652635246515274,0.00013315794058144093,0.0010652635246515274
1772810839811649500,2.3526494140625,0.0005326317623257637,0.00013315794058144093,0.0010652635246515274
1772810839821529900,2.36252978515625,0.0010652635246515274,-0.0009321055840700865,-0.0010652635246515274
1772810839831410200,2.37241015625,-0.0005326317623257637,-0.0003994738217443228,0.001597895286977291
1772810839841290800,2.382290771484375,-0.0005326317623257637,0.00013315794058144093,-0.0005326317623257637
1772810839851171000,2.392171142578125,0,0.00013315794058144093,0
1772810839861051600,2.4020517578125,0.0010652635246515274,0.0011984214652329683,-0.0005326317623257637
1772810839870932000,2.411931884765625,0.001597895286977291,-0.0014647373463958502,0
1772810839880812500,2.4218125,0,-0.001997369108721614,0
1772810839890692900,2.43169287109375,-0.0005326317623257637,-0.0025300008710473776,-0.0005326317623257637
1772810839900573200,2.4415732421875,-0.0005326317623257637,0.001731053227558732,-0.0005326317623257637
1772810839910453800,2.451453857421875,-0.0010652635246515274,-0.0014647373463958502,0.001597895286977291
1772810839920334000,2.461333984375,-0.0026631588116288185,-0.0003994738217443228,-0.0010652635246515274
1772810839930214400,2.47121435546875,0.0005326317623257637,-0.0009321055840700865,-0.0005326317623257637
1772810839940095000,2.481094970703125,0.0005326317623257637,0.0011984214652329683,-0.0010652635246515274
1772810839949975300,2.490975341796875,-0.0005326317623257637,0.00013315794058144093,-0.0010652635246515274
1772810839959855900,2.50085595703125,0.0005326317623257637,0.001731053227558732,0.0010652635246515274
1772810839969736200,2.510736083984375,0,0.00013315794058144093,0
1772810839979616500,2.520616455078125,0,0.00013315794058144093,-0.001597895286977291
1772810839989497000,2.5304970703125,0,0.0011984214652329683,0.0005326317623257637
1772810840009259000,2.550259033203125,0.0005326317623257637,0.0006657897029072046,0.0010652635246515274
1772810840019140600,2.560140625,0,-0.0025300008710473776,0.0005326317623257637
1772810840029022000,2.57002197265625,0.002130527049303055,0.00013315794058144093,0.0005326317623257637
1772810840038903300,2.5799033203125,0.0010652635246515274,0.00013315794058144093,0.0005326317623257637
1772810840048784600,2.58978466796875,0.0005326317623257637,0.001731053227558732,0.0005326317623257637
1772810840058666200,2.599666259765625,-0.001597895286977291,-0.0009321055840700865,-0.001597895286977291
1772810840068547600,2.609547607421875,0,-0.001997369108721614,0.0005326317623257637
1772810840078429000,2.619428955078125,0,0.0006657897029072046,0.0010652635246515274
1772810840088310300,2.629310302734375,-0.0005326317623257637,0.00013315794058144093,-0.0010652635246515274
1772810840098192000,2.63919189453125,0.0010652635246515274,0.0011984214652329683,0
1772810840108073200,2.6490732421875,-0.001597895286977291,0.001731053227558732,-0.0010652635246515274
1772810840117954600,2.65895458984375,-0.0005326317623257637,0.0011984214652329683,0.0005326317623257637
1772810840127836000,2.6688359375,0.0010652635246515274,-0.0003994738217443228,-0.001597895286977291
1772810840137717500,2.678717529296875,0.0010652635246515274,0.0027963167522102594,0.0010652635246515274
1772810840147598800,2.688598876953125,0,-0.0014647373463958502,0.0010652635246515274
1772810840157480200,2.698480224609375,-0.0010652635246515274,0.0011984214652329683,0.001597895286977291
1772810840167361500,2.708361572265625,0,0.00013315794058144093,-0.001597895286977291
1772810840177243000,2.718242919921875,-0.0005326317623257637,0.001731053227558732,0
1772810840197005800,2.738005859375,0.0005326317623257637,-0.0003994738217443228,-0.0005326317623257637
1772810840206887200,2.74788720703125,-0.0005326317623257637,0.00013315794058144093,0.0005326317623257637
1772810840216768500,2.7577685546875,0,-0.0014647373463958502,-0.0005326317623257637
1772810840226649900,2.76764990234375,0.001597895286977291,0.0011984214652329683,0.0005326317623257637
1772810840236531500,2.777531494140625,-0.0005326317623257637,-0.0003994738217443228,0
1772810840246412800,2.787412841796875,0,0.0011984214652329683,-0.0005326317623257637
1772810840256294100,2.797294189453125,0,0.0006657897029072046,-0.002130527049303055
1772810840266175500,2.807175537109375,-0.0010652635246515274,0.0027963167522102594,0.0005326317623257637
1772810840276057000,2.81705712890625,0,-0.0003994738217443228,0
1772810840285938400,2.8269384765625,0.0005326317623257637,0.0022636849898844957,-0.0005326317623257637
1772810840295819800,2.83681982421875,0.0010652635246515274,0.0006657897029072046,0
1772810840305701000,2.846701171875,-0.0005326317623257637,-0.0014647373463958502,-0.0005326317623257637
1772810840315582700,2.856582763671875,-0.0005326317623257637,0.00013315794058144093,0.0005326317623257637
1772810840325464000,2.866464111328125,0.0010652635246515274,0.00013315794058144093,-0.001597895286977291
1772810840335345400,2.876345458984375,0,0.0006657897029072046,0.0005326317623257637
1772810840345226800,2.886226806640625,-0.0005326317623257637,-0.0003994738217443228,0.0010652635246515274
1772810840355108000,2.896108154296875,-0.0005326317623257637,-0.0003994738217443228,-0.0010652635246515274
1772810840364989700,2.90598974609375,-0.0010652635246515274,0.0006657897029072046,-0.0010652635246515274
1772810840374871000,2.91587109375,-0.001597895286977291,-0.0003994738217443228,0.0005326317623257637
1772810840384752400,2.92575244140625,0.0010652635246515274,0.00013315794058144093,0.001597895286977291
1772810840394633700,2.9356337890625,0.0005326317623257637,0.00013315794058144093,0.0005326317623257637
1772810840404515300,2.945515380859375,0.0010652635246515274,0.0006657897029072046,-0.0010652635246515274
1772810840414396700,2.955396728515625,-0.0005326317623257637,0.00013315794058144093,0.001597895286977291
1772810840424278000,2.965278076171875,0,-0.0003994738217443228,0
1772810840434159400,2.975159423828125,-0.0005326317623257637,0.00013315794058144093,0
1772810840444041000,2.985041015625,0.0010652635246515274,0.0006657897029072046,0.0010652635246515274
1772810840453922300,2.99492236328125,0.001597895286977291,-0.001997369108721614,-0.0010652635246515274
1772810840463803600,3.0048037109375,-0.0005326317623257637,0.0011984214652329683,0.0005326317623257637
1772810840473685000,3.01468505859375,0,-0.0009321055840700865,0
1772810840483566600,3.024566650390625,0.0005326317623257637,0.0011984214652329683,0
1772810840493448000,3.034447998046875,0.0005326317623257637,-0.0003994738217443228,0.002130527049303055
1772810840503328800,3.044328857421875,0.0010652635246515274,-0.0003994738217443228,0
1772810840513209600,3.054209716796875,0.0010652635246515274,0.001731053227558732,-0.0005326317623257637
1772810840523090400,3.06409033203125,-0.0010652635246515274,0.00013315794058144093,0
1772810840532971300,3.07397119140625,-0.0010652635246515274,0.0006657897029072046,0
1772810840542852000,3.08385205078125,-0.0005326317623257637,0.0011984214652329683,-0.0005326317623257637
1772810840552733000,3.09373291015625,0.0005326317623257637,-0.0009321055840700865,0.0005326317623257637
1772810840562613800,3.10361376953125,-0.0010652635246515274,-0.0025300008710473776,0.0010652635246515274
1772810840572494600,3.11349462890625,0,0.00013315794058144093,-0.0010652635246515274
1772810840582375200,3.123375244140625,0.0005326317623257637,-0.0003994738217443228,0.002130527049303055
1772810840592256000,3.133256103515625,0.002130527049303055,0.0006657897029072046,-0.001597895286977291
1772810840602137000,3.14313720703125,-0.0005326317623257637,0.001731053227558732,0
1772810840612018000,3.153017822265625,0,0.00013315794058144093,0.0010652635246515274
1772810840621898800,3.162898681640625,0.0010652635246515274,-0.0003994738217443228,0.0010652635246515274
1772810840631779300,3.172779296875,0,-0.0003994738217443228,0
1772810840641660200,3.18266015625,-0.0010652635246515274,0.0006657897029072046,0
1772810840651541000,3.192541015625,0.001597895286977291,0.0006657897029072046,0
1772810840661421800,3.202421875,0,0.00013315794058144093,-0.0005326317623257637
1772810840671302700,3.212302734375,0,0.0006657897029072046,-0.0005326317623257637
1772810840681183500,3.22218359375,0,0.0022636849898844957,0
1772810840691064300,3.232064208984375,0.0005326317623257637,-0.0009321055840700865,-0.0010652635246515274
1772810840700945200,3.241945068359375,0,0.0006657897029072046,0
1772810840710826000,3.251825927734375,-0.0010652635246515274,0.00013315794058144093,0
1772810840720706800,3.261706787109375,0.0010652635246515274,0.0011984214652329683,0
1772810840730587600,3.271587646484375,0,-0.001997369108721614,-0.001597895286977291
1772810840740468500,3.281468505859375,0.0005326317623257637,-0.0014647373463958502,0.0010652635246515274
1772810840750349300,3.291349365234375,0.0005326317623257637,0.00013315794058144093,0
1772810840760230100,3.301230224609375,0.0005326317623257637,-0.0003994738217443228,0.0005326317623257637
1772810840770111000,3.311111083984375,0.0005326317623257637,-0.0009321055840700865,-0.0005326317623257637
1772810840779991800,3.32099169921875,-0.0005326317623257637,0.0011984214652329683,0.0010652635246515274
1772810840789872600,3.33087255859375,0,0.0011984214652329683,-0.001597895286977291
1772810840799753500,3.34075341796875,0,-0.0003994738217443228,0.0005326317623257637
1772810840809634300,3.35063427734375,0.002130527049303055,0.00013315794058144093,-0.0005326317623257637
1772810840819515100,3.36051513671875,-0.0010652635246515274,-0.0014647373463958502,-0.0005326317623257637
1772810840829396000,3.37039599609375,0.0005326317623257637,0.00013315794058144093,0
1772810840839276800,3.38027685546875,0,0.00013315794058144093,-0.002130527049303055
1772810840849157600,3.39015771484375,0,0.0022636849898844957,-0.0005326317623257637
1772810840859038500,3.40003857421875,-0.0010652635246515274,0.00013315794058144093,0.0010652635246515274
1772810840868919300,3.409919189453125,-0.0005326317623257637,0.00013315794058144093,-0.0005326317623257637
1772810840878800100,3.419800048828125,0,-0.0003994738217443228,0.0005326317623257637
1772810840888680700,3.4296806640625,0.0005326317623257637,0.0006657897029072046,0
1772810840898561500,3.4395615234375,0.0005326317623257637,-0.0003994738217443228,-0.001597895286977291
1772810840908442400,3.4494423828125,0,-0.001997369108721614,-0.0005326317623257637
1772810840918323200,3.4593232421875,-0.0005326317623257637,0.0022636849898844957,0
1772810840928204000,3.4692041015625,0.0005326317623257637,0.0011984214652329683,0.002130527049303055
1772810840938084900,3.4790849609375,-0.0005326317623257637,0.0011984214652329683,0.0005326317623257637
1772810840947965700,3.488965576171875,0,0.001731053227558732,0.0005326317623257637
1772810840957846500,3.498846435546875,0,0.0006657897029072046,0.0005326317623257637
1772810840967727400,3.508727294921875,0.0005326317623257637,0.001731053227558732,0.0005326317623257637
1772810840977608200,3.518608154296875,0,0.0011984214652329683,0
1772810840987489000,3.528489013671875,-0.0010652635246515274,0.0006657897029072046,0.0010652635246515274
1772810840997369900,3.538369873046875,0.0005326317623257637,-0.0003994738217443228,-0.0005326317623257637
1772810841007251000,3.5482509765625,0.0005326317623257637,-0.0003994738217443228,0.001597895286977291
1772810841017132000,3.558132080078125,0.0010652635246515274,0.0006657897029072046,-0.001597895286977291
1772810841027012900,3.568012939453125,0.0005326317623257637,0.001731053227558732,0.0005326317623257637
1772810841036894000,3.57789404296875,0.0005326317623257637,0.0011984214652329683,-0.0010652635246515274
1772810841046775000,3.587775146484375,-0.0005326317623257637,-0.0003994738217443228,0
1772810841056656000,3.59765576171875,0.0005326317623257637,0.0011984214652329683,0
1772810841066537000,3.607536865234375,0.0005326317623257637,-0.0009321055840700865,0
1772810841076418000,3.61741796875,0.0010652635246515274,0.0006657897029072046,0
1772810841086299100,3.627299072265625,0,-0.0009321055840700865,0.0005326317623257637
1772810841096180000,3.637179931640625,-0.0010652635246515274,-0.0014647373463958502,0
1772810841106061000,3.64706103515625,0.0005326317623257637,-0.0009321055840700865,0.0010652635246515274
1772810841115942100,3.656942138671875,0,0.0011984214652329683,0.001597895286977291
1772810841125823200,3.6668232421875,-0.001597895286977291,0.0011984214652329683,-0.0005326317623257637
1772810841135704000,3.6767041015625,-0.0010652635246515274,-0.0014647373463958502,0.0010652635246515274
1772810841145585200,3.686585205078125,0.0010652635246515274,0.00013315794058144093,0
1772810841155466200,3.69646630859375,0.0005326317623257637,0.00013315794058144093,0.0010652635246515274
1772810841165347000,3.70634716796875,0.001597895286977291,0.00013315794058144093,0.0005326317623257637
1772810841175228200,3.716228271484375,0.0005326317623257637,-0.0009321055840700865,0.0010652635246515274
1772810841185109200,3.726109130859375,0.0005326317623257637,0.0022636849898844957,0.0010652635246515274
1772810841194990000,3.735989990234375,-0.001597895286977291,-0.0009321055840700865,-0.001597895286977291
1772810841204871200,3.74587109375,0.0010652635246515274,0.00013315794058144093,0.0010652635246515274
1772810841214752300,3.755752197265625,0,-0.0003994738217443228,0
1772810841224633300,3.76563330078125,-0.0005326317623257637,0.0022636849898844957,-0.0005326317623257637
1772810841234514200,3.77551416015625,-0.0010652635246515274,-0.0009321055840700865,0.0005326317623257637
1772810841244395300,3.785395263671875,-0.0005326317623257637,0.0006657897029072046,0
1772810841254276400,3.7952763671875,0,0.003861580276861787,0
1772810841264157400,3.805157470703125,0.002130527049303055,-0.0009321055840700865,0
1772810841274038300,3.815038330078125,0.0005326317623257637,-0.0003994738217443228,0
1772810841283919400,3.82491943359375,0.0005326317623257637,0.001731053227558732,0
1772810841293800400,3.834800537109375,0,0.0011984214652329683,0.0005326317623257637
1772810841303681300,3.844681396484375,0.0005326317623257637,0.0006657897029072046,0.0005326317623257637
1772810841313562400,3.854562255859375,0.0010652635246515274,0.0006657897029072046,0.0005326317623257637
1772810841323443500,3.864443359375,0.001597895286977291,0.00013315794058144093,0
1772810841333324300,3.87432421875,-0.0005326317623257637,-0.0009321055840700865,-0.0005326317623257637
1772810841343205400,3.884205322265625,-0.002130527049303055,0.00013315794058144093,0.0010652635246515274
1772810841353086500,3.89408642578125,-0.0005326317623257637,-0.0009321055840700865,0.002130527049303055
1772810841362967600,3.903967529296875,0.0005326317623257637,0.001731053227558732,-0.0005326317623257637
1772810841372848400,3.913848388671875,0.0010652635246515274,-0.0009321055840700865,0.0010652635246515274
1772810841382729500,3.9237294921875,-0.001597895286977291,-0.0003994738217443228,-0.0005326317623257637
1772810841392610600,3.933610595703125,-0.001597895286977291,-0.0003994738217443228,-0.0005326317623257637
1772810841402491400,3.943491455078125,-0.0005326317623257637,0.0006657897029072046,-0.0010652635246515274
1772810841412372500,3.95337255859375,0.0005326317623257637,0.001731053227558732,0.0005326317623257637
1772810841422253600,3.963253662109375,-0.0005326317623257637,0.0006657897029072046,0.0005326317623257637
1772810841432134700,3.973134765625,0.0005326317623257637,0.0006657897029072046,0
1772810841442015500,3.983015380859375,-0.0005326317623257637,0.0006657897029072046,0
1772810841451896600,3.992896484375,-0.0005326317623257637,0.0006657897029072046,-0.0010652635246515274
1772810841461777700,4.002777587890625,0,0.0014647373463958502,-0.00013315794058144093
1772810841471658800,4.01265869140625,0.0005326317623257637,-0.00013315794058144093,-0.0011984214652329683
1772810841481539600,4.02253955078125,0,-0.00013315794058144093,-0.00013315794058144093
1772810841491420700,4.032420654296875,0.0010652635246515274,0.0009321055840700865,0.0009321055840700865
1772810841501301800,4.0423017578125,0.0010652635246515274,0.0009321055840700865,0.0025300008710473776
1772810841511182600,4.0521826171875,0.0005326317623257637,-0.0022636849898844957,-0.00013315794058144093
1772810841521063700,4.062063720703125,0,0.001997369108721614,0.0003994738217443228
1772810841530944800,4.07194482421875,-0.0005326317623257637,-0.00013315794058144093,0.0003994738217443228
1772810841540825900,4.081825927734375,-0.0005326317623257637,-0.00013315794058144093,-0.0006657897029072046
1772810841550706700,4.091706787109375,-0.001597895286977291,-0.001731053227558732,0.0003994738217443228
1772810841560587800,4.101587890625,0,0.0009321055840700865,-0.00013315794058144093
1772810841570468900,4.11146875,-0.0005326317623257637,-0.00013315794058144093,-0.0006657897029072046
1772810841580350000,4.121349853515625,0,-0.0006657897029072046,-0.0006657897029072046
1772810841590231000,4.13123095703125,-0.0005326317623257637,-0.00013315794058144093,-0.0011984214652329683
1772810841600111900,4.14111181640625,-0.0010652635246515274,-0.0006657897029072046,-0.0006657897029072046
1772810841609993000,4.150992919921875,0.001597895286977291,0.0009321055840700865,-0.0006657897029072046
1772810841619874000,4.1608740234375,0.0010652635246515274,0.0025300008710473776,0.0009321055840700865
1772810841629755100,4.170755126953125,0.0005326317623257637,-0.0006657897029072046,0.0003994738217443228
1772810841639636000,4.180635986328125,-0.001597895286977291,-0.00013315794058144093,0.0003994738217443228
1772810841649517000,4.19051708984375,-0.0005326317623257637,-0.0006657897029072046,0.0009321055840700865
1772810841659398100,4.200398193359375,0.0005326317623257637,0.0009321055840700865,-0.0011984214652329683
1772810841669279200,4.210279296875,-0.0005326317623257637,-0.00013315794058144093,0.0009321055840700865
1772810841679160000,4.22016015625,0.0010652635246515274,-0.0011984214652329683,0.0009321055840700865
1772810841689041200,4.230041259765625,0,-0.00013315794058144093,-0.0006657897029072046
1772810841698922200,4.239922119140625,-0.0026631588116288185,0.0003994738217443228,0.0014647373463958502
1772810841708803300,4.24980322265625,0.0005326317623257637,-0.001731053227558732,-0.00013315794058144093
1772810841718684400,4.259684326171875,0.002130527049303055,0.0003994738217443228,0.001997369108721614
1772810841728565200,4.269565185546875,0,0.0014647373463958502,-0.0011984214652329683
1772810841738446300,4.2794462890625,-0.001597895286977291,0.0003994738217443228,-0.0011984214652329683
1772810841748327400,4.289327392578125,0,-0.0011984214652329683,0.0014647373463958502
1772810841758208500,4.29920849609375,0.0005326317623257637,-0.00013315794058144093,-0.0006657897029072046
1772810841768089600,4.309089599609375,-0.0005326317623257637,0.0003994738217443228,-0.00013315794058144093
1772810841777970400,4.318970458984375,-0.001597895286977291,-0.00013315794058144093,-0.0006657897029072046
1772810841787851500,4.3288515625,-0.0005326317623257637,0.0009321055840700865,-0.001731053227558732
1772810841797732600,4.338732666015625,0.0010652635246515274,-0.001731053227558732,-0.00013315794058144093
1772810841807613700,4.34861376953125,-0.002130527049303055,0.0014647373463958502,-0.00013315794058144093
1772810841817494500,4.35849462890625,0,-0.0011984214652329683,-0.00013315794058144093
1772810841827375600,4.368375732421875,-0.0010652635246515274,-0.00013315794058144093,-0.001731053227558732
1772810841837256700,4.378256591796875,0.0005326317623257637,-0.00013315794058144093,0.0003994738217443228
1772810841847137800,4.3881376953125,-0.002130527049303055,-0.0006657897029072046,0.0009321055840700865
1772810841857019000,4.398018798828125,-0.001597895286977291,-0.0011984214652329683,0.0009321055840700865
1772810841866899700,4.407899658203125,0.0010652635246515274,0.0003994738217443228,-0.0011984214652329683
1772810841876780800,4.41778076171875,0.0005326317623257637,-0.00013315794058144093,0.0009321055840700865
1772810841886662000,4.427661865234375,-0.0005326317623257637,0.0003994738217443228,0.0009321055840700865
1772810841896543000,4.43754296875,0.0005326317623257637,-0.0011984214652329683,-0.00013315794058144093
1772810841906423800,4.447423828125,0.0005326317623257637,0.0009321055840700865,-0.0006657897029072046
1772810841916305000,4.457304931640625,0,0.0014647373463958502,0.0003994738217443228
1772810841926186000,4.46718603515625,-0.0005326317623257637,-0.00013315794058144093,-0.00013315794058144093
1772810841936067000,4.477067138671875,0.0010652635246515274,0.0025300008710473776,0.0003994738217443228
1772810841945948200,4.4869482421875,0.0005326317623257637,0.0014647373463958502,-0.00013315794058144093
1772810841955829000,4.4968291015625,-0.0005326317623257637,-0.00013315794058144093,-0.0011984214652329683
1772810841965710000,4.5067099609375,-0.0010652635246515274,0.0003994738217443228,0.0003994738217443228
1772810841975591200,4.516591064453125,0,-0.0027963167522102594,-0.0006657897029072046
1772810841985472300,4.52647216796875,0.0005326317623257637,-0.0011984214652329683,-0.0006657897029072046
1772810841995353000,4.53635302734375,0,-0.0006657897029072046,-0.001731053227558732
1772810842005234700,4.546234619140625,-0.0005326317623257637,-0.0006657897029072046,-0.0006657897029072046
1772810842015116300,4.5561162109375,-0.0005326317623257637,0.0003994738217443228,0.0009321055840700865
1772810842024998000,4.565997802734375,0.0005326317623257637,-0.00013315794058144093,-0.0006657897029072046
1772810842034879200,4.575879150390625,-0.0010652635246515274,-0.0011984214652329683,-0.0011984214652329683
1772810842044760800,4.5857607421875,0.0005326317623257637,0.0009321055840700865,0.001997369108721614
1772810842054642400,4.595642333984375,-0.0010652635246515274,-0.0022636849898844957,-0.0011984214652329683
1772810842064524000,4.60552392578125,-0.001597895286977291,0.0009321055840700865,-0.00013315794058144093
1772810842074405600,4.615405517578125,0,-0.00013315794058144093,-0.0006657897029072046
1772810842084287200,4.625287353515625,0.0010652635246515274,-0.0006657897029072046,-0.0022636849898844957
1772810842094168600,4.63516845703125,-0.0010652635246515274,0.0003994738217443228,-0.0011984214652329683
1772810842104050200,4.64505029296875,-0.0005326317623257637,-0.00013315794058144093,-0.00013315794058144093
1772810842113931800,4.654931884765625,0.001597895286977291,-0.00013315794058144093,-0.0006657897029072046
1772810842123813400,4.6648134765625,0.0005326317623257637,0.001997369108721614,-0.0006657897029072046
1772810842133694700,4.67469482421875,0.0010652635246515274,-0.00013315794058144093,-0.0011984214652329683
1772810842143576300,4.684576416015625,-0.0005326317623257637,-0.0011984214652329683,-0.00013315794058144093
1772810842153458000,4.6944580078125,0.0005326317623257637,-0.00013315794058144093,0.0014647373463958502
1772810842163339500,4.704339599609375,0.001597895286977291,0.0003994738217443228,-0.0006657897029072046
1772810842173220900,4.714220947265625,0,-0.00013315794058144093,0.0003994738217443228
1772810842183102500,4.7241025390625,0.0005326317623257637,0.0003994738217443228,0.0009321055840700865
1772810842192984000,4.733984130859375,0,0.0014647373463958502,0.0009321055840700865
1772810842212747300,4.753747314453125,-0.0010652635246515274,-0.00013315794058144093,-0.0006657897029072046
1772810842222628600,4.763628662109375,-0.0005326317623257637,-0.001731053227558732,-0.00013315794058144093
1772810842232510200,4.77351025390625,0.001597895286977291,-0.00013315794058144093,-0.0006657897029072046
1772810842242391800,4.783391845703125,-0.0010652635246515274,-0.0006657897029072046,0.0009321055840700865
1772810842252273400,4.7932734375,-0.0005326317623257637,-0.00013315794058144093,-0.0006657897029072046
1772810842262154800,4.80315478515625,-0.0005326317623257637,-0.00013315794058144093,0.0003994738217443228
1772810842272036400,4.813036376953125,-0.0005326317623257637,0.001997369108721614,-0.0006657897029072046
1772810842281918000,4.82291796875,-0.001597895286977291,-0.001731053227558732,-0.00013315794058144093
1772810842291799600,4.832799560546875,-0.001597895286977291,-0.0011984214652329683,0.0003994738217443228
1772810842311562500,4.8525625,-0.0010652635246515274,-0.00013315794058144093,-0.0022636849898844957
1772810842321444000,4.862444091796875,0,-0.0027963167522102594,0.0003994738217443228
1772810842331325700,4.87232568359375,0.0010652635246515274,0.0003994738217443228,-0.00013315794058144093
1772810842341207300,4.882207275390625,0,-0.0006657897029072046,0.0003994738217443228
1772810842351088600,4.892088623046875,0,0.0014647373463958502,0.0003994738217443228
1772810842360970200,4.90197021484375,-0.0005326317623257637,0.0003994738217443228,-0.0006657897029072046
1772810842370851800,4.911851806640625,-0.0005326317623257637,-0.0011984214652329683,-0.00013315794058144093
1772810842380733400,4.9217333984375,-0.0005326317623257637,-0.0011984214652329683,0.0009321055840700865
1772810842390615000,4.931614990234375,0.0005326317623257637,-0.00013315794058144093,-0.0006657897029072046
1772810842400496400,4.941496337890625,0,-0.00013315794058144093,0.0003994738217443228
1772810842410378000,4.9513779296875,0,0.0009321055840700865,-0.0006657897029072046
1772810842420259600,4.961259521484375,-0.0005326317623257637,-0.00013315794058144093,-0.00013315794058144093
1772810842430141200,4.97114111328125,0.0010652635246515274,-0.00013315794058144093,0.0003994738217443228
1772810842440022500,4.9810224609375,0.0005326317623257637,-0.00013315794058144093,-0.00013315794058144093
1772810842449904000,4.990904052734375,0.001597895286977291,0.0003994738217443228,-0.00013315794058144093
1772810842459785700,5.00078564453125,-0.0005326317623257637,0.0009321055840700865,-0.0006657897029072046
1772810842469667300,5.010667236328125,-0.002130527049303055,-0.0006657897029072046,-0.0006657897029072046
1772810842479549000,5.020548828125,0,0.0025300008710473776,0.0009321055840700865
1772810842489430300,5.03043017578125,0,0.0009321055840700865,-0.00013315794058144093
1772810842499311900,5.040311767578125,0.0005326317623257637,-0.0006657897029072046,0.0014647373463958502
1772810842509193200,5.050193115234375,0.0026631588116288185,-0.0027963167522102594,-0.00013315794058144093
1772810842519074600,5.060074462890625,-0.0005326317623257637,-0.00013315794058144093,0.0003994738217443228
1772810842528956000,5.069955810546875,-0.0005326317623257637,0.0009321055840700865,0.0014647373463958502
1772810842538837200,5.079837158203125,0,0.0009321055840700865,0.0003994738217443228
1772810842548718600,5.089718505859375,0.001597895286977291,-0.0006657897029072046,0.0009321055840700865
1772810842558600000,5.099599853515625,0,0.0003994738217443228,0.0009321055840700865
1772810842568481300,5.109481201171875,-0.0005326317623257637,-0.0011984214652329683,-0.00013315794058144093
1772810842578362600,5.119362548828125,0.0005326317623257637,-0.001731053227558732,0.0003994738217443228
1772810842588244000,5.129243896484375,0.0005326317623257637,0.0003994738217443228,-0.0006657897029072046
1772810842598125300,5.139125244140625,-0.001597895286977291,0.0009321055840700865,0.0003994738217443228
1772810842608006700,5.149006591796875,0.0010652635246515274,-0.0006657897029072046,-0.0006657897029072046
1772810842617888000,5.158887939453125,0,-0.0006657897029072046,-0.0006657897029072046
1772810842627769300,5.168769287109375,-0.0005326317623257637,0.0009321055840700865,0.0009321055840700865
1772810842637650700,5.178650634765625,0.0005326317623257637,0.0009321055840700865,-0.00013315794058144093
1772810842647532000,5.188531982421875,0.0005326317623257637,0.0003994738217443228,0.0003994738217443228
1772810842657413400,5.198413330078125,0,-0.0006657897029072046,0.0003994738217443228
1772810842667294700,5.208294677734375,0.0005326317623257637,-0.0006657897029072046,-0.00013315794058144093
1772810842677176000,5.218176025390625,0,0.0009321055840700865,0.0003994738217443228
1772810842687057400,5.228057373046875,0,-0.0022636849898844957,0.0003994738217443228
1772810842696939000,5.23793896484375,0,-0.00013315794058144093,-0.00013315794058144093
1772810842706820400,5.2478203125,0.0005326317623257637,-0.001731053227558732,-0.00013315794058144093
1772810842716701700,5.25770166015625,-0.0026631588116288185,-0.0006657897029072046,-0.0006657897029072046
1772810842726583000,5.2675830078125,-0.0005326317623257637,0.001997369108721614,0.0003994738217443228
1772810842736464400,5.27746435546875,0.001597895286977291,-0.00013315794058144093,-0.0006657897029072046
1772810842746345700,5.287345703125,0,-0.0011984214652329683,-0.0011984214652329683
1772810842756227000,5.29722705078125,0,-0.0006657897029072046,0.0003994738217443228
1772810842766108400,5.3071083984375,-0.0005326317623257637,0.0003994738217443228,-0.0011984214652329683
1772810842775989800,5.31698974609375,-0.0005326317623257637,0.001997369108721614,-0.0011984214652329683
1772810842785871000,5.32687109375,0.0010652635246515274,-0.0006657897029072046,-0.0006657897029072046
1772810842795752400,5.33675244140625,0.0026631588116288185,-0.001731053227558732,0.0009321055840700865
1772810842805633800,5.3466337890625,0.0010652635246515274,-0.00013315794058144093,0.0003994738217443228
1772810842815515100,5.35651513671875,-0.0005326317623257637,0.0009321055840700865,-0.00013315794058144093
1772810842825396500,5.366396484375,-0.0005326317623257637,0.0014647373463958502,0.0025300008710473776
1772810842835277800,5.37627783203125,-0.0010652635246515274,-0.00013315794058144093,-0.0006657897029072046
1772810842845159200,5.3861591796875,-0.0005326317623257637,0.0003994738217443228,-0.0006657897029072046
1772810842855040500,5.39604052734375,-0.0005326317623257637,-0.001731053227558732,0.0009321055840700865
1772810842864921900,5.405921875,0.0010652635246515274,-0.00013315794058144093,-0.00013315794058144093
1772810842874803200,5.41580322265625,0,-0.001731053227558732,0.0003994738217443228
1772810842884684500,5.4256845703125,0.0005326317623257637,0.0003994738217443228,-0.00013315794058144093
1772810842894566000,5.43556591796875,-0.001597895286977291,-0.0011984214652329683,-0.001731053227558732
1772810842904447200,5.445447265625,0.001597895286977291,0.0014647373463958502,-0.0006657897029072046
1772810842914328600,5.45532861328125,-0.0010652635246515274,0.0009321055840700865,-0.0006657897029072046
1772810842924210000,5.4652099609375,0,-0.0006657897029072046,0.0003994738217443228
1772810842934091300,5.47509130859375,-0.0010652635246515274,0.0009321055840700865,0.0003994738217443228
1772810842943972600,5.48497265625,0.0026631588116288185,0.0003994738217443228,-0.001731053227558732
1772810842953854000,5.49485400390625,-0.0005326317623257637,0.001997369108721614,0.0014647373463958502
1772810842963735300,5.5047353515625,0.0005326317623257637,-0.0006657897029072046,0.0003994738217443228
1772810842973616600,5.51461669921875,-0.0005326317623257637,0.0003994738217443228,0.001997369108721614
1772810842983498000,5.524498046875,-0.0010652635246515274,0.0014647373463958502,-0.00013315794058144093
1772810842993379600,5.534379638671875,0.001597895286977291,0.0003994738217443228,0.0014647373463958502
1772810843003260700,5.5442607421875,-0.0005326317623257637,-0.00013315794058144093,-0.0006657897029072046
1772810843013142000,5.55414208984375,0.0010652635246515274,0.0003994738217443228,-0.0011984214652329683
1772810843023023400,5.5640234375,0.0005326317623257637,0.0009321055840700865,-0.00013315794058144093
1772810843032904700,5.57390478515625,0.0005326317623257637,-0.00013315794058144093,-0.00013315794058144093
1772810843042786000,5.5837861328125,0.0010652635246515274,0.0003994738217443228,-0.001731053227558732
1772810843052667400,5.59366748046875,-0.0010652635246515274,-0.00013315794058144093,0.0003994738217443228
1772810843062548700,5.603548828125,0,0.0009321055840700865,-0.00013315794058144093
1772810843072430000,5.61343017578125,0.0005326317623257637,0.0003994738217443228,-0.001731053227558732
1772810843082311400,5.6233115234375,0.0005326317623257637,-0.00013315794058144093,0.0003994738217443228
1772810843092192800,5.63319287109375,0.0010652635246515274,-0.0006657897029072046,0.0003994738217443228
1772810843102074000,5.64307421875,0.0005326317623257637,0.0003994738217443228,-0.0006657897029072046
1772810843111955500,5.65295556640625,-0.0010652635246515274,-0.0006657897029072046,0.0003994738217443228
1772810843121836800,5.6628369140625,0,-0.0006657897029072046,0.0009321055840700865
1772810843131718000,5.6727177734375,0,-0.00013315794058144093,0.0014647373463958502
1772810843141599200,5.68259912109375,0.0005326317623257637,-0.0006657897029072046,0.0014647373463958502
1772810843151480600,5.69248046875,0,0.0009321055840700865,0.0009321055840700865
1772810843161362000,5.70236181640625,0.0010652635246515274,-0.0006657897029072046,-0.0006657897029072046
1772810843171243300,5.7122431640625,-0.001597895286977291,-0.0011984214652329683,0.0009321055840700865
1772810843181124600,5.72212451171875,0,0.0009321055840700865,0.0003994738217443228
1772810843191006000,5.732005859375,-0.0005326317623257637,0.0009321055840700865,0.0014647373463958502
1772810843200887300,5.74188720703125,0,0.0003994738217443228,0.0009321055840700865
1772810843210768600,5.7517685546875,-0.0005326317623257637,-0.0022636849898844957,0.001997369108721614
1772810843220650000,5.76164990234375,0.0005326317623257637,-0.0006657897029072046,-0.0006657897029072046
1772810843230531300,5.77153125,-0.0005326317623257637,-0.00013315794058144093,-0.0006657897029072046
1772810843240412700,5.78141259765625,-0.002130527049303055,0.0009321055840700865,-0.0006657897029072046
1772810843250294000,5.7912939453125,-0.0005326317623257637,-0.001731053227558732,-0.0006657897029072046
1772810843260175400,5.80117529296875,-0.0010652635246515274,0.0003994738217443228,0.0025300008710473776
1772810843270056700,5.811056640625,0,-0.00013315794058144093,0.0009321055840700865
1772810843279937800,5.820937744140625,0.001597895286977291,0.0003994738217443228,0.0003994738217443228
1772810843289819100,5.830819091796875,0,0.0030626326333731413,0.0003994738217443228
1772810843299700500,5.840700439453125,0.0005326317623257637,-0.0022636849898844957,-0.00013315794058144093
1772810843309581800,5.850581787109375,0.0005326317623257637,0.0014647373463958502,0.0003994738217443228
1772810843319463200,5.860463134765625,-0.0005326317623257637,-0.0006657897029072046,-0.0006657897029072046
1772810843339225900,5.880225830078125,-0.0005326317623257637,0.0003994738217443228,0.0003994738217443228
1772810843349107200,5.890107177734375,0.002130527049303055,0.0003994738217443228,-0.0006657897029072046
1772810843358988500,5.899988525390625,0,0.0003994738217443228,0.0009321055840700865
1772810843368870000,5.909869873046875,0.0010652635246515274,0.0014647373463958502,-0.0006657897029072046
1772810843378751200,5.919751220703125,0,-0.0006657897029072046,0.0009321055840700865
1772810843388632600,5.929632568359375,0.0010652635246515274,-0.0006657897029072046,-0.0011984214652329683
1772810843398514000,5.939513916015625,-0.0010652635246515274,0.0003994738217443228,-0.00013315794058144093
1772810843408395300,5.949395263671875,-0.0005326317623257637,-0.0006657897029072046,-0.0006657897029072046
1772810843418276600,5.959276611328125,-0.0005326317623257637,0.001997369108721614,0.0003994738217443228
1772810843428158000,5.969157958984375,0,-0.00013315794058144093,-0.0011984214652329683
1772810843438039000,5.9790390625,-0.0005326317623257637,-0.0006657897029072046,0.0009321055840700865
1772810843447920400,5.98892041015625,0.0010652635246515274,-0.00013315794058144093,0.0009321055840700865
1772810843457801700,5.9988017578125,-0.001597895286977291,-0.00013315794058144093,0.0003994738217443228
1772810843477564400,6.018564453125,0,0.0009321055840700865,-0.0006657897029072046
1772810843487445800,6.02844580078125,-0.0005326317623257637,0.0003994738217443228,-0.00013315794058144093
1772810843497326800,6.038326904296875,-0.0005326317623257637,-0.0006657897029072046,-0.00013315794058144093
1772810843507207400,6.04820751953125,-0.0010652635246515274,-0.00013315794058144093,-0.0011984214652329683
1772810843517088300,6.058088134765625,0.001597895286977291,-0.00013315794058144093,-0.00013315794058144093
1772810843526968800,6.06796875,-0.002130527049303055,0.0003994738217443228,-0.00013315794058144093
1772810843536849400,6.077849365234375,0.0005326317623257637,0.0003994738217443228,0.001997369108721614
1772810843546730000,6.08772998046875,0.0010652635246515274,0.001997369108721614,-0.00013315794058144093
1772810843556610600,6.097610595703125,0.0005326317623257637,-0.0011984214652329683,-0.0006657897029072046
1772810843566491400,6.107491455078125,0.0005326317623257637,-0.00013315794058144093,0.0003994738217443228
1772810843576372000,6.1173720703125,0.0010652635246515274,0.0009321055840700865,-0.0006657897029072046
1772810843586252500,6.12725244140625,0.001597895286977291,0.0003994738217443228,-0.00013315794058144093
1772810843596133000,6.137133056640625,0,0.0003994738217443228,-0.0006657897029072046
1772810843606014000,6.147013916015625,0.0005326317623257637,0.0009321055840700865,-0.00013315794058144093
1772810843615894500,6.15689453125,0.0005326317623257637,-0.0011984214652329683,-0.0006657897029072046
1772810843625775000,6.166775146484375,0.0010652635246515274,-0.0006657897029072046,0.0009321055840700865
1772810843635655700,6.17665576171875,-0.0005326317623257637,0.0014647373463958502,-0.0006657897029072046
1772810843645536300,6.186536376953125,0,0.0009321055840700865,0.0003994738217443228
1772810843655416800,6.196416748046875,0.0010652635246515274,-0.0011984214652329683,-0.001731053227558732
1772810843665297700,6.206297607421875,0,-0.001731053227558732,0.0014647373463958502
1772810843675178200,6.21617822265625,0.0010652635246515274,0.0009321055840700865,0.0003994738217443228
1772810843685058800,6.226058837890625,-0.001597895286977291,-0.0006657897029072046,0.0003994738217443228
1772810843694939400,6.235939453125,0.0010652635246515274,-0.0006657897029072046,0.0003994738217443228
1772810843704820000,6.245820068359375,-0.0010652635246515274,-0.00013315794058144093,-0.0011984214652329683
1772810843714700800,6.25570068359375,0.0005326317623257637,0.0009321055840700865,-0.0006657897029072046
1772810843724581400,6.265581298828125,0.001597895286977291,-0.0011984214652329683,-0.00013315794058144093
1772810843734462000,6.2754619140625,-0.0005326317623257637,-0.00013315794058144093,0.0003994738217443228
1772810843744342500,6.285342529296875,0.001597895286977291,0.0003994738217443228,-0.00013315794058144093
1772810843754223000,6.29522314453125,0.001597895286977291,-0.00013315794058144093,0.0014647373463958502
1772810843764104000,6.30510400390625,-0.0005326317623257637,-0.0006657897029072046,-0.00013315794058144093
1772810843773984500,6.314984619140625,-0.0005326317623257637,0.001997369108721614,0.0003994738217443228
1772810843783865000,6.324864990234375,-0.0005326317623257637,0.0003994738217443228,-0.0006657897029072046
1772810843793745700,6.33474560546875,-0.0005326317623257637,-0.0006657897029072046,-0.0006657897029072046
1772810843803626200,6.344626220703125,-0.0010652635246515274,0.0009321055840700865,-0.0006657897029072046
1772810843813507000,6.354507080078125,0.0010652635246515274,0.0009321055840700865,0.0009321055840700865
1772810843823387600,6.3643876953125,-0.0010652635246515274,0.0014647373463958502,0.0009321055840700865
1772810843833268200,6.374268310546875,0.0010652635246515274,0.0009321055840700865,-0.00013315794058144093
1772810843843148800,6.384148681640625,0.0005326317623257637,-0.00013315794058144093,0.0014647373463958502
1772810843853029400,6.394029296875,0.0005326317623257637,-0.0006657897029072046,-0.00013315794058144093
1772810843862910200,6.40391015625,-0.0005326317623257637,-0.0006657897029072046,0.0003994738217443228
1772810843872790800,6.413790771484375,0.0005326317623257637,0.0014647373463958502,-0.0011984214652329683
1772810843882671400,6.42367138671875,-0.0010652635246515274,0.0003994738217443228,0.0009321055840700865
1772810843892552000,6.433552001953125,0,-0.0027963167522102594,-0.00013315794058144093
1772810843902432500,6.4434326171875,0,-0.0027963167522102594,-0.00013315794058144093
1772810843912313000,6.45331298828125,-0.0005326317623257637,-0.0022636849898844957,0.0009321055840700865
1772810843922194000,6.46319384765625,-0.0010652635246515274,0.0003994738217443228,0.001997369108721614
1772810843932074500,6.473074462890625,0.002130527049303055,-0.00013315794058144093,-0.0006657897029072046
1772810843941955000,6.482955078125,0,-0.0011984214652329683,0.0014647373463958502
1772810843951835600,6.492835693359375,-0.0005326317623257637,-0.001731053227558732,-0.0006657897029072046
1772810843961716200,6.50271630859375,-0.0005326317623257637,0.0003994738217443228,-0.00013315794058144093
1772810843971597000,6.51259716796875,0.0005326317623257637,0.0003994738217443228,-0.001731053227558732
1772810843981477600,6.5224775390625,0,0.0003994738217443228,-0.00013315794058144093
1772810843991358200,6.532358154296875,0.0010652635246515274,-0.0022636849898844957,-0.00013315794058144093
1772810844001239000,6.542239013671875,-0.001597895286977291,0.0009321055840700865,-0.0011984214652329683
1772810844011120000,6.5521201171875,-0.001597895286977291,0.0003994738217443228,0.0014647373463958502
1772810844030882000,6.571882080078125,0.0005326317623257637,0.001997369108721614,-0.0006657897029072046
1772810844040763100,6.58176318359375,0.0005326317623257637,-0.00013315794058144093,0.0014647373463958502
1772810844050644000,6.59164404296875,0.0005326317623257637,0.0003994738217443228,-0.0011984214652329683
1772810844060525000,6.601525146484375,0.0005326317623257637,-0.0022636849898844957,-0.0006657897029072046
1772810844070406100,6.61140625,0,-0.00013315794058144093,0.0014647373463958502
1772810844080287200,6.621287353515625,-0.0010652635246515274,-0.0006657897029072046,-0.0006657897029072046
1772810844090168000,6.63116796875,-0.0005326317623257637,0.0014647373463958502,-0.00013315794058144093
1772810844100049200,6.641049072265625,0,-0.00013315794058144093,0.0009321055840700865
1772810844109930200,6.65093017578125,-0.0005326317623257637,-0.0011984214652329683,0.0003994738217443228
1772810844119811000,6.66081103515625,0.0010652635246515274,-0.001731053227558732,-0.00013315794058144093
1772810844129692200,6.670692138671875,0.0005326317623257637,-0.00013315794058144093,0.0009321055840700865
1772810844139573200,6.6805732421875,0.0026631588116288185,0.0003994738217443228,-0.0011984214652329683
1772810844149454000,6.6904541015625,0,-0.0006657897029072046,-0.0011984214652329683
1772810844159335200,6.700335205078125,0,-0.00013315794058144093,0.0009321055840700865
1772810844169216300,6.71021630859375,0.0005326317623257637,-0.00013315794058144093,-0.00013315794058144093
1772810844179097000,6.72009716796875,-0.0005326317623257637,0.001997369108721614,0.0003994738217443228
1772810844188978200,6.729978271484375,-0.0005326317623257637,-0.0011984214652329683,0.0009321055840700865
1772810844198859300,6.739859375,0,-0.0011984214652329683,0.0003994738217443228
1772810844208740000,6.749739990234375,-0.001597895286977291,0.0025300008710473776,0.0003994738217443228
1772810844218621200,6.75962109375,-0.0010652635246515274,-0.001731053227558732,-0.00013315794058144093
1772810844228502300,6.769502197265625,0,-0.00013315794058144093,0.0009321055840700865
1772810844238383000,6.779383056640625,0,-0.00013315794058144093,-0.001731053227558732
1772810844248264200,6.78926416015625,0,-0.0022636849898844957,-0.0006657897029072046
1772810844258145300,6.799145263671875,0.001597895286977291,0.0009321055840700865,-0.00013315794058144093
1772810844268026000,6.809026123046875,-0.0026631588116288185,-0.0006657897029072046,-0.001731053227558732
1772810844277907200,6.8189072265625,0,0.0003994738217443228,-0.0006657897029072046
1772810844287788300,6.828788330078125,0,-0.0006657897029072046,-0.00013315794058144093
1772810844297669400,6.83866943359375,-0.0005326317623257637,-0.0006657897029072046,-0.00013315794058144093
1772810844307550200,6.84855029296875,0,0.0003994738217443228,-0.00013315794058144093
1772810844317431300,6.858431396484375,0,0.0009321055840700865,0.0009321055840700865
1772810844327312400,6.8683125,0.0005326317623257637,-0.0006657897029072046,0.0009321055840700865
1772810844337193200,6.878193115234375,0.0005326317623257637,-0.00013315794058144093,0.0003994738217443228
1772810844347074300,6.88807421875,-0.001597895286977291,-0.00013315794058144093,0.0003994738217443228
1772810844356955400,6.897955322265625,-0.0010652635246515274,-0.0011984214652329683,0.0014647373463958502
1772810844366836200,6.907836181640625,0.0005326317623257637,-0.0006657897029072046,-0.00013315794058144093
1772810844376717300,6.91771728515625,-0.0005326317623257637,-0.0011984214652329683,-0.001731053227558732
1772810844386598400,6.927598388671875,-0.001597895286977291,-0.0006657897029072046,0.0014647373463958502
1772810844396479200,6.937479248046875,-0.0005326317623257637,-0.00013315794058144093,0.0003994738217443228
1772810844406360300,6.9473603515625,-0.001597895286977291,-0.0011984214652329683,-0.00013315794058144093
1772810844416241400,6.957241455078125,0.0010652635246515274,0.0009321055840700865,-0.00013315794058144093
1772810844426122200,6.967122314453125,-0.0010652635246515274,-0.0006657897029072046,0.0003994738217443228
1772810844436003300,6.97700341796875,-0.0005326317623257637,-0.003328948514536023,0.0014647373463958502
1772810844445884400,6.986884521484375,0.0005326317623257637,-0.0011984214652329683,-0.0006657897029072046
1772810844455765200,6.99676513671875,0.001597895286977291,0.0003994738217443228,-0.00013315794058144093
1772810844465646300,7.006646240234375,0.0010652635246515274,-0.00013315794058144093,-0.0011984214652329683
1772810844475527400,7.01652734375,0,-0.00013315794058144093,-0.0006657897029072046
1772810844485408300,7.026408203125,0.0005326317623257637,-0.0022636849898844957,0.0014647373463958502
1772810844495289300,7.036289306640625,0.0005326317623257637,-0.0022636849898844957,-0.00013315794058144093
1772810844505170400,7.04617041015625,0,-0.00013315794058144093,-0.0011984214652329683
1772810844515051500,7.056051513671875,0.0005326317623257637,-0.0006657897029072046,-0.0011984214652329683
1772810844524932900,7.065932861328125,0,0.0009321055840700865,-0.0006657897029072046
1772810844534814000,7.07581396484375,0.002130527049303055,0.0009321055840700865,-0.0006657897029072046
1772810844544695000,7.085695068359375,-0.0005326317623257637,-0.00013315794058144093,-0.00013315794058144093
1772810844554576100,7.095576171875,0.0005326317623257637,0.0003994738217443228,0.0003994738217443228
1772810844564457200,7.105457275390625,-0.0026631588116288185,-0.001731053227558732,-0.0006657897029072046
1772810844574338600,7.115338623046875,-0.0005326317623257637,-0.00013315794058144093,0.0009321055840700865
1772810844584219600,7.1252197265625,-0.0005326317623257637,0.0009321055840700865,0.0009321055840700865
1772810844594100700,7.135100830078125,-0.0010652635246515274,-0.0006657897029072046,0.0003994738217443228
1772810844603981800,7.14498193359375,-0.0005326317623257637,-0.0011984214652329683,-0.0011984214652329683
1772810844613863000,7.15486279296875,0.0010652635246515274,-0.00013315794058144093,-0.0011984214652329683
1772810844623744300,7.164744140625,-0.0005326317623257637,-0.0006657897029072046,0.0009321055840700865
1772810844633625300,7.174625244140625,-0.0005326317623257637,-0.00013315794058144093,0.001997369108721614
1772810844643506400,7.18450634765625,-0.0005326317623257637,0.0014647373463958502,-0.00013315794058144093
1772810844653387500,7.194387451171875,-0.0010652635246515274,0.0009321055840700865,-0.0006657897029072046
1772810844663268600,7.2042685546875,0,-0.00013315794058144093,-0.0006657897029072046
1772810844673150000,7.21414990234375,0,-0.00013315794058144093,0.0003994738217443228
1772810844683031000,7.224031005859375,-0.0010652635246515274,-0.0006657897029072046,0.0003994738217443228
1772810844692912000,7.233912109375,0.0026631588116288185,0.0009321055840700865,0.0014647373463958502
1772810844702793200,7.243793212890625,0.0010652635246515274,0.0014647373463958502,-0.0006657897029072046
1772810844712674300,7.25367431640625,-0.001597895286977291,-0.00013315794058144093,0.0014647373463958502
1772810844722555400,7.263555419921875,-0.0010652635246515274,-0.0006657897029072046,-0.001731053227558732
1772810844732436700,7.273436767578125,0.001597895286977291,-0.0011984214652329683,-0.00013315794058144093
1772810844742317800,7.28331787109375,-0.0010652635246515274,-0.0006657897029072046,-0.0006657897029072046
1772810844752199000,7.293198974609375,-0.0005326317623257637,-0.0006657897029072046,-0.0006657897029072046
1772810844762080000,7.303080078125,-0.0010652635246515274,-0.0006657897029072046,0.0003994738217443228
1772810844771961000,7.312961181640625,-0.001597895286977291,0.0003994738217443228,0.0003994738217443228
1772810844781842400,7.322842529296875,-0.001597895286977291,0.0003994738217443228,0.0003994738217443228
1772810844791723500,7.3327236328125,-0.0010652635246515274,0.0009321055840700865,0.0003994738217443228
1772810844801604600,7.3426044921875,0.0005326317623257637,-0.0006657897029072046,0.0014647373463958502
1772810844811485700,7.352485595703125,0,0.0009321055840700865,-0.0006657897029072046
1772810844821366800,7.36236669921875,0.003195790573954582,-0.0011984214652329683,0.0009321055840700865
1772810844831248100,7.372248046875,0.0005326317623257637,-0.0022636849898844957,-0.00013315794058144093
1772810844841129200,7.382129150390625,0.0005326317623257637,0.0003994738217443228,-0.00013315794058144093
1772810844851010300,7.39201025390625,-0.0005326317623257637,-0.00013315794058144093,0.0003994738217443228
1772810844860891400,7.401891357421875,0.001597895286977291,0.0003994738217443228,-0.00013315794058144093
1772810844870772500,7.4117724609375,0,0.0009321055840700865,-0.0006657897029072046
1772810844880653600,7.421653564453125,0,0.0014647373463958502,-0.001731053227558732
1772810844890534700,7.43153466796875,-0.0005326317623257637,0.0003994738217443228,-0.0006657897029072046
1772810844900416000,7.441416015625,-0.0010652635246515274,0.0014647373463958502,0.0009321055840700865
1772810844910297000,7.451297119140625,-0.0010652635246515274,0.0009321055840700865,0.0003994738217443228
1772810844920178200,7.46117822265625,0,0.0014647373463958502,-0.0027963167522102594
1772810844930059300,7.471059326171875,0.0010652635246515274,0.001997369108721614,-0.00013315794058144093
1772810844939940400,7.4809404296875,0.0005326317623257637,0.001997369108721614,-0.0011984214652329683
1772810844949821700,7.49082177734375,0,0.0009321055840700865,-0.00013315794058144093
1772810844959702800,7.500702880859375,0.0005326317623257637,0.0003994738217443228,-0.0006657897029072046
1772810844969583900,7.510583984375,0.0010652635246515274,-0.00013315794058144093,-0.0006657897029072046
1772810844979465000,7.52046484375,-0.0005326317623257637,0.0003994738217443228,-0.00013315794058144093
1772810844989346000,7.530345947265625,0.0005326317623257637,-0.0011984214652329683,-0.00013315794058144093
1772810844999227400,7.540227294921875,0,0.0009321055840700865,0.0009321055840700865
1772810845009108500,7.5501083984375,0,0.0009321055840700865,-0.0011984214652329683
1772810845018989800,7.55998974609375,-0.001597895286977291,0.003595264395698905,0.0003994738217443228
1772810845028871000,7.569870849609375,-0.0010652635246515274,-0.0006657897029072046,-0.0006657897029072046
1772810845038752300,7.579752197265625,0.0005326317623257637,-0.0006657897029072046,-0.00013315794058144093
1772810845048633300,7.58963330078125,-0.0005326317623257637,-0.00013315794058144093,-0.0006657897029072046
1772810845058514700,7.5995146484375,0.0005326317623257637,-0.0006657897029072046,-0.0006657897029072046
1772810845068396000,7.60939599609375,0.0005326317623257637,0.0003994738217443228,-0.00013315794058144093
1772810845078277000,7.619277099609375,0.0010652635246515274,-0.001731053227558732,0.0003994738217443228
1772810845088158500,7.629158447265625,0,0.0003994738217443228,0.0009321055840700865
1772810845098039600,7.63903955078125,0.0005326317623257637,-0.0006657897029072046,0.001997369108721614
1772810845107921000,7.6489208984375,0,-0.00013315794058144093,0.0003994738217443228
1772810845117802000,7.658802001953125,-0.0005326317623257637,-0.00013315794058144093,-0.00013315794058144093
1772810845127683300,7.668683349609375,-0.0010652635246515274,-0.0006657897029072046,0.0003994738217443228
1772810845137564400,7.678564453125,0,-0.001731053227558732,0.0014647373463958502
1772810845147445800,7.68844580078125,0,0.0003994738217443228,0.0003994738217443228
1772810845157326800,7.698326904296875,-0.001597895286977291,0.0003994738217443228,-0.0006657897029072046
1772810845167208200,7.708208251953125,0.0005326317623257637,-0.00013315794058144093,-0.00013315794058144093
1772810845177089500,7.718089599609375,-0.0005326317623257637,-0.0027963167522102594,0.0009321055840700865
1772810845186970600,7.727970703125,0.0010652635246515274,-0.0011984214652329683,-0.0006657897029072046
1772810845196852000,7.73785205078125,-0.0005326317623257637,0.0003994738217443228,-0.0006657897029072046
1772810845206733000,7.747733154296875,-0.0010652635246515274,0.0009321055840700865,-0.00013315794058144093
1772810845216614400,7.757614501953125,-0.001597895286977291,0.0003994738217443228,-0.0011984214652329683
1772810845226495500,7.76749560546875,0.0005326317623257637,0.0014647373463958502,0.0003994738217443228
1772810845236376800,7.777376953125,0.0010652635246515274,0.00519315991550684,0.0025300008710473776
1772810845246258200,7.787258056640625,-0.0010652635246515274,-0.003861580276861787,-0.0022636849898844957
1772810845256139300,7.79713916015625,0.0005326317623257637,0.0014647373463958502,0.0014647373463958502
1772810845266020600,7.8070205078125,-0.001597895286977291,0.001997369108721614,0.0009321055840700865
1772810845275901700,7.816901611328125,0.001597895286977291,0.0025300008710473776,0.001997369108721614
1772810845285783000,7.826782958984375,0.0005326317623257637,0.0003994738217443228,0.001997369108721614
1772810845295664000,7.8366640625,-0.0005326317623257637,-0.0011984214652329683,0.0003994738217443228
1772810845305545500,7.84654541015625,0.0005326317623257637,-0.0006657897029072046,-0.00013315794058144093
1772810845315426800,7.8564267578125,-0.001597895286977291,-0.00013315794058144093,-0.001731053227558732
1772810845325308000,7.866307861328125,0.0005326317623257637,-0.00013315794058144093,0.0009321055840700865
1772810845335189200,7.876189208984375,0.0005326317623257637,0.0003994738217443228,0.0009321055840700865
1772810845345070300,7.8860703125,-0.0010652635246515274,-0.0011984214652329683,-0.0006657897029072046
1772810845354951700,7.89595166015625,0.002130527049303055,-0.0022636849898844957,0.0009321055840700865
1772810845364832800,7.905832763671875,0.001597895286977291,-0.001731053227558732,-0.0011984214652329683
1772810845374714000,7.915714111328125,-0.001597895286977291,-0.003861580276861787,-0.00013315794058144093
1772810845384595200,7.92559521484375,0,-0.0011984214652329683,-0.00013315794058144093
1772810845394476500,7.9354765625,-0.0005326317623257637,-0.001731053227558732,-0.0011984214652329683
1772810845404357600,7.945357666015625,0.0005326317623257637,-0.0011984214652329683,-0.00013315794058144093
1772810845414239000,7.955239013671875,-0.0010652635246515274,-0.0006657897029072046,-0.00013315794058144093
1772810845424120300,7.965120361328125,0,-0.0022636849898844957,-0.00013315794058144093
1772810845434001400,7.97500146484375,0.0010652635246515274,-0.00013315794058144093,-0.0006657897029072046
1772810845443882800,7.9848828125,0,0.0003994738217443228,-0.0006657897029072046
1772810845453763800,7.994763916015625,0.0005326317623257637,-0.00013315794058144093,-0.0011984214652329683
1772810845463645200,8.004645263671875,0.0005326317623257637,-0.00013315794058144093,-0.00013315794058144093
1772810845473526300,8.0145263671875,0.0010652635246515274,0.001997369108721614,-0.0006657897029072046
1772810845483407600,8.02440771484375,0.0010652635246515274,0.0009321055840700865,0.0003994738217443228
1772810845493289000,8.0342890625,0,0.0025300008710473776,0.0003994738217443228
1772810845503169800,8.044169677734375,-0.0005326317623257637,0.003595264395698905,-0.0011984214652329683
1772810845513050400,8.05405029296875,-0.0010652635246515274,0.0009321055840700865,-0.00013315794058144093
1772810845522931200,8.06393115234375,-0.0005326317623257637,0.0009321055840700865,0.0009321055840700865
1772810845532812000,8.07381201171875,0.001597895286977291,-0.00013315794058144093,0.0003994738217443228
1772810845542692900,8.08369287109375,-0.0005326317623257637,0.0014647373463958502,-0.001731053227558732
1772810845552573400,8.093573486328125,-0.0005326317623257637,0.0003994738217443228,0.0014647373463958502
1772810845562454300,8.103454345703126,-0.001597895286977291,0.0030626326333731413,0.0014647373463958502
1772810845572335000,8.113335205078124,-0.0005326317623257637,0.001997369108721614,-0.00013315794058144093
1772810845582216000,8.1232158203125,-0.001597895286977291,0.0025300008710473776,0.0003994738217443228
1772810845592096500,8.133096435546875,-0.0005326317623257637,-0.0006657897029072046,-0.00013315794058144093
1772810845601977300,8.142977294921875,0.0005326317623257637,0.0030626326333731413,-0.00013315794058144093
1772810845611858200,8.152858154296876,-0.0010652635246515274,0.001997369108721614,0.0003994738217443228
1772810845621738800,8.16273876953125,-0.0005326317623257637,0.0003994738217443228,-0.0006657897029072046
1772810845631619600,8.17261962890625,0.0010652635246515274,0.0009321055840700865,0.0025300008710473776
1772810845641500400,8.18250048828125,-0.0005326317623257637,0.0025300008710473776,0.0003994738217443228
1772810845651381200,8.19238134765625,-0.0005326317623257637,0.0003994738217443228,0.0003994738217443228
1772810845661261800,8.20226171875,0.001597895286977291,0.0009321055840700865,0.0009321055840700865
1772810845671142700,8.212142578125,0.0005326317623257637,-0.0011984214652329683,-0.0006657897029072046
1772810845681023500,8.2220234375,0.0010652635246515274,-0.0006657897029072046,-0.00013315794058144093
1772810845690904300,8.231904296875,-0.0005326317623257637,0.0003994738217443228,-0.001731053227558732
1772810845710665700,8.251665771484374,-0.0005326317623257637,-0.0027963167522102594,-0.0011984214652329683
1772810845720546600,8.261546630859375,-0.0005326317623257637,0.0009321055840700865,-0.00013315794058144093
1772810845730427400,8.271427490234375,0.0010652635246515274,0.0003994738217443228,-0.00013315794058144093
1772810845740308000,8.281307861328125,0.0010652635246515274,0.0003994738217443228,0.0009321055840700865
1772810845750188800,8.291188720703126,0.0010652635246515274,-0.0011984214652329683,0.0003994738217443228
1772810845760069600,8.301069580078124,-0.0010652635246515274,0.0009321055840700865,0.0009321055840700865
1772810845769950500,8.310950439453125,0.0005326317623257637,-0.00013315794058144093,-0.0011984214652329683
1772810845779831000,8.3208310546875,0.0005326317623257637,-0.0011984214652329683,0.0009321055840700865
1772810845789712000,8.3307119140625,0,0.0014647373463958502,0.0003994738217443228
1772810845799592700,8.3405927734375,-0.0005326317623257637,0.0030626326333731413,-0.00013315794058144093
1772810845809473500,8.3504736328125,-0.0010652635246515274,0.0003994738217443228,0.0014647373463958502
1772810845819354000,8.36035400390625,-0.0005326317623257637,0.0014647373463958502,-0.00013315794058144093
1772810845829235000,8.37023486328125,-0.0005326317623257637,0.0009321055840700865,-0.00013315794058144093
1772810845839115800,8.38011572265625,0,-0.0011984214652329683,-0.0006657897029072046
1772810845848996600,8.38999658203125,-0.0005326317623257637,0.001997369108721614,0.0009321055840700865
1772810845858877200,8.399877197265624,-0.0005326317623257637,0.0003994738217443228,-0.0011984214652329683
1772810845868758000,8.409758056640625,-0.0010652635246515274,0.0025300008710473776,0.0009321055840700865
1772810845878638800,8.419638916015625,-0.0010652635246515274,0.0014647373463958502,-0.0006657897029072046
1772810845888519700,8.429519775390625,0,0.0009321055840700865,-0.00013315794058144093
1772810845898400300,8.439400146484376,-0.0005326317623257637,-0.00013315794058144093,-0.00013315794058144093
1772810845908281000,8.449281005859374,0,-0.0006657897029072046,0.0025300008710473776
1772810845918162000,8.459161865234375,-0.0005326317623257637,0.0014647373463958502,0.0014647373463958502
1772810845928042800,8.469042724609375,-0.0005326317623257637,0.0009321055840700865,-0.0006657897029072046
1772810845937923300,8.47892333984375,0,-0.0006657897029072046,-0.0011984214652329683
1772810845947804200,8.48880419921875,-0.0005326317623257637,-0.0006657897029072046,-0.0006657897029072046
1772810845957685000,8.49868505859375,-0.0005326317623257637,0.0009321055840700865,0.0003994738217443228
1772810845967565800,8.50856591796875,0,-0.0011984214652329683,-0.0006657897029072046
1772810845977446400,8.5184462890625,0,-0.00013315794058144093,0.0009321055840700865
1772810845987327200,8.5283271484375,0.0005326317623257637,0.0014647373463958502,-0.00013315794058144093
1772810845997208000,8.5382080078125,0.0005326317623257637,0.0003994738217443228,0.001997369108721614
1772810846007089000,8.5480888671875,0.001597895286977291,0.0009321055840700865,0.0009321055840700865
1772810846016969700,8.5579697265625,0,-0.001731053227558732,0.0009321055840700865
1772810846026850600,8.5678505859375,-0.0010652635246515274,-0.00013315794058144093,-0.00013315794058144093
1772810846036731400,8.5777314453125,0.0005326317623257637,-0.00013315794058144093,0.0009321055840700865
1772810846046612200,8.5876123046875,-0.0005326317623257637,-0.0011984214652329683,-0.0006657897029072046
1772810846056493000,8.5974931640625,0.001597895286977291,0.0003994738217443228,0.0003994738217443228
1772810846066374000,8.607373779296875,0.0005326317623257637,0.0009321055840700865,0.0009321055840700865
1772810846076254700,8.617254638671875,0.0010652635246515274,0.0009321055840700865,-0.0011984214652329683
1772810846086135600,8.627135498046876,0.001597895286977291,0.0009321055840700865,0.0003994738217443228
1772810846096016400,8.637016357421874,0.0010652635246515274,-0.0006657897029072046,-0.00013315794058144093
1772810846105897200,8.646897216796875,-0.0010652635246515274,0.0014647373463958502,-0.0006657897029072046
1772810846115778300,8.6567783203125,0,0.0003994738217443228,0.0009321055840700865
1772810846125659100,8.6666591796875,0.0005326317623257637,-0.0022636849898844957,-0.0006657897029072046
1772810846135540000,8.6765400390625,0.0026631588116288185,-0.0022636849898844957,0.0003994738217443228
1772810846145420800,8.6864208984375,0.0010652635246515274,-0.0022636849898844957,-0.00013315794058144093
1772810846155301600,8.696301513671875,-0.0005326317623257637,0.0003994738217443228,0.0009321055840700865
1772810846165182500,8.706182373046875,0.0005326317623257637,-0.0006657897029072046,-0.00013315794058144093
1772810846175063300,8.716063232421876,0.0005326317623257637,-0.0006657897029072046,0.0009321055840700865
1772810846184944000,8.725944091796874,0.0010652635246515274,-0.00013315794058144093,-0.0006657897029072046
1772810846194825000,8.735824951171875,0.0005326317623257637,0.0009321055840700865,-0.00013315794058144093
1772810846204705800,8.745705810546875,0.0005326317623257637,0.0003994738217443228,0.0003994738217443228
1772810846214586600,8.755586669921875,0.001597895286977291,0.0003994738217443228,0.0009321055840700865
1772810846224467700,8.7654677734375,0,0.0014647373463958502,-0.0006657897029072046
1772810846234348500,8.7753486328125,0.0010652635246515274,-0.0011984214652329683,-0.00013315794058144093
1772810846244229400,8.7852294921875,0.0010652635246515274,0.0003994738217443228,0.0009321055840700865
1772810846254110200,8.795110107421875,0,-0.001597895286977291,0.0009321055840700865
1772810846263991000,8.804990966796876,-0.0005326317623257637,0.0005326317623257637,0.0009321055840700865
1772810846273872000,8.814871826171874,0.0005326317623257637,0.0005326317623257637,-0.00013315794058144093
1772810846283752700,8.824752685546875,0.001597895286977291,-0.0010652635246515274,-0.00013315794058144093
1772810846293633500,8.834633544921875,0.001597895286977291,0.0010652635246515274,0.0009321055840700865
1772810846303514400,8.844514404296875,-0.0005326317623257637,0.0010652635246515274,-0.00013315794058144093
1772810846313395200,8.854395263671876,0,-0.0005326317623257637,-0.00013315794058144093
1772810846323276000,8.864276123046874,0.0005326317623257637,0,0.0003994738217443228
1772810846333156900,8.874156982421875,-0.001597895286977291,0.0026631588116288185,-0.001731053227558732
1772810846343037700,8.88403759765625,0,0.001597895286977291,-0.00013315794058144093
1772810846352918500,8.89391845703125,0.0005326317623257637,0.0005326317623257637,0.0003994738217443228
1772810846362799600,8.903799560546876,0.0005326317623257637,-0.0010652635246515274,0.0009321055840700865
1772810846372680400,8.913680419921874,0.0005326317623257637,0.0010652635246515274,-0.00013315794058144093
1772810846382561300,8.923561279296875,0.0005326317623257637,0,0.0014647373463958502
1772810846392442000,8.933442138671875,-0.0010652635246515274,-0.001597895286977291,-0.0006657897029072046
1772810846402323000,8.943322998046876,0.0005326317623257637,0,-0.0011984214652329683
1772810846412203800,8.953203857421874,-0.0010652635246515274,0.0026631588116288185,0.0009321055840700865
1772810846431965400,8.97296533203125,0,0.0005326317623257637,-0.0006657897029072046
1772810846441846300,8.98284619140625,-0.0005326317623257637,0,0.0003994738217443228
1772810846451727000,8.99272705078125,0.0005326317623257637,-0.0010652635246515274,0.0009321055840700865
1772810846461608000,9.00260791015625,0.001597895286977291,0.0003994738217443228,0.0003994738217443228
1772810846471488800,9.01248876953125,-0.001597895286977291,0.0003994738217443228,0.0009321055840700865
1772810846481369600,9.02236962890625,-0.0005326317623257637,-0.0006657897029072046,-0.00013315794058144093
1772810846491250400,9.03225048828125,0.0005326317623257637,0.0003994738217443228,-0.001731053227558732
1772810846501131500,9.042131591796876,-0.0005326317623257637,0.0003994738217443228,0.0014647373463958502
1772810846511012400,9.052012451171874,0.0005326317623257637,0.0009321055840700865,0.0009321055840700865
1772810846520893400,9.0618935546875,-0.0010652635246515274,-0.00013315794058144093,-0.00013315794058144093
1772810846530774300,9.071774169921875,0.0005326317623257637,-0.001731053227558732,0.0003994738217443228
1772810846540655400,9.0816552734375,0.0010652635246515274,0.0030626326333731413,-0.0011984214652329683
1772810846550536200,9.0915361328125,0.002130527049303055,-0.0006657897029072046,-0.00013315794058144093
1772810846560417300,9.101417236328125,0.0005326317623257637,-0.0006657897029072046,-0.00013315794058144093
1772810846570298000,9.111298095703125,0,-0.0006657897029072046,0.0003994738217443228
1772810846580179200,9.12117919921875,0.0005326317623257637,0.0014647373463958502,0.0009321055840700865
1772810846590060000,9.13106005859375,0,-0.0011984214652329683,0.0014647373463958502
1772810846599941000,9.140941162109375,0.0005326317623257637,0.0009321055840700865,-0.0006657897029072046
1772810846609822000,9.150822021484375,-0.0010652635246515274,-0.00013315794058144093,0.0009321055840700865
1772810846619703000,9.160703125,-0.0005326317623257637,0.0014647373463958502,0.0009321055840700865
1772810846629584000,9.170583984375,0.001597895286977291,-0.0006657897029072046,0.0009321055840700865
1772810846639465000,9.18046484375,-0.0010652635246515274,-0.0006657897029072046,0.001997369108721614
1772810846649345800,9.190345703125,0.0005326317623257637,0.0003994738217443228,-0.00013315794058144093
1772810846659227000,9.200226806640625,-0.002130527049303055,-0.00013315794058144093,-0.0006657897029072046
1772810846669107700,9.210107666015626,0.0010652635246515274,-0.0006657897029072046,0.0003994738217443228
1772810846678988800,9.21998876953125,-0.0005326317623257637,0.0003994738217443228,-0.00013315794058144093
1772810846688869600,9.22986962890625,0,-0.0011984214652329683,0.0003994738217443228
1772810846698750700,9.239750732421875,0.0010652635246515274,0.0003994738217443228,-0.0006657897029072046
1772810846708631600,9.249631591796875,-0.0005326317623257637,-0.0006657897029072046,-0.0006657897029072046
1772810846718512600,9.2595126953125,0.0010652635246515274,-0.00013315794058144093,0.0003994738217443228
1772810846728393500,9.2693935546875,-0.0005326317623257637,-0.0006657897029072046,0.0003994738217443228
1772810846738274600,9.279274658203125,0,0.0003994738217443228,-0.0006657897029072046
1772810846748155400,9.2891552734375,-0.0005326317623257637,-0.0006657897029072046,-0.0006657897029072046
1772810846758036500,9.299036376953126,-0.0010652635246515274,-0.0011984214652329683,-0.0006657897029072046
1772810846767917300,9.308917236328124,0,0.0014647373463958502,-0.0006657897029072046
1772810846777798400,9.31879833984375,-0.0005326317623257637,-0.0022636849898844957,-0.0006657897029072046
1772810846787679200,9.32867919921875,-0.0005326317623257637,-0.001731053227558732,-0.00013315794058144093
1772810846797560300,9.338560302734376,-0.0010652635246515274,-0.0007989476434886456,-0.0007989476434886456
1772810846807441400,9.34844140625,0.0010652635246515274,0.0007989476434886456,-0.001864211168140173
1772810846817322200,9.358322265625,0.002130527049303055,0.00026631588116288185,-0.00026631588116288185
1772810846827203300,9.368203369140625,-0.0005326317623257637,-0.0013315794058144093,0.00026631588116288185
1772810846837084200,9.378084228515625,0,-0.00026631588116288185,0.0023968429304659367
1772810846846965200,9.38796533203125,-0.0010652635246515274,-0.0007989476434886456,-0.00026631588116288185
1772810846856846000,9.39784619140625,-0.0005326317623257637,0.00026631588116288185,-0.00026631588116288185
1772810846866727200,9.40772705078125,0,-0.00026631588116288185,-0.0013315794058144093
1772810846876608000,9.41760791015625,-0.0005326317623257637,-0.001864211168140173,-0.00026631588116288185
1772810846886489000,9.427489013671876,-0.0005326317623257637,-0.001864211168140173,-0.00026631588116288185
1772810846896370000,9.437369873046874,-0.0005326317623257637,0.0007989476434886456,0.0007989476434886456
1772810846906251000,9.4472509765625,-0.0010652635246515274,-0.00026631588116288185,-0.00026631588116288185
1772810846916131800,9.4571318359375,-0.0005326317623257637,0.0007989476434886456,-0.00026631588116288185
1772810846926013000,9.467012939453125,0.0026631588116288185,0.0007989476434886456,0.0013315794058144093
1772810846935893800,9.476893798828126,0.0005326317623257637,-0.0007989476434886456,-0.0007989476434886456
1772810846945774800,9.48677490234375,-0.0005326317623257637,-0.001864211168140173,-0.0007989476434886456
1772810846955655700,9.49665576171875,-0.0010652635246515274,-0.001864211168140173,-0.0007989476434886456
1772810846965536800,9.506536865234375,0.0005326317623257637,0.00026631588116288185,0.0007989476434886456
1772810846975417600,9.51641748046875,0.001597895286977291,-0.0013315794058144093,-0.0007989476434886456
1772810846985298700,9.526298583984374,0,0.00026631588116288185,0.00026631588116288185
1772810846995179500,9.536179443359375,0.0005326317623257637,-0.0029294746927917004,0.0007989476434886456
1772810847005060900,9.546060791015625,-0.0005326317623257637,-0.0023968429304659367,-0.00026631588116288185
1772810847014942000,9.55594189453125,-0.0005326317623257637,-0.0007989476434886456,0.00026631588116288185
1772810847024823300,9.5658232421875,0.001597895286977291,-0.0013315794058144093,-0.00026631588116288185
1772810847034704400,9.575704345703125,-0.0005326317623257637,0.00026631588116288185,0.00026631588116288185
1772810847044585700,9.585585693359375,0.0005326317623257637,-0.0013315794058144093,-0.0013315794058144093
1772810847054466800,9.595466796875,0.001597895286977291,-0.00026631588116288185,-0.0007989476434886456
1772810847064348200,9.60534814453125,0,-0.00026631588116288185,-0.0023968429304659367
1772810847074229200,9.615229248046875,0.0005326317623257637,0.0007989476434886456,-0.0007989476434886456
1772810847084110600,9.625110595703125,0.0010652635246515274,-0.00026631588116288185,-0.00026631588116288185
1772810847093991700,9.63499169921875,0.0005326317623257637,0.0013315794058144093,-0.0013315794058144093
1772810847103873000,9.644873046875,0.0005326317623257637,0.00026631588116288185,0.00026631588116288185
1772810847113754000,9.654754150390625,-0.0010652635246515274,-0.001864211168140173,-0.00026631588116288185
1772810847123635500,9.664635498046875,0.0005326317623257637,-0.00026631588116288185,0.0007989476434886456
1772810847133516500,9.6745166015625,0,0.00026631588116288185,-0.0029294746927917004
1772810847143398000,9.68439794921875,-0.0005326317623257637,-0.00026631588116288185,-0.0013315794058144093
1772810847153279000,9.694279052734375,-0.0010652635246515274,0.00026631588116288185,-0.00026631588116288185
1772810847163160300,9.704160400390625,-0.0010652635246515274,0.0013315794058144093,-0.00026631588116288185
1772810847173041700,9.714041748046874,-0.0005326317623257637,0.0013315794058144093,-0.0007989476434886456
1772810847192804000,9.73380419921875,-0.0010652635246515274,0.0007989476434886456,-0.0007989476434886456
1772810847202685200,9.743685302734375,-0.0005326317623257637,0.00026631588116288185,-0.0007989476434886456
1772810847212566500,9.75356640625,-0.0005326317623257637,0.00026631588116288185,-0.0007989476434886456
1772810847222447600,9.763447509765625,0.0005326317623257637,-0.0007989476434886456,-0.0013315794058144093
1772810847232329000,9.773328857421875,-0.002130527049303055,0.0013315794058144093,-0.0007989476434886456
1772810847242210000,9.7832099609375,-0.0010652635246515274,-0.0013315794058144093,0.0013315794058144093
1772810847252091400,9.79309130859375,-0.0005326317623257637,-0.00026631588116288185,0.00026631588116288185
1772810847261972500,9.802972412109375,-0.0005326317623257637,0.00026631588116288185,0.00026631588116288185
1772810847271853800,9.812853759765625,0,-0.0013315794058144093,-0.001864211168140173
1772810847281735000,9.82273486328125,0.0005326317623257637,0.001864211168140173,-0.0007989476434886456
1772810847291616300,9.8326162109375,-0.0010652635246515274,0.0007989476434886456,-0.001864211168140173
1772810847301497600,9.84249755859375,-0.002130527049303055,-0.0023968429304659367,-0.00026631588116288185
1772810847311378700,9.852378662109375,-0.0005326317623257637,-0.0007989476434886456,0.0013315794058144093
1772810847321260000,9.862260009765626,-0.0005326317623257637,0.00026631588116288185,-0.0013315794058144093
1772810847331141000,9.87214111328125,-0.0005326317623257637,0.0013315794058144093,0.00026631588116288185
1772810847341022500,9.8820224609375,-0.0005326317623257637,0.00026631588116288185,0.00026631588116288185
1772810847350903600,9.891903564453125,0.0010652635246515274,-0.0007989476434886456,-0.00026631588116288185
1772810847360785000,9.901784912109376,-0.0005326317623257637,-0.0013315794058144093,-0.00026631588116288185
1772810847370666000,9.911666015625,0.0005326317623257637,-0.001864211168140173,-0.0013315794058144093
1772810847380547300,9.92154736328125,0.0010652635246515274,0.0013315794058144093,-0.0007989476434886456
1772810847390428400,9.931428466796875,0,-0.001864211168140173,-0.00026631588116288185
1772810847400309800,9.941309814453126,0,-0.00026631588116288185,0.0007989476434886456
1772810847410190800,9.95119091796875,0.0010652635246515274,-0.001864211168140173,-0.0007989476434886456
1772810847420072200,9.961072265625,0,0.0013315794058144093,0.00026631588116288185
1772810847429953300,9.970953369140625,0,-0.00026631588116288185,-0.001864211168140173
1772810847439834600,9.980834716796876,0.0005326317623257637,-0.001864211168140173,-0.0013315794058144093
1772810847449715700,9.9907158203125,0,-0.00026631588116288185,0.00026631588116288185
1772810847459597000,10.00059716796875,0.0010652635246515274,-0.00026631588116288185,0.00026631588116288185
1772810847469478100,10.01047802734375,0.0005326317623257637,-0.0007989476434886456,-0.0013315794058144093
1772810847479359500,10.020359375,0.0005326317623257637,-0.001864211168140173,-0.00026631588116288185
1772810847489240800,10.03024072265625,0,-0.00026631588116288185,-0.00026631588116288185
1772810847499122000,10.040121826171875,0.0010652635246515274,-0.00026631588116288185,0.00026631588116288185
1772810847509003000,10.0500029296875,0.0010652635246515274,-0.0007989476434886456,-0.00026631588116288185
1772810847518884000,10.059884033203126,0,-0.0007989476434886456,0.00026631588116288185
1772810847528765200,10.06976513671875,-0.0005326317623257637,0.00026631588116288185,0.0007989476434886456
1772810847548527600,10.089527587890625,0.0010652635246515274,0.0013315794058144093,0.00026631588116288185
1772810847558408700,10.09940869140625,-0.0005326317623257637,-0.001864211168140173,0.00026631588116288185
1772810847568289800,10.109289794921875,-0.0005326317623257637,-0.0007989476434886456,-0.00026631588116288185
1772810847578171100,10.119171142578125,0.0010652635246515274,-0.001864211168140173,-0.00026631588116288185
1772810847588052200,10.12905224609375,-0.0005326317623257637,-0.0007989476434886456,0.0013315794058144093
1772810847597933300,10.138933349609376,0.0005326317623257637,0.0007989476434886456,-0.001864211168140173
1772810847607814400,10.148814453125,-0.001597895286977291,0.0007989476434886456,-0.00026631588116288185
1772810847617695500,10.158695556640625,0,-0.00026631588116288185,0.0023968429304659367
1772810847627576800,10.168576904296875,0.0005326317623257637,0.0013315794058144093,-0.0023968429304659367
1772810847637458000,10.1784580078125,0.0010652635246515274,0.0013315794058144093,0.0013315794058144093
1772810847647339000,10.188339111328125,-0.001597895286977291,0.001864211168140173,-0.0007989476434886456
1772810847657220000,10.19822021484375,0.0010652635246515274,-0.0007989476434886456,0.0007989476434886456
1772810847667101400,10.208101318359375,0.001597895286977291,-0.0013315794058144093,-0.00026631588116288185
1772810847676982500,10.217982421875,0,-0.0007989476434886456,0.0007989476434886456
1772810847686863600,10.227863525390624,-0.0005326317623257637,-0.00026631588116288185,0.00026631588116288185
1772810847696744700,10.23774462890625,0,-0.0013315794058144093,-0.00026631588116288185
1772810847706625800,10.247625732421875,0.0005326317623257637,-0.00026631588116288185,-0.00026631588116288185
1772810847716507100,10.257507080078126,-0.0005326317623257637,0.0013315794058144093,0.00026631588116288185
1772810847726388200,10.26738818359375,0.0005326317623257637,-0.0013315794058144093,0.00026631588116288185
1772810847736269300,10.277269287109375,0.0005326317623257637,-0.0013315794058144093,0.00026631588116288185
1772810847746150400,10.287150390625,-0.001597895286977291,0.00026631588116288185,0.0007989476434886456
1772810847756031700,10.29703173828125,-0.002130527049303055,0.00026631588116288185,-0.0013315794058144093
1772810847765912800,10.306912841796875,0,-0.00026631588116288185,-0.0013315794058144093
1772810847775794000,10.3167939453125,0,0.00026631588116288185,-0.00026631588116288185
1772810847795556400,10.336556396484376,-0.001597895286977291,-0.0013315794058144093,0.0007989476434886456
1772810847805437400,10.3464375,0.0010652635246515274,0.00026631588116288185,-0.001864211168140173
1772810847815318500,10.356318603515625,0,0.0007989476434886456,-0.00026631588116288185
1772810847825199600,10.36619970703125,0,-0.0007989476434886456,-0.0007989476434886456
1772810847835080700,10.376080810546876,0,-0.00026631588116288185,-0.0007989476434886456
1772810847844962000,10.385962158203125,0.0005326317623257637,-0.0007989476434886456,-0.0013315794058144093
1772810847854843100,10.395843017578125,-0.0005326317623257637,-0.00026631588116288185,-0.0013315794058144093
1772810847864724200,10.40572412109375,-0.0010652635246515274,-0.001864211168140173,-0.0007989476434886456
1772810847874605300,10.415605224609376,-0.0005326317623257637,-0.0007989476434886456,-0.0013315794058144093
1772810847884486700,10.425486572265624,0,0.0013315794058144093,-0.00026631588116288185
1772810847894367700,10.43536767578125,-0.001597895286977291,0.0007989476434886456,0.00026631588116288185
1772810847904248800,10.445248779296875,-0.0005326317623257637,0.0023968429304659367,-0.0007989476434886456
1772810847914130000,10.4551298828125,-0.001597895286977291,0.00026631588116288185,-0.0007989476434886456
1772810847924011000,10.465010986328124,0.0005326317623257637,-0.0013315794058144093,-0.0029294746927917004
1772810847933892400,10.474892333984375,0.002130527049303055,0.0023968429304659367,-0.0013315794058144093
1772810847943773400,10.4847734375,0.0005326317623257637,-0.00026631588116288185,-0.00026631588116288185
1772810847953654500,10.494654541015626,0,-0.00026631588116288185,-0.00026631588116288185
1772810847963535600,10.50453564453125,-0.0005326317623257637,0.001864211168140173,-0.00026631588116288185
1772810847973417000,10.5144169921875,0.0005326317623257637,-0.001864211168140173,0.0013315794058144093
1772810847983298000,10.524298095703125,-0.0005326317623257637,-0.00026631588116288185,0.0013315794058144093
1772810847993179100,10.53417919921875,0,-0.0023968429304659367,-0.00026631588116288185
1772810848003060200,10.544060302734374,-0.0005326317623257637,0.00026631588116288185,-0.00026631588116288185
1772810848012941600,10.553941650390625,0.0005326317623257637,-0.00026631588116288185,-0.0007989476434886456
1772810848022823000,10.563822998046875,-0.0010652635246515274,-0.0013315794058144093,-0.00026631588116288185
1772810848032704000,10.5737041015625,0,-0.0029294746927917004,-0.001864211168140173
1772810848042585300,10.58358544921875,0,-0.0007989476434886456,-0.00026631588116288185
1772810848052466400,10.593466552734375,0.0005326317623257637,0.0013315794058144093,0.0007989476434886456
1772810848062347800,10.60334765625,0,-0.0007989476434886456,-0.0007989476434886456
1772810848072228900,10.613228759765626,0.001597895286977291,-0.0007989476434886456,-0.00026631588116288185
1772810848082110200,10.623110107421875,0,-0.0013315794058144093,-0.0007989476434886456
1772810848091991600,10.632991455078125,-0.0005326317623257637,-0.0013315794058144093,-0.00026631588116288185
1772810848101872600,10.64287255859375,-0.0010652635246515274,0.0013315794058144093,0.0007989476434886456
1772810848111754000,10.65275390625,-0.0005326317623257637,-0.0013315794058144093,-0.0013315794058144093
1772810848121635300,10.66263525390625,0.001597895286977291,-0.00026631588116288185,-0.00026631588116288185
1772810848131516400,10.672516357421875,0.0005326317623257637,0.00026631588116288185,0.001864211168140173
1772810848141397800,10.682397705078126,-0.0005326317623257637,-0.0013315794058144093,0.00026631588116288185
1772810848151278800,10.69227880859375,0.001597895286977291,-0.00026631588116288185,0.00026631588116288185
1772810848161160200,10.70216015625,0.001597895286977291,0.0023968429304659367,0.0007989476434886456
1772810848171041500,10.71204150390625,0.0005326317623257637,0.00026631588116288185,0.00026631588116288185
1772810848180922600,10.721922607421876,0.0005326317623257637,-0.0013315794058144093,-0.00026631588116288185
1772810848190804000,10.731803955078124,-0.0010652635246515274,0.0023968429304659367,0.0007989476434886456
1772810848200685300,10.741685302734375,-0.001597895286977291,-0.001864211168140173,-0.0007989476434886456
1772810848210566400,10.75156640625,0,0.003462106455117464,0.0029294746927917004
1772810848220447700,10.76144775390625,0,0.0029294746927917004,0.0023968429304659367
1772810848230328800,10.771328857421874,-0.0005326317623257637,0.0007989476434886456,-0.00026631588116288185
1772810848240210200,10.781210205078125,0.0005326317623257637,0.0023968429304659367,-0.0007989476434886456
1772810848250091300,10.79109130859375,0.0010652635246515274,-0.00026631588116288185,-0.0013315794058144093
1772810848259972600,10.80097265625,0,-0.0007989476434886456,-0.00026631588116288185
1772810848269854000,10.81085400390625,0,-0.001864211168140173,-0.001864211168140173
1772810848279735000,10.820735107421875,0.0005326317623257637,-0.0007989476434886456,-0.001864211168140173
1772810848289616400,10.830616455078125,0.0010652635246515274,-0.005592633504420519,-0.001864211168140173
1772810848299497500,10.84049755859375,-0.0005326317623257637,-0.007723160553723574,-0.001864211168140173
1772810848309378800,10.85037890625,0,-0.005060001742094755,0.0007989476434886456
1772810848319260200,10.86026025390625,0,-0.003994738217443228,-0.0023968429304659367
