time,seconds_elapsed,z,y,x
1772810494298350000,0.19135009765625,0.004394211806356907,-0.0027963167522102594,-0.0010652635246515274
1772810494308230100,0.201230224609375,-0.0014647373463958502,-0.00013315794058144093,0.0010652635246515274
1772810494318110000,0.21110986328125,0.001731053227558732,-0.0006657897029072046,0.0005326317623257637
1772810494327990000,0.220989990234375,0.00013315794058144093,0.0009321055840700865,0.0005326317623257637
1772810494337869800,0.230869873046875,0.00013315794058144093,0.001997369108721614,0.0005326317623257637
1772810494347750000,0.24075,-0.0009321055840700865,0.0014647373463958502,0
1772810494357629700,0.250629638671875,0.0006657897029072046,-0.0006657897029072046,0
1772810494367509500,0.260509521484375,0.0006657897029072046,0.0009321055840700865,-0.0005326317623257637
1772810494377389600,0.2703896484375,-0.0009321055840700865,-0.00013315794058144093,0
1772810494387269400,0.280269287109375,-0.0003994738217443228,-0.001731053227558732,-0.0010652635246515274
1772810494397149400,0.2901494140625,0.00013315794058144093,-0.0006657897029072046,-0.0005326317623257637
1772810494407029200,0.300029296875,0.00013315794058144093,0.0003994738217443228,-0.0005326317623257637
1772810494416909000,0.309908935546875,0.0006657897029072046,-0.0011984214652329683,0
1772810494426789000,0.3197890625,0.00013315794058144093,-0.00013315794058144093,0.0005326317623257637
1772810494436669000,0.3296689453125,0.0011984214652329683,0.0009321055840700865,0.0005326317623257637
1772810494446549000,0.339549072265625,0.0006657897029072046,-0.00013315794058144093,-0.0005326317623257637
1772810494456428800,0.3494287109375,-0.0003994738217443228,0.0003994738217443228,-0.001597895286977291
1772810494466308900,0.359308837890625,0.0011984214652329683,0.0003994738217443228,0
1772810494476188700,0.369188720703125,0.00013315794058144093,-0.0006657897029072046,-0.0005326317623257637
1772810494486068500,0.379068359375,0.00013315794058144093,-0.001731053227558732,0
1772810494495948300,0.3889482421875,0.0005326317623257637,-0.0005326317623257637,0.0006657897029072046
1772810494505827300,0.398827392578125,0,0.0010652635246515274,0.0011984214652329683
1772810494515706400,0.408706298828125,-0.001597895286977291,0,0.0006657897029072046
1772810494525585400,0.41858544921875,-0.0005326317623257637,0,0.0006657897029072046
1772810494535464400,0.42846435546875,0.0005326317623257637,0.0005326317623257637,-0.0009321055840700865
1772810494545343500,0.438343505859375,-0.001597895286977291,0.0010652635246515274,0.00013315794058144093
1772810494555222300,0.44822216796875,0.0005326317623257637,0.0010652635246515274,0.00013315794058144093
1772810494565101300,0.458101318359375,-0.0010652635246515274,0,0.0006657897029072046
1772810494574980400,0.46798046875,0.001597895286977291,0,0.001731053227558732
1772810494584859400,0.477859375,-0.0005326317623257637,0,0.0006657897029072046
1772810494594738400,0.487738525390625,0.0005326317623257637,0.0005326317623257637,-0.0009321055840700865
1772810494604617500,0.497617431640625,0,0,0.0006657897029072046
1772810494614496500,0.50749658203125,0,-0.0005326317623257637,0.00013315794058144093
1772810494624375600,0.51737548828125,0,0,0.001731053227558732
1772810494634254600,0.527254638671875,0,0.002130527049303055,0.0011984214652329683
1772810494644133400,0.53713330078125,0.0010652635246515274,-0.0010652635246515274,0.0011984214652329683
1772810494654012400,0.547012451171875,0.0005326317623257637,0.0010652635246515274,0.00013315794058144093
1772810494663891500,0.556891357421875,-0.0005326317623257637,-0.0010652635246515274,-0.0003994738217443228
1772810494673770500,0.5667705078125,0.0010652635246515274,0.001597895286977291,0.0011984214652329683
1772810494683649500,0.5766494140625,-0.001597895286977291,0.0005326317623257637,0.0006657897029072046
1772810494693528600,0.586528564453125,-0.0005326317623257637,-0.001597895286977291,0.00013315794058144093
1772810494703407600,0.59640771484375,0.0005326317623257637,0.0010652635246515274,0.0006657897029072046
1772810494713286700,0.60628662109375,-0.0010652635246515274,0.0005326317623257637,0.0011984214652329683
1772810494723165700,0.616165771484375,-0.0010652635246515274,0,0.0006657897029072046
1772810494733044500,0.62604443359375,-0.0010652635246515274,-0.0010652635246515274,0.00013315794058144093
1772810494742923500,0.635923583984375,0,0.0005326317623257637,-0.0003994738217443228
1772810494752802600,0.645802490234375,-0.0010652635246515274,0.0005326317623257637,0.0011984214652329683
1772810494762681600,0.655681640625,0,-0.001597895286977291,-0.0003994738217443228
1772810494772560600,0.665560546875,0.0005326317623257637,0.0010652635246515274,0.0006657897029072046
1772810494782439700,0.675439697265625,0.0005326317623257637,-0.0010652635246515274,0.0006657897029072046
1772810494792318700,0.685318603515625,-0.0010652635246515274,0.0005326317623257637,-0.0014647373463958502
1772810494802197800,0.69519775390625,-0.0010652635246515274,0.0005326317623257637,-0.0003994738217443228
1772810494812076500,0.70507666015625,0.0005326317623257637,0.0010652635246515274,-0.0003994738217443228
1772810494821955600,0.71495556640625,-0.0005326317623257637,0,0.0006657897029072046
1772810494831834600,0.724834716796875,0.0005326317623257637,0.0005326317623257637,-0.0009321055840700865
1772810494841713700,0.734713623046875,0,-0.0010652635246515274,0.00013315794058144093
1772810494851592700,0.7445927734375,0,-0.0026631588116288185,0.00013315794058144093
1772810494861471700,0.7544716796875,-0.0005326317623257637,0.0005326317623257637,0.00013315794058144093
1772810494871350800,0.764350830078125,0,0.0005326317623257637,0.0006657897029072046
1772810494881229800,0.774229736328125,0,0.002130527049303055,-0.0003994738217443228
1772810494891108900,0.78410888671875,-0.0005326317623257637,0.0026631588116288185,0.00013315794058144093
1772810494900987600,0.793987548828125,-0.0005326317623257637,-0.0010652635246515274,0.001731053227558732
1772810494910866700,0.80386669921875,0,-0.0005326317623257637,0.00013315794058144093
1772810494920745700,0.813745849609375,0,-0.0010652635246515274,-0.001997369108721614
1772810494930624800,0.823624755859375,0.0010652635246515274,0.0005326317623257637,0.0011984214652329683
1772810494940503800,0.83350390625,-0.0005326317623257637,0.0010652635246515274,0.0011984214652329683
1772810494950382800,0.8433828125,0,0.0010652635246515274,-0.0009321055840700865
1772810494960262000,0.853261962890625,-0.0005326317623257637,0.0010652635246515274,-0.0003994738217443228
1772810494970141000,0.863140869140625,-0.001597895286977291,0,0.0006657897029072046
1772810494980020000,0.87302001953125,-0.0010652635246515274,0,0.0006657897029072046
1772810494989898800,0.882898681640625,0,-0.0010652635246515274,-0.0009321055840700865
1772810494999778600,0.892778564453125,-0.0005326317623257637,0,0.00013315794058144093
1772810495009658600,0.90265869140625,0.0005326317623257637,0,-0.0009321055840700865
1772810495019538700,0.91253857421875,0.0010652635246515274,-0.001597895286977291,0.0006657897029072046
1772810495029419000,0.9224189453125,-0.0005326317623257637,-0.0005326317623257637,0.00013315794058144093
1772810495039299000,0.932299072265625,0.002130527049303055,0.0005326317623257637,0.0006657897029072046
1772810495049179100,0.94217919921875,0,0,-0.0003994738217443228
1772810495059059200,0.95205908203125,-0.001597895286977291,0.0005326317623257637,0.00013315794058144093
1772810495068939500,0.961939453125,0.0010652635246515274,-0.002130527049303055,-0.0003994738217443228
1772810495078819600,0.971819580078125,0,0.002130527049303055,-0.001997369108721614
1772810495088700000,0.981699951171875,0,0.0005326317623257637,-0.0003994738217443228
1772810495098580000,0.991580078125,-0.0010652635246515274,-0.0010652635246515274,0.0011984214652329683
1772810495108460000,1.0014599609375,0,-0.0010652635246515274,0.00013315794058144093
1772810495118340400,1.01134033203125,0,-0.0005326317623257637,0.00013315794058144093
1772810495128220400,1.021220458984375,0,0.001597895286977291,-0.0003994738217443228
1772810495138100500,1.0311005859375,0,0.0010652635246515274,-0.0009321055840700865
1772810495147980800,1.040980712890625,0,0.001597895286977291,0.00013315794058144093
1772810495157860900,1.05086083984375,-0.001597895286977291,-0.0010652635246515274,-0.0003994738217443228
1772810495167741000,1.060740966796875,-0.0005326317623257637,-0.0010652635246515274,-0.0009321055840700865
1772810495177621200,1.070621337890625,-0.0010652635246515274,0.0010652635246515274,0.0011984214652329683
1772810495187501300,1.080501220703125,0.0005326317623257637,-0.0005326317623257637,-0.0003994738217443228
1772810495197381400,1.09038134765625,0.0005326317623257637,0.0010652635246515274,-0.0003994738217443228
1772810495207261700,1.10026171875,-0.0010652635246515274,0,0.0006657897029072046
1772810495217141800,1.110141845703125,0.0010652635246515274,-0.0005326317623257637,0.00013315794058144093
1772810495227021800,1.120021728515625,-0.0005326317623257637,0.0010652635246515274,-0.0003994738217443228
1772810495236902100,1.129902099609375,0.0010652635246515274,-0.0010652635246515274,-0.0003994738217443228
1772810495246782200,1.1397822265625,0,0.0010652635246515274,-0.0014647373463958502
1772810495256662300,1.149662353515625,0,0,-0.0009321055840700865
1772810495266542600,1.15954248046875,-0.0010652635246515274,0,0.00013315794058144093
1772810495276422700,1.169422607421875,-0.0010652635246515274,0,-0.0003994738217443228
1772810495286302700,1.179302734375,0,0.002130527049303055,-0.0003994738217443228
1772810495296183000,1.18918310546875,-0.0010652635246515274,0.0005326317623257637,-0.0003994738217443228
1772810495306063000,1.19906298828125,0,0.0010652635246515274,-0.0003994738217443228
1772810495315943200,1.208943115234375,0.0005326317623257637,0.001597895286977291,-0.0003994738217443228
1772810495325823500,1.218823486328125,0.0010652635246515274,-0.0005326317623257637,0.0006657897029072046
1772810495335703600,1.22870361328125,-0.0005326317623257637,0.001597895286977291,0.00013315794058144093
1772810495345583900,1.238583984375,0.0010652635246515274,0.001597895286977291,0.0011984214652329683
1772810495355464000,1.2484638671875,0,0.002130527049303055,-0.001997369108721614
1772810495365344000,1.258343994140625,0.001597895286977291,-0.0005326317623257637,0.0011984214652329683
1772810495375224000,1.26822412109375,0.0005326317623257637,0.001597895286977291,-0.0009321055840700865
1772810495385104400,1.2781044921875,0.0005326317623257637,0.0005326317623257637,-0.0009321055840700865
1772810495394984400,1.287984375,0,0.002130527049303055,0.00013315794058144093
1772810495404864500,1.297864501953125,-0.0005326317623257637,-0.0005326317623257637,0.0011984214652329683
1772810495414744800,1.307744873046875,0,0.001597895286977291,-0.0003994738217443228
1772810495424625000,1.317625,-0.001597895286977291,-0.0005326317623257637,0.00013315794058144093
1772810495434505200,1.327505126953125,-0.001597895286977291,0.0005326317623257637,0.0006657897029072046
1772810495444385300,1.33738525390625,-0.002130527049303055,0,-0.0009321055840700865
1772810495454265300,1.347265380859375,-0.0005326317623257637,-0.0010652635246515274,0.00013315794058144093
1772810495464145700,1.357145751953125,-0.001597895286977291,-0.0010652635246515274,0.00013315794058144093
1772810495474025700,1.367025634765625,-0.0010652635246515274,-0.001597895286977291,-0.0003994738217443228
1772810495483905800,1.37690576171875,0.0005326317623257637,0.0010652635246515274,0.0006657897029072046
1772810495493786000,1.3867861328125,0.001597895286977291,0.0005326317623257637,0.0006657897029072046
1772810495503666000,1.396666015625,0.0010652635246515274,-0.0005326317623257637,0.001731053227558732
1772810495513546000,1.4065458984375,0,0.0010652635246515274,0.001731053227558732
1772810495523426000,1.416426025390625,0.0005326317623257637,0.0005326317623257637,0.0022636849898844957
1772810495533306000,1.42630615234375,-0.0010652635246515274,0.0005326317623257637,-0.0003994738217443228
1772810495543186200,1.436186279296875,-0.0010652635246515274,-0.0005326317623257637,0.0006657897029072046
1772810495553066200,1.446066162109375,0.0005326317623257637,0,0.0006657897029072046
1772810495562946300,1.4559462890625,0.0010652635246515274,0.0005326317623257637,-0.0003994738217443228
1772810495572826400,1.465826416015625,0.0005326317623257637,-0.001597895286977291,0.00013315794058144093
1772810495582706400,1.47570654296875,0.0005326317623257637,-0.001597895286977291,0.0011984214652329683
1772810495592586500,1.48558642578125,0.001597895286977291,-0.0005326317623257637,0.0006657897029072046
1772810495602466600,1.495466552734375,-0.0005326317623257637,-0.0010652635246515274,0.00013315794058144093
1772810495612346600,1.5053466796875,0.0010652635246515274,0.001597895286977291,0.0006657897029072046
1772810495622226700,1.515226806640625,0.002130527049303055,0.0010652635246515274,0.001731053227558732
1772810495632106800,1.525106689453125,0,0.0005326317623257637,0.00013315794058144093
1772810495641986800,1.53498681640625,0.0005326317623257637,0,0.0011984214652329683
1772810495651867000,1.544866943359375,-0.0010652635246515274,-0.0010652635246515274,-0.001997369108721614
1772810495661747000,1.554746826171875,0,0.0010652635246515274,-0.0003994738217443228
1772810495681506800,1.5745068359375,0,0,-0.0003994738217443228
1772810495691387000,1.584386962890625,-0.0010652635246515274,0.003195790573954582,0.00013315794058144093
1772810495701267000,1.594266845703125,0.0005326317623257637,0,-0.0009321055840700865
1772810495711147000,1.60414697265625,0.0010652635246515274,0.0005326317623257637,-0.0009321055840700865
1772810495721027000,1.614027099609375,0,-0.0005326317623257637,0.00013315794058144093
1772810495730907100,1.6239072265625,0,-0.001597895286977291,0.00013315794058144093
1772810495740787200,1.633787109375,0.0005326317623257637,-0.0005326317623257637,0.0011984214652329683
1772810495750667300,1.643667236328125,-0.0010652635246515274,-0.002130527049303055,0.0006657897029072046
1772810495760547300,1.65354736328125,0,0.0005326317623257637,0.0011984214652329683
1772810495780307500,1.673307373046875,-0.0010652635246515274,0.0005326317623257637,0.0006657897029072046
1772810495790187500,1.6831875,0.0010652635246515274,-0.0005326317623257637,-0.0003994738217443228
1772810495800067600,1.693067626953125,-0.0010652635246515274,0,0.00013315794058144093
1772810495809947400,1.702947509765625,-0.0005326317623257637,0.0005326317623257637,0.0006657897029072046
1772810495819827500,1.712827392578125,-0.0005326317623257637,-0.0005326317623257637,0.00013315794058144093
1772810495829707500,1.72270751953125,0.0005326317623257637,0.0005326317623257637,0.00013315794058144093
1772810495839587600,1.732587646484375,0,0,0.0006657897029072046
1772810495849467600,1.742467529296875,0.0010652635246515274,-0.0010652635246515274,0.00013315794058144093
1772810495859347700,1.75234765625,0.0005326317623257637,0.0010652635246515274,0.0006657897029072046
1772810495869227800,1.762227783203125,0,-0.0010652635246515274,-0.0014647373463958502
1772810495879107800,1.77210791015625,0.001597895286977291,0.0005326317623257637,-0.0003994738217443228
1772810495888988000,1.78198779296875,-0.0005326317623257637,0.0005326317623257637,0.00013315794058144093
1772810495898868000,1.791867919921875,0,-0.0005326317623257637,-0.0014647373463958502
1772810495908748000,1.801748046875,-0.0026631588116288185,0.0005326317623257637,0.00013315794058144093
1772810495918628000,1.811628173828125,0,-0.0010652635246515274,-0.0014647373463958502
1772810495928508200,1.821508056640625,-0.0005326317623257637,0,0.003328948514536023
1772810495938388200,1.83138818359375,0,0,-0.0003994738217443228
1772810495948268300,1.841268310546875,-0.0005326317623257637,0.001597895286977291,-0.0003994738217443228
1772810495958148400,1.8511484375,-0.0010652635246515274,0,0.0027963167522102594
1772810495968028200,1.861028076171875,-0.0005326317623257637,0,0.00013315794058144093
1772810495977908200,1.870908203125,-0.0010652635246515274,0,-0.0009321055840700865
1772810495997668600,1.890668701171875,0,0.001597895286977291,0.0006657897029072046
1772810496007549000,1.900548828125,-0.001597895286977291,0.0010652635246515274,-0.0003994738217443228
1772810496017429200,1.91042919921875,-0.001597895286977291,-0.0005326317623257637,0.00013315794058144093
1772810496027309600,1.9203095703125,-0.0010652635246515274,-0.001597895286977291,0.0011984214652329683
1772810496037190100,1.930190185546875,-0.0005326317623257637,0,-0.0003994738217443228
1772810496047070500,1.940070556640625,0.0005326317623257637,0.0010652635246515274,0.001731053227558732
1772810496056950800,1.94995068359375,-0.0005326317623257637,-0.0010652635246515274,0.00013315794058144093
1772810496066831400,1.959831298828125,0.0005326317623257637,0.0005326317623257637,0.00013315794058144093
1772810496076711700,1.969711669921875,-0.0010652635246515274,0,0.00013315794058144093
1772810496086592300,1.97959228515625,-0.0005326317623257637,-0.0026631588116288185,0.0011984214652329683
1772810496096472600,1.98947265625,0,0.0010652635246515274,-0.0003994738217443228
1772810496106353000,1.999352783203125,-0.0010652635246515274,0.0010652635246515274,0.0011984214652329683
1772810496116233200,2.009233154296875,-0.0010652635246515274,0.0010652635246515274,0.00013315794058144093
1772810496126113800,2.01911376953125,-0.001597895286977291,0.0005326317623257637,-0.0003994738217443228
1772810496135994000,2.028994140625,0,-0.0010652635246515274,0.0006657897029072046
1772810496145874400,2.03887451171875,0.0010652635246515274,-0.0005326317623257637,-0.0003994738217443228
1772810496155755000,2.048755126953125,-0.0010652635246515274,-0.0005326317623257637,-0.0009321055840700865
1772810496165635300,2.05863525390625,0.001597895286977291,0.0010652635246515274,-0.0003994738217443228
1772810496175516000,2.068515869140625,-0.0005326317623257637,0.0005326317623257637,-0.0014647373463958502
1772810496185396200,2.078396240234375,-0.0010652635246515274,0.0005326317623257637,-0.0003994738217443228
1772810496195276500,2.088276611328125,0.0010652635246515274,0.0005326317623257637,0.0011984214652329683
1772810496205156900,2.098156982421875,-0.0005326317623257637,0.0005326317623257637,0.00013315794058144093
1772810496215037400,2.108037353515625,0.001597895286977291,-0.001597895286977291,0.001731053227558732
1772810496224917800,2.117917724609375,0.001597895286977291,0.0005326317623257637,-0.0003994738217443228
1772810496234798000,2.127798095703125,0,0.0026631588116288185,0.00013315794058144093
1772810496244678700,2.1376787109375,-0.0005326317623257637,-0.0005326317623257637,0.0006657897029072046
1772810496254559000,2.14755908203125,0,0.0010652635246515274,0.0006657897029072046
1772810496264439300,2.157439208984375,-0.0005326317623257637,-0.0010652635246515274,0.00013315794058144093
1772810496274320000,2.16731982421875,-0.0003994738217443228,-0.001731053227558732,-0.0005326317623257637
1772810496284200200,2.1772001953125,-0.0003994738217443228,0.0003994738217443228,0.0005326317623257637
1772810496294080500,2.18708056640625,0.0006657897029072046,0.0003994738217443228,-0.0005326317623257637
1772810496303961000,2.196961181640625,0.0006657897029072046,-0.0011984214652329683,-0.0005326317623257637
1772810496323721700,2.2167216796875,-0.0003994738217443228,-0.0011984214652329683,0.0005326317623257637
1772810496333602300,2.226602294921875,0.00013315794058144093,0.0014647373463958502,-0.0005326317623257637
1772810496343482600,2.236482666015625,-0.0009321055840700865,0.0003994738217443228,0
1772810496353363000,2.246363037109375,-0.0014647373463958502,-0.0011984214652329683,0.0005326317623257637
1772810496363243500,2.256243408203125,-0.0003994738217443228,-0.0011984214652329683,0.0005326317623257637
1772810496373123800,2.266123779296875,0.0006657897029072046,-0.0006657897029072046,0.0010652635246515274
1772810496383004200,2.276004150390625,0.00013315794058144093,-0.0006657897029072046,-0.0010652635246515274
1772810496392884700,2.285884765625,0.00013315794058144093,-0.0006657897029072046,-0.0005326317623257637
1772810496402765000,2.29576513671875,-0.0003994738217443228,0.0009321055840700865,0
1772810496412645600,2.305645751953125,0.00013315794058144093,0.0003994738217443228,0.0005326317623257637
1772810496422526000,2.31552587890625,-0.001997369108721614,0.0009321055840700865,0
1772810496432406300,2.32540625,-0.0009321055840700865,-0.0011984214652329683,-0.0005326317623257637
1772810496442286600,2.33528662109375,0.0011984214652329683,0.0009321055840700865,-0.0010652635246515274
1772810496452167200,2.345167236328125,-0.0014647373463958502,-0.0006657897029072046,-0.0005326317623257637
1772810496462047500,2.355047607421875,-0.0003994738217443228,-0.0006657897029072046,0.0005326317623257637
1772810496471927800,2.364927734375,0.00013315794058144093,-0.0006657897029072046,0.0005326317623257637
1772810496481808400,2.374808349609375,0.0006657897029072046,0.0003994738217443228,0.0010652635246515274
1772810496491688700,2.384688720703125,0.0006657897029072046,0.0003994738217443228,0.0005326317623257637
1772810496501568800,2.39456884765625,0.001731053227558732,0.0014647373463958502,0.0005326317623257637
1772810496511448600,2.404448486328125,0.00013315794058144093,-0.001731053227558732,0.0005326317623257637
1772810496521328400,2.414328369140625,-0.0009321055840700865,0.0003994738217443228,0.0010652635246515274
1772810496531208200,2.424208251953125,0.00013315794058144093,-0.00013315794058144093,0
1772810496541088000,2.434087890625,0.0011984214652329683,-0.00013315794058144093,0
1772810496550967800,2.4439677734375,0.0006657897029072046,0.0009321055840700865,0
1772810496560847600,2.45384765625,-0.0003994738217443228,-0.00013315794058144093,0.001597895286977291
1772810496570727400,2.4637275390625,0.00013315794058144093,-0.00013315794058144093,-0.0005326317623257637
1772810496580607200,2.473607177734375,-0.0003994738217443228,0.0009321055840700865,0.0005326317623257637
1772810496600367000,2.4933671875,-0.0009321055840700865,-0.0006657897029072046,0.0005326317623257637
1772810496610247000,2.503246826171875,-0.0003994738217443228,-0.00013315794058144093,0
1772810496620126700,2.513126708984375,-0.0014647373463958502,-0.00013315794058144093,-0.0005326317623257637
1772810496630006500,2.523006591796875,0.0011984214652329683,0.0003994738217443228,0.0005326317623257637
1772810496639886300,2.53288623046875,0.0022636849898844957,-0.00013315794058144093,0
1772810496649766100,2.54276611328125,0.0011984214652329683,0.0009321055840700865,-0.0005326317623257637
1772810496659646000,2.55264599609375,0.00013315794058144093,-0.0006657897029072046,-0.0010652635246515274
1772810496669525800,2.56252587890625,0.001731053227558732,-0.00013315794058144093,0.0010652635246515274
1772810496679405600,2.572405517578125,0.00013315794058144093,0.0003994738217443228,0
1772810496689285400,2.582285400390625,0.00013315794058144093,-0.0027963167522102594,-0.0005326317623257637
1772810496699165200,2.592165283203125,-0.0003994738217443228,0.0003994738217443228,0.0010652635246515274
1772810496709045000,2.602044921875,-0.0003994738217443228,0.0003994738217443228,0.0005326317623257637
1772810496718925000,2.611925048828125,0.0011984214652329683,0.0014647373463958502,0.0005326317623257637
1772810496728804900,2.621804931640625,-0.0014647373463958502,0.0003994738217443228,-0.0005326317623257637
1772810496738684700,2.6316845703125,0.0011984214652329683,0.001997369108721614,0.001597895286977291
1772810496748564500,2.641564453125,-0.0003994738217443228,-0.00013315794058144093,0.0010652635246515274
1772810496758444300,2.6514443359375,-0.0009321055840700865,0.0003994738217443228,-0.0005326317623257637
1772810496768324000,2.661323974609375,0.00013315794058144093,0.0014647373463958502,0.0005326317623257637
1772810496778204000,2.671203857421875,0.00013315794058144093,-0.00013315794058144093,0
1772810496788083700,2.681083740234375,0.00013315794058144093,0.0003994738217443228,0.0010652635246515274
1772810496797963500,2.690963623046875,0.00013315794058144093,0.001997369108721614,-0.0010652635246515274
1772810496807843300,2.70084326171875,0.00013315794058144093,-0.00013315794058144093,0.0010652635246515274
1772810496817723100,2.71072314453125,-0.0014647373463958502,-0.0011984214652329683,-0.0005326317623257637
1772810496827603000,2.72060302734375,-0.0003994738217443228,0.0003994738217443228,0.0005326317623257637
1772810496837482800,2.730482666015625,0.00013315794058144093,0.0003994738217443228,0.001597895286977291
1772810496847362800,2.74036279296875,-0.0009321055840700865,0.0003994738217443228,-0.0010652635246515274
1772810496857242600,2.75024267578125,0.00013315794058144093,-0.00013315794058144093,0
1772810496867122400,2.760122314453125,0.0006657897029072046,-0.0006657897029072046,0
1772810496877002200,2.770002197265625,0.00013315794058144093,-0.00013315794058144093,-0.0005326317623257637
1772810496896761900,2.789761962890625,-0.0009321055840700865,-0.00013315794058144093,0
1772810496906641700,2.7996416015625,0.00013315794058144093,-0.0006657897029072046,0.0005326317623257637
1772810496916521500,2.809521484375,-0.0003994738217443228,-0.001731053227558732,0
1772810496926401300,2.8194013671875,0.0006657897029072046,-0.0006657897029072046,0
1772810496936281000,2.829281005859375,0.0022636849898844957,0.0009321055840700865,0.0010652635246515274
1772810496946161000,2.839160888671875,0.00013315794058144093,-0.0011984214652329683,0
1772810496956040700,2.849040771484375,-0.0014647373463958502,0.0003994738217443228,-0.0005326317623257637
1772810496965920500,2.85892041015625,-0.0025300008710473776,-0.0006657897029072046,0.0005326317623257637
1772810496975800600,2.868800537109375,-0.0003994738217443228,-0.00013315794058144093,0.0010652635246515274
1772810496985680400,2.878680419921875,0.0006657897029072046,0.0009321055840700865,0.001597895286977291
1772810496995560000,2.888559814453125,0.0011984214652329683,-0.0006657897029072046,0
1772810497005439700,2.898439697265625,0.00013315794058144093,-0.0011984214652329683,0.0005326317623257637
1772810497015319600,2.908319580078125,0.00013315794058144093,0.0009321055840700865,0.001597895286977291
1772810497025199400,2.918199462890625,0.0006657897029072046,0.001997369108721614,0.0005326317623257637
1772810497035079200,2.9280791015625,0.00013315794058144093,0.0009321055840700865,0.0005326317623257637
1772810497044959000,2.937958984375,-0.0003994738217443228,-0.0011984214652329683,0.001597895286977291
1772810497054838800,2.9478388671875,0.00013315794058144093,0.001997369108721614,-0.0005326317623257637
1772810497064718600,2.957718505859375,0.00013315794058144093,0.0009321055840700865,-0.0010652635246515274
1772810497074598400,2.967598388671875,-0.0003994738217443228,-0.00013315794058144093,0.0005326317623257637
1772810497084478200,2.977478271484375,0.00013315794058144093,-0.0006657897029072046,-0.002130527049303055
1772810497094358000,2.98735791015625,0.0006657897029072046,0.0003994738217443228,0
1772810497104237800,2.99723779296875,-0.0009321055840700865,0.0003994738217443228,0
1772810497114117400,3.007117431640625,0.0011984214652329683,-0.0011984214652329683,0
1772810497133877000,3.026876953125,-0.0003994738217443228,-0.00013315794058144093,-0.0005326317623257637
1772810497143756800,3.0367568359375,0.00013315794058144093,0.0014647373463958502,0.001597895286977291
1772810497153636600,3.04663671875,0.00013315794058144093,0.0014647373463958502,0.0005326317623257637
1772810497163516400,3.056516357421875,0.001731053227558732,-0.0006657897029072046,0
1772810497173396200,3.066396240234375,-0.0009321055840700865,-0.00013315794058144093,0
1772810497183276000,3.076276123046875,0.0011984214652329683,-0.00013315794058144093,-0.0010652635246515274
1772810497193155800,3.08615576171875,-0.001997369108721614,-0.0006657897029072046,0.0010652635246515274
1772810497203035600,3.09603564453125,-0.0009321055840700865,0.001997369108721614,-0.0010652635246515274
1772810497212915500,3.10591552734375,0.00013315794058144093,0.0003994738217443228,-0.0005326317623257637
1772810497222795300,3.115795166015625,-0.0003994738217443228,0.0014647373463958502,-0.0005326317623257637
1772810497232675000,3.125675048828125,-0.0003994738217443228,0.0003994738217443228,0
1772810497242554600,3.1355546875,-0.0003994738217443228,-0.0006657897029072046,0
1772810497252434400,3.145434326171875,0.0006657897029072046,0.0009321055840700865,0
1772810497262314200,3.155314208984375,0.0006657897029072046,-0.0006657897029072046,0.0005326317623257637
1772810497272194000,3.165194091796875,0.0011984214652329683,-0.001731053227558732,-0.0005326317623257637
1772810497282073900,3.175073974609375,0.0006657897029072046,0.0003994738217443228,-0.0005326317623257637
1772810497291953700,3.18495361328125,-0.0009321055840700865,-0.0006657897029072046,0
1772810497301833500,3.19483349609375,0.00013315794058144093,0.0014647373463958502,-0.0010652635246515274
1772810497311713300,3.20471337890625,-0.0014647373463958502,0.0003994738217443228,0.0005326317623257637
1772810497321593000,3.214593017578125,0.00013315794058144093,0.0003994738217443228,0.0005326317623257637
1772810497331473000,3.224472900390625,-0.0003994738217443228,0.0003994738217443228,0
1772810497341352700,3.234352783203125,0.0011984214652329683,-0.0006657897029072046,-0.0010652635246515274
1772810497351232500,3.244232421875,0.0006657897029072046,0.0003994738217443228,0.0005326317623257637
1772810497361112000,3.254112060546875,0.00013315794058144093,0.0014647373463958502,-0.0005326317623257637
1772810497370991900,3.263991943359375,-0.0014647373463958502,0.0003994738217443228,-0.0005326317623257637
1772810497380871700,3.27387158203125,0.001731053227558732,0.0009321055840700865,0.0010652635246515274
1772810497390751500,3.28375146484375,0.0006657897029072046,-0.00013315794058144093,-0.001597895286977291
1772810497400631300,3.29363134765625,-0.001997369108721614,0.0003994738217443228,-0.001597895286977291
1772810497410511000,3.303510986328125,0.00013315794058144093,0.0014647373463958502,-0.0005326317623257637
1772810497420391000,3.313390869140625,0.00013315794058144093,0.0003994738217443228,0
1772810497430270700,3.323270751953125,-0.0014647373463958502,0.0003994738217443228,0.0005326317623257637
1772810497440150500,3.333150634765625,0.001731053227558732,-0.0006657897029072046,0.0010652635246515274
1772810497450030300,3.3430302734375,-0.0009321055840700865,0.0014647373463958502,0
1772810497459910100,3.35291015625,0.0011984214652329683,-0.00013315794058144093,0
1772810497469790000,3.3627900390625,-0.0009321055840700865,0.0014647373463958502,-0.0005326317623257637
1772810497479669800,3.372669677734375,0.00013315794058144093,-0.00013315794058144093,0.0005326317623257637
1772810497489549300,3.38254931640625,0.00013315794058144093,-0.0011984214652329683,0.0005326317623257637
1772810497499429400,3.392429443359375,0.001731053227558732,0.001997369108721614,0
1772810497509309700,3.402309814453125,0.00013315794058144093,0.0014647373463958502,-0.0005326317623257637
1772810497519190300,3.412190185546875,0.00013315794058144093,0.0009321055840700865,0.0005326317623257637
1772810497529070600,3.422070556640625,0.0006657897029072046,-0.00013315794058144093,-0.0005326317623257637
1772810497538951000,3.431950927734375,-0.0003994738217443228,0.0003994738217443228,0.0010652635246515274
1772810497548831200,3.441831298828125,0.0006657897029072046,-0.0006657897029072046,-0.0010652635246515274
1772810497558711800,3.4517119140625,0.00013315794058144093,0.0003994738217443228,0.0005326317623257637
1772810497568592100,3.461592041015625,0.00013315794058144093,-0.00013315794058144093,0.0005326317623257637
1772810497578472700,3.47147265625,-0.0003994738217443228,-0.00013315794058144093,0.0005326317623257637
1772810497588353000,3.48135302734375,-0.001997369108721614,-0.00013315794058144093,-0.0010652635246515274
1772810497598233300,3.4912333984375,0.0006657897029072046,-0.0006657897029072046,0.0010652635246515274
1772810497608114000,3.501114013671875,0.0006657897029072046,-0.0011984214652329683,0.0005326317623257637
1772810497617994200,3.510994140625,-0.0003994738217443228,-0.0006657897029072046,-0.001597895286977291
1772810497627874600,3.52087451171875,-0.0014647373463958502,0.0014647373463958502,0.0005326317623257637
1772810497637755000,3.5307548828125,0.00013315794058144093,-0.00013315794058144093,0.001597895286977291
1772810497647635500,3.540635498046875,0.00013315794058144093,-0.0006657897029072046,0.0005326317623257637
1772810497657515800,3.550515869140625,0.00013315794058144093,0.0009321055840700865,0
1772810497667396400,3.560396240234375,0.00013315794058144093,0.0009321055840700865,0
1772810497677276700,3.570276611328125,0.00013315794058144093,0.0003994738217443228,-0.0005326317623257637
1772810497687157000,3.580156982421875,-0.0003994738217443228,-0.00013315794058144093,0
1772810497697037600,3.59003759765625,-0.0014647373463958502,0.0025300008710473776,-0.0005326317623257637
1772810497706918000,3.59991796875,0.0011984214652329683,-0.001731053227558732,0
1772810497716798200,3.609798095703125,0.00013315794058144093,0.0014647373463958502,0.0005326317623257637
1772810497726678500,3.619678466796875,0.00013315794058144093,0.0003994738217443228,-0.0005326317623257637
1772810497736559000,3.62955908203125,0.00013315794058144093,-0.0022636849898844957,-0.001597895286977291
1772810497746439400,3.639439453125,0.00013315794058144093,0.0003994738217443228,0.0005326317623257637
1772810497756320000,3.649320068359375,0.00013315794058144093,0.0003994738217443228,-0.0005326317623257637
1772810497766200300,3.659200439453125,-0.0014647373463958502,0.0009321055840700865,0.0005326317623257637
1772810497776080600,3.66908056640625,0.0006657897029072046,-0.0022636849898844957,-0.001597895286977291
1772810497785961200,3.678961181640625,-0.0003994738217443228,-0.00013315794058144093,0.0005326317623257637
1772810497795841500,3.688841552734375,0.00013315794058144093,0.0014647373463958502,0
1772810497805721900,3.698721923828125,0.00013315794058144093,-0.0011984214652329683,-0.0010652635246515274
1772810497815602200,3.708602294921875,0.0011984214652329683,-0.0011984214652329683,0
1772810497825482800,3.718482666015625,0.00013315794058144093,0.0009321055840700865,0
1772810497835363000,3.728363037109375,-0.0014647373463958502,-0.0011984214652329683,0
1772810497845243600,3.73824365234375,-0.0014647373463958502,-0.0006657897029072046,0.0005326317623257637
1772810497855124000,3.7481240234375,0.0006657897029072046,0.0014647373463958502,-0.0005326317623257637
1772810497865004300,3.75800439453125,0.0006657897029072046,0.0014647373463958502,0.0005326317623257637
1772810497874884900,3.767884765625,0.00013315794058144093,0.0009321055840700865,-0.001597895286977291
1772810497884765200,3.77776513671875,-0.0009321055840700865,-0.0006657897029072046,-0.0005326317623257637
1772810497894645500,3.7876455078125,0.0011984214652329683,0.0014647373463958502,-0.0010652635246515274
1772810497904525800,3.79752587890625,0.00013315794058144093,-0.0006657897029072046,0.001597895286977291
1772810497914406400,3.807406494140625,0.00013315794058144093,0.0009321055840700865,0.001597895286977291
1772810497924286700,3.81728662109375,-0.0014647373463958502,0.0009321055840700865,0
1772810497934167300,3.827167236328125,0.00013315794058144093,-0.0006657897029072046,0
1772810497944047600,3.837047607421875,-0.0003994738217443228,0.0003994738217443228,0
1772810497953928000,3.846927978515625,0.0006657897029072046,-0.0006657897029072046,0.001597895286977291
1772810497963808300,3.856808349609375,-0.0009321055840700865,0.0003994738217443228,0.0005326317623257637
1772810497973688800,3.866688720703125,-0.0003994738217443228,0.0003994738217443228,0.0005326317623257637
1772810497983569200,3.876569091796875,0.0006657897029072046,0.0003994738217443228,0
1772810497993449500,3.886449462890625,-0.0009321055840700865,-0.00013315794058144093,0.0010652635246515274
1772810498003329500,3.89632958984375,-0.0003994738217443228,0.0003994738217443228,0.001597895286977291
1772810498013209600,3.906209716796875,0.0006657897029072046,-0.001731053227558732,0.0010652635246515274
1772810498023089700,3.916089599609375,0.00013315794058144093,0.0003994738217443228,0.0005326317623257637
1772810498032969700,3.9259697265625,0.001731053227558732,-0.001731053227558732,0
1772810498042849800,3.935849853515625,0.0006657897029072046,0.0009321055840700865,0.0005326317623257637
1772810498052729600,3.9457294921875,0.00013315794058144093,-0.001731053227558732,0.002130527049303055
1772810498062609700,3.955609619140625,0.0006657897029072046,-0.0007989476434886456,-0.00013315794058144093
1772810498072489700,3.96548974609375,-0.0009321055840700865,0.0023968429304659367,-0.0006657897029072046
1772810498082369800,3.975369873046875,0.00013315794058144093,0.0023968429304659367,0.0014647373463958502
1772810498102129700,3.995129638671875,-0.0009321055840700865,0.00026631588116288185,0.0030626326333731413
1772810498112009700,4.005009765625,0.0006657897029072046,0.0013315794058144093,-0.00013315794058144093
1772810498121889800,4.014889892578125,-0.0003994738217443228,0.0013315794058144093,-0.00013315794058144093
1772810498131769900,4.024769775390625,0.00013315794058144093,-0.0013315794058144093,0.0009321055840700865
1772810498141649700,4.034649658203125,-0.0003994738217443228,0.0007989476434886456,-0.0006657897029072046
1772810498151529700,4.04452978515625,0.00013315794058144093,0.001864211168140173,-0.0006657897029072046
1772810498161409800,4.054409912109375,0.00013315794058144093,-0.00026631588116288185,0.0003994738217443228
1772810498171289900,4.064289794921875,0.00013315794058144093,-0.0023968429304659367,-0.0011984214652329683
1772810498181170000,4.074169921875,-0.0003994738217443228,-0.00026631588116288185,-0.0006657897029072046
1772810498191049700,4.0840498046875,-0.0003994738217443228,0.0013315794058144093,-0.00013315794058144093
1772810498200929800,4.0939296875,-0.0003994738217443228,0.0007989476434886456,0.0003994738217443228
1772810498210809900,4.103809814453125,0.001731053227558732,-0.0007989476434886456,-0.00013315794058144093
1772810498220690000,4.11368994140625,-0.0003994738217443228,-0.0013315794058144093,0.0009321055840700865
1772810498230570000,4.123570068359375,0.00013315794058144093,0.0013315794058144093,0.0003994738217443228
1772810498240449800,4.13344970703125,0.00013315794058144093,0.0023968429304659367,0.0009321055840700865
1772810498250329900,4.143329833984375,0.0011984214652329683,0.0013315794058144093,0.0025300008710473776
1772810498260210000,4.1532099609375,-0.0003994738217443228,0.0007989476434886456,-0.0006657897029072046
1772810498270090000,4.163090087890625,-0.0003994738217443228,0.0013315794058144093,0.0003994738217443228
1772810498279970000,4.172969970703125,0.0011984214652329683,-0.00026631588116288185,-0.0027963167522102594
1772810498289849900,4.182849853515625,0.00013315794058144093,-0.00026631588116288185,-0.00013315794058144093
1772810498299730000,4.19272998046875,0.0011984214652329683,0.0007989476434886456,0.0003994738217443228
1772810498309610000,4.20260986328125,-0.0009321055840700865,0.0007989476434886456,0.0003994738217443228
1772810498319490000,4.212489990234375,0.001731053227558732,-0.001864211168140173,0.0003994738217443228
1772810498329370000,4.2223701171875,0.00013315794058144093,-0.0007989476434886456,-0.0006657897029072046
1772810498339250000,4.23225,-0.0003994738217443228,0.00026631588116288185,-0.00013315794058144093
1772810498349130000,4.2421298828125,-0.0009321055840700865,0.0007989476434886456,-0.0011984214652329683
1772810498359010000,4.252010009765625,0.00013315794058144093,-0.0013315794058144093,-0.00013315794058144093
1772810498368890000,4.26189013671875,-0.0009321055840700865,-0.0023968429304659367,-0.00013315794058144093
1772810498378770200,4.271770263671875,0.00013315794058144093,0.0023968429304659367,-0.00013315794058144093
1772810498388650000,4.28164990234375,0.00013315794058144093,0.0007989476434886456,0.0009321055840700865
1772810498398530000,4.291530029296875,-0.0003994738217443228,-0.001864211168140173,-0.0006657897029072046
1772810498408410000,4.30141015625,-0.0003994738217443228,-0.0013315794058144093,0.0014647373463958502
1772810498418290200,4.311290283203125,0.0011984214652329683,-0.0013315794058144093,-0.00013315794058144093
1772810498428170000,4.321169921875,-0.0009321055840700865,0.0007989476434886456,0.0014647373463958502
1772810498438050000,4.331050048828125,-0.001997369108721614,0.00026631588116288185,-0.00013315794058144093
1772810498447930000,4.34093017578125,0.00013315794058144093,0.0007989476434886456,-0.00013315794058144093
1772810498457810200,4.35081005859375,-0.0009321055840700865,-0.0013315794058144093,-0.0006657897029072046
1772810498467690200,4.360690185546875,-0.0003994738217443228,-0.001864211168140173,-0.00013315794058144093
1772810498477570000,4.370570068359375,0.0006657897029072046,0.0007989476434886456,-0.00013315794058144093
1772810498487450000,4.3804501953125,0.0006657897029072046,-0.0013315794058144093,0.0003994738217443228
1772810498497330200,4.390330078125,-0.0003994738217443228,-0.00026631588116288185,0.0009321055840700865
1772810498507209700,4.400209716796875,0.0022636849898844957,0.0013315794058144093,0.0003994738217443228
1772810498517089300,4.41008935546875,0.0006657897029072046,-0.00026631588116288185,0.0009321055840700865
1772810498526968800,4.41996875,-0.0003994738217443228,-0.0007989476434886456,0.0003994738217443228
1772810498536848400,4.429848388671875,0.0027963167522102594,0.00026631588116288185,-0.0006657897029072046
1772810498546728000,4.43972802734375,0.00013315794058144093,0.0007989476434886456,-0.0011984214652329683
1772810498556607500,4.449607421875,0.001731053227558732,-0.00026631588116288185,0.0009321055840700865
1772810498566487000,4.459487060546875,0.00013315794058144093,0.0007989476434886456,0.0014647373463958502
1772810498576366600,4.46936669921875,0.0006657897029072046,-0.0013315794058144093,0.0003994738217443228
1772810498586246400,4.479246337890625,0.0011984214652329683,0.0013315794058144093,-0.0006657897029072046
1772810498596126000,4.4891259765625,-0.0003994738217443228,-0.0007989476434886456,-0.0006657897029072046
1772810498615885000,4.508885009765625,0.00013315794058144093,-0.0013315794058144093,0.0003994738217443228
1772810498625764600,4.5187646484375,-0.0003994738217443228,0.0007989476434886456,-0.0006657897029072046
1772810498635644200,4.52864404296875,-0.0014647373463958502,0.0007989476434886456,0.0003994738217443228
1772810498645523700,4.538523681640625,-0.0003994738217443228,-0.0007989476434886456,-0.0011984214652329683
1772810498655403300,4.5484033203125,-0.0003994738217443228,-0.0007989476434886456,-0.0006657897029072046
1772810498665283000,4.558282958984375,-0.0009321055840700865,-0.0013315794058144093,-0.00013315794058144093
1772810498675162600,4.56816259765625,0.00013315794058144093,0.00026631588116288185,-0.0006657897029072046
1772810498685042200,4.578042236328125,0.0011984214652329683,0.00026631588116288185,-0.00013315794058144093
1772810498694921700,4.587921630859375,-0.0009321055840700865,0.0007989476434886456,0.0003994738217443228
1772810498704801300,4.59780126953125,0.0006657897029072046,-0.0013315794058144093,-0.0006657897029072046
1772810498714680800,4.607680908203125,0.0006657897029072046,0.0023968429304659367,-0.0006657897029072046
1772810498724560400,4.617560302734375,-0.0003994738217443228,0.00026631588116288185,0.0009321055840700865
1772810498734440000,4.62743994140625,0.00013315794058144093,-0.00026631588116288185,-0.00013315794058144093
1772810498744319700,4.63731982421875,0.00013315794058144093,-0.00026631588116288185,-0.00013315794058144093
1772810498754199300,4.64719921875,-0.0014647373463958502,0.00026631588116288185,-0.0006657897029072046
1772810498764078800,4.657078857421875,0.00013315794058144093,-0.0007989476434886456,-0.0011984214652329683
1772810498773958400,4.66695849609375,-0.0009321055840700865,0.00026631588116288185,-0.00013315794058144093
1772810498783838000,4.676837890625,0.0011984214652329683,0.001864211168140173,-0.0006657897029072046
1772810498793717500,4.686717529296875,-0.0009321055840700865,0.00026631588116288185,-0.00013315794058144093
1772810498803597000,4.69659716796875,0.00013315794058144093,0.0007989476434886456,-0.00013315794058144093
1772810498813476600,4.7064765625,-0.0009321055840700865,0.0023968429304659367,-0.00013315794058144093
1772810498823356400,4.7163564453125,0.00013315794058144093,0.0007989476434886456,-0.0006657897029072046
1772810498833236000,4.726236083984375,0.00013315794058144093,-0.0023968429304659367,0.0009321055840700865
1772810498843115500,4.736115478515625,0.0006657897029072046,0.0007989476434886456,0.0003994738217443228
1772810498852995000,4.7459951171875,-0.0003994738217443228,0.0007989476434886456,-0.0006657897029072046
1772810498862874600,4.75587451171875,0.001731053227558732,0.00026631588116288185,0.0003994738217443228
1772810498872754200,4.765754150390625,0.0011984214652329683,-0.0023968429304659367,0.0009321055840700865
1772810498882633700,4.7756337890625,-0.0003994738217443228,-0.0013315794058144093,-0.00013315794058144093
1772810498892513300,4.78551318359375,-0.0009321055840700865,-0.00026631588116288185,0.0009321055840700865
1772810498902393000,4.79539306640625,0.0011984214652329683,-0.0007989476434886456,0.0003994738217443228
1772810498912272600,4.805272705078125,-0.0009321055840700865,0.0007989476434886456,-0.0006657897029072046
1772810498922152200,4.815152099609375,-0.0003994738217443228,-0.00026631588116288185,-0.0011984214652329683
1772810498932031700,4.82503173828125,-0.0009321055840700865,0.0013315794058144093,-0.0006657897029072046
1772810498941911300,4.834911376953125,-0.0003994738217443228,0.0007989476434886456,-0.0006657897029072046
1772810498951790800,4.844790771484375,-0.0009321055840700865,0.00026631588116288185,0.0003994738217443228
1772810498961670400,4.85467041015625,-0.0009321055840700865,-0.0013315794058144093,-0.0022636849898844957
1772810498971550000,4.864550048828125,-0.0014647373463958502,-0.0007989476434886456,0.0003994738217443228
1772810498981429800,4.8744296875,-0.0009321055840700865,-0.001864211168140173,0.0003994738217443228
1772810498991309300,4.884309326171875,0.0006657897029072046,0.0007989476434886456,-0.00013315794058144093
1772810499001189000,4.894189208984375,0.0006657897029072046,-0.0007989476434886456,-0.0011984214652329683
1772810499011069200,4.904069091796875,-0.0003994738217443228,-0.00026631588116288185,-0.0011984214652329683
1772810499020949200,4.91394921875,0.0006657897029072046,-0.0007989476434886456,0.0009321055840700865
1772810499030829600,4.92382958984375,0.00013315794058144093,-0.0007989476434886456,-0.0006657897029072046
1772810499040709600,4.933709716796875,0.00013315794058144093,-0.0007989476434886456,0.0003994738217443228
1772810499050589700,4.943589599609375,0.00013315794058144093,-0.0007989476434886456,-0.00013315794058144093
1772810499060469800,4.9534697265625,0.00013315794058144093,0.0013315794058144093,0.0003994738217443228
1772810499070349800,4.963349853515625,-0.0014647373463958502,0.0013315794058144093,0.0003994738217443228
1772810499080230100,4.973230224609375,0.0006657897029072046,0.00026631588116288185,0.0009321055840700865
1772810499090110200,4.983110107421875,0.00013315794058144093,-0.0007989476434886456,-0.00013315794058144093
1772810499099990300,4.992990234375,0.00013315794058144093,-0.0007989476434886456,-0.0006657897029072046
1772810499109870300,5.002870361328125,0.0006657897029072046,0.001864211168140173,0.0003994738217443228
1772810499119750400,5.01275048828125,0.001731053227558732,-0.00026631588116288185,-0.0006657897029072046
1772810499129630700,5.022630615234375,0.00013315794058144093,-0.0013315794058144093,-0.00013315794058144093
1772810499139510800,5.0325107421875,0.00013315794058144093,-0.0007989476434886456,0.0009321055840700865
1772810499149390800,5.042390869140625,-0.001997369108721614,-0.0029294746927917004,-0.0006657897029072046
1772810499159271000,5.05227099609375,0.0006657897029072046,-0.001864211168140173,-0.00013315794058144093
1772810499169151000,5.06215087890625,-0.0003994738217443228,0.0013315794058144093,-0.0011984214652329683
1772810499179031300,5.07203125,0.0006657897029072046,0.0007989476434886456,-0.0006657897029072046
1772810499188911400,5.081911376953125,0.0006657897029072046,0.00026631588116288185,-0.00013315794058144093
1772810499198791400,5.09179150390625,-0.0003994738217443228,-0.00026631588116288185,-0.0011984214652329683
1772810499208671500,5.10167138671875,0.0006657897029072046,0.00026631588116288185,-0.00013315794058144093
1772810499218551600,5.111551513671875,0.00013315794058144093,-0.00026631588116288185,-0.0006657897029072046
1772810499228432000,5.121431884765625,0.0006657897029072046,-0.00026631588116288185,-0.0006657897029072046
1772810499238312000,5.13131201171875,-0.0003994738217443228,-0.0007989476434886456,-0.00013315794058144093
1772810499248192000,5.14119189453125,0.00013315794058144093,-0.00026631588116288185,-0.0011984214652329683
1772810499258072000,5.151072021484375,-0.0003994738217443228,-0.00026631588116288185,-0.00013315794058144093
1772810499267952000,5.1609521484375,-0.0009321055840700865,-0.0013315794058144093,0.0014647373463958502
1772810499277832400,5.17083251953125,0.00013315794058144093,-0.00026631588116288185,0.0003994738217443228
1772810499287712500,5.18071240234375,-0.0009321055840700865,0.0013315794058144093,0.0003994738217443228
1772810499297592600,5.190592529296875,0.00013315794058144093,-0.00026631588116288185,0.0009321055840700865
1772810499307472600,5.20047265625,-0.0003994738217443228,-0.0013315794058144093,-0.00013315794058144093
1772810499317352700,5.210352783203125,-0.0009321055840700865,0.0013315794058144093,-0.00013315794058144093
1772810499327233000,5.22023291015625,0.001731053227558732,-0.0007989476434886456,0.0003994738217443228
1772810499337113000,5.230113037109375,0.0006657897029072046,-0.0007989476434886456,-0.00013315794058144093
1772810499346993200,5.2399931640625,-0.0003994738217443228,-0.0013315794058144093,-0.00013315794058144093
1772810499356873200,5.249873291015625,-0.0009321055840700865,-0.00026631588116288185,-0.00013315794058144093
1772810499366753300,5.259753173828125,0.001731053227558732,0.00026631588116288185,-0.00013315794058144093
1772810499376633600,5.269633544921875,0.001731053227558732,0.001864211168140173,0.001997369108721614
1772810499386513700,5.279513671875,-0.0003994738217443228,-0.00026631588116288185,-0.00013315794058144093
1772810499396393700,5.289393798828125,0.00013315794058144093,0.0013315794058144093,0.0003994738217443228
1772810499406273800,5.299273681640625,0.0011984214652329683,-0.001864211168140173,-0.00013315794058144093
1772810499416154000,5.309154052734375,-0.0009321055840700865,0.001864211168140173,0.0003994738217443228
1772810499426034200,5.3190341796875,0.0011984214652329683,-0.0013315794058144093,-0.0006657897029072046
1772810499435914200,5.328914306640625,-0.0009321055840700865,-0.00026631588116288185,-0.00013315794058144093
1772810499445794300,5.338794189453125,0.0006657897029072046,0.001864211168140173,-0.0011984214652329683
1772810499455674400,5.34867431640625,-0.0009321055840700865,0.0013315794058144093,-0.00013315794058144093
1772810499465554700,5.3585546875,0.00013315794058144093,-0.00026631588116288185,0.0003994738217443228
1772810499475434800,5.368434814453125,-0.0003994738217443228,0.0007989476434886456,-0.00013315794058144093
1772810499485314800,5.378314697265625,0.0006657897029072046,-0.00026631588116288185,0.0009321055840700865
1772810499495195000,5.38819482421875,0.001731053227558732,-0.001864211168140173,0.0003994738217443228
1772810499505074700,5.39807470703125,0.001731053227558732,-0.0013315794058144093,-0.0006657897029072046
1772810499514954500,5.40795458984375,0.00013315794058144093,-0.0007989476434886456,-0.0006657897029072046
1772810499524834300,5.417834228515625,-0.0003994738217443228,0.00026631588116288185,0.0003994738217443228
1772810499534714400,5.42771435546875,0.0011984214652329683,-0.0007989476434886456,0.0003994738217443228
1772810499544594200,5.43759423828125,0.0011984214652329683,0.00026631588116288185,-0.0011984214652329683
1772810499554474000,5.447473876953125,-0.0014647373463958502,-0.00026631588116288185,-0.00013315794058144093
1772810499564353800,5.457353759765625,0.0006657897029072046,0.00026631588116288185,0.0014647373463958502
1772810499574233900,5.46723388671875,0.0011984214652329683,-0.00026631588116288185,-0.00013315794058144093
1772810499584113700,5.47711376953125,0.00013315794058144093,0.0013315794058144093,0.0003994738217443228
1772810499593993500,5.486993408203125,-0.0003994738217443228,-0.0007989476434886456,-0.001731053227558732
1772810499603873300,5.496873291015625,0.0006657897029072046,-0.00026631588116288185,-0.0006657897029072046
1772810499613753000,5.506753173828125,-0.0003994738217443228,-0.0013315794058144093,0.0009321055840700865
1772810499623633200,5.516633056640625,0.00013315794058144093,-0.00026631588116288185,-0.00013315794058144093
1772810499633513000,5.526512939453125,-0.0009321055840700865,0.0013315794058144093,0.0003994738217443228
1772810499643392800,5.536392822265625,-0.0009321055840700865,-0.0013315794058144093,0.0003994738217443228
1772810499653272600,5.5462724609375,-0.0003994738217443228,-0.00026631588116288185,-0.0006657897029072046
1772810499663152400,5.55615234375,0.00013315794058144093,-0.0023968429304659367,-0.00013315794058144093
1772810499673032400,5.566032470703125,-0.0003994738217443228,0.00026631588116288185,0.0003994738217443228
1772810499682912300,5.575912353515625,-0.0009321055840700865,0.0013315794058144093,0.0009321055840700865
1772810499692792000,5.5857919921875,-0.0003994738217443228,-0.00026631588116288185,-0.0011984214652329683
1772810499702672000,5.595671875,0.0006657897029072046,0.0023968429304659367,-0.0006657897029072046
1772810499712552000,5.605552001953125,-0.0003994738217443228,-0.0013315794058144093,-0.0011984214652329683
1772810499722431700,5.615431640625,0.0011984214652329683,-0.0013315794058144093,-0.00013315794058144093
1772810499732311600,5.6253115234375,0.0022636849898844957,-0.001864211168140173,-0.0006657897029072046
1772810499742191400,5.63519140625,-0.0003994738217443228,0.0007989476434886456,-0.00013315794058144093
1772810499752071200,5.6450712890625,0.00013315794058144093,-0.00026631588116288185,-0.00013315794058144093
1772810499761951000,5.654950927734375,0.0022636849898844957,-0.0007989476434886456,0.0003994738217443228
1772810499771831000,5.6648310546875,0.0011984214652329683,0.0007989476434886456,0.0003994738217443228
1772810499781710800,5.6747109375,0.00013315794058144093,0.0007989476434886456,-0.00013315794058144093
1772810499791590700,5.684590576171875,0.0011984214652329683,-0.0007989476434886456,-0.0011984214652329683
1772810499801470500,5.694470458984375,0.00013315794058144093,-0.0007989476434886456,0.0003994738217443228
1772810499811350500,5.7043505859375,0.0006657897029072046,-0.00026631588116288185,0.0003994738217443228
1772810499821230300,5.714230224609375,-0.0009321055840700865,-0.0007989476434886456,0.0003994738217443228
1772810499831110100,5.724110107421875,0,-0.00013315794058144093,-0.001731053227558732
1772810499840990000,5.733989990234375,-0.0010652635246515274,-0.001731053227558732,0.0003994738217443228
1772810499850869800,5.743869873046875,0.0010652635246515274,-0.00013315794058144093,-0.0006657897029072046
1772810499860749800,5.753749755859375,0.0010652635246515274,-0.001731053227558732,-0.0006657897029072046
1772810499870629600,5.763629638671875,0,-0.0006657897029072046,-0.00013315794058144093
1772810499880509400,5.773509521484375,0,0.0009321055840700865,-0.001731053227558732
1772810499890389200,5.78338916015625,0,0.001997369108721614,-0.001731053227558732
1772810499900269000,5.79326904296875,0,-0.00013315794058144093,-0.00013315794058144093
1772810499910149000,5.803149169921875,0.0005326317623257637,0.0009321055840700865,0.0003994738217443228
1772810499920029000,5.81302880859375,0.001597895286977291,-0.00013315794058144093,-0.0011984214652329683
1772810499929908700,5.82290869140625,-0.0010652635246515274,-0.0011984214652329683,0.0003994738217443228
1772810499939788500,5.83278857421875,0,0.0003994738217443228,0.0009321055840700865
1772810499949668600,5.842668701171875,0.001597895286977291,-0.00013315794058144093,-0.0011984214652329683
1772810499959548400,5.85254833984375,-0.0005326317623257637,0.0003994738217443228,-0.0006657897029072046
1772810499969428200,5.86242822265625,0.0005326317623257637,-0.00013315794058144093,-0.001731053227558732
1772810499979308000,5.87230810546875,-0.0005326317623257637,0.0014647373463958502,-0.00013315794058144093
1772810499989187800,5.882187744140625,0.0010652635246515274,0.0014647373463958502,0.0014647373463958502
1772810499999067600,5.892067626953125,0.0005326317623257637,-0.00013315794058144093,0.0003994738217443228
1772810500018827800,5.911827880859375,0,-0.0022636849898844957,-0.00013315794058144093
1772810500028707800,5.921707763671875,0.0005326317623257637,-0.0022636849898844957,-0.0011984214652329683
1772810500038587600,5.931587646484375,-0.0005326317623257637,0.0003994738217443228,0.0003994738217443228
1772810500048467700,5.9414677734375,-0.0010652635246515274,-0.00013315794058144093,0.0003994738217443228
1772810500068227800,5.961227783203125,0,0.001997369108721614,0.0009321055840700865
1772810500078107600,5.971107666015625,-0.0005326317623257637,0.0009321055840700865,-0.00013315794058144093
1772810500087987700,5.98098779296875,-0.0010652635246515274,0.0003994738217443228,0.0014647373463958502
1772810500097867800,5.99086767578125,-0.0005326317623257637,-0.0011984214652329683,-0.0011984214652329683
1772810500107747600,6.00074755859375,0.0005326317623257637,0.0009321055840700865,-0.001731053227558732
1772810500117627600,6.010627685546875,0.001597895286977291,-0.0006657897029072046,-0.001731053227558732
1772810500127507700,6.0205078125,-0.0010652635246515274,0.0003994738217443228,-0.0006657897029072046
1772810500137387800,6.0303876953125,-0.0010652635246515274,-0.0011984214652329683,0.0014647373463958502
1772810500147267600,6.040267578125,0.001597895286977291,-0.00013315794058144093,-0.0011984214652329683
1772810500157147600,6.050147705078125,-0.0010652635246515274,0.0014647373463958502,-0.00013315794058144093
1772810500167027700,6.06002783203125,-0.001597895286977291,0.0014647373463958502,0.0009321055840700865
1772810500176907800,6.06990771484375,0.0005326317623257637,0.0003994738217443228,0.0003994738217443228
1772810500186787600,6.07978759765625,-0.0005326317623257637,0.0003994738217443228,-0.00013315794058144093
1772810500196667600,6.089667724609375,0.0005326317623257637,-0.00013315794058144093,-0.0006657897029072046
1772810500216427800,6.109427734375,-0.0005326317623257637,0.0003994738217443228,0.0003994738217443228
1772810500226307600,6.1193076171875,-0.0005326317623257637,0.0009321055840700865,0.0003994738217443228
1772810500236187600,6.129187744140625,0,-0.0006657897029072046,0.0009321055840700865
1772810500246067700,6.139067626953125,-0.0005326317623257637,-0.0006657897029072046,0.0003994738217443228
1772810500265827600,6.15882763671875,0,0.0009321055840700865,-0.00013315794058144093
1772810500275707600,6.168707763671875,0,-0.001731053227558732,-0.00013315794058144093
1772810500285587700,6.178587646484375,-0.0010652635246515274,0.0003994738217443228,-0.0006657897029072046
1772810500295467500,6.188467529296875,0,0.0003994738217443228,-0.0011984214652329683
1772810500305347600,6.19834765625,-0.0005326317623257637,-0.0006657897029072046,-0.00013315794058144093
1772810500315227600,6.2082275390625,0.0005326317623257637,-0.00013315794058144093,-0.0006657897029072046
1772810500325107700,6.218107666015625,0,0.001997369108721614,-0.0011984214652329683
1772810500334987500,6.227987548828125,0.0010652635246515274,0.0014647373463958502,0.0003994738217443228
1772810500344867600,6.23786767578125,0.0010652635246515274,0.0009321055840700865,0.0009321055840700865
1772810500354747600,6.24774755859375,0,-0.001731053227558732,0.0003994738217443228
1772810500364627700,6.257627685546875,0,0.0009321055840700865,0.0025300008710473776
1772810500384387600,6.2773876953125,0,0.0003994738217443228,0.0014647373463958502
1772810500394267600,6.287267578125,-0.0010652635246515274,0.0030626326333731413,0.0003994738217443228
1772810500404147500,6.2971474609375,0,-0.0011984214652329683,0.0003994738217443228
1772810500414027500,6.307027587890625,0.0005326317623257637,-0.00013315794058144093,-0.0006657897029072046
1772810500433787600,6.32678759765625,-0.0005326317623257637,0.0014647373463958502,-0.0006657897029072046
1772810500443667500,6.33666748046875,0,-0.00013315794058144093,-0.00013315794058144093
1772810500453547500,6.346547607421875,0.0010652635246515274,-0.0006657897029072046,-0.001731053227558732
1772810500463427600,6.356427490234375,0,0.0003994738217443228,0.0009321055840700865
1772810500473307600,6.3663076171875,0.0010652635246515274,-0.00013315794058144093,-0.0011984214652329683
1772810500483187500,6.3761875,-0.0010652635246515274,-0.00013315794058144093,-0.00013315794058144093
1772810500493067500,6.386067626953125,0.0010652635246515274,0.0003994738217443228,-0.0011984214652329683
1772810500502947600,6.395947509765625,-0.001597895286977291,0.0003994738217443228,-0.0011984214652329683
1772810500512827600,6.40582763671875,-0.001597895286977291,-0.00013315794058144093,0.0014647373463958502
1772810500522707700,6.415707763671875,0,-0.001731053227558732,0.0009321055840700865
1772810500532587800,6.425587890625,-0.0005326317623257637,-0.0006657897029072046,0.0014647373463958502
1772810500542467800,6.4354677734375,0,-0.0006657897029072046,-0.00013315794058144093
1772810500552348000,6.445347900390625,-0.0005326317623257637,0.0009321055840700865,0.0003994738217443228
1772810500562228000,6.45522802734375,-0.001597895286977291,-0.00013315794058144093,-0.0011984214652329683
1772810500572108000,6.46510791015625,0.0005326317623257637,-0.00013315794058144093,0.0003994738217443228
1772810500581988000,6.474988037109375,0,0.0014647373463958502,0.0014647373463958502
1772810500591868200,6.4848681640625,0.0010652635246515274,0.0003994738217443228,-0.0011984214652329683
1772810500601748200,6.494748291015625,0.0010652635246515274,0.0003994738217443228,-0.00013315794058144093
1772810500611628300,6.504628173828125,0.0005326317623257637,-0.00013315794058144093,-0.00013315794058144093
1772810500621508400,6.51450830078125,-0.001597895286977291,0.0014647373463958502,-0.00013315794058144093
1772810500631388400,6.524388427734375,0,-0.00013315794058144093,-0.0011984214652329683
1772810500641268500,6.5342685546875,-0.0010652635246515274,-0.001731053227558732,0.0025300008710473776
1772810500651148500,6.5441484375,0.0005326317623257637,0.0003994738217443228,0.0003994738217443228
1772810500661028600,6.554028564453125,0,0.0003994738217443228,-0.0006657897029072046
1772810500670908700,6.56390869140625,-0.0005326317623257637,0.0003994738217443228,0.001997369108721614
1772810500680788700,6.573788818359375,0,0.0003994738217443228,-0.00013315794058144093
1772810500690668800,6.583668701171875,-0.0010652635246515274,-0.00013315794058144093,0.0009321055840700865
1772810500700548900,6.593548828125,-0.0010652635246515274,0.0003994738217443228,-0.00013315794058144093
1772810500710429000,6.603428955078125,0.0005326317623257637,0.001997369108721614,-0.0006657897029072046
1772810500720309000,6.61330908203125,-0.0010652635246515274,-0.0006657897029072046,-0.0011984214652329683
1772810500730189000,6.62318896484375,-0.0005326317623257637,-0.0011984214652329683,-0.00013315794058144093
1772810500740069000,6.633069091796875,-0.0010652635246515274,0.0009321055840700865,-0.0006657897029072046
1772810500749949400,6.642949462890625,0,0.0009321055840700865,-0.00013315794058144093
1772810500759829200,6.652829345703125,0.0010652635246515274,0.0014647373463958502,-0.00013315794058144093
1772810500779589600,6.672589599609375,0,0.0003994738217443228,-0.00013315794058144093
1772810500789469700,6.6824697265625,0.0005326317623257637,0.001997369108721614,-0.00013315794058144093
1772810500799349800,6.692349853515625,0.001597895286977291,-0.0006657897029072046,-0.00013315794058144093
1772810500809229800,6.702229736328125,0.0005326317623257637,-0.001731053227558732,0.0003994738217443228
1772810500819110000,6.71210986328125,0.0005326317623257637,-0.0006657897029072046,0.0009321055840700865
1772810500828990000,6.721989990234375,-0.0010652635246515274,-0.0011984214652329683,-0.0006657897029072046
1772810500838870000,6.7318701171875,0,-0.00013315794058144093,-0.0006657897029072046
1772810500848750000,6.74175,0,-0.0022636849898844957,-0.00013315794058144093
1772810500858630100,6.751630126953125,-0.0010652635246515274,0.0003994738217443228,0.0003994738217443228
1772810500868510200,6.76151025390625,0,-0.0011984214652329683,-0.0006657897029072046
1772810500878390300,6.771390380859375,-0.001597895286977291,-0.0006657897029072046,0.0003994738217443228
1772810500888270300,6.781270263671875,0.0005326317623257637,0.0009321055840700865,0.0003994738217443228
1772810500898150400,6.791150390625,0,-0.00013315794058144093,0.001997369108721614
1772810500908030500,6.801030517578125,0.0005326317623257637,-0.00013315794058144093,-0.00013315794058144093
1772810500917910500,6.81091064453125,-0.0010652635246515274,-0.0006657897029072046,-0.00013315794058144093
1772810500927790600,6.82079052734375,-0.0010652635246515274,-0.00013315794058144093,-0.0006657897029072046
1772810500937670700,6.830670654296875,0.0005326317623257637,-0.0027963167522102594,-0.0006657897029072046
1772810500947550700,6.84055078125,0.0005326317623257637,-0.0011984214652329683,0.0003994738217443228
1772810500957430800,6.8504306640625,0.002130527049303055,0.0014647373463958502,0.0009321055840700865
1772810500967310800,6.860310791015625,0,-0.0006657897029072046,-0.0022636849898844957
1772810500977191000,6.87019091796875,-0.0005326317623257637,0.0003994738217443228,-0.00013315794058144093
1772810500987071000,6.880071044921875,0.0005326317623257637,0.0003994738217443228,0.0014647373463958502
1772810500996951000,6.889950927734375,-0.0005326317623257637,-0.0006657897029072046,-0.0006657897029072046
1772810501006831000,6.8998310546875,-0.0005326317623257637,-0.00013315794058144093,0.0009321055840700865
1772810501016711000,6.9097109375,0.0005326317623257637,-0.0011984214652329683,0.0003994738217443228
1772810501026591000,6.919591064453125,-0.0005326317623257637,0.0003994738217443228,0.0003994738217443228
1772810501036470800,6.929470703125,-0.0005326317623257637,0.0009321055840700865,0.0009321055840700865
1772810501046350800,6.939350830078125,-0.0010652635246515274,0.0014647373463958502,0.0003994738217443228
1772810501056231000,6.94923095703125,0.0010652635246515274,-0.0006657897029072046,0.0009321055840700865
1772810501066110700,6.95911083984375,0,-0.0006657897029072046,0.0009321055840700865
1772810501075990800,6.96899072265625,-0.001597895286977291,0.001997369108721614,0.0003994738217443228
1772810501085870800,6.978870849609375,0,-0.0011984214652329683,-0.0011984214652329683
1772810501095750700,6.988750732421875,-0.0005326317623257637,0.0003994738217443228,0.0003994738217443228
1772810501105630700,6.998630615234375,-0.0005326317623257637,-0.0006657897029072046,-0.001731053227558732
1772810501115510500,7.008510498046875,0.0005326317623257637,0.0014647373463958502,-0.00013315794058144093
1772810501135270700,7.028270751953125,-0.001597895286977291,0.0009321055840700865,0.0009321055840700865
1772810501145150500,7.038150390625,-0.0010652635246515274,0.0025300008710473776,0.0009321055840700865
1772810501155030500,7.048030517578125,0.0010652635246515274,0.0003994738217443228,0.0014647373463958502
1772810501164910600,7.05791064453125,-0.002130527049303055,-0.00013315794058144093,-0.00013315794058144093
1772810501174790400,7.067790283203125,0.0005326317623257637,0.0009321055840700865,-0.001731053227558732
1772810501184670500,7.07767041015625,-0.0005326317623257637,0.0003994738217443228,-0.0011984214652329683
1772810501194550300,7.08755029296875,-0.0005326317623257637,-0.0022636849898844957,-0.0011984214652329683
1772810501204430300,7.097430419921875,0.0010652635246515274,0.001997369108721614,-0.00013315794058144093
1772810501214310400,7.107310302734375,-0.0005326317623257637,0.0003994738217443228,-0.0011984214652329683
1772810501224190200,7.117190185546875,0,0.001997369108721614,-0.0006657897029072046
1772810501234070300,7.1270703125,-0.0010652635246515274,-0.00013315794058144093,0.0003994738217443228
1772810501243950000,7.1369501953125,-0.0005326317623257637,0.0009321055840700865,-0.00013315794058144093
1772810501253830100,7.146830078125,-0.0026631588116288185,-0.0011984214652329683,-0.0006657897029072046
1772810501263710200,7.156710205078125,-0.002130527049303055,-0.0011984214652329683,-0.00013315794058144093
1772810501273590000,7.166590087890625,0.0010652635246515274,0.0003994738217443228,-0.00013315794058144093
1772810501283470000,7.176469970703125,-0.0010652635246515274,-0.00013315794058144093,-0.0011984214652329683
1772810501293350100,7.18635009765625,0.0005326317623257637,0.0003994738217443228,0.0003994738217443228
1772810501303230000,7.19622998046875,0.0005326317623257637,0.0014647373463958502,0.0003994738217443228
1772810501313110000,7.206110107421875,0,0.0003994738217443228,-0.0006657897029072046
1772810501322989800,7.21598974609375,-0.0005326317623257637,-0.00013315794058144093,0.0003994738217443228
1772810501332870000,7.225869873046875,-0.001597895286977291,0.0003994738217443228,-0.001731053227558732
1772810501342750000,7.23575,-0.0005326317623257637,0.0003994738217443228,-0.0006657897029072046
1772810501352629800,7.245629638671875,0.0010652635246515274,0.0025300008710473776,0.0003994738217443228
1772810501362509800,7.255509765625,0,-0.0006657897029072046,0.0009321055840700865
1772810501372390000,7.265389892578125,0,-0.00013315794058144093,-0.0006657897029072046
1772810501382269700,7.275269775390625,-0.0010652635246515274,0.0003994738217443228,0.0003994738217443228
1772810501392149800,7.285149658203125,0.0005326317623257637,-0.001731053227558732,-0.0006657897029072046
1772810501402029600,7.295029541015625,-0.001597895286977291,0.0025300008710473776,0.0003994738217443228
1772810501411909600,7.30490966796875,0,0.0003994738217443228,0.0003994738217443228
1772810501421789700,7.314789794921875,0.0005326317623257637,0.0003994738217443228,0.0003994738217443228
1772810501431669500,7.32466943359375,0.0010652635246515274,0.0009321055840700865,-0.0006657897029072046
1772810501441549600,7.334549560546875,0,0.0003994738217443228,-0.00013315794058144093
1772810501451429600,7.3444296875,-0.0005326317623257637,0.0009321055840700865,-0.00013315794058144093
1772810501461309400,7.354309326171875,0,0.0003994738217443228,-0.00013315794058144093
1772810501471189500,7.364189453125,-0.0010652635246515274,0.0009321055840700865,0.0014647373463958502
1772810501481069300,7.3740693359375,-0.0005326317623257637,-0.001731053227558732,-0.0006657897029072046
1772810501490949400,7.383949462890625,-0.0010652635246515274,0.0009321055840700865,0.0014647373463958502
1772810501500829400,7.393829345703125,-0.001597895286977291,0.0009321055840700865,-0.0011984214652329683
1772810501510709200,7.403709228515625,0,0.0003994738217443228,0.0003994738217443228
1772810501520589300,7.41358935546875,0,0.0003994738217443228,-0.00013315794058144093
1772810501530469400,7.423469482421875,0.0010652635246515274,0.001997369108721614,-0.00013315794058144093
1772810501540349200,7.43334912109375,0,0.0025300008710473776,-0.0006657897029072046
1772810501550229200,7.443229248046875,-0.0005326317623257637,-0.00013315794058144093,-0.0006657897029072046
1772810501560109000,7.453109130859375,-0.0005326317623257637,-0.00013315794058144093,-0.0006657897029072046
1772810501569989000,7.462989013671875,0,-0.001731053227558732,-0.0006657897029072046
1772810501579869200,7.472869140625,-0.0010652635246515274,0.0003994738217443228,0.0009321055840700865
1772810501589749000,7.4827490234375,0.0010652635246515274,-0.0011984214652329683,-0.0006657897029072046
1772810501599629000,7.492629150390625,0,0.0003994738217443228,-0.00013315794058144093
1772810501609509000,7.502509033203125,-0.0005326317623257637,0.0003994738217443228,0.0003994738217443228
1772810501619389000,7.512388916015625,0.0011984214652329683,0.0007989476434886456,0.0010652635246515274
1772810501629269000,7.52226904296875,0.00013315794058144093,-0.00026631588116288185,-0.0005326317623257637
1772810501639148800,7.532148681640625,0.0022636849898844957,0.0023968429304659367,-0.0005326317623257637
1772810501649028900,7.54202880859375,0.0006657897029072046,0.001864211168140173,-0.0005326317623257637
1772810501658909000,7.551908935546875,0.001731053227558732,-0.0013315794058144093,0.0010652635246515274
1772810501668788700,7.561788818359375,0.0006657897029072046,-0.0007989476434886456,0.0010652635246515274
1772810501678668800,7.571668701171875,0.0006657897029072046,0.00026631588116288185,-0.001597895286977291
1772810501688548900,7.581548828125,0.0011984214652329683,0.0007989476434886456,0.001597895286977291
1772810501698428700,7.5914287109375,0.00013315794058144093,-0.0007989476434886456,-0.0010652635246515274
1772810501708308700,7.601308837890625,-0.0003994738217443228,0.001864211168140173,0.0005326317623257637
1772810501718188500,7.6111884765625,0.0011984214652329683,-0.0007989476434886456,0.0005326317623257637
1772810501728068600,7.621068603515625,-0.0003994738217443228,0.0013315794058144093,0.0005326317623257637
1772810501737948400,7.630948486328125,0.0011984214652329683,-0.00026631588116288185,-0.0005326317623257637
1772810501747828500,7.640828369140625,0.0006657897029072046,-0.0007989476434886456,0.0005326317623257637
1772810501757708500,7.65070849609375,0.0022636849898844957,0.00026631588116288185,0
1772810501767588600,7.660588623046875,-0.0009321055840700865,-0.0007989476434886456,0.0005326317623257637
1772810501777468400,7.670468505859375,-0.0003994738217443228,-0.00026631588116288185,-0.0010652635246515274
1772810501787348500,7.680348388671875,0.00013315794058144093,-0.001864211168140173,0
1772810501797228300,7.690228271484375,0.00013315794058144093,0.0007989476434886456,-0.0010652635246515274
1772810501807108400,7.7001083984375,-0.0014647373463958502,-0.0023968429304659367,-0.0005326317623257637
1772810501816988200,7.70998828125,-0.0014647373463958502,0.0007989476434886456,0.0005326317623257637
1772810501826868200,7.7198681640625,-0.0003994738217443228,0.0013315794058144093,0.0005326317623257637
1772810501836748300,7.729748291015625,0.00013315794058144093,0.00026631588116288185,-0.0010652635246515274
1772810501846628000,7.739628173828125,-0.0003994738217443228,-0.0013315794058144093,0
1772810501856508200,7.749508056640625,0.00013315794058144093,-0.0023968429304659367,0
1772810501866388200,7.75938818359375,0.0011984214652329683,-0.00026631588116288185,-0.0005326317623257637
1772810501876268000,7.76926806640625,-0.001997369108721614,0.0007989476434886456,-0.0010652635246515274
1772810501886148000,7.779148193359375,0.00013315794058144093,0.0007989476434886456,-0.0010652635246515274
1772810501896028000,7.78902783203125,-0.0009321055840700865,-0.0013315794058144093,0.0005326317623257637
1772810501905908000,7.798907958984375,-0.0003994738217443228,0.0007989476434886456,-0.0005326317623257637
1772810501915788000,7.8087880859375,0.00013315794058144093,0.00026631588116288185,0
1772810501925667800,7.818667724609375,-0.0003994738217443228,0.0007989476434886456,-0.0010652635246515274
1772810501935548000,7.8285478515625,0.0006657897029072046,-0.00026631588116288185,0
1772810501945428000,7.838427978515625,-0.0009321055840700865,-0.0007989476434886456,0.0005326317623257637
1772810501955307800,7.848307861328125,-0.0009321055840700865,0.00026631588116288185,-0.0005326317623257637
1772810501965187800,7.858187744140625,0.001731053227558732,0.00026631588116288185,-0.0005326317623257637
1772810501975067600,7.868067626953125,-0.0014647373463958502,0.001864211168140173,0.0005326317623257637
1772810501984947700,7.87794775390625,-0.0003994738217443228,0.0007989476434886456,0
1772810501994827800,7.887827880859375,-0.0003994738217443228,0.0007989476434886456,0.0005326317623257637
1772810502004707300,7.897707275390625,0.0011984214652329683,0.0013315794058144093,0
1772810502014587100,7.907587158203125,0.0006657897029072046,-0.00026631588116288185,-0.0010652635246515274
1772810502024466700,7.917466796875,0.00013315794058144093,-0.0007989476434886456,0.0005326317623257637
1772810502034346500,7.927346435546875,0.0022636849898844957,0.0007989476434886456,0
1772810502044226000,7.93722607421875,-0.0003994738217443228,0.00026631588116288185,0.0005326317623257637
1772810502054105900,7.94710595703125,0.0006657897029072046,-0.00026631588116288185,0
1772810502063985400,7.9569853515625,-0.0003994738217443228,0.00026631588116288185,0.0010652635246515274
1772810502073865200,7.966865234375,-0.0014647373463958502,-0.0007989476434886456,-0.0005326317623257637
1772810502083744800,7.976744873046875,0.0011984214652329683,0.0013315794058144093,0
1772810502093624600,7.98662451171875,0.00013315794058144093,0.00026631588116288185,0.0010652635246515274
1772810502113384000,8.006384033203124,0.0006657897029072046,-0.0007989476434886456,0.0005326317623257637
1772810502133143300,8.026143310546875,0.00013315794058144093,-0.00026631588116288185,-0.0005326317623257637
1772810502143023000,8.036023193359375,-0.0003994738217443228,0.00026631588116288185,-0.0010652635246515274
1772810502152902700,8.045902587890625,-0.0003994738217443228,0.0007989476434886456,0.0005326317623257637
1772810502162782500,8.055782470703125,-0.0014647373463958502,-0.0013315794058144093,0.0005326317623257637
1772810502172662000,8.065662109375,-0.0009321055840700865,0.0007989476434886456,0.0005326317623257637
1772810502182541800,8.075541748046875,0.00013315794058144093,0.00026631588116288185,-0.0005326317623257637
1772810502192421400,8.08542138671875,0.0006657897029072046,-0.0023968429304659367,0.002130527049303055
1772810502202301200,8.09530126953125,-0.0003994738217443228,0.00026631588116288185,-0.0005326317623257637
1772810502212180700,8.1051806640625,0.001731053227558732,-0.00026631588116288185,0
1772810502222060500,8.115060546875,0.0006657897029072046,0.0013315794058144093,0
1772810502231940000,8.124940185546874,0.00013315794058144093,-0.0007989476434886456,0.0010652635246515274
1772810502241820000,8.13481982421875,0.0006657897029072046,0.00026631588116288185,0.0010652635246515274
1772810502251699700,8.14469970703125,0.00013315794058144093,-0.0013315794058144093,-0.0010652635246515274
1772810502261579300,8.154579345703125,0.001731053227558732,0.00026631588116288185,0
1772810502271459000,8.164458984375,-0.0003994738217443228,-0.00026631588116288185,0
1772810502281338600,8.174338623046875,0.001731053227558732,0.00026631588116288185,0
1772810502291218400,8.184218505859375,0.00013315794058144093,-0.00026631588116288185,0
1772810502301098000,8.194097900390625,0.00013315794058144093,0.001864211168140173,0.0005326317623257637
1772810502310977800,8.203977783203126,0.0027963167522102594,0.0007989476434886456,0.0010652635246515274
1772810502320857300,8.213857421875,-0.0009321055840700865,0.00026631588116288185,0.0005326317623257637
1772810502330737200,8.223737060546876,0.0011984214652329683,-0.0007989476434886456,0.0005326317623257637
1772810502340616700,8.23361669921875,0.00013315794058144093,0.00026631588116288185,0.0010652635246515274
1772810502350496500,8.24349658203125,-0.0003994738217443228,0.001864211168140173,0
1772810502360376300,8.253376220703124,-0.0009321055840700865,-0.001864211168140173,-0.0010652635246515274
1772810502370256000,8.263255859375,0.00013315794058144093,0.0007989476434886456,0.0005326317623257637
1772810502380135700,8.2731357421875,-0.0009321055840700865,0.00026631588116288185,0.0005326317623257637
1772810502390015200,8.28301513671875,0.0006657897029072046,-0.0013315794058144093,0
1772810502399895000,8.29289501953125,0.00013315794058144093,0.0007989476434886456,0
1772810502409774600,8.302774658203125,-0.0003994738217443228,-0.003994738217443228,0
1772810502419654400,8.312654296875,0.00013315794058144093,-0.00026631588116288185,0.0005326317623257637
1772810502429534000,8.322533935546875,0.001731053227558732,-0.0013315794058144093,0.002130527049303055
1772810502439413800,8.332413818359376,0.00013315794058144093,-0.00026631588116288185,0.0005326317623257637
1772810502449293300,8.342293212890626,0.00013315794058144093,0.001864211168140173,0.0005326317623257637
1772810502459173000,8.352173095703124,0.001731053227558732,-0.0013315794058144093,0.0005326317623257637
1772810502469053000,8.362052978515624,-0.0014647373463958502,0.0007989476434886456,0
1772810502478932500,8.371932373046874,0.00013315794058144093,0.00026631588116288185,-0.0005326317623257637
1772810502488812300,8.381812255859375,0.0006657897029072046,-0.0023968429304659367,-0.0005326317623257637
1772810502498692000,8.391692138671875,0.0006657897029072046,-0.0007989476434886456,-0.0005326317623257637
1772810502508572400,8.401572509765625,-0.0009321055840700865,0.00026631588116288185,0.001597895286977291
1772810502518452700,8.41145263671875,-0.0009321055840700865,-0.00026631588116288185,-0.0010652635246515274
1772810502528333000,8.4213330078125,-0.0003994738217443228,-0.0013315794058144093,0.0005326317623257637
1772810502538213400,8.43121337890625,-0.0003994738217443228,0.00026631588116288185,0.0005326317623257637
1772810502548094000,8.441093994140624,0.0011984214652329683,-0.0007989476434886456,-0.0010652635246515274
1772810502557974300,8.450974365234375,-0.0009321055840700865,0.0007989476434886456,0.0026631588116288185
1772810502567854600,8.4608544921875,0.00013315794058144093,0.003462106455117464,-0.002130527049303055
1772810502577735000,8.47073486328125,0.00013315794058144093,0.0023968429304659367,-0.0010652635246515274
1772810502587615200,8.480615234375,0.0006657897029072046,-0.001864211168140173,0.0026631588116288185
1772810502597495600,8.49049560546875,0.0006657897029072046,0.0007989476434886456,-0.0010652635246515274
1772810502607376000,8.5003759765625,0.0006657897029072046,0.00026631588116288185,0
1772810502617256200,8.510256103515625,0.00013315794058144093,0.00026631588116288185,0.001597895286977291
1772810502627136500,8.520136474609375,0.0006657897029072046,0.00026631588116288185,0
1772810502637016800,8.530016845703125,0.0011984214652329683,-0.00026631588116288185,-0.0010652635246515274
1772810502646897400,8.5398974609375,0.0011984214652329683,0.00026631588116288185,0.0005326317623257637
1772810502656777700,8.54977783203125,0.0006657897029072046,0.001864211168140173,0
1772810502666658000,8.559657958984374,0.00013315794058144093,0.0013315794058144093,-0.0005326317623257637
1772810502676538400,8.569538330078124,0.0006657897029072046,-0.00026631588116288185,-0.0005326317623257637
1772810502686418700,8.579418701171875,-0.0009321055840700865,-0.0007989476434886456,0
1772810502696299000,8.589299072265625,-0.001997369108721614,0.0023968429304659367,-0.0010652635246515274
1772810502706179300,8.599179443359375,0.0006657897029072046,-0.0023968429304659367,0.0005326317623257637
1772810502716059600,8.6090595703125,-0.0003994738217443228,0.0007989476434886456,0.0005326317623257637
1772810502725940000,8.61893994140625,0.001731053227558732,0.0013315794058144093,-0.001597895286977291
1772810502735820300,8.6288203125,-0.0009321055840700865,-0.003994738217443228,0.003195790573954582
1772810502745700600,8.63870068359375,-0.0003994738217443228,-0.00026631588116288185,0.003195790573954582
1772810502755581000,8.648580810546875,0.0011984214652329683,0.0029294746927917004,-0.00426105409860611
1772810502765461500,8.65846142578125,-0.0003994738217443228,-0.0013315794058144093,-0.0005326317623257637
1772810502775341800,8.668341796875,-0.0009321055840700865,-0.0023968429304659367,0.002130527049303055
1772810502785222100,8.67822216796875,0.001731053227558732,-0.0007989476434886456,0.0010652635246515274
1772810502795102500,8.6881025390625,-0.0003994738217443228,0.0007989476434886456,-0.001597895286977291
1772810502804982800,8.697982666015625,0.0006657897029072046,-0.00026631588116288185,0
1772810502814863000,8.707863037109375,0.0011984214652329683,0.0013315794058144093,0.002130527049303055
1772810502824743400,8.717743408203125,-0.0014647373463958502,-0.00026631588116288185,-0.001597895286977291
1772810502834623700,8.727623779296875,-0.0003994738217443228,0.00026631588116288185,0.001597895286977291
1772810502844504000,8.737504150390626,-0.0003994738217443228,0.0007989476434886456,0.0005326317623257637
1772810502854384600,8.747384521484374,0.00013315794058144093,-0.00026631588116288185,-0.0005326317623257637
1772810502864265000,8.757264892578124,0.0006657897029072046,-0.003462106455117464,0.002130527049303055
1772810502874145300,8.767145263671875,0.00013315794058144093,0.001864211168140173,-0.002130527049303055
1772810502884025600,8.777025634765625,-0.0003994738217443228,-0.00026631588116288185,0.0005326317623257637
1772810502893906000,8.786906005859375,-0.0003994738217443228,0.0013315794058144093,0.0010652635246515274
1772810502903786200,8.7967861328125,-0.0003994738217443228,0.0023968429304659367,-0.001597895286977291
1772810502913666600,8.80666650390625,-0.0009321055840700865,-0.0007989476434886456,0.0005326317623257637
1772810502923547000,8.816546875,-0.0003994738217443228,0.00026631588116288185,-0.001597895286977291
1772810502933427200,8.82642724609375,-0.0003994738217443228,-0.0013315794058144093,0.0005326317623257637
1772810502943307500,8.8363076171875,-0.0003994738217443228,-0.001864211168140173,0
1772810502953187800,8.846187744140625,0.0006657897029072046,0.0013315794058144093,-0.0026631588116288185
1772810502963068200,8.856068115234375,0.0011984214652329683,-0.00026631588116288185,0.0010652635246515274
1772810502972948700,8.86594873046875,0.0006657897029072046,0.0007989476434886456,-0.001597895286977291
1772810502982829000,8.8758291015625,0.00013315794058144093,-0.00026631588116288185,0.002130527049303055
1772810502992709400,8.88570947265625,-0.0003994738217443228,0.0013315794058144093,0.0010652635246515274
1772810503002589200,8.895589111328125,0.00013315794058144093,0.0007989476434886456,0
1772810503012469200,8.90546923828125,0.00013315794058144093,0.0007989476434886456,0.0010652635246515274
1772810503022349000,8.91534912109375,0.0011984214652329683,-0.0007989476434886456,0
1772810503032228900,8.925228759765625,0.00013315794058144093,0.0007989476434886456,0
1772810503042109000,8.93510888671875,-0.0003994738217443228,-0.0013315794058144093,0
1772810503051988700,8.94498876953125,0.0011984214652329683,0.00026631588116288185,-0.001597895286977291
1772810503061868500,8.95486865234375,0.00013315794058144093,0.0013315794058144093,0.0010652635246515274
1772810503071748600,8.96474853515625,0.0006657897029072046,-0.0007989476434886456,0
1772810503081628400,8.97462841796875,0.00013315794058144093,-0.001864211168140173,0.0005326317623257637
1772810503091508200,8.98450830078125,0.00013315794058144093,0.0007989476434886456,0.0010652635246515274
1772810503101388300,8.99438818359375,-0.001997369108721614,-0.0007989476434886456,-0.002130527049303055
1772810503111268000,9.00426806640625,0.0006657897029072046,0.0013315794058144093,0.0005326317623257637
1772810503121148000,9.01414794921875,-0.0009321055840700865,0.0007989476434886456,-0.0010652635246515274
1772810503131028000,9.024028076171875,0.001731053227558732,0.0013315794058144093,0
1772810503140907800,9.03390771484375,-0.0003994738217443228,0.00026631588116288185,-0.0005326317623257637
1772810503150787600,9.04378759765625,0.0006657897029072046,0.0007989476434886456,-0.0010652635246515274
1772810503160667600,9.053667724609374,-0.0003994738217443228,-0.0007989476434886456,0.001597895286977291
1772810503170547500,9.06354736328125,-0.0003994738217443228,0.0013315794058144093,0
1772810503180427500,9.073427490234375,-0.0009321055840700865,-0.00026631588116288185,0
1772810503190307300,9.083307373046875,0.0006657897029072046,0.00026631588116288185,0.0010652635246515274
1772810503200187100,9.093187255859375,-0.0009321055840700865,-0.0007989476434886456,0.0005326317623257637
1772810503210067200,9.103067138671875,0.001731053227558732,0.0007989476434886456,0.0005326317623257637
1772810503219947000,9.112947021484375,0.0011984214652329683,0.003462106455117464,-0.0010652635246515274
1772810503229826800,9.122826904296875,-0.001997369108721614,0.00026631588116288185,-0.0010652635246515274
1772810503239707000,9.132706787109376,0.00013315794058144093,-0.0013315794058144093,-0.001597895286977291
1772810503249586700,9.142586669921876,0.00013315794058144093,0.0013315794058144093,-0.0010652635246515274
1772810503259466500,9.152466552734374,-0.0003994738217443228,-0.0013315794058144093,-0.001597895286977291
1772810503269346600,9.1623466796875,-0.0009321055840700865,-0.0013315794058144093,0
1772810503279226400,9.172226318359375,-0.0009321055840700865,-0.0013315794058144093,-0.0005326317623257637
1772810503289106200,9.182106201171875,-0.0003994738217443228,0.0007989476434886456,0.0010652635246515274
1772810503298986200,9.191986328125,0.0006657897029072046,-0.0013315794058144093,-0.001597895286977291
1772810503308866000,9.201865966796875,-0.0009321055840700865,-0.0013315794058144093,0.0005326317623257637
1772810503318745900,9.211745849609375,0.00013315794058144093,-0.00026631588116288185,0
1772810503328626000,9.2216259765625,0.0006657897029072046,0.00026631588116288185,0.0005326317623257637
1772810503338505700,9.231505615234376,0.00013315794058144093,0.00026631588116288185,0
1772810503348385500,9.241385498046874,0.0006657897029072046,-0.00026631588116288185,-0.0010652635246515274
1772810503358265600,9.251265625,-0.001997369108721614,-0.0013315794058144093,-0.001597895286977291
1772810503368145400,9.2611455078125,-0.0003994738217443228,0.0007989476434886456,-0.0010652635246515274
1772810503378025200,9.271025146484375,-0.0003994738217443228,0.001864211168140173,0.0005326317623257637
1772810503387905300,9.2809052734375,0.00013315794058144093,-0.0007989476434886456,0.0010652635246515274
1772810503397785000,9.29078515625,0.00013315794058144093,-0.001864211168140173,0
1772810503407665000,9.300664794921875,-0.0003994738217443228,-0.0007989476434886456,0.0010652635246515274
1772810503417545000,9.310544921875,-0.0003994738217443228,-0.00026631588116288185,0.002130527049303055
1772810503427424800,9.3204248046875,0.0022636849898844957,-0.0013315794058144093,-0.0005326317623257637
1772810503437304600,9.3303046875,-0.0009321055840700865,-0.00026631588116288185,0
1772810503447184600,9.3401845703125,0.0006657897029072046,-0.00026631588116288185,-0.0005326317623257637
1772810503457064400,9.350064453125,-0.0014647373463958502,-0.0013315794058144093,0.0010652635246515274
1772810503466944300,9.3599443359375,-0.0003994738217443228,0.0023968429304659367,0
1772810503476824300,9.36982421875,0.00013315794058144093,-0.0013315794058144093,0
1772810503486704000,9.3797041015625,-0.0014647373463958502,0.00026631588116288185,0.001597895286977291
1772810503496584000,9.389583984375,-0.0003994738217443228,-0.0013315794058144093,0
1772810503506463700,9.399463623046875,0.00013315794058144093,-0.00026631588116288185,0.0005326317623257637
1772810503516343300,9.40934326171875,-0.0003994738217443228,-0.00026631588116288185,0.0010652635246515274
1772810503526222800,9.419222900390626,0.00013315794058144093,0.0013315794058144093,-0.0005326317623257637
1772810503536102700,9.4291025390625,-0.0003994738217443228,0.001864211168140173,0.0005326317623257637
1772810503545982200,9.438982177734376,-0.0009321055840700865,-0.0007989476434886456,0
1772810503555862000,9.448862060546874,0.00013315794058144093,-0.00026631588116288185,-0.0010652635246515274
1772810503565741600,9.458741455078124,0.001731053227558732,-0.0007989476434886456,0.0010652635246515274
1772810503575621000,9.46862109375,-0.0003994738217443228,-0.00026631588116288185,0.0010652635246515274
1772810503585501000,9.4785009765625,0.0006657897029072046,-0.0013315794058144093,0.001597895286977291
1772810503595380500,9.48838037109375,0.0011984214652329683,0.00026631588116288185,0.0005326317623257637
1772810503605260000,9.498260009765625,-0.0003994738217443228,-0.0007989476434886456,0
1772810503615139800,9.508139892578125,-0.0025300008710473776,-0.0007989476434886456,0.0005326317623257637
1772810503625019400,9.518019287109375,-0.0003994738217443228,0.00026631588116288185,-0.0005326317623257637
1772810503634899200,9.527899169921875,0.0006657897029072046,0.0007989476434886456,-0.0005326317623257637
1772810503644778800,9.53777880859375,-0.0009321055840700865,0.00026631588116288185,0
1772810503654658600,9.547658447265626,0.0006657897029072046,-0.0007989476434886456,0.0005326317623257637
1772810503664538000,9.5575380859375,0.0006657897029072046,0.0007989476434886456,-0.0010652635246515274
1772810503674417700,9.567417724609374,-0.0009321055840700865,0.001864211168140173,-0.0005326317623257637
1772810503684297200,9.577297119140624,0.0006657897029072046,0.0007989476434886456,0.0005326317623257637
1772810503694177000,9.587177001953124,0.0006657897029072046,0.0007989476434886456,-0.0010652635246515274
1772810503704056600,9.597056640625,-0.0003994738217443228,0.0013315794058144093,0.0005326317623257637
1772810503713936400,9.606936279296875,0.001731053227558732,0.0007989476434886456,0.002130527049303055
1772810503723816000,9.61681591796875,0.00013315794058144093,0.00026631588116288185,0.001597895286977291
1772810503733695700,9.62669580078125,-0.0003994738217443228,-0.0007989476434886456,0.0010652635246515274
1772810503743575300,9.6365751953125,-0.0009321055840700865,-0.0007989476434886456,-0.0010652635246515274
1772810503753454800,9.646454833984375,0.0006657897029072046,-0.0007989476434886456,0.0005326317623257637
1772810503763334700,9.656334716796875,-0.0003994738217443228,0.00026631588116288185,0
1772810503773214200,9.666214111328125,0.001731053227558732,-0.00026631588116288185,-0.0005326317623257637
1772810503783093800,9.67609375,-0.0009321055840700865,-0.0023968429304659367,-0.0010652635246515274
1772810503792973600,9.6859736328125,-0.0014647373463958502,0.0007989476434886456,0
1772810503802853000,9.69585302734375,-0.0009321055840700865,-0.0023968429304659367,0.0010652635246515274
1772810503812733000,9.70573291015625,-0.001997369108721614,0.0013315794058144093,-0.002130527049303055
1772810503822612500,9.715612548828124,-0.0003994738217443228,-0.0007989476434886456,0.0005326317623257637
1772810503832492000,9.725491943359375,-0.0003994738217443228,-0.0007989476434886456,-0.0005326317623257637
1772810503842371800,9.735371826171875,0.00013315794058144093,-0.00026631588116288185,-0.0005326317623257637
1772810503852251400,9.74525146484375,0.0011984214652329683,0.00026631588116288185,0.0005326317623257637
1772810503862131000,9.755130859375,0.0006657897029072046,0.001864211168140173,0.0005326317623257637
1772810503872010800,9.7650107421875,-0.0003994738217443228,0.0013315794058144093,0.0010652635246515274
1772810503881890300,9.774890380859375,0.0006657897029072046,-0.00026631588116288185,-0.0005326317623257637
1772810503891770000,9.78477001953125,0.0006657897029072046,-0.0007989476434886456,0
1772810503901649700,9.794649658203125,0.00013315794058144093,0.0013315794058144093,0
1772810503911529200,9.804529296875,-0.0014647373463958502,-0.00026631588116288185,0
1772810503921409000,9.814408935546876,0.001731053227558732,0.00026631588116288185,0
1772810503931288600,9.82428857421875,-0.0003994738217443228,-0.0023968429304659367,-0.0005326317623257637
1772810503941168000,9.834168212890624,0.00013315794058144093,-0.0007989476434886456,-0.0005326317623257637
1772810503951048000,9.8440478515625,0.00013315794058144093,-0.001864211168140173,0
1772810503960927500,9.853927490234375,-0.0009321055840700865,-0.001864211168140173,0.0005326317623257637
1772810503970807300,9.863807373046875,-0.0009321055840700865,0.00026631588116288185,0
1772810503980686800,9.873686767578125,-0.0003994738217443228,-0.00026631588116288185,0
1772810504000446500,9.893446533203125,0.0006657897029072046,0.0013315794058144093,0
1772810504010326800,9.903326904296875,-0.0009321055840700865,-0.0007989476434886456,0
1772810504020206800,9.913206787109376,-0.0014647373463958502,-0.00026631588116288185,0.0005326317623257637
1772810504030087200,9.923087158203124,0.00013315794058144093,0.00026631588116288185,0.001597895286977291
1772810504039967500,9.932967529296874,-0.0009321055840700865,-0.0007989476434886456,0.0005326317623257637
1772810504049847800,9.942847900390625,0.0011984214652329683,0.00026631588116288185,0.001597895286977291
1772810504059728000,9.952727783203125,0.00013315794058144093,-0.0013315794058144093,0.0010652635246515274
1772810504069608200,9.962608154296875,0.0006657897029072046,-0.001864211168140173,0.0005326317623257637
1772810504079488500,9.972488525390625,0.00013315794058144093,0.00026631588116288185,0
1772810504089368800,9.982368896484376,-0.0009321055840700865,-0.001864211168140173,0
1772810504099249000,9.992248779296874,-0.0003994738217443228,-0.0007989476434886456,0.0005326317623257637
1772810504119009500,10.012009521484375,-0.0009321055840700865,-0.0013315794058144093,-0.0010652635246515274
1772810504128889900,10.021889892578125,-0.0025300008710473776,0.0013315794058144093,0.001597895286977291
1772810504138770200,10.031770263671875,0.0006657897029072046,0.0023968429304659367,0.0010652635246515274
1772810504148650200,10.041650146484375,0.00013315794058144093,0.0013315794058144093,0.0005326317623257637
1772810504158530600,10.051530517578126,-0.0003994738217443228,-0.0007989476434886456,0.0010652635246515274
1772810504168411000,10.061410888671874,0.0006657897029072046,-0.0007989476434886456,0
1772810504178291200,10.071291259765625,-0.0009321055840700865,-0.00026631588116288185,0.002130527049303055
1772810504188171300,10.081171142578125,-0.0003994738217443228,-0.00026631588116288185,-0.002130527049303055
1772810504198051600,10.091051513671875,0.00013315794058144093,-0.00026631588116288185,0
1772810504207932000,10.100931884765625,0.001731053227558732,-0.0007989476434886456,0.0005326317623257637
1772810504217812200,10.110812255859376,0.0011984214652329683,-0.00026631588116288185,-0.0010652635246515274
1772810504227692300,10.1206923828125,0.0006657897029072046,-0.0007989476434886456,0
1772810504237572600,10.130572509765624,0.00013315794058144093,0.00026631588116288185,-0.0005326317623257637
1772810504247453000,10.140452880859375,0.0006657897029072046,0.00026631588116288185,0
1772810504257333200,10.150333251953125,0.00013315794058144093,-0.0007989476434886456,-0.001597895286977291
1772810504267213300,10.16021337890625,0.0006657897029072046,-0.00026631588116288185,0.0005326317623257637
1772810504277093600,10.17009375,-0.0030626326333731413,-0.0023968429304659367,0
1772810504286974000,10.179973876953126,0.0006657897029072046,-0.0013315794058144093,0.0005326317623257637
1772810504296854300,10.189854248046874,-0.0003994738217443228,-0.00026631588116288185,0
1772810504306734600,10.199734619140624,-0.0003994738217443228,0.00026631588116288185,0.0010652635246515274
1772810504316614700,10.20961474609375,0.0006657897029072046,-0.0007989476434886456,0
1772810504326495000,10.219494873046875,0.0011984214652329683,-0.00026631588116288185,-0.0010652635246515274
1772810504336375300,10.229375244140625,-0.0009321055840700865,-0.0007989476434886456,0.0010652635246515274
1772810504356135700,10.2491357421875,-0.0003994738217443228,-0.00026631588116288185,-0.0005326317623257637
1772810504366016000,10.25901611328125,-0.0014647373463958502,0.00026631588116288185,0.0005326317623257637
1772810504375896300,10.268896240234374,0.0011984214652329683,0.0007989476434886456,0.002130527049303055
1772810504385776600,10.278776611328125,0.00013315794058144093,0.001864211168140173,-0.002130527049303055
1772810504395656700,10.28865673828125,0.00013315794058144093,-0.00026631588116288185,0
1772810504405537000,10.298537109375,0.0006657897029072046,-0.0013315794058144093,-0.0010652635246515274
1772810504415417300,10.308417236328125,0.0011984214652329683,0.00026631588116288185,-0.0005326317623257637
1772810504425297700,10.318297607421876,-0.0009321055840700865,-0.00026631588116288185,0.0005326317623257637
1772810504435178000,10.328177978515624,-0.0003994738217443228,-0.0007989476434886456,-0.0010652635246515274
1772810504454938400,10.3479384765625,0.0006657897029072046,0.0013315794058144093,0.0005326317623257637
1772810504464818700,10.357818603515625,0.0006657897029072046,-0.001864211168140173,0
1772810504474698800,10.36769873046875,0.00013315794058144093,-0.0013315794058144093,0.001597895286977291
1772810504484579000,10.3775791015625,-0.0003994738217443228,0.00026631588116288185,0.0005326317623257637
1772810504494459400,10.38745947265625,0.00013315794058144093,-0.0013315794058144093,-0.0005326317623257637
1772810504504339500,10.39733935546875,0.001731053227558732,0.00026631588116288185,0
1772810504514219800,10.4072197265625,-0.0014647373463958502,0.0007989476434886456,0
1772810504524099800,10.417099853515625,0.00013315794058144093,-0.0007989476434886456,0.0010652635246515274
1772810504533980200,10.426980224609375,-0.0003994738217443228,-0.0007989476434886456,-0.0005326317623257637
1772810504543860200,10.436860107421875,0.00013315794058144093,0.00026631588116288185,0
1772810504553740500,10.446740478515625,0.00013315794058144093,-0.00026631588116288185,-0.0005326317623257637
1772810504563620600,10.45662060546875,-0.0009321055840700865,0.00026631588116288185,0.0005326317623257637
1772810504573501000,10.4665009765625,-0.0014647373463958502,-0.00026631588116288185,0
1772810504583381000,10.476381103515624,0.0006657897029072046,0.00026631588116288185,-0.0010652635246515274
1772810504593261300,10.48626123046875,0.0006657897029072046,0.0007989476434886456,-0.0005326317623257637
1772810504603141400,10.496141357421875,-0.0009321055840700865,0.00026631588116288185,0
1772810504613021400,10.506021484375,-0.0003994738217443228,0.00026631588116288185,0
1772810504622901800,10.51590185546875,0.0011984214652329683,0.00026631588116288185,0.0010652635246515274
1772810504632781800,10.52578173828125,0.00013315794058144093,0.00026631588116288185,0
1772810504642662100,10.535662109375,0.0006657897029072046,0.0023968429304659367,0.0005326317623257637
1772810504652542200,10.545542236328124,0.0006657897029072046,0.0007989476434886456,0.0005326317623257637
1772810504662422500,10.555422607421875,0.0011984214652329683,-0.00026631588116288185,0.0005326317623257637
1772810504672302600,10.565302490234375,0.00013315794058144093,0.0007989476434886456,-0.0005326317623257637
1772810504682183000,10.575182861328125,-0.0009321055840700865,-0.00026631588116288185,-0.002130527049303055
1772810504692063000,10.58506298828125,0.0011984214652329683,-0.0007989476434886456,-0.001597895286977291
1772810504701943300,10.594943359375,0.00013315794058144093,-0.00026631588116288185,-0.0010652635246515274
1772810504711823400,10.6048232421875,0.00013315794058144093,0.0013315794058144093,-0.0010652635246515274
1772810504721703400,10.614703369140624,-0.0009321055840700865,-0.0007989476434886456,0
1772810504731583700,10.624583740234375,0.00013315794058144093,-0.001864211168140173,0.0010652635246515274
1772810504741463800,10.6344638671875,0.0006657897029072046,0.00026631588116288185,0.0010652635246515274
1772810504751344000,10.64434423828125,-0.0014647373463958502,-0.0007989476434886456,-0.0010652635246515274
1772810504761224200,10.65422412109375,0.00013315794058144093,-0.001864211168140173,0.0010652635246515274
1772810504771104500,10.6641044921875,-0.0014647373463958502,0.0007989476434886456,0.0005326317623257637
1772810504780984600,10.673984619140626,0.001731053227558732,-0.0007989476434886456,0.0005326317623257637
1772810504790865000,10.683864990234374,0.0006657897029072046,-0.0023968429304659367,0.0010652635246515274
1772810504800745000,10.693744873046874,0.00013315794058144093,0.00026631588116288185,-0.0005326317623257637
1772810504810625300,10.703625244140625,-0.0009321055840700865,0.0007989476434886456,-0.0010652635246515274
1772810504820505300,10.71350537109375,0.00013315794058144093,-0.001864211168140173,0.0010652635246515274
1772810504830385400,10.723385498046875,-0.0014647373463958502,0.00026631588116288185,-0.0010652635246515274
1772810504840265700,10.733265625,-0.0003994738217443228,0.0007989476434886456,0.0010652635246515274
1772810504850145800,10.743145751953126,-0.0003994738217443228,0.00026631588116288185,0.0005326317623257637
1772810504860026000,10.753026123046874,-0.0003994738217443228,-0.0013315794058144093,-0.0005326317623257637
1772810504869906200,10.76290625,-0.0009321055840700865,-0.0007989476434886456,-0.0005326317623257637
1772810504879786500,10.772786376953125,-0.0014647373463958502,-0.00026631588116288185,0.001597895286977291
1772810504889666600,10.78266650390625,-0.0009321055840700865,-0.00026631588116288185,-0.0010652635246515274
1772810504899547000,10.792546875,-0.0003994738217443228,-0.00026631588116288185,0.001597895286977291
1772810504909427000,10.802427001953125,0.0006657897029072046,-0.0007989476434886456,0.0010652635246515274
1772810504919307300,10.812307373046876,-0.0003994738217443228,-0.00026631588116288185,0.0010652635246515274
1772810504929187300,10.822187255859374,-0.0009321055840700865,-0.00026631588116288185,-0.0005326317623257637
1772810504939067600,10.832067626953124,-0.0009321055840700865,0.0013315794058144093,0.0005326317623257637
1772810504948947700,10.84194775390625,0.0011984214652329683,-0.0013315794058144093,-0.0010652635246515274
1772810504958828000,10.851828125,0.0006657897029072046,-0.0013315794058144093,-0.0005326317623257637
1772810504968708000,10.8617080078125,-0.0003994738217443228,0.00026631588116288185,0
1772810504978588200,10.871588134765625,-0.0003994738217443228,-0.0007989476434886456,-0.0010652635246515274
1772810504988468500,10.881468505859376,-0.0003994738217443228,-0.0007989476434886456,-0.0005326317623257637
1772810504998348300,10.891348388671876,0.0006657897029072046,0.00026631588116288185,0.0005326317623257637
1772810505008228000,10.90122802734375,-0.0014647373463958502,-0.00026631588116288185,0
1772810505018107600,10.911107666015624,0.00013315794058144093,0.0007989476434886456,0
1772810505027987500,10.920987548828125,0.0011984214652329683,-0.0007989476434886456,-0.0005326317623257637
1772810505037867000,10.930866943359375,0.0006657897029072046,0.0013315794058144093,-0.0005326317623257637
1772810505047746800,10.940746826171875,0.00013315794058144093,0.00026631588116288185,-0.0005326317623257637
1772810505057626400,10.95062646484375,0.0006657897029072046,-0.0013315794058144093,0
1772810505067506000,10.960505859375,0.00013315794058144093,-0.0007989476434886456,-0.0005326317623257637
1772810505077385700,10.9703857421875,-0.0009321055840700865,0.0013315794058144093,0.0005326317623257637
1772810505087265300,10.980265380859375,0.00013315794058144093,0.00026631588116288185,0.0010652635246515274
1772810505097145000,10.99014501953125,-0.0009321055840700865,-0.0007989476434886456,-0.0010652635246515274
1772810505107024600,11.000024658203126,-0.0009321055840700865,0.00026631588116288185,0
1772810505116904400,11.009904541015626,-0.0003994738217443228,-0.0007989476434886456,0.0005326317623257637
1772810505136663600,11.02966357421875,0.0011984214652329683,0.0007989476434886456,-0.0010652635246515274
1772810505146543400,11.03954345703125,0.00013315794058144093,0.0013315794058144093,0.002130527049303055
1772810505156423000,11.0494228515625,0.0006657897029072046,-0.001864211168140173,0.001597895286977291
1772810505166302700,11.059302734375,0.00013315794058144093,0.0010652635246515274,0.0003994738217443228
1772810505176182300,11.069182373046875,0.0006657897029072046,-0.0010652635246515274,0.0009321055840700865
1772810505186061800,11.079061767578125,-0.0003994738217443228,-0.0005326317623257637,-0.00013315794058144093
1772810505195941600,11.088941650390625,-0.0014647373463958502,-0.0005326317623257637,0.0003994738217443228
1772810505205821200,11.0988212890625,-0.0009321055840700865,-0.002130527049303055,-0.0011984214652329683
1772810505215701000,11.108700927734375,0.0006657897029072046,-0.0005326317623257637,0.0009321055840700865
1772810505225580500,11.11858056640625,0.00013315794058144093,-0.0010652635246515274,-0.001731053227558732
1772810505235460400,11.12846044921875,-0.0003994738217443228,0.0005326317623257637,-0.0006657897029072046
1772810505245340000,11.13833984375,0.0006657897029072046,-0.0010652635246515274,-0.0006657897029072046
1772810505255219500,11.148219482421876,-0.0009321055840700865,-0.0010652635246515274,-0.0006657897029072046
1772810505265099300,11.158099365234374,-0.0003994738217443228,0,0.0003994738217443228
1772810505274978800,11.167978759765624,0.00013315794058144093,0.0026631588116288185,-0.0022636849898844957
1772810505284858600,11.177858642578125,-0.0003994738217443228,0.0005326317623257637,0.0003994738217443228
1772810505294738200,11.18773828125,0.0006657897029072046,0,-0.0006657897029072046
1772810505304618000,11.197617919921875,-0.0009321055840700865,0,0.0009321055840700865
1772810505314497500,11.20749755859375,-0.0009321055840700865,0.0010652635246515274,-0.00013315794058144093
1772810505324377000,11.217377197265625,0.0006657897029072046,0,0.0014647373463958502
1772810505334257000,11.2272568359375,0.00013315794058144093,0,-0.00013315794058144093
1772810505344136400,11.237136474609375,0.00013315794058144093,0.0005326317623257637,-0.0011984214652329683
1772810505354016300,11.247016357421876,0.00013315794058144093,-0.0010652635246515274,-0.001731053227558732
1772810505363895800,11.256895751953126,0.001731053227558732,0.003195790573954582,0.0009321055840700865
1772810505373775400,11.266775390625,0.0011984214652329683,-0.0005326317623257637,-0.0006657897029072046
1772810505383655200,11.2766552734375,0.00013315794058144093,0.001597895286977291,-0.0006657897029072046
1772810505393534700,11.28653466796875,0.00013315794058144093,0.0005326317623257637,-0.00013315794058144093
1772810505403414500,11.29641455078125,-0.0003994738217443228,0,-0.0006657897029072046
1772810505413294000,11.306294189453125,0.0006657897029072046,0,-0.00013315794058144093
1772810505423174000,11.316173828125,-0.0009321055840700865,0.0010652635246515274,0.0003994738217443228
1772810505433053400,11.326053466796875,0.00013315794058144093,0,-0.0006657897029072046
1772810505442933200,11.335933349609375,0.0006657897029072046,0.0005326317623257637,0.0009321055840700865
1772810505452812800,11.345812744140625,0.00013315794058144093,0,-0.0006657897029072046
1772810505462692400,11.3556923828125,-0.0003994738217443228,0,0.0003994738217443228
1772810505472572200,11.365572265625,0.0011984214652329683,-0.0010652635246515274,0.0014647373463958502
1772810505482451700,11.37545166015625,-0.0003994738217443228,-0.001597895286977291,-0.00013315794058144093
1772810505492331500,11.38533154296875,0.00013315794058144093,-0.0005326317623257637,-0.0011984214652329683
1772810505502211000,11.395211181640626,0.0006657897029072046,0.001597895286977291,0.0003994738217443228
1772810505512090600,11.405090576171874,-0.0009321055840700865,0,0.0014647373463958502
1772810505521970400,11.414970458984374,-0.0009321055840700865,0.0005326317623257637,0.0003994738217443228
1772810505531850000,11.42485009765625,-0.0009321055840700865,-0.003728422336280346,0.0003994738217443228
1772810505541729800,11.434729736328125,0.00013315794058144093,0.0005326317623257637,-0.00013315794058144093
1772810505551609600,11.444609619140625,-0.0003994738217443228,0,-0.00013315794058144093
1772810505561489200,11.4544892578125,-0.0009321055840700865,-0.0010652635246515274,-0.0006657897029072046
1772810505571369000,11.464368896484375,-0.0003994738217443228,-0.001597895286977291,0.0003994738217443228
1772810505581248500,11.47424853515625,0.0006657897029072046,0.0010652635246515274,0.0014647373463958502
1772810505591128300,11.48412841796875,-0.0003994738217443228,0,-0.0006657897029072046
1772810505601007900,11.4940078125,-0.0003994738217443228,0.0005326317623257637,-0.00013315794058144093
1772810505610887700,11.5038876953125,0.001731053227558732,-0.0005326317623257637,0.0003994738217443228
1772810505620767200,11.513767333984376,-0.0014647373463958502,0.001597895286977291,0.0003994738217443228
1772810505630647000,11.52364697265625,-0.0003994738217443228,0.0005326317623257637,0.0003994738217443228
1772810505640526600,11.533526611328124,-0.0003994738217443228,0,0.0003994738217443228
1772810505650406400,11.543406494140624,-0.0009321055840700865,0.0005326317623257637,0.0003994738217443228
1772810505660286000,11.553285888671875,-0.0014647373463958502,0.0005326317623257637,-0.00013315794058144093
1772810505670165800,11.563165771484375,-0.0003994738217443228,0,-0.0011984214652329683
1772810505680045300,11.57304541015625,-0.0009321055840700865,-0.0005326317623257637,-0.00013315794058144093
1772810505689925000,11.582925048828125,0.00013315794058144093,0,-0.00013315794058144093
1772810505699804700,11.5928046875,-0.0003994738217443228,0.0005326317623257637,-0.0006657897029072046
1772810505709684500,11.6026845703125,-0.0003994738217443228,0.021837901324033737,0.009986845776438713
1772810505719564300,11.612564208984375,-0.0003994738217443228,0,-0.00013315794058144093
1772810505729443800,11.62244384765625,-0.0009321055840700865,0.011185267008841038,0.0030626326333731413
1772810505739323600,11.63232373046875,0.0006657897029072046,0.005858949385583401,0.0025300008710473776
1772810505749203200,11.642203125,-0.0009321055840700865,0.006391581147909164,0.0025300008710473776
1772810505759083000,11.6520830078125,0.0006657897029072046,0.001597895286977291,-0.0011984214652329683
1772810505768962600,11.661962646484374,0.0011984214652329683,-0.0005326317623257637,-0.00013315794058144093
1772810505778842400,11.67184228515625,-0.0009321055840700865,-0.006924212910234928,-0.004394211806356907
1772810505788722000,11.681721923828125,-0.0009321055840700865,-0.014913689345121384,-0.005992107093334198
1772810505798601700,11.691601806640625,0.00013315794058144093,-0.010652635246515274,-0.005459475331008434
1772810505808481300,11.701481201171875,-0.0009321055840700865,-0.005858949385583401,-0.0027963167522102594
1772810505818361000,11.711361083984375,0.00013315794058144093,-0.0010652635246515274,-0.00013315794058144093
