time,seconds_elapsed,z,y,x
1772810412057334300,0.159334228515625,0.0027963167522102594,0.0014647373463958502,0.0014647373463958502
1772810412077093400,0.17909326171875,0.00013315794058144093,0.0003994738217443228,-0.00013315794058144093
1772810412086973000,0.188972900390625,0.00013315794058144093,-0.0006657897029072046,0.0009321055840700865
1772810412096852500,0.1988525390625,0.00013315794058144093,0.0009321055840700865,-0.00013315794058144093
1772810412106732000,0.20873193359375,0.00013315794058144093,-0.0006657897029072046,0.0009321055840700865
1772810412116611600,0.218611572265625,0.001731053227558732,-0.00013315794058144093,0.0009321055840700865
1772810412126491100,0.2284912109375,0.00013315794058144093,0.0009321055840700865,0.0003994738217443228
1772810412136370700,0.23837060546875,-0.0003994738217443228,-0.00013315794058144093,0.0009321055840700865
1772810412146250200,0.248250244140625,-0.0003994738217443228,0.0014647373463958502,-0.0011984214652329683
1772810412156129800,0.2581298828125,-0.001997369108721614,-0.0006657897029072046,-0.00013315794058144093
1772810412166009300,0.26800927734375,-0.0003994738217443228,0.0014647373463958502,-0.0011984214652329683
1772810412175889000,0.277888916015625,-0.0009321055840700865,-0.0006657897029072046,0.0003994738217443228
1772810412185768400,0.2877685546875,-0.0030626326333731413,0.0009321055840700865,-0.0006657897029072046
1772810412195648000,0.29764794921875,-0.0009321055840700865,0.0009321055840700865,-0.0006657897029072046
1772810412205527600,0.307527587890625,0.0011984214652329683,0.0003994738217443228,0.0009321055840700865
1772810412215407000,0.317406982421875,-0.0003994738217443228,-0.00013315794058144093,-0.00013315794058144093
1772810412225286700,0.32728662109375,0.0006657897029072046,0.0014647373463958502,-0.00013315794058144093
1772810412235166200,0.337166259765625,0.0006657897029072046,-0.00013315794058144093,0.0003994738217443228
1772810412245045800,0.347045654296875,0.0006657897029072046,0.0009321055840700865,-0.0006657897029072046
1772810412254925300,0.35692529296875,0.0011984214652329683,-0.003861580276861787,0.0009321055840700865
1772810412264804900,0.366804931640625,0.0011984214652329683,-0.0006657897029072046,0.0003994738217443228
1772810412274684400,0.376684326171875,-0.0003994738217443228,0.0014647373463958502,0.0003994738217443228
1772810412284564000,0.38656396484375,-0.0009321055840700865,0.0009321055840700865,-0.001731053227558732
1772810412294443500,0.396443603515625,-0.0003994738217443228,-0.00013315794058144093,0.0003994738217443228
1772810412304323000,0.406322998046875,-0.0003994738217443228,0.0014647373463958502,-0.00013315794058144093
1772810412314202600,0.41620263671875,0.00013315794058144093,-0.00013315794058144093,-0.00013315794058144093
1772810412324082200,0.426082275390625,-0.0003994738217443228,0.0003994738217443228,0.0009321055840700865
1772810412333961700,0.435961669921875,0.00013315794058144093,-0.0011984214652329683,-0.00013315794058144093
1772810412343841300,0.44584130859375,-0.0003994738217443228,-0.0022636849898844957,-0.0006657897029072046
1772810412353720800,0.455720947265625,0.0011984214652329683,0.0003994738217443228,-0.0011984214652329683
1772810412363600400,0.465600341796875,-0.0003994738217443228,-0.0006657897029072046,-0.0006657897029072046
1772810412373480000,0.47547998046875,0.0011984214652329683,-0.0006657897029072046,-0.00013315794058144093
1772810412383359500,0.485359375,-0.0003994738217443228,-0.0006657897029072046,0.0003994738217443228
1772810412393239000,0.495239013671875,-0.0009321055840700865,-0.00013315794058144093,-0.001731053227558732
1772810412403118600,0.50511865234375,0.0006657897029072046,0.0003994738217443228,-0.00013315794058144093
1772810412412998100,0.514998046875,-0.0003994738217443228,-0.0006657897029072046,-0.0011984214652329683
1772810412422877700,0.524877685546875,-0.0014647373463958502,-0.00013315794058144093,-0.00013315794058144093
1772810412432757200,0.53475732421875,0.00013315794058144093,0.0003994738217443228,-0.00013315794058144093
1772810412442636800,0.54463671875,0.0022636849898844957,0.0009321055840700865,-0.0006657897029072046
1772810412452516400,0.554516357421875,-0.0003994738217443228,0.0003994738217443228,-0.0006657897029072046
1772810412462396000,0.56439599609375,0.00013315794058144093,-0.0011984214652329683,0.0014647373463958502
1772810412472275500,0.574275390625,0.0006657897029072046,-0.0011984214652329683,0.0003994738217443228
1772810412482155000,0.584155029296875,-0.0003994738217443228,-0.0006657897029072046,0.0009321055840700865
1772810412492034600,0.59403466796875,0.0006657897029072046,0.0003994738217443228,0.0003994738217443228
1772810412501914000,0.6039140625,0.00013315794058144093,0.0009321055840700865,-0.00013315794058144093
1772810412511794000,0.6137939453125,0.0006657897029072046,0.0009321055840700865,-0.00013315794058144093
1772810412521673500,0.623673583984375,-0.0025300008710473776,0.001997369108721614,-0.0006657897029072046
1772810412541433000,0.64343310546875,0.00013315794058144093,0.0014647373463958502,-0.00013315794058144093
1772810412551312600,0.653312744140625,-0.0003994738217443228,0.0014647373463958502,-0.0011984214652329683
1772810412561192400,0.6631923828125,0.00013315794058144093,-0.00013315794058144093,-0.0006657897029072046
1772810412571072000,0.673072021484375,0.0006657897029072046,-0.001731053227558732,-0.0027963167522102594
1772810412580951800,0.682951904296875,-0.0009321055840700865,-0.00013315794058144093,-0.0027963167522102594
1772810412590831600,0.69283154296875,0.0006657897029072046,-0.00013315794058144093,-0.0011984214652329683
1772810412600711200,0.702711181640625,-0.0009321055840700865,-0.00013315794058144093,-0.0011984214652329683
1772810412610591000,0.712591064453125,-0.0009321055840700865,-0.00013315794058144093,-0.0022636849898844957
1772810412620470500,0.722470458984375,0.0006657897029072046,0.0003994738217443228,-0.00013315794058144093
1772810412630350300,0.732350341796875,0.0006657897029072046,-0.0011984214652329683,0.003595264395698905
1772810412640230100,0.742230224609375,-0.0003994738217443228,0.0014647373463958502,-0.004394211806356907
1772810412650109700,0.752109619140625,-0.0003994738217443228,0.001997369108721614,-0.0006657897029072046
1772810412659989500,0.761989501953125,0.00013315794058144093,-0.001731053227558732,0.0014647373463958502
1772810412669869000,0.771869140625,0.00013315794058144093,0.0014647373463958502,-0.001731053227558732
1772810412679748900,0.781748779296875,0.001731053227558732,0.0003994738217443228,-0.0011984214652329683
1772810412689628400,0.79162841796875,0.00013315794058144093,-0.00013315794058144093,0.0030626326333731413
1772810412699508200,0.80150830078125,0.00013315794058144093,0.0014647373463958502,-0.0022636849898844957
1772810412709388000,0.811387939453125,0.0006657897029072046,0.0003994738217443228,0.0009321055840700865
1772810412719267600,0.821267578125,-0.0009321055840700865,-0.0011984214652329683,0.001997369108721614
1772810412729147400,0.8311474609375,0.00013315794058144093,-0.00013315794058144093,-0.001731053227558732
1772810412739027200,0.841027099609375,0.0011984214652329683,-0.00013315794058144093,0.001997369108721614
1772810412748906800,0.85090673828125,-0.0009321055840700865,0.0009321055840700865,0.0009321055840700865
1772810412758786600,0.86078662109375,0.00013315794058144093,0.003595264395698905,-0.0011984214652329683
1772810412768666000,0.870666015625,-0.0014647373463958502,-0.0006657897029072046,-0.0006657897029072046
1772810412778546000,0.8805458984375,-0.0014647373463958502,0.0003994738217443228,-0.00013315794058144093
1772810412788425500,0.890425537109375,-0.0014647373463958502,0.0009321055840700865,-0.0011984214652329683
1772810412798305300,0.90030517578125,-0.0014647373463958502,-0.001731053227558732,0.0014647373463958502
1772810412808185000,0.91018505859375,0.0011984214652329683,-0.0011984214652329683,-0.00013315794058144093
1772810412827944400,0.9299443359375,0.00013315794058144093,-0.00013315794058144093,0.0009321055840700865
1772810412837824000,0.939823974609375,-0.0014647373463958502,0.0003994738217443228,0.0014647373463958502
1772810412847703800,0.949703857421875,-0.0003994738217443228,0.0009321055840700865,-0.0006657897029072046
1772810412857583400,0.959583251953125,-0.0003994738217443228,-0.0006657897029072046,-0.0006657897029072046
1772810412867463200,0.969463134765625,-0.0003994738217443228,0.0014647373463958502,-0.00013315794058144093
1772810412877343000,0.979343017578125,-0.0003994738217443228,-0.0011984214652329683,-0.00013315794058144093
1772810412887222500,0.989222412109375,-0.0009321055840700865,0.0003994738217443228,-0.00013315794058144093
1772810412897102300,0.999102294921875,-0.0014647373463958502,-0.00013315794058144093,0.0009321055840700865
1772810412906982100,1.008982177734375,0.00013315794058144093,-0.001731053227558732,-0.0022636849898844957
1772810412916861700,1.01886181640625,0.0011984214652329683,0.0003994738217443228,0.001997369108721614
1772810412926741500,1.028741455078125,0.00013315794058144093,-0.0011984214652329683,-0.00013315794058144093
1772810412936621000,1.03862109375,0.0006657897029072046,-0.001731053227558732,-0.0011984214652329683
1772810412946500900,1.0485009765625,0.0027963167522102594,-0.0011984214652329683,-0.0006657897029072046
1772810412956380700,1.058380615234375,0.00013315794058144093,-0.001731053227558732,-0.0006657897029072046
1772810412966260200,1.06826025390625,0.0022636849898844957,-0.001731053227558732,-0.001731053227558732
1772810412976140000,1.07814013671875,-0.0014647373463958502,0.0003994738217443228,-0.0006657897029072046
1772810412986019600,1.08801953125,0.00013315794058144093,-0.00013315794058144093,0.0014647373463958502
1772810412995899400,1.0978994140625,-0.0009321055840700865,-0.0011984214652329683,-0.0006657897029072046
1772810413005780000,1.107780029296875,0.0011984214652329683,-0.00013315794058144093,0.0003994738217443228
1772810413015660300,1.117660400390625,-0.0009321055840700865,0.0003994738217443228,0.0003994738217443228
1772810413025540900,1.127540771484375,0.0006657897029072046,-0.0011984214652329683,-0.0006657897029072046
1772810413035421400,1.13742138671875,0.00013315794058144093,-0.0006657897029072046,-0.0011984214652329683
1772810413045302000,1.147302001953125,0.00013315794058144093,-0.0011984214652329683,-0.0011984214652329683
1772810413055182600,1.1571826171875,-0.0009321055840700865,0.0009321055840700865,-0.0006657897029072046
1772810413065063000,1.16706298828125,0.0006657897029072046,-0.0011984214652329683,0.0009321055840700865
1772810413074943500,1.176943603515625,0.00013315794058144093,0.0009321055840700865,0.0003994738217443228
1772810413084824000,1.186823974609375,0.00013315794058144093,-0.00013315794058144093,0.0003994738217443228
1772810413094704600,1.19670458984375,-0.001997369108721614,0.0003994738217443228,-0.00013315794058144093
1772810413104585200,1.206585205078125,-0.0003994738217443228,0.0009321055840700865,-0.0011984214652329683
1772810413114465500,1.216465576171875,0.00013315794058144093,-0.0011984214652329683,0.0009321055840700865
1772810413124346000,1.22634619140625,-0.0009321055840700865,0.0014647373463958502,-0.00013315794058144093
1772810413134226700,1.236226806640625,-0.0003994738217443228,-0.0027963167522102594,0.0003994738217443228
1772810413144107300,1.246107177734375,-0.0009321055840700865,-0.00013315794058144093,-0.00013315794058144093
1772810413153987600,1.255987548828125,0.00013315794058144093,-0.0011984214652329683,-0.0006657897029072046
1772810413163868200,1.2658681640625,0.0006657897029072046,-0.0006657897029072046,-0.00013315794058144093
1772810413173748700,1.275748779296875,0.00013315794058144093,-0.00013315794058144093,-0.0006657897029072046
1772810413183629300,1.28562939453125,0.00013315794058144093,0.0003994738217443228,-0.0006657897029072046
1772810413193509600,1.295509521484375,-0.0014647373463958502,0.0009321055840700865,0.0009321055840700865
1772810413203390200,1.30539013671875,0.0011984214652329683,0.0003994738217443228,-0.0011984214652329683
1772810413213270800,1.315270751953125,-0.0009321055840700865,-0.00013315794058144093,0.0003994738217443228
1772810413223151400,1.3251513671875,0.0011984214652329683,-0.001731053227558732,0.0009321055840700865
1772810413233032000,1.335031982421875,0.00013315794058144093,-0.0011984214652329683,0.0009321055840700865
1772810413242912300,1.344912353515625,-0.0009321055840700865,-0.0011984214652329683,-0.00013315794058144093
1772810413252792800,1.354792724609375,0.0011984214652329683,0.0014647373463958502,0.0014647373463958502
1772810413262673400,1.36467333984375,0.0011984214652329683,-0.00013315794058144093,-0.0022636849898844957
1772810413272554000,1.374553955078125,0.001731053227558732,-0.0011984214652329683,0.0014647373463958502
1772810413282434300,1.384434326171875,0.00013315794058144093,-0.001731053227558732,-0.00013315794058144093
1772810413292315000,1.39431494140625,0.0011984214652329683,-0.0011984214652329683,-0.00013315794058144093
1772810413302195500,1.404195556640625,0.001731053227558732,-0.00013315794058144093,0.0003994738217443228
1772810413312076000,1.414075927734375,-0.0009321055840700865,-0.0006657897029072046,-0.0006657897029072046
1772810413321956600,1.42395654296875,-0.0003994738217443228,-0.0006657897029072046,-0.0006657897029072046
1772810413331837000,1.4338369140625,-0.0003994738217443228,-0.0022636849898844957,-0.0006657897029072046
1772810413341717500,1.443717529296875,0.00013315794058144093,-0.00013315794058144093,-0.00013315794058144093
1772810413351598000,1.45359814453125,0.00013315794058144093,-0.001731053227558732,-0.0011984214652329683
1772810413361478700,1.463478759765625,0.0006657897029072046,-0.0006657897029072046,0.0009321055840700865
1772810413371359000,1.47335888671875,-0.0014647373463958502,0.0009321055840700865,-0.00013315794058144093
1772810413381239600,1.483239501953125,-0.0003994738217443228,-0.0006657897029072046,0.0003994738217443228
1772810413391120100,1.4931201171875,-0.0009321055840700865,-0.001731053227558732,-0.00013315794058144093
1772810413401000700,1.503000732421875,-0.0003994738217443228,-0.001731053227558732,-0.0006657897029072046
1772810413410881000,1.512881103515625,0.0006657897029072046,-0.00013315794058144093,-0.0011984214652329683
1772810413420761600,1.52276171875,0.0022636849898844957,0.001997369108721614,-0.00013315794058144093
1772810413430642200,1.53264208984375,-0.0009321055840700865,0.0003994738217443228,-0.0011984214652329683
1772810413440522800,1.542522705078125,-0.0003994738217443228,0.0014647373463958502,-0.0011984214652329683
1772810413450403300,1.5524033203125,0.00013315794058144093,0.0009321055840700865,-0.00013315794058144093
1772810413460283600,1.56228369140625,-0.0009321055840700865,0.001997369108721614,0.0003994738217443228
1772810413470164200,1.572164306640625,0.0006657897029072046,-0.0011984214652329683,-0.001731053227558732
1772810413480044800,1.582044921875,-0.0003994738217443228,0.0003994738217443228,0.0009321055840700865
1772810413489925400,1.59192529296875,-0.0009321055840700865,0.0003994738217443228,-0.00013315794058144093
1772810413499805700,1.6018056640625,0.0011984214652329683,-0.00013315794058144093,-0.0006657897029072046
1772810413509685800,1.611685791015625,0.0006657897029072046,0.001997369108721614,0.0003994738217443228
1772810413519566000,1.621566162109375,-0.0009321055840700865,-0.0011984214652329683,0.0003994738217443228
1772810413529446400,1.6314462890625,0.00013315794058144093,0.0009321055840700865,-0.0006657897029072046
1772810413539326500,1.641326416015625,0.00013315794058144093,-0.0006657897029072046,-0.0006657897029072046
1772810413549206800,1.651206787109375,0.00013315794058144093,0.0003994738217443228,-0.001731053227558732
1772810413559086800,1.6610869140625,-0.0009321055840700865,-0.00013315794058144093,-0.00013315794058144093
1772810413568967200,1.67096728515625,0.00013315794058144093,-0.001731053227558732,-0.00013315794058144093
1772810413578847500,1.680847412109375,0.00013315794058144093,0.0025300008710473776,0.0003994738217443228
1772810413588727600,1.6907275390625,0.0011984214652329683,-0.00013315794058144093,-0.0011984214652329683
1772810413598608000,1.70060791015625,0.00013315794058144093,-0.00013315794058144093,-0.00013315794058144093
1772810413608488000,1.710488037109375,-0.0014647373463958502,-0.0011984214652329683,-0.0006657897029072046
1772810413618368300,1.7203681640625,-0.0003994738217443228,-0.0006657897029072046,-0.0006657897029072046
1772810413628248600,1.73024853515625,0.00013315794058144093,0.0009321055840700865,-0.0006657897029072046
1772810413638128600,1.740128662109375,0.00013315794058144093,-0.0006657897029072046,-0.001731053227558732
1772810413648009000,1.750009033203125,0.0006657897029072046,0.0003994738217443228,0.0003994738217443228
1772810413657889300,1.75988916015625,-0.0003994738217443228,0.0003994738217443228,-0.00013315794058144093
1772810413667769300,1.769769287109375,0.0006657897029072046,-0.0006657897029072046,0.0003994738217443228
1772810413677649700,1.779649658203125,0.00013315794058144093,-0.0022636849898844957,-0.0011984214652329683
1772810413687529700,1.78952978515625,0.0006657897029072046,-0.0011984214652329683,-0.00013315794058144093
1772810413697410000,1.79941015625,-0.0003994738217443228,-0.00013315794058144093,-0.00013315794058144093
1772810413707290400,1.809290283203125,-0.0003994738217443228,-0.00013315794058144093,0.0014647373463958502
1772810413717170400,1.81917041015625,-0.0003994738217443228,0.0003994738217443228,0.0009321055840700865
1772810413727050800,1.82905078125,0.0006657897029072046,0.0009321055840700865,-0.0006657897029072046
1772810413746811100,1.84881103515625,-0.0003994738217443228,0.0003994738217443228,-0.00013315794058144093
1772810413756691500,1.85869140625,-0.001997369108721614,-0.00013315794058144093,-0.00013315794058144093
1772810413766571500,1.868571533203125,0.0006657897029072046,-0.0011984214652329683,0.0003994738217443228
1772810413776451800,1.878451904296875,-0.0009321055840700865,0.0009321055840700865,0.0003994738217443228
1772810413786332200,1.888332275390625,0.00013315794058144093,-0.00013315794058144093,0.0003994738217443228
1772810413796212200,1.898212158203125,0.0006657897029072046,0.0003994738217443228,-0.0006657897029072046
1772810413806092500,1.908092529296875,-0.0003994738217443228,0.0003994738217443228,0.0009321055840700865
1772810413815972900,1.917972900390625,0.00013315794058144093,0.0014647373463958502,0.0014647373463958502
1772810413825853000,1.92785302734375,0.0022636849898844957,-0.00013315794058144093,-0.00013315794058144093
1772810413835733200,1.937733154296875,-0.0003994738217443228,-0.0006657897029072046,-0.0011984214652329683
1772810413845613300,1.94761328125,-0.0003994738217443228,0.0009321055840700865,0.0014647373463958502
1772810413855493600,1.95749365234375,0.00013315794058144093,-0.0006657897029072046,0.0009321055840700865
1772810413865374000,1.9673740234375,-0.0009321055840700865,-0.001731053227558732,-0.0011984214652329683
1772810413875254000,1.97725390625,0.00013315794058144093,0.0009321055840700865,0.0003994738217443228
1772810413885134300,1.98713427734375,0.00013315794058144093,0.0003994738217443228,0.0009321055840700865
1772810413895014400,1.997014404296875,-0.0003994738217443228,0.0003994738217443228,0.0009321055840700865
1772810413904894700,2.006894775390625,0.00013315794058144093,-0.0011984214652329683,-0.0006657897029072046
1772810413914775000,2.016775146484375,0.00013315794058144093,0.0030626326333731413,-0.00013315794058144093
1772810413924655000,2.026655029296875,-0.0009321055840700865,-0.0027963167522102594,0.0003994738217443228
1772810413934535400,2.036535400390625,0.00013315794058144093,-0.00013315794058144093,0.0009321055840700865
1772810413944415700,2.046415771484375,-0.0014647373463958502,-0.0006657897029072046,-0.00013315794058144093
1772810413954295800,2.0562958984375,-0.001997369108721614,0.0014647373463958502,0.0014647373463958502
1772810413964176100,2.066176025390625,-0.0009321055840700865,0.0009321055840700865,0.0003994738217443228
1772810413974056200,2.07605615234375,0.0011984214652329683,-0.0027963167522102594,-0.00013315794058144093
1772810413983936500,2.0859365234375,-0.0003994738217443228,-0.0006657897029072046,0.0003994738217443228
1772810413993816800,2.09581689453125,0.00013315794058144093,0.0003994738217443228,0.0003994738217443228
1772810414003696400,2.1056962890625,0.00013315794058144093,0.0003994738217443228,0.0003994738217443228
1772810414013576200,2.115576171875,-0.0003994738217443228,0.0003994738217443228,-0.0006657897029072046
1772810414023456000,2.1254560546875,0.0006657897029072046,-0.001731053227558732,0.001997369108721614
1772810414033335600,2.13533544921875,-0.0014647373463958502,0.0014647373463958502,0.0003994738217443228
1772810414043215000,2.145215087890625,0.001731053227558732,0.0003994738217443228,0.0003994738217443228
1772810414053095000,2.155094970703125,0.0011984214652329683,0.0003994738217443228,0.0003994738217443228
1772810414062974500,2.164974365234375,-0.0009321055840700865,-0.003861580276861787,0.0003994738217443228
1772810414072854300,2.174854248046875,-0.0009321055840700865,0.0014647373463958502,-0.001731053227558732
1772810414082733800,2.18473388671875,0.00013315794058144093,0.0014647373463958502,-0.00013315794058144093
1772810414092613600,2.194613525390625,0.00013315794058144093,0.0014647373463958502,-0.00013315794058144093
1772810414102493200,2.2044931640625,-0.0009321055840700865,0.0003994738217443228,-0.00013315794058144093
1772810414112373000,2.214373046875,0.0006657897029072046,0.0009321055840700865,-0.0006657897029072046
1772810414122252500,2.22425244140625,0.0006657897029072046,-0.00013315794058144093,0.0009321055840700865
1772810414132132400,2.23413232421875,-0.001997369108721614,0.0003994738217443228,-0.0006657897029072046
1772810414142012000,2.244011962890625,-0.0014647373463958502,-0.0011984214652329683,0.0003994738217443228
1772810414151891700,2.2538916015625,-0.0003994738217443228,-0.0011984214652329683,0.0014647373463958502
1772810414161771300,2.263771240234375,0.00013315794058144093,-0.00013315794058144093,-0.0011984214652329683
1772810414171651000,2.273651123046875,0.00013315794058144093,0.0003994738217443228,-0.00013315794058144093
1772810414181530600,2.283530517578125,0.0006657897029072046,-0.0011984214652329683,-0.0011984214652329683
1772810414191410400,2.293410400390625,-0.0009321055840700865,0.0014647373463958502,0.0003994738217443228
1772810414201290000,2.3032900390625,-0.0009321055840700865,0.0003994738217443228,-0.0006657897029072046
1772810414211169800,2.313169677734375,-0.0009321055840700865,0.0009321055840700865,-0.00013315794058144093
1772810414221049300,2.32304931640625,0.001731053227558732,0.0003994738217443228,-0.0006657897029072046
1772810414230929200,2.33292919921875,-0.0009321055840700865,0.001997369108721614,-0.0006657897029072046
1772810414240808700,2.34280859375,-0.0003994738217443228,0.0003994738217443228,0.0003994738217443228
1772810414250688500,2.3526884765625,0.0006657897029072046,-0.00013315794058144093,0.0009321055840700865
1772810414260568000,2.362568115234375,-0.0003994738217443228,0.0009321055840700865,0.0003994738217443228
1772810414270447900,2.37244775390625,0.0006657897029072046,-0.0011984214652329683,-0.00013315794058144093
1772810414280327400,2.382327392578125,0.0006657897029072046,0.0009321055840700865,-0.0006657897029072046
1772810414290207200,2.392207275390625,-0.0003994738217443228,0.0003994738217443228,0.0003994738217443228
1772810414300086800,2.402086669921875,0.00013315794058144093,-0.0006657897029072046,-0.0006657897029072046
1772810414309966600,2.411966552734375,0.0022636849898844957,-0.00013315794058144093,0.0009321055840700865
1772810414319846100,2.42184619140625,-0.0003994738217443228,0.0003994738217443228,-0.00013315794058144093
1772810414329726000,2.431725830078125,0.0006657897029072046,-0.00013315794058144093,-0.0006657897029072046
1772810414339605500,2.44160546875,0.0006657897029072046,-0.0006657897029072046,-0.00013315794058144093
1772810414349485300,2.4514853515625,-0.0003994738217443228,-0.0011984214652329683,0.0009321055840700865
1772810414359364900,2.46136474609375,-0.0003994738217443228,0.0003994738217443228,0.0003994738217443228
1772810414369244700,2.47124462890625,-0.0003994738217443228,0.0009321055840700865,-0.00013315794058144093
1772810414379124200,2.481124267578125,-0.0003994738217443228,-0.00013315794058144093,-0.00013315794058144093
1772810414389004000,2.491004150390625,0.00013315794058144093,0.0025300008710473776,-0.00013315794058144093
1772810414398883600,2.500883544921875,-0.0003994738217443228,-0.00013315794058144093,-0.0011984214652329683
1772810414408763400,2.510763427734375,-0.0009321055840700865,0.0014647373463958502,-0.0011984214652329683
1772810414418643000,2.520642822265625,-0.0009321055840700865,-0.0011984214652329683,-0.0011984214652329683
1772810414428522800,2.530522705078125,-0.0003994738217443228,0.0014647373463958502,-0.001731053227558732
1772810414438402300,2.54040234375,0.0006657897029072046,-0.00013315794058144093,-0.001731053227558732
1772810414448282000,2.5502822265625,0.00013315794058144093,-0.0006657897029072046,-0.0006657897029072046
1772810414458161700,2.56016162109375,0.0011984214652329683,-0.0006657897029072046,0.0003994738217443228
1772810414468041500,2.57004150390625,0.00013315794058144093,-0.0006657897029072046,0.0009321055840700865
1772810414477921000,2.579921142578125,-0.0009321055840700865,0.0003994738217443228,0.0014647373463958502
1772810414487800800,2.58980078125,0.00013315794058144093,-0.0006657897029072046,0.0003994738217443228
1772810414497680400,2.599680419921875,-0.0009321055840700865,0.0009321055840700865,-0.00013315794058144093
1772810414507560400,2.609560546875,0.00013315794058144093,-0.00013315794058144093,0.0009321055840700865
1772810414517440300,2.619440185546875,-0.0003994738217443228,0.0014647373463958502,0.0009321055840700865
1772810414527320300,2.6293203125,-0.0009321055840700865,-0.0006657897029072046,-0.00013315794058144093
1772810414537200000,2.6392001953125,0.0006657897029072046,0.0003994738217443228,0.0003994738217443228
1772810414547080000,2.649079833984375,-0.0014647373463958502,-0.0011984214652329683,0.0003994738217443228
1772810414556960000,2.6589599609375,-0.0003994738217443228,-0.00013315794058144093,-0.0006657897029072046
1772810414566839800,2.66883984375,0.00013315794058144093,-0.00013315794058144093,-0.00013315794058144093
1772810414576720000,2.678719970703125,0.00013315794058144093,0.0003994738217443228,0.0009321055840700865
1772810414586599700,2.688599609375,-0.0003994738217443228,0.001997369108721614,-0.0011984214652329683
1772810414596479500,2.6984794921875,-0.0003994738217443228,-0.0006657897029072046,-0.0006657897029072046
1772810414606359600,2.708359619140625,-0.0009321055840700865,0.0009321055840700865,0.0014647373463958502
1772810414616239400,2.7182392578125,0.00013315794058144093,-0.001731053227558732,-0.0006657897029072046
1772810414626119400,2.728119384765625,0.00013315794058144093,0.0014647373463958502,0.0003994738217443228
1772810414635999200,2.737999267578125,0.00013315794058144093,-0.0006657897029072046,-0.00013315794058144093
1772810414645879000,2.747879150390625,-0.0014647373463958502,-0.0006657897029072046,0.0003994738217443228
1772810414655759000,2.757759033203125,0.00013315794058144093,0.0014647373463958502,0.001997369108721614
1772810414665639000,2.767638916015625,0.0006657897029072046,-0.0006657897029072046,0.0003994738217443228
1772810414675519000,2.77751904296875,0.00013315794058144093,0.0003994738217443228,-0.00013315794058144093
1772810414685398800,2.787398681640625,0.00013315794058144093,0.0003994738217443228,-0.0011984214652329683
1772810414695278800,2.79727880859375,0.0011984214652329683,0.0003994738217443228,-0.00013315794058144093
1772810414705158700,2.80715869140625,0.0011984214652329683,-0.00013315794058144093,-0.00013315794058144093
1772810414715038500,2.81703857421875,0.00013315794058144093,-0.00013315794058144093,0.0003994738217443228
1772810414724918500,2.82691845703125,-0.0009321055840700865,0.0003994738217443228,-0.00013315794058144093
1772810414734798300,2.83679833984375,0.0006657897029072046,-0.00013315794058144093,0.0009321055840700865
1772810414744678400,2.846678466796875,-0.0014647373463958502,0.0009321055840700865,-0.0006657897029072046
1772810414764438000,2.86643798828125,0.0006657897029072046,-0.00013315794058144093,-0.0011984214652329683
1772810414774318000,2.876318115234375,0.0006657897029072046,-0.00013315794058144093,0.0009321055840700865
1772810414794078000,2.896077880859375,-0.0009321055840700865,0.001997369108721614,-0.00013315794058144093
1772810414803957800,2.905957763671875,0.00013315794058144093,0.0003994738217443228,0.0014647373463958502
1772810414813837800,2.915837890625,0.0006657897029072046,0.0003994738217443228,-0.0006657897029072046
1772810414823717600,2.925717529296875,0.00013315794058144093,-0.0006657897029072046,-0.00013315794058144093
1772810414833597400,2.935597412109375,-0.0003994738217443228,-0.00013315794058144093,-0.00013315794058144093
1772810414843477500,2.9454775390625,-0.0009321055840700865,-0.00013315794058144093,-0.00013315794058144093
1772810414853357300,2.955357421875,-0.0003994738217443228,0.0009321055840700865,-0.0006657897029072046
1772810414863237400,2.9652373046875,-0.0003994738217443228,0.0003994738217443228,0.0014647373463958502
1772810414873117200,2.9751171875,-0.0003994738217443228,0.0003994738217443228,0.0009321055840700865
1772810414882997000,2.9849970703125,0.0006657897029072046,0.0009321055840700865,0.0009321055840700865
1772810414892877000,2.994876953125,-0.0003994738217443228,-0.00013315794058144093,-0.0006657897029072046
1772810414902756900,3.0047568359375,-0.0009321055840700865,-0.00013315794058144093,0.0003994738217443228
1772810414912637000,3.014636962890625,-0.0003994738217443228,-0.001731053227558732,0.0003994738217443228
1772810414922516700,3.024516845703125,0.0011984214652329683,-0.001731053227558732,0.0003994738217443228
1772810414932396500,3.034396484375,-0.0003994738217443228,0.0003994738217443228,-0.0006657897029072046
1772810414942276600,3.044276611328125,0.0006657897029072046,0.0003994738217443228,0.0014647373463958502
1772810414952156400,3.054156494140625,0.0011984214652329683,-0.0006657897029072046,-0.00013315794058144093
1772810414962036500,3.064036376953125,-0.0014647373463958502,-0.0006657897029072046,-0.00013315794058144093
1772810414971916300,3.073916259765625,-0.0003994738217443228,-0.0011984214652329683,-0.00013315794058144093
1772810414981796400,3.08379638671875,-0.0003994738217443228,0.0003994738217443228,0.0009321055840700865
1772810414991676200,3.09367626953125,0.0006657897029072046,-0.00013315794058144093,-0.0006657897029072046
1772810415001555700,3.1035556640625,0.00013315794058144093,-0.0011984214652329683,-0.00013315794058144093
1772810415011435300,3.113435302734375,-0.0003994738217443228,-0.00013315794058144093,-0.0011984214652329683
1772810415031194000,3.133194091796875,0.00013315794058144093,0.0014647373463958502,0.0003994738217443228
1772810415041073700,3.14307373046875,-0.0003994738217443228,-0.00013315794058144093,-0.001731053227558732
1772810415050953200,3.152953125,0.001731053227558732,-0.0006657897029072046,-0.0006657897029072046
1772810415060832500,3.16283251953125,0.00013315794058144093,0.0014647373463958502,-0.0006657897029072046
1772810415070712000,3.172712158203125,0.0006657897029072046,-0.0011984214652329683,0.0003994738217443228
1772810415080591600,3.182591552734375,0.00013315794058144093,-0.00013315794058144093,0.0009321055840700865
1772810415090471000,3.192470947265625,-0.0003994738217443228,0.0003994738217443228,0.0003994738217443228
1772810415100350500,3.2023505859375,0.0006657897029072046,-0.0006657897029072046,0.0009321055840700865
1772810415110230000,3.21222998046875,-0.0009321055840700865,-0.00013315794058144093,-0.00013315794058144093
1772810415120109600,3.222109619140625,0.00013315794058144093,-0.0006657897029072046,-0.00013315794058144093
1772810415129989000,3.231989013671875,0.0011984214652329683,-0.0006657897029072046,-0.0011984214652329683
1772810415139868400,3.241868408203125,0.00013315794058144093,-0.001731053227558732,-0.00013315794058144093
1772810415149748000,3.251748046875,-0.0014647373463958502,0.0003994738217443228,-0.0011984214652329683
1772810415159627500,3.26162744140625,0.00013315794058144093,0.0025300008710473776,-0.00013315794058144093
1772810415169506800,3.2715068359375,0.0006657897029072046,-0.0006657897029072046,-0.0006657897029072046
1772810415179386400,3.281386474609375,0.0006657897029072046,-0.00013315794058144093,-0.0011984214652329683
1772810415189266000,3.291265869140625,-0.0003994738217443228,-0.0011984214652329683,-0.0006657897029072046
1772810415199145500,3.3011455078125,0.0006657897029072046,-0.001731053227558732,-0.0011984214652329683
1772810415209024800,3.311024658203125,0.0006657897029072046,0.0030626326333731413,0.0003994738217443228
1772810415218904300,3.320904296875,0.0006657897029072046,-0.0011984214652329683,0.0025300008710473776
1772810415228783900,3.330783935546875,0.0006657897029072046,0.001997369108721614,0.0009321055840700865
1772810415238663200,3.3406630859375,-0.0009321055840700865,-0.001731053227558732,-0.00013315794058144093
1772810415248542700,3.350542724609375,-0.0009321055840700865,0.0009321055840700865,0.0003994738217443228
1772810415258422300,3.36042236328125,0.0011984214652329683,-0.001731053227558732,-0.00013315794058144093
1772810415268301800,3.3703017578125,-0.0014647373463958502,0.0014647373463958502,0.0025300008710473776
1772810415278181000,3.38018115234375,-0.0003994738217443228,0.001997369108721614,0.0009321055840700865
1772810415288060700,3.390060791015625,0.00013315794058144093,0.0009321055840700865,-0.0006657897029072046
1772810415297940200,3.399940185546875,0.0011984214652329683,-0.00013315794058144093,0.0003994738217443228
1772810415307819800,3.40981982421875,0.0006657897029072046,-0.0011984214652329683,-0.0011984214652329683
1772810415317699000,3.419698974609375,-0.0003994738217443228,-0.0006657897029072046,-0.00013315794058144093
1772810415327578600,3.42957861328125,0.0011984214652329683,0.001997369108721614,-0.0011984214652329683
1772810415337458200,3.439458251953125,-0.0009321055840700865,0.0014647373463958502,-0.00013315794058144093
1772810415347337500,3.44933740234375,0.00013315794058144093,0.0009321055840700865,0.0003994738217443228
1772810415357217000,3.459217041015625,-0.0025300008710473776,-0.00013315794058144093,0.0009321055840700865
1772810415367096600,3.4690966796875,-0.0009321055840700865,-0.001731053227558732,-0.00013315794058144093
1772810415376976100,3.47897607421875,-0.0009321055840700865,0.0009321055840700865,0.0009321055840700865
1772810415386855400,3.48885546875,-0.0009321055840700865,0.001997369108721614,-0.0006657897029072046
1772810415396735000,3.49873486328125,0.0011984214652329683,0.0003994738217443228,-0.0011984214652329683
1772810415406614500,3.508614501953125,-0.0009321055840700865,-0.0006657897029072046,-0.0006657897029072046
1772810415416493800,3.518493896484375,-0.0003994738217443228,0.0003994738217443228,-0.00013315794058144093
1772810415426373400,3.528373291015625,-0.001997369108721614,0.0003994738217443228,0.0003994738217443228
1772810415436253000,3.5382529296875,-0.0003994738217443228,-0.0006657897029072046,0.0003994738217443228
1772810415446132500,3.548132568359375,0.0006657897029072046,-0.0006657897029072046,-0.0006657897029072046
1772810415456012000,3.558011962890625,0.0006657897029072046,-0.0006657897029072046,-0.00013315794058144093
1772810415465891300,3.567891357421875,-0.0003994738217443228,-0.0011984214652329683,-0.0006657897029072046
1772810415475771000,3.57777099609375,-0.0009321055840700865,-0.0022636849898844957,0.0003994738217443228
1772810415485650400,3.587650390625,0.0011984214652329683,0.0025300008710473776,-0.00013315794058144093
1772810415495530000,3.597530029296875,0.0006657897029072046,0.0003994738217443228,0.0014647373463958502
1772810415505409800,3.607409912109375,-0.0025300008710473776,0.0003994738217443228,-0.00013315794058144093
1772810415515289900,3.617289794921875,0.0011984214652329683,0.0003994738217443228,0.0003994738217443228
1772810415525170000,3.627169921875,-0.0014647373463958502,0.0009321055840700865,-0.0006657897029072046
1772810415535050000,3.637050048828125,0.0006657897029072046,-0.0006657897029072046,-0.0011984214652329683
1772810415544929800,3.6469296875,0.00013315794058144093,-0.0006657897029072046,-0.0006657897029072046
1772810415554809900,3.656809814453125,0.0011984214652329683,0.004127896390855312,-0.0011984214652329683
1772810415564690000,3.66668994140625,-0.0003994738217443228,-0.00013315794058144093,-0.00013315794058144093
1772810415574570000,3.676570068359375,-0.0003994738217443228,-0.00013315794058144093,0.0009321055840700865
1772810415584449800,3.68644970703125,-0.0003994738217443228,0.0003994738217443228,0.0003994738217443228
1772810415594329900,3.696329833984375,0.001731053227558732,0.0009321055840700865,-0.00013315794058144093
1772810415604210000,3.7062099609375,0.0006657897029072046,-0.0011984214652329683,-0.0006657897029072046
1772810415614090000,3.716090087890625,-0.0009321055840700865,0.0009321055840700865,-0.0006657897029072046
1772810415623970000,3.725969970703125,0.0006657897029072046,0.001997369108721614,-0.00013315794058144093
1772810415633849900,3.735849853515625,0.0011984214652329683,0.0003994738217443228,0.0003994738217443228
1772810415643730000,3.74572998046875,0.00013315794058144093,0.001997369108721614,0.0009321055840700865
1772810415653610000,3.75560986328125,0.003328948514536023,0.0009321055840700865,0.0003994738217443228
1772810415663490000,3.765489990234375,-0.0009321055840700865,0.0014647373463958502,-0.00013315794058144093
1772810415673369900,3.775369873046875,-0.0009321055840700865,-0.0006657897029072046,0.0014647373463958502
1772810415683250000,3.78525,0.00013315794058144093,0.0009321055840700865,-0.001731053227558732
1772810415693130000,3.7951298828125,-0.0003994738217443228,-0.0006657897029072046,-0.0006657897029072046
1772810415703010000,3.805010009765625,0.0006657897029072046,0.0014647373463958502,-0.0011984214652329683
1772810415712890000,3.81489013671875,0.00013315794058144093,-0.00013315794058144093,0.0003994738217443228
1772810415722770000,3.82477001953125,-0.0003994738217443228,0.0003994738217443228,0.0014647373463958502
1772810415732650000,3.83464990234375,0.0006657897029072046,-0.00013315794058144093,-0.00013315794058144093
1772810415742530000,3.844530029296875,0.0011984214652329683,-0.00013315794058144093,-0.001731053227558732
1772810415752410000,3.85441015625,0.00013315794058144093,0.0009321055840700865,-0.00013315794058144093
1772810415762290000,3.8642900390625,-0.0003994738217443228,0.001997369108721614,-0.0006657897029072046
1772810415772170000,3.874169921875,0.00013315794058144093,-0.00013315794058144093,-0.0006657897029072046
1772810415782050000,3.884050048828125,-0.0009321055840700865,0.0003994738217443228,-0.0006657897029072046
1772810415791930000,3.89393017578125,-0.0009321055840700865,-0.0011984214652329683,0.0003994738217443228
1772810415801810000,3.903809814453125,-0.0003994738217443228,0.0009321055840700865,-0.0006657897029072046
1772810415811690000,3.91368994140625,-0.0003994738217443228,0.0009321055840700865,0.0009321055840700865
1772810415821570000,3.923570068359375,0.00013315794058144093,-0.001731053227558732,0.0014647373463958502
1772810415831450000,3.9334501953125,-0.0009321055840700865,-0.0011984214652329683,-0.00013315794058144093
1772810415841330000,3.943329833984375,0.0011984214652329683,0.0014647373463958502,-0.00013315794058144093
1772810415851210000,3.9532099609375,-0.0009321055840700865,-0.0011984214652329683,-0.0011984214652329683
1772810415861090000,3.963090087890625,-0.001997369108721614,-0.001731053227558732,-0.00013315794058144093
1772810415870970000,3.97297021484375,0.00013315794058144093,0.0003994738217443228,0.0009321055840700865
1772810415880850000,3.982849853515625,-0.0003994738217443228,-0.00013315794058144093,0.0003994738217443228
1772810415890730000,3.99272998046875,-0.0003994738217443228,-0.0006657897029072046,-0.001731053227558732
1772810415900610000,4.002610107421875,0.0006657897029072046,0.0003994738217443228,0.0003994738217443228
1772810415910490000,4.012489990234375,0.00013315794058144093,-0.00013315794058144093,0.0003994738217443228
1772810415920370200,4.0223701171875,0.00013315794058144093,0.0009321055840700865,0.0009321055840700865
1772810415930250000,4.03225,0.0006657897029072046,-0.00013315794058144093,-0.0006657897029072046
1772810415940130000,4.042130126953125,0.00013315794058144093,0.0003994738217443228,0.0009321055840700865
1772810415950010000,4.052010009765625,0.0006657897029072046,0.0003994738217443228,-0.001731053227558732
1772810415959890200,4.06189013671875,-0.0003994738217443228,-0.00013315794058144093,-0.00013315794058144093
1772810415969770000,4.07177001953125,-0.0003994738217443228,-0.0006657897029072046,0.0014647373463958502
1772810415979650000,4.081650146484375,0.0006657897029072046,-0.0006657897029072046,-0.00013315794058144093
1772810415989530000,4.091530029296875,0.00013315794058144093,-0.0022636849898844957,-0.0006657897029072046
1772810415999410200,4.10141015625,0.00013315794058144093,-0.0006657897029072046,-0.0006657897029072046
1772810416009290800,4.111290771484375,0.0006657897029072046,-0.00013315794058144093,0.0003994738217443228
1772810416019171000,4.121171142578125,0.00013315794058144093,0.0030626326333731413,0.0003994738217443228
1772810416029051400,4.131051513671875,0.0006657897029072046,-0.00013315794058144093,-0.00013315794058144093
1772810416038932000,4.140931884765625,0.0006657897029072046,-0.00013315794058144093,-0.0006657897029072046
1772810416048812300,4.150812255859375,-0.0014647373463958502,0.0003994738217443228,-0.00013315794058144093
1772810416058692900,4.16069287109375,-0.0003994738217443228,0.0009321055840700865,-0.001731053227558732
1772810416068573200,4.1705732421875,-0.0014647373463958502,-0.0006657897029072046,-0.00013315794058144093
1772810416078453500,4.18045361328125,-0.0003994738217443228,-0.0011984214652329683,-0.0006657897029072046
1772810416088333800,4.190333740234375,-0.0003994738217443228,0.0003994738217443228,0.0009321055840700865
1772810416098214400,4.20021435546875,0.001731053227558732,-0.00013315794058144093,0.0003994738217443228
1772810416108094700,4.2100947265625,0.0006657897029072046,0.0003994738217443228,-0.00013315794058144093
1772810416117975300,4.219975341796875,0.00013315794058144093,-0.00013315794058144093,-0.0011984214652329683
1772810416127855600,4.229855712890625,-0.0009321055840700865,0.0003994738217443228,-0.00013315794058144093
1772810416137736000,4.23973583984375,0.0011984214652329683,-0.0011984214652329683,-0.0006657897029072046
1772810416147616500,4.249616455078125,0.0006657897029072046,0.0014647373463958502,-0.00013315794058144093
1772810416157496800,4.259496826171875,0.00013315794058144093,-0.0006657897029072046,0.0009321055840700865
1772810416167377400,4.26937744140625,0.00013315794058144093,-0.00013315794058144093,0.0009321055840700865
1772810416177257700,4.2792578125,0.00013315794058144093,0.0014647373463958502,0.0003994738217443228
1772810416187138000,4.289137939453125,-0.0003994738217443228,-0.00013315794058144093,0.0009321055840700865
1772810416197018400,4.299018310546875,0.00013315794058144093,0.0009321055840700865,0.0003994738217443228
1772810416206899000,4.30889892578125,0.0006657897029072046,0.0003994738217443228,0.0003994738217443228
1772810416216779300,4.318779296875,-0.0003994738217443228,0.001997369108721614,0.0003994738217443228
1772810416226659800,4.328659912109375,0.00013315794058144093,-0.0006657897029072046,-0.00013315794058144093
1772810416236540200,4.3385400390625,-0.0014647373463958502,0.0014647373463958502,-0.0006657897029072046
1772810416246420500,4.34842041015625,0.0006657897029072046,-0.0011984214652329683,0.0003994738217443228
1772810416256301000,4.358301025390625,-0.0009321055840700865,0.0003994738217443228,0.0009321055840700865
1772810416266181400,4.368181396484375,0.00013315794058144093,-0.0006657897029072046,-0.00013315794058144093
1772810416276061700,4.378061767578125,-0.0003994738217443228,0.0003994738217443228,-0.00013315794058144093
1772810416285942300,4.3879423828125,0.00013315794058144093,0.0003994738217443228,-0.0006657897029072046
1772810416295822600,4.397822509765625,0.001731053227558732,0.0003994738217443228,-0.00013315794058144093
1772810416305703000,4.407702880859375,0.00013315794058144093,0.0014647373463958502,-0.00013315794058144093
1772810416315583500,4.41758349609375,-0.0003994738217443228,0.0014647373463958502,-0.0011984214652329683
1772810416325463800,4.4274638671875,0.00013315794058144093,0.0003994738217443228,-0.0006657897029072046
1772810416335344400,4.437344482421875,-0.0003994738217443228,-0.001731053227558732,0.0009321055840700865
1772810416345224700,4.447224609375,0.0006657897029072046,-0.0006657897029072046,0.0014647373463958502
1772810416355105000,4.45710498046875,0.0006657897029072046,-0.0006657897029072046,0.0009321055840700865
1772810416364985300,4.4669853515625,-0.0014647373463958502,0.0014647373463958502,-0.0011984214652329683
1772810416374866000,4.476865966796875,-0.0014647373463958502,0.0014647373463958502,-0.00013315794058144093
1772810416384746200,4.486746337890625,-0.0009321055840700865,-0.0006657897029072046,0.0003994738217443228
1772810416394626800,4.496626708984375,-0.0009321055840700865,0.001997369108721614,-0.0006657897029072046
1772810416404507100,4.506507080078125,-0.0003994738217443228,-0.0006657897029072046,-0.0006657897029072046
1772810416414387500,4.516387451171875,-0.0003994738217443228,-0.0006657897029072046,-0.0006657897029072046
1772810416424268000,4.52626806640625,0.0006657897029072046,0.0003994738217443228,-0.00013315794058144093
1772810416434148400,4.5361484375,0.0006657897029072046,0.0014647373463958502,-0.0006657897029072046
1772810416444028700,4.546028564453125,0.0006657897029072046,0.0014647373463958502,0.0009321055840700865
1772810416453909200,4.5559091796875,-0.0009321055840700865,-0.001731053227558732,-0.00013315794058144093
1772810416463789600,4.56578955078125,-0.0009321055840700865,-0.0011984214652329683,-0.00013315794058144093
1772810416473670000,4.575669921875,0.00013315794058144093,-0.0011984214652329683,0.0003994738217443228
1772810416483550500,4.585550537109375,-0.0025300008710473776,-0.0006657897029072046,-0.0006657897029072046
1772810416493430800,4.5954306640625,0.0011984214652329683,-0.0006657897029072046,-0.0006657897029072046
1772810416503316000,4.60531591796875,0.00013315794058144093,0.0009321055840700865,0.0009321055840700865
1772810416513196000,4.615196044921875,-0.0009321055840700865,0.0003994738217443228,-0.00013315794058144093
1772810416532956200,4.6349560546875,-0.0003994738217443228,-0.00013315794058144093,-0.0011984214652329683
1772810416542836200,4.644836181640625,0.0027963167522102594,-0.0006657897029072046,-0.00013315794058144093
1772810416552716500,4.654716552734375,0.00013315794058144093,0.0003994738217443228,-0.0006657897029072046
1772810416562596600,4.6645966796875,0.001731053227558732,-0.0006657897029072046,0.001997369108721614
1772810416572476700,4.6744765625,-0.0003994738217443228,-0.0022636849898844957,-0.0006657897029072046
1772810416582356700,4.684356689453125,0.00013315794058144093,-0.0006657897029072046,-0.0022636849898844957
1772810416592236800,4.69423681640625,0.001731053227558732,0.0014647373463958502,-0.0011984214652329683
1772810416602116900,4.704116943359375,-0.0003994738217443228,-0.0011984214652329683,-0.0006657897029072046
1772810416611997000,4.713996826171875,-0.0003994738217443228,0.0014647373463958502,-0.00013315794058144093
1772810416621877000,4.723876953125,-0.0014647373463958502,0.001997369108721614,0.001997369108721614
1772810416631757300,4.73375732421875,-0.0009321055840700865,0.0009321055840700865,-0.00013315794058144093
1772810416641637400,4.743637451171875,0.0011984214652329683,0.0009321055840700865,-0.0006657897029072046
1772810416651517400,4.753517333984375,-0.0009321055840700865,-0.0011984214652329683,-0.00013315794058144093
1772810416661397500,4.7633974609375,0.001731053227558732,-0.0011984214652329683,0.0009321055840700865
1772810416671277600,4.773277587890625,0.001731053227558732,-0.0006657897029072046,-0.00013315794058144093
1772810416681157600,4.78315771484375,-0.0009321055840700865,0.0014647373463958502,-0.0006657897029072046
1772810416691038000,4.793037841796875,0.00013315794058144093,0.001997369108721614,-0.0011984214652329683
1772810416700918000,4.80291796875,0.00013315794058144093,0.0003994738217443228,-0.00013315794058144093
1772810416710798000,4.812798095703125,-0.0003994738217443228,-0.00013315794058144093,-0.0006657897029072046
1772810416720678100,4.82267822265625,-0.0003994738217443228,0.0003994738217443228,-0.00013315794058144093
1772810416730558200,4.83255810546875,0.00013315794058144093,-0.001731053227558732,0.0003994738217443228
1772810416740438300,4.842438232421875,0.00013315794058144093,-0.00013315794058144093,-0.0006657897029072046
1772810416750318300,4.852318359375,0.00013315794058144093,0.0009321055840700865,0.0009321055840700865
1772810416760198400,4.862198486328125,-0.0003994738217443228,-0.0011984214652329683,-0.0006657897029072046
1772810416770078700,4.87207861328125,0.0006657897029072046,0.0009321055840700865,-0.001731053227558732
1772810416779958800,4.881958740234375,-0.001997369108721614,-0.001731053227558732,-0.0011984214652329683
1772810416789838800,4.8918388671875,-0.0003994738217443228,0.001864211168140173,0
1772810416799719000,4.901718994140625,0.001731053227558732,-0.0013315794058144093,-0.0005326317623257637
1772810416809599000,4.911598876953125,0.0006657897029072046,-0.001864211168140173,-0.0010652635246515274
1772810416819479000,4.92147900390625,0.0011984214652329683,-0.0007989476434886456,-0.0005326317623257637
1772810416829359000,4.931359130859375,0.001731053227558732,-0.0007989476434886456,0
1772810416839239200,4.9412392578125,-0.0003994738217443228,-0.0007989476434886456,0.0005326317623257637
1772810416849119500,4.951119384765625,0.00013315794058144093,0.00026631588116288185,-0.0005326317623257637
1772810416858999600,4.96099951171875,-0.0014647373463958502,0.00026631588116288185,0.0005326317623257637
1772810416868879600,4.970879638671875,0.0006657897029072046,-0.0029294746927917004,0
1772810416878759700,4.980759765625,0.0006657897029072046,0.001864211168140173,-0.001597895286977291
1772810416888639700,4.9906396484375,0.00013315794058144093,-0.00026631588116288185,0.0005326317623257637
1772810416898519800,5.000519775390625,-0.0003994738217443228,0.0007989476434886456,0.0010652635246515274
1772810416908400000,5.010400146484375,0.0006657897029072046,0.0029294746927917004,0.0010652635246515274
1772810416918280200,5.0202802734375,0.0006657897029072046,-0.0023968429304659367,-0.0005326317623257637
1772810416928160300,5.03016015625,0.0006657897029072046,-0.0007989476434886456,-0.0005326317623257637
1772810416938040300,5.040040283203125,-0.0009321055840700865,0.00026631588116288185,0.0005326317623257637
1772810416947920400,5.04992041015625,-0.0003994738217443228,0.00026631588116288185,-0.0005326317623257637
1772810416957800400,5.059800537109375,-0.0009321055840700865,-0.00026631588116288185,-0.001597895286977291
1772810416967680500,5.069680419921875,-0.0003994738217443228,0.0007989476434886456,-0.0005326317623257637
1772810416977560600,5.079560546875,0.0011984214652329683,-0.0007989476434886456,0
1772810416987441000,5.08944091796875,-0.0003994738217443228,-0.0023968429304659367,0.0010652635246515274
1772810416997320700,5.09932080078125,-0.0014647373463958502,-0.0013315794058144093,0
1772810417007200500,5.109200439453125,-0.0009321055840700865,0.00026631588116288185,0.0005326317623257637
1772810417017080300,5.119080322265625,-0.0003994738217443228,-0.00026631588116288185,0.0010652635246515274
1772810417026960100,5.128960205078125,0.0006657897029072046,0.0013315794058144093,0.0005326317623257637
1772810417036839700,5.138839599609375,0.00013315794058144093,0.0007989476434886456,0.001597895286977291
1772810417046719500,5.148719482421875,-0.0014647373463958502,0.0013315794058144093,0
1772810417056599300,5.158599365234375,0.00013315794058144093,-0.0013315794058144093,-0.0005326317623257637
1772810417066478800,5.168478759765625,-0.0003994738217443228,0.00026631588116288185,-0.0010652635246515274
1772810417076358700,5.178358642578125,-0.0003994738217443228,0.0007989476434886456,-0.0005326317623257637
1772810417086238500,5.188238525390625,0.001731053227558732,-0.0013315794058144093,0.0010652635246515274
1772810417096118300,5.1981181640625,-0.0003994738217443228,-0.00026631588116288185,0
1772810417105997800,5.207997802734375,0.0011984214652329683,-0.0013315794058144093,0.001597895286977291
1772810417115877600,5.217877685546875,-0.0014647373463958502,-0.0013315794058144093,0.0005326317623257637
1772810417125757400,5.22775732421875,-0.0009321055840700865,-0.0013315794058144093,-0.0010652635246515274
1772810417135637000,5.237636962890625,-0.0009321055840700865,-0.00026631588116288185,0
1772810417145516800,5.247516845703125,-0.0003994738217443228,-0.0007989476434886456,-0.0005326317623257637
1772810417155396600,5.257396728515625,0.00013315794058144093,0.0007989476434886456,-0.0005326317623257637
1772810417165276400,5.2672763671875,0.00013315794058144093,-0.0013315794058144093,0.0005326317623257637
1772810417175156000,5.277156005859375,0.00013315794058144093,-0.0007989476434886456,0.0005326317623257637
1772810417185035800,5.287035888671875,-0.0014647373463958502,-0.00026631588116288185,-0.0010652635246515274
1772810417194915600,5.29691552734375,-0.0003994738217443228,0.001864211168140173,0
1772810417204795400,5.30679541015625,-0.0009321055840700865,0.001864211168140173,-0.0010652635246515274
1772810417214675000,5.316675048828125,-0.0009321055840700865,0.0007989476434886456,0.0010652635246515274
1772810417224554800,5.3265546875,0.0006657897029072046,0.0007989476434886456,0
1772810417234434600,5.3364345703125,0.00013315794058144093,-0.001864211168140173,0.0010652635246515274
1772810417244314000,5.346314208984375,0.00013315794058144093,-0.00026631588116288185,-0.0010652635246515274
1772810417254194000,5.35619384765625,0.0006657897029072046,0.00026631588116288185,0
1772810417264073700,5.36607373046875,-0.0014647373463958502,0.00026631588116288185,0.0005326317623257637
1772810417273953500,5.37595361328125,0.0006657897029072046,0.0007989476434886456,-0.0010652635246515274
1772810417283833000,5.3858330078125,0.00013315794058144093,-0.0007989476434886456,0.0005326317623257637
1772810417293713000,5.395712890625,0.00013315794058144093,-0.00026631588116288185,0.0005326317623257637
1772810417303592700,5.4055927734375,0.0011984214652329683,0.001864211168140173,0
1772810417313472300,5.41547216796875,-0.0003994738217443228,0.00026631588116288185,-0.0010652635246515274
1772810417323352000,5.42535205078125,-0.0014647373463958502,-0.0013315794058144093,-0.0005326317623257637
1772810417333231900,5.43523193359375,0.0022636849898844957,0.00026631588116288185,0.001597895286977291
1772810417343111700,5.445111572265625,-0.0009321055840700865,0.0007989476434886456,-0.0010652635246515274
1772810417352991200,5.4549912109375,-0.0014647373463958502,-0.00026631588116288185,-0.0005326317623257637
1772810417362871000,5.46487109375,0.0006657897029072046,0.0007989476434886456,-0.0005326317623257637
1772810417372750800,5.474750732421875,0.00013315794058144093,0.00026631588116288185,0.001597895286977291
1772810417382630700,5.484630615234375,0.001731053227558732,-0.0013315794058144093,-0.0005326317623257637
1772810417392510200,5.49451025390625,-0.0003994738217443228,-0.0013315794058144093,-0.0005326317623257637
1772810417402390000,5.50439013671875,-0.0003994738217443228,0.0007989476434886456,0.002130527049303055
1772810417412269800,5.514269775390625,0.0006657897029072046,-0.0029294746927917004,0.002130527049303055
1772810417422149400,5.5241494140625,0.0006657897029072046,0.00026631588116288185,0
1772810417432029200,5.534029296875,0.00013315794058144093,-0.0013315794058144093,-0.0005326317623257637
1772810417441909000,5.543908935546875,0.00013315794058144093,-0.0023968429304659367,-0.0010652635246515274
1772810417451788800,5.553788818359375,0.0011984214652329683,-0.0007989476434886456,0.0010652635246515274
1772810417461668400,5.56366845703125,0.0006657897029072046,-0.0013315794058144093,0.0005326317623257637
1772810417471548200,5.573548095703125,-0.0009321055840700865,-0.0007989476434886456,0
1772810417481428000,5.583427978515625,-0.0014647373463958502,0.00026631588116288185,-0.0010652635246515274
1772810417491307500,5.5933076171875,0.0006657897029072046,-0.0007989476434886456,-0.0005326317623257637
1772810417501187300,5.603187255859375,0.0011984214652329683,-0.00026631588116288185,0.0005326317623257637
1772810417511067100,5.613067138671875,0.00013315794058144093,-0.00026631588116288185,0.001597895286977291
1772810417520946700,5.62294677734375,0.00013315794058144093,-0.0013315794058144093,0.0005326317623257637
1772810417530826500,5.632826416015625,0.0027963167522102594,0.00026631588116288185,0.0005326317623257637
1772810417540706300,5.642706298828125,-0.001997369108721614,-0.00026631588116288185,0
1772810417550585900,5.6525859375,0.00013315794058144093,-0.00026631588116288185,0.0010652635246515274
1772810417560465700,5.662465576171875,-0.0003994738217443228,0.0013315794058144093,0.0010652635246515274
1772810417570345500,5.672345458984375,0.00013315794058144093,-0.0013315794058144093,0
1772810417580225000,5.68222509765625,-0.0009321055840700865,0.0007989476434886456,0.001597895286977291
1772810417590104800,5.692104736328125,-0.001997369108721614,0.0023968429304659367,0
1772810417599984400,5.701984375,-0.0003994738217443228,-0.00026631588116288185,0.0005326317623257637
1772810417609864200,5.7118642578125,0.0011984214652329683,-0.0007989476434886456,0.0005326317623257637
1772810417619744000,5.721743896484375,-0.0003994738217443228,-0.0007989476434886456,-0.001597895286977291
1772810417629623600,5.73162353515625,-0.0003994738217443228,0.0007989476434886456,-0.0005326317623257637
1772810417639503400,5.74150341796875,-0.0009321055840700865,-0.0007989476434886456,0.0010652635246515274
1772810417649383200,5.751383056640625,0.0022636849898844957,0.00026631588116288185,0
1772810417659262700,5.7612626953125,0.0006657897029072046,-0.0013315794058144093,0.001597895286977291
1772810417669142500,5.771142578125,-0.0014647373463958502,-0.00026631588116288185,0.0010652635246515274
1772810417679022000,5.78102197265625,-0.0003994738217443228,-0.00026631588116288185,0.001597895286977291
1772810417688902000,5.79090185546875,0.0006657897029072046,-0.00026631588116288185,0.0010652635246515274
1772810417698781700,5.80078173828125,0.00013315794058144093,-0.0007989476434886456,-0.0010652635246515274
1772810417708661200,5.8106611328125,0.00013315794058144093,0.00026631588116288185,-0.0005326317623257637
1772810417718541000,5.820541015625,0.0011984214652329683,-0.0013315794058144093,0
1772810417728420900,5.8304208984375,-0.0009321055840700865,0.0007989476434886456,0.0005326317623257637
1772810417738300400,5.840300537109375,0.0006657897029072046,0.00026631588116288185,0.0005326317623257637
1772810417748180200,5.85018017578125,0.00013315794058144093,0.0007989476434886456,0.0010652635246515274
1772810417767939600,5.869939697265625,0.00013315794058144093,-0.00026631588116288185,0.0005326317623257637
1772810417777819400,5.8798193359375,0.00013315794058144093,-0.001864211168140173,0.0005326317623257637
1772810417787699200,5.88969921875,-0.0003994738217443228,-0.0007989476434886456,0
1772810417797578800,5.899578857421875,0.0006657897029072046,0.0007989476434886456,-0.0010652635246515274
1772810417807458600,5.90945849609375,0.00013315794058144093,-0.0013315794058144093,0
1772810417817338400,5.91933837890625,0.00013315794058144093,-0.0013315794058144093,-0.0010652635246515274
1772810417827218000,5.929218017578125,-0.0003994738217443228,-0.0023968429304659367,-0.0010652635246515274
1772810417837097700,5.93909765625,0.00013315794058144093,-0.00026631588116288185,0.0010652635246515274
1772810417846977300,5.948977294921875,-0.0003994738217443228,0.0007989476434886456,-0.0005326317623257637
1772810417856857000,5.958857177734375,-0.0003994738217443228,-0.001864211168140173,-0.0010652635246515274
1772810417866737000,5.96873681640625,-0.0025300008710473776,0.00026631588116288185,0
1772810417876616400,5.978616455078125,0.00013315794058144093,-0.0007989476434886456,-0.0010652635246515274
1772810417886496300,5.988496337890625,-0.0009321055840700865,0.00026631588116288185,0.0005326317623257637
1772810417896376000,5.9983759765625,-0.0014647373463958502,0.00026631588116288185,0.0005326317623257637
1772810417906255600,6.008255615234375,-0.0009321055840700865,0.001864211168140173,0.0005326317623257637
1772810417916135400,6.018135498046875,-0.001997369108721614,-0.0007989476434886456,0.0005326317623257637
1772810417926015200,6.02801513671875,0.00013315794058144093,0.0013315794058144093,0
1772810417935894800,6.037894775390625,0.00013315794058144093,0.0007989476434886456,0.0010652635246515274
1772810417945774600,6.047774658203125,0.001731053227558732,0.00026631588116288185,0
1772810417955654100,6.057654052734375,-0.0003994738217443228,0.00026631588116288185,0
1772810417965534000,6.067533935546875,0.00013315794058144093,-0.001864211168140173,0.0010652635246515274
1772810417975413800,6.077413818359375,-0.0003994738217443228,0.001864211168140173,0.0005326317623257637
1772810417985293300,6.087293212890625,-0.0014647373463958502,-0.0007989476434886456,0
1772810417995173000,6.097173095703125,-0.0003994738217443228,-0.00026631588116288185,0.0005326317623257637
1772810418005053400,6.107053466796875,0.00013315794058144093,-0.0013315794058144093,0.0005326317623257637
1772810418014933800,6.116933837890625,0.0011984214652329683,0.0007989476434886456,0
1772810418024814000,6.12681396484375,0.0006657897029072046,0.00026631588116288185,0.0005326317623257637
1772810418034694400,6.1366943359375,-0.0003994738217443228,0.0013315794058144093,-0.0005326317623257637
1772810418044574700,6.14657470703125,-0.0009321055840700865,0.00026631588116288185,0
1772810418054454800,6.156454833984375,0.0011984214652329683,-0.0007989476434886456,-0.001597895286977291
1772810418064335000,6.166335205078125,-0.0014647373463958502,-0.0007989476434886456,0
1772810418074215400,6.17621533203125,0.0011984214652329683,-0.00026631588116288185,-0.0005326317623257637
1772810418084095700,6.186095703125,-0.0003994738217443228,-0.00026631588116288185,-0.0005326317623257637
1772810418093976000,6.19597607421875,-0.0003994738217443228,-0.001864211168140173,0.0005326317623257637
1772810418103856400,6.2058564453125,0.00013315794058144093,0.00026631588116288185,0
1772810418113736700,6.21573681640625,-0.0003994738217443228,-0.00026631588116288185,0
1772810418123617000,6.225616943359375,-0.0009321055840700865,-0.00026631588116288185,-0.0005326317623257637
1772810418133497300,6.235497314453125,-0.0003994738217443228,-0.0007989476434886456,-0.001597895286977291
1772810418143377700,6.245377685546875,0.0006657897029072046,0.0007989476434886456,-0.0010652635246515274
1772810418153258000,6.255258056640625,0.00013315794058144093,-0.0013315794058144093,-0.0005326317623257637
1772810418163138300,6.26513818359375,-0.0009321055840700865,0.00026631588116288185,0.0005326317623257637
1772810418173018600,6.2750185546875,0.00013315794058144093,-0.0013315794058144093,-0.0010652635246515274
1772810418182899000,6.28489892578125,0.00013315794058144093,0.00026631588116288185,0.0005326317623257637
1772810418192779300,6.294779296875,0.00013315794058144093,-0.001864211168140173,0.0005326317623257637
1772810418202659600,6.30465966796875,-0.0003994738217443228,-0.0007989476434886456,-0.002130527049303055
1772810418212540000,6.314539794921875,0.001731053227558732,-0.0007989476434886456,0.0010652635246515274
1772810418222420200,6.324420166015625,-0.0003994738217443228,0.0007989476434886456,0
1772810418232300500,6.334300537109375,0.0011984214652329683,0.0023968429304659367,0.0005326317623257637
1772810418242180600,6.3441806640625,0.00013315794058144093,-0.00026631588116288185,0
1772810418252061000,6.35406103515625,0.0006657897029072046,-0.0007989476434886456,0.0005326317623257637
1772810418261941200,6.363941162109375,-0.0003994738217443228,-0.0007989476434886456,0
1772810418271821600,6.373821533203125,-0.0014647373463958502,-0.0013315794058144093,0
1772810418281702000,6.383701904296875,0.00013315794058144093,-0.00026631588116288185,0.0005326317623257637
1772810418291582200,6.393582275390625,0.0006657897029072046,0.0007989476434886456,-0.0005326317623257637
1772810418301462500,6.403462646484375,0.00013315794058144093,0.00026631588116288185,-0.0005326317623257637
1772810418311342800,6.4133427734375,0.0006657897029072046,-0.0013315794058144093,0.0005326317623257637
1772810418321223200,6.42322314453125,-0.0009321055840700865,0.00026631588116288185,0.0005326317623257637
1772810418331103500,6.433103515625,-0.0003994738217443228,-0.001864211168140173,0.0005326317623257637
1772810418340983800,6.44298388671875,-0.001997369108721614,-0.00026631588116288185,-0.001597895286977291
1772810418350864100,6.452864013671875,-0.0009321055840700865,0.00026631588116288185,0.001597895286977291
1772810418360744400,6.462744384765625,-0.0003994738217443228,-0.00026631588116288185,0
1772810418370624800,6.472624755859375,-0.0003994738217443228,-0.0023968429304659367,0
1772810418380505000,6.482505126953125,0.00013315794058144093,0.00026631588116288185,-0.0010652635246515274
1772810418390385200,6.49238525390625,0.00013315794058144093,-0.0007989476434886456,0
1772810418400265500,6.502265380859375,0.00013315794058144093,0.00026631588116288185,0.0010652635246515274
1772810418410145800,6.512145751953125,0.0006657897029072046,0.00026631588116288185,-0.0010652635246515274
1772810418420026000,6.522026123046875,-0.0009321055840700865,-0.0029294746927917004,0.0005326317623257637
1772810418429906400,6.531906494140625,-0.0009321055840700865,0.0013315794058144093,0.0010652635246515274
1772810418449667000,6.5516669921875,-0.0009321055840700865,-0.001864211168140173,0.0005326317623257637
1772810418459547400,6.56154736328125,-0.0003994738217443228,0.00026631588116288185,0
1772810418469427700,6.571427734375,-0.0014647373463958502,0.00026631588116288185,0.0010652635246515274
1772810418479308000,6.58130810546875,0.0011984214652329683,-0.0013315794058144093,0
1772810418489188400,6.591188232421875,0.0022636849898844957,0.0007989476434886456,-0.0005326317623257637
1772810418499068400,6.601068359375,0.00013315794058144093,0.00026631588116288185,0
1772810418508948000,6.610947998046875,0.00013315794058144093,-0.0013315794058144093,-0.0005326317623257637
1772810418518827500,6.62082763671875,0.0006657897029072046,-0.0007989476434886456,0
1772810418528707300,6.630707275390625,-0.0009321055840700865,-0.0023968429304659367,-0.001597895286977291
1772810418538587000,6.6405869140625,0.0006657897029072046,0.001864211168140173,0.0005326317623257637
1772810418548466400,6.650466552734375,0.0006657897029072046,0.0007989476434886456,0
1772810418568225500,6.6702255859375,-0.0014647373463958502,0.0005326317623257637,-0.002130527049303055
1772810418578105000,6.68010498046875,0.0011984214652329683,0.0026631588116288185,-0.0010652635246515274
1772810418587984600,6.689984619140625,0.0011984214652329683,0,0.001597895286977291
1772810418597864400,6.699864501953125,0.0011984214652329683,-0.002130527049303055,0
1772810418607744000,6.709743896484375,0.0006657897029072046,-0.002130527049303055,0
1772810418617623600,6.71962353515625,0.0011984214652329683,0.001597895286977291,-0.0010652635246515274
1772810418627503000,6.729503173828125,-0.0009321055840700865,0.0005326317623257637,0.0010652635246515274
1772810418637382700,6.739382568359375,-0.0003994738217443228,0.0005326317623257637,0.0010652635246515274
1772810418647262500,6.749262451171875,-0.0003994738217443228,-0.0005326317623257637,-0.001597895286977291
1772810418657142000,6.75914208984375,-0.0014647373463958502,-0.001597895286977291,-0.0005326317623257637
1772810418667021600,6.769021484375,0.001731053227558732,-0.0005326317623257637,0
1772810418676901000,6.778901123046875,-0.0009321055840700865,-0.0005326317623257637,0.0005326317623257637
1772810418686780700,6.78878076171875,0.00013315794058144093,0,-0.0010652635246515274
1772810418696660200,6.79866015625,-0.0003994738217443228,0.0005326317623257637,0
1772810418706540000,6.8085400390625,0.00013315794058144093,0,-0.0005326317623257637
1772810418716419600,6.818419677734375,0.00013315794058144093,0.0010652635246515274,-0.001597895286977291
1772810418726299100,6.828299072265625,0.0006657897029072046,0.0010652635246515274,0.0005326317623257637
1772810418736178700,6.8381787109375,-0.0003994738217443228,-0.00426105409860611,0
1772810418746058200,6.848058349609375,-0.0003994738217443228,0.0010652635246515274,0.0010652635246515274
1772810418765817600,6.867817626953125,-0.0009321055840700865,0.001597895286977291,-0.0005326317623257637
1772810418775697200,6.877697265625,-0.0014647373463958502,0.0010652635246515274,-0.0005326317623257637
1772810418785576700,6.88757666015625,-0.0003994738217443228,-0.0005326317623257637,-0.0005326317623257637
1772810418795456300,6.897456298828125,0.00013315794058144093,-0.0010652635246515274,0
1772810418805335800,6.907335693359375,-0.0009321055840700865,-0.0005326317623257637,0.0005326317623257637
1772810418815215400,6.91721533203125,0.0011984214652329683,0.0005326317623257637,-0.0005326317623257637
1772810418825095200,6.92709521484375,0.0006657897029072046,0.001597895286977291,0.001597895286977291
1772810418834974700,6.936974609375,-0.0003994738217443228,-0.0005326317623257637,-0.0005326317623257637
1772810418844854300,6.946854248046875,-0.0003994738217443228,0.002130527049303055,-0.0005326317623257637
1772810418854733800,6.95673388671875,-0.0003994738217443228,0.0010652635246515274,-0.0010652635246515274
1772810418864613400,6.96661328125,0.0011984214652329683,0.0010652635246515274,0.0005326317623257637
1772810418874493000,6.976492919921875,0.0006657897029072046,0.001597895286977291,0
1772810418884372700,6.986372802734375,-0.001997369108721614,-0.002130527049303055,0.0010652635246515274
1772810418894252300,6.996252197265625,-0.0009321055840700865,0.0005326317623257637,0
1772810418904131800,7.0061318359375,0.0011984214652329683,0.0005326317623257637,0
1772810418914011400,7.016011474609375,0.0006657897029072046,-0.0005326317623257637,0.0005326317623257637
1772810418923891000,7.025890869140625,-0.0003994738217443228,0.0010652635246515274,0.0005326317623257637
1772810418933770800,7.035770751953125,0.0006657897029072046,0.0005326317623257637,0.0005326317623257637
1772810418943650300,7.045650390625,-0.001997369108721614,-0.001597895286977291,0
1772810418953529900,7.05552978515625,-0.0009321055840700865,0.0005326317623257637,0.0005326317623257637
1772810418963409400,7.065409423828125,0.0011984214652329683,0,0
1772810418973289000,7.0752890625,0.003328948514536023,-0.003195790573954582,-0.002130527049303055
1772810418983168500,7.08516845703125,-0.0009321055840700865,-0.0005326317623257637,0
1772810419002927900,7.104927978515625,0.001731053227558732,-0.001597895286977291,0
1772810419012807700,7.1148076171875,0.00013315794058144093,0,0.0005326317623257637
1772810419022687200,7.124687255859375,-0.0003994738217443228,0.002130527049303055,0
1772810419032567000,7.134567138671875,-0.0009321055840700865,-0.0005326317623257637,-0.0005326317623257637
1772810419042446800,7.14444677734375,0.00013315794058144093,0,-0.001597895286977291
1772810419052326400,7.154326416015625,0.0006657897029072046,0,0.0010652635246515274
1772810419062206200,7.164206298828125,0.0011984214652329683,0.0005326317623257637,0
1772810419072086000,7.1740859375,-0.0009321055840700865,0.0010652635246515274,-0.0010652635246515274
1772810419081965800,7.1839658203125,0.0022636849898844957,0.001597895286977291,0
1772810419091845400,7.193845458984375,0.00013315794058144093,0.0010652635246515274,0
1772810419101725200,7.20372509765625,0.001731053227558732,0.001597895286977291,-0.0005326317623257637
1772810419111605000,7.21360498046875,-0.0003994738217443228,0.0010652635246515274,0
1772810419121484500,7.223484619140625,-0.0014647373463958502,0.0005326317623257637,0.0005326317623257637
1772810419131364400,7.2333642578125,0.00013315794058144093,0.0010652635246515274,0.0005326317623257637
1772810419141244200,7.243244140625,0.00013315794058144093,0.0010652635246515274,0
1772810419151124000,7.2531240234375,0.0011984214652329683,0,0.0010652635246515274
1772810419161003500,7.26300341796875,0.00013315794058144093,0.0010652635246515274,-0.0005326317623257637
1772810419170883300,7.27288330078125,-0.0009321055840700865,-0.0010652635246515274,0.0010652635246515274
1772810419180763100,7.28276318359375,-0.0003994738217443228,0.0010652635246515274,-0.0005326317623257637
1772810419200522500,7.3025224609375,0.0006657897029072046,-0.001597895286977291,0.0005326317623257637
1772810419210402300,7.31240234375,-0.0003994738217443228,-0.0005326317623257637,-0.0005326317623257637
1772810419220282000,7.3222822265625,0.0006657897029072046,0.0005326317623257637,-0.0005326317623257637
1772810419230161700,7.33216162109375,0.001731053227558732,0.0010652635246515274,0.0005326317623257637
1772810419240041500,7.34204150390625,0.00013315794058144093,0.0005326317623257637,0
1772810419249921300,7.35192138671875,0.001731053227558732,-0.0005326317623257637,-0.0005326317623257637
1772810419259800800,7.36180078125,-0.0003994738217443228,0,-0.0005326317623257637
1772810419269680600,7.3716806640625,-0.0014647373463958502,-0.0005326317623257637,-0.0005326317623257637
1772810419279560400,7.381560546875,0.00013315794058144093,-0.0005326317623257637,0
1772810419289440000,7.39143994140625,-0.001997369108721614,0.001597895286977291,-0.0010652635246515274
1772810419299319800,7.40131982421875,-0.0003994738217443228,0,0.001597895286977291
1772810419309199600,7.41119970703125,-0.0009321055840700865,0.001597895286977291,-0.0005326317623257637
1772810419319079200,7.4210791015625,-0.0003994738217443228,0.0010652635246515274,0.0005326317623257637
1772810419328959000,7.430958984375,-0.0003994738217443228,0.0005326317623257637,-0.0005326317623257637
1772810419338838800,7.4408388671875,-0.0009321055840700865,0.0005326317623257637,-0.0005326317623257637
1772810419348718300,7.45071826171875,0.0006657897029072046,-0.001597895286977291,0
1772810419358598100,7.46059814453125,-0.001997369108721614,0,-0.0010652635246515274
1772810419368478000,7.47047802734375,0.00013315794058144093,-0.0005326317623257637,-0.0010652635246515274
1772810419378357800,7.480357666015625,-0.0003994738217443228,-0.001597895286977291,0.0005326317623257637
1772810419388237300,7.4902373046875,0.0011984214652329683,-0.0010652635246515274,0.0005326317623257637
1772810419398117000,7.5001171875,-0.0014647373463958502,0.0010652635246515274,0.0005326317623257637
1772810419407997000,7.509996826171875,0.00013315794058144093,0,-0.0005326317623257637
1772810419417876500,7.51987646484375,0.00013315794058144093,-0.0005326317623257637,0.001597895286977291
1772810419427756300,7.52975634765625,0.0006657897029072046,0.002130527049303055,0.0010652635246515274
1772810419437636000,7.539635986328125,0.00013315794058144093,0.0026631588116288185,-0.0005326317623257637
1772810419447516000,7.549515869140625,0.00013315794058144093,0.0005326317623257637,0.0005326317623257637
1772810419457395500,7.5593955078125,-0.0009321055840700865,0,-0.0005326317623257637
1772810419467275300,7.569275146484375,-0.0003994738217443228,0,-0.0010652635246515274
1772810419477155000,7.579155029296875,-0.001997369108721614,-0.0005326317623257637,-0.0005326317623257637
1772810419487034600,7.58903466796875,0.0006657897029072046,-0.0010652635246515274,-0.0005326317623257637
1772810419496914400,7.59891455078125,0.0011984214652329683,0.0005326317623257637,0.003728422336280346
1772810419506795000,7.608794921875,-0.0009321055840700865,0.0010652635246515274,0
1772810419516675300,7.61867529296875,-0.0003994738217443228,-0.0005326317623257637,-0.0010652635246515274
1772810419526555600,7.6285556640625,0.00013315794058144093,0,-0.0005326317623257637
1772810419536436000,7.63843603515625,0.00013315794058144093,0,-0.0005326317623257637
1772810419546316500,7.648316650390625,-0.0003994738217443228,0.0005326317623257637,0.001597895286977291
1772810419556196900,7.65819677734375,0.0011984214652329683,-0.002130527049303055,0
1772810419566077200,7.6680771484375,0.00013315794058144093,-0.0026631588116288185,0.0005326317623257637
1772810419575957500,7.67795751953125,0.0006657897029072046,-0.0005326317623257637,-0.0005326317623257637
1772810419585838000,7.687838134765625,0.0006657897029072046,0.0010652635246515274,0.0010652635246515274
1772810419595718400,7.697718505859375,-0.0003994738217443228,0.0010652635246515274,-0.0005326317623257637
1772810419605598700,7.7075986328125,0.0011984214652329683,-0.001597895286977291,0
1772810419615479000,7.71747900390625,0.0006657897029072046,-0.0010652635246515274,0.0005326317623257637
1772810419625359600,7.727359619140625,-0.0003994738217443228,0,-0.0010652635246515274
1772810419635240000,7.737239990234375,0.0006657897029072046,0.0005326317623257637,-0.0010652635246515274
1772810419645120300,7.747120361328125,-0.0003994738217443228,0.0005326317623257637,0.0005326317623257637
1772810419655000600,7.75700048828125,0.0011984214652329683,-0.0010652635246515274,0.001597895286977291
1772810419664881200,7.766881103515625,-0.0003994738217443228,0.0005326317623257637,0.0005326317623257637
1772810419674761500,7.776761474609375,0.0006657897029072046,0.0005326317623257637,-0.0005326317623257637
1772810419684641800,7.786641845703125,-0.0003994738217443228,-0.001597895286977291,0.0005326317623257637
1772810419694522000,7.796522216796875,0.0006657897029072046,-0.0010652635246515274,0
1772810419714283000,7.816282958984375,-0.0003994738217443228,0,0.0010652635246515274
1772810419724163300,7.826163330078125,0.00013315794058144093,0.0005326317623257637,0
1772810419734043600,7.836043701171875,0.00013315794058144093,0.001597895286977291,0.0005326317623257637
1772810419743924000,7.845924072265625,0.0006657897029072046,0.0005326317623257637,0
1772810419753804500,7.855804443359375,-0.0009321055840700865,0.0005326317623257637,0
1772810419763684900,7.865684814453125,-0.0003994738217443228,0.001597895286977291,0.0005326317623257637
1772810419773565200,7.875565185546875,-0.0009321055840700865,0.0005326317623257637,0.0005326317623257637
1772810419783445800,7.88544580078125,0.00013315794058144093,0.0010652635246515274,-0.001597895286977291
1772810419793326000,7.895326171875,-0.0009321055840700865,-0.001597895286977291,0.0005326317623257637
1772810419803206400,7.905206298828125,0.001731053227558732,-0.0010652635246515274,0
1772810419813086700,7.915086669921875,0.00013315794058144093,0.0010652635246515274,0
1772810419822967000,7.924967041015625,-0.001997369108721614,0,0.0005326317623257637
1772810419832847600,7.93484765625,-0.0003994738217443228,-0.0010652635246515274,0.0010652635246515274
1772810419842728000,7.94472802734375,0.0011984214652329683,0.0010652635246515274,0.0010652635246515274
1772810419852608300,7.954608154296875,-0.0003994738217443228,-0.0010652635246515274,0
1772810419862488600,7.964488525390625,-0.0003994738217443228,0,0
1772810419872369200,7.974369140625,-0.0003994738217443228,0.001597895286977291,-0.0010652635246515274
1772810419882249500,7.98424951171875,-0.0014647373463958502,0.0005326317623257637,-0.0005326317623257637
1772810419892129800,7.9941298828125,0.0011984214652329683,0.0005326317623257637,0
1772810419902010000,8.004010009765626,-0.0003994738217443228,0.001597895286977291,-0.0010652635246515274
1772810419911890700,8.013890625,0.0006657897029072046,0.0005326317623257637,0.001597895286977291
1772810419921771000,8.02377099609375,-0.0003994738217443228,-0.0010652635246515274,0
1772810419931651300,8.0336513671875,-0.0009321055840700865,0,-0.0005326317623257637
1772810419941531600,8.04353173828125,0.0011984214652329683,0.0010652635246515274,0
1772810419951412200,8.053412109375,0.0011984214652329683,0.0005326317623257637,0.0005326317623257637
1772810419971172900,8.0731728515625,-0.001997369108721614,-0.0005326317623257637,-0.0010652635246515274
1772810419981053200,8.08305322265625,-0.0003994738217443228,0.002130527049303055,0
1772810419990933800,8.092933837890625,-0.0003994738217443228,-0.002130527049303055,0.0005326317623257637
1772810420000814000,8.10281396484375,0.00013315794058144093,-0.003195790573954582,0.0010652635246515274
1772810420010694400,8.1126943359375,0.0011984214652329683,0,-0.002130527049303055
1772810420020575000,8.122574951171876,0.0006657897029072046,-0.0005326317623257637,0.0010652635246515274
1772810420030455300,8.132455322265624,0.001731053227558732,0.0010652635246515274,0.0005326317623257637
1772810420040335600,8.142335693359374,0.001731053227558732,0.0010652635246515274,0.0005326317623257637
1772810420050216200,8.15221630859375,-0.0003994738217443228,0.0005326317623257637,0
1772810420060096500,8.162096435546875,0.00013315794058144093,0.0005326317623257637,-0.0010652635246515274
1772810420069977000,8.17197705078125,0.00013315794058144093,0.0010652635246515274,-0.0010652635246515274
1772810420079857400,8.181857421875,-0.0003994738217443228,0.001597895286977291,0.0005326317623257637
1772810420089737700,8.19173779296875,-0.0003994738217443228,0,-0.0005326317623257637
1772810420099618300,8.201618408203124,0.00013315794058144093,0.0010652635246515274,0
1772810420109498600,8.21149853515625,-0.0009321055840700865,-0.002130527049303055,-0.0010652635246515274
1772810420119379200,8.221379150390625,0.0006657897029072046,0,0.0010652635246515274
1772810420129259500,8.231259521484375,-0.0003994738217443228,0,0
1772810420139139800,8.241139892578126,-0.0003994738217443228,0.0010652635246515274,0.001597895286977291
1772810420149020400,8.2510205078125,-0.0014647373463958502,0.0010652635246515274,0.0005326317623257637
1772810420158900700,8.260900634765624,0.0006657897029072046,-0.0010652635246515274,0.0010652635246515274
1772810420168781000,8.270781005859375,0.001731053227558732,-0.0005326317623257637,0
1772810420178661600,8.28066162109375,-0.0014647373463958502,0.0010652635246515274,0.0005326317623257637
1772810420188542000,8.2905419921875,-0.0014647373463958502,0,-0.001597895286977291
1772810420198422500,8.300422607421876,0.00013315794058144093,0,-0.0010652635246515274
1772810420208302800,8.310302734375,-0.0003994738217443228,-0.0005326317623257637,-0.0010652635246515274
1772810420218183200,8.32018310546875,-0.0003994738217443228,0.001597895286977291,0.0010652635246515274
1772810420228063700,8.330063720703125,0.001731053227558732,0.0005326317623257637,0
1772810420237944000,8.339944091796875,0.00013315794058144093,0.001597895286977291,-0.0005326317623257637
1772810420247824600,8.34982470703125,-0.0009321055840700865,0,0.0005326317623257637
1772810420267585300,8.369585205078126,-0.0009321055840700865,0,-0.0005326317623257637
1772810420277465900,8.3794658203125,0.00013315794058144093,-0.0005326317623257637,0
1772810420287346200,8.38934619140625,-0.0003994738217443228,0,-0.001597895286977291
1772810420297226800,8.399226806640625,0.0011984214652329683,0,0.0005326317623257637
1772810420307107000,8.409107177734375,0.001731053227558732,-0.0005326317623257637,0
1772810420316987400,8.4189873046875,-0.0003994738217443228,0,0
1772810420326868000,8.428867919921874,0.00013315794058144093,0,0
1772810420336748300,8.438748291015624,-0.0003994738217443228,0.0005326317623257637,0.001597895286977291
1772810420346628900,8.44862890625,0.00013315794058144093,0.0003994738217443228,-0.0010652635246515274
1772810420356509200,8.45850927734375,0.0011984214652329683,0.0009321055840700865,0.002130527049303055
1772810420366389500,8.468389404296875,-0.0003994738217443228,0.0003994738217443228,0.0005326317623257637
1772810420376270000,8.47827001953125,0.0006657897029072046,0.0009321055840700865,0
1772810420386150400,8.488150390625,-0.0003994738217443228,0.0003994738217443228,-0.001597895286977291
1772810420396030700,8.49803076171875,0.0011984214652329683,0.0003994738217443228,0.0010652635246515274
1772810420405911300,8.507911376953125,-0.0014647373463958502,0.0009321055840700865,-0.0005326317623257637
1772810420415791600,8.51779150390625,-0.0014647373463958502,0.0014647373463958502,-0.0010652635246515274
1772810420425672200,8.527672119140625,0.0011984214652329683,-0.0011984214652329683,-0.0010652635246515274
1772810420435552500,8.537552490234376,0.00013315794058144093,-0.00013315794058144093,0.0005326317623257637
1772810420445432800,8.547432861328126,-0.0003994738217443228,-0.0006657897029072046,0.001597895286977291
1772810420455313400,8.5573134765625,0.0006657897029072046,-0.0011984214652329683,0.0005326317623257637
1772810420465193700,8.56719384765625,-0.0003994738217443228,-0.00013315794058144093,0
1772810420475074300,8.57707421875,0.001731053227558732,0.0003994738217443228,0
1772810420484954600,8.58695458984375,-0.0003994738217443228,-0.0011984214652329683,0.0005326317623257637
1772810420494835000,8.5968349609375,-0.0009321055840700865,0.0009321055840700865,0
1772810420504715300,8.60671533203125,-0.0009321055840700865,0.0009321055840700865,0.0010652635246515274
1772810420514595300,8.61659521484375,0.00013315794058144093,-0.00013315794058144093,0.0010652635246515274
1772810420524475600,8.6264755859375,0.0006657897029072046,-0.001731053227558732,0.0005326317623257637
1772810420534355700,8.636355712890625,0.0006657897029072046,0.0003994738217443228,0.0005326317623257637
1772810420544235800,8.64623583984375,0.0011984214652329683,-0.0011984214652329683,-0.0010652635246515274
1772810420554116000,8.6561162109375,0.0011984214652329683,-0.003328948514536023,0.0005326317623257637
1772810420563996200,8.66599609375,0.0006657897029072046,-0.0011984214652329683,0
1772810420573876200,8.675876220703126,-0.0003994738217443228,-0.0006657897029072046,0.0005326317623257637
1772810420583756500,8.685756591796874,0.00013315794058144093,-0.0027963167522102594,0.0005326317623257637
1772810420593636600,8.69563671875,0.0006657897029072046,0.0014647373463958502,0
1772810420603516700,8.7055166015625,-0.0003994738217443228,0.0014647373463958502,0
1772810420623277000,8.725277099609375,0.00013315794058144093,-0.00013315794058144093,-0.0005326317623257637
1772810420633157400,8.735157470703125,0.0011984214652329683,0.0014647373463958502,-0.001597895286977291
1772810420643037400,8.745037353515626,0.00013315794058144093,0.0009321055840700865,-0.0005326317623257637
1772810420652917500,8.75491748046875,0.0011984214652329683,-0.00013315794058144093,0
1772810420662797800,8.7647978515625,-0.0014647373463958502,-0.0011984214652329683,0.0005326317623257637
1772810420672678000,8.774677978515625,-0.0003994738217443228,0.0003994738217443228,0
1772810420682558000,8.784557861328125,-0.0003994738217443228,0.0003994738217443228,0.001597895286977291
1772810420692438300,8.794438232421875,0.00013315794058144093,0.0003994738217443228,0.0005326317623257637
1772810420702318300,8.804318359375,-0.0009321055840700865,-0.00013315794058144093,0
1772810420712198400,8.814198486328126,0.00013315794058144093,-0.0006657897029072046,0.0010652635246515274
1772810420722078700,8.82407861328125,0.00013315794058144093,-0.0022636849898844957,-0.0010652635246515274
1772810420731958800,8.833958740234374,0.0006657897029072046,-0.0006657897029072046,0.0005326317623257637
1772810420741838800,8.8438388671875,-0.0003994738217443228,0.0009321055840700865,0
1772810420751719200,8.85371923828125,-0.0014647373463958502,-0.0011984214652329683,0
1772810420761599200,8.86359912109375,0.00013315794058144093,-0.00013315794058144093,0.0010652635246515274
1772810420771479600,8.8734794921875,0.0006657897029072046,-0.0006657897029072046,-0.0005326317623257637
1772810420781359600,8.883359619140625,-0.0014647373463958502,-0.0011984214652329683,0
1772810420791239700,8.89323974609375,-0.0003994738217443228,0.0003994738217443228,0
1772810420801120000,8.9031201171875,-0.0009321055840700865,-0.0022636849898844957,0.0010652635246515274
1772810420811000000,8.913,-0.0009321055840700865,-0.003861580276861787,0.001597895286977291
1772810420820880100,8.922880126953125,-0.0009321055840700865,-0.0006657897029072046,0.0026631588116288185
1772810420830760400,8.932760498046875,-0.0003994738217443228,0.0009321055840700865,0.0010652635246515274
1772810420840640500,8.942640625,0.0006657897029072046,0.0003994738217443228,-0.002130527049303055
1772810420850520600,8.9525205078125,-0.0009321055840700865,0.0014647373463958502,0
1772810420870281000,8.972281005859376,-0.0003994738217443228,0.001997369108721614,-0.0005326317623257637
1772810420880161300,8.982161376953124,0.0011984214652329683,-0.003861580276861787,-0.0005326317623257637
1772810420890041300,8.992041259765625,0.0006657897029072046,-0.004394211806356907,0.0005326317623257637
1772810420899921400,9.00192138671875,-0.0003994738217443228,-0.003861580276861787,-0.0005326317623257637
1772810420909801700,9.0118017578125,-0.0003994738217443228,-0.003861580276861787,-0.0005326317623257637
1772810420919681800,9.021681884765625,-0.0009321055840700865,-0.003328948514536023,0.0005326317623257637
1772810420929562000,9.03156201171875,0.0006657897029072046,-0.001731053227558732,-0.0010652635246515274
1772810420939442200,9.041442138671876,0.0011984214652329683,-0.0006657897029072046,-0.0005326317623257637
1772810420949322200,9.051322265625,0.0011984214652329683,0.001997369108721614,0.0010652635246515274
1772810420959202600,9.06120263671875,-0.0009321055840700865,0.003595264395698905,0.001597895286977291
1772810420969082600,9.07108251953125,-0.0003994738217443228,0.0025300008710473776,0.0005326317623257637
1772810420978962700,9.080962646484375,-0.0003994738217443228,0.0030626326333731413,-0.001597895286977291
1772810420988843000,9.090843017578125,0.00013315794058144093,0.0003994738217443228,-0.0005326317623257637
1772810420998723000,9.10072314453125,0.00013315794058144093,0.001997369108721614,0.0005326317623257637
1772810421008603000,9.110602783203126,0.0011984214652329683,-0.0011984214652329683,0.0005326317623257637
1772810421018482700,9.120482666015626,0.001731053227558732,-0.0006657897029072046,-0.0005326317623257637
1772810421028362800,9.13036279296875,0.0027963167522102594,0.013715268112719059,0.006391581147909164
1772810421038242600,9.14024267578125,-0.0003994738217443228,-0.006524738855659962,0.0010652635246515274
1772810421048122400,9.150122314453125,-0.0003994738217443228,0.0025300008710473776,0.001597895286977291
1772810421058002400,9.16000244140625,-0.0009321055840700865,0.001997369108721614,0.0026631588116288185
1772810421067882200,9.16988232421875,0.00013315794058144093,0.001997369108721614,0.002130527049303055
1772810421077762000,9.179761962890625,0.0006657897029072046,0.004127896390855312,0
1772810421087642000,9.18964208984375,0.0011984214652329683,0.0025300008710473776,0.0005326317623257637
1772810421097522000,9.19952197265625,-0.0009321055840700865,0.0025300008710473776,0
1772810421107401700,9.209401611328126,0.0006657897029072046,0.0003994738217443228,0
1772810421117281800,9.21928173828125,0.00013315794058144093,0.0003994738217443228,0.0010652635246515274
1772810421127161600,9.22916162109375,-0.0014647373463958502,0.0003994738217443228,0.0005326317623257637
1772810421137041400,9.23904150390625,0.00013315794058144093,-0.0022636849898844957,-0.0010652635246515274
1772810421146921500,9.24892138671875,0.00013315794058144093,-0.0011984214652329683,0.0010652635246515274
1772810421156801300,9.25880126953125,-0.001997369108721614,-0.001731053227558732,-0.001597895286977291
1772810421166681000,9.26868115234375,0.00013315794058144093,0.0009321055840700865,0.0010652635246515274
1772810421176561200,9.27856103515625,-0.0014647373463958502,-0.0006657897029072046,0.002130527049303055
1772810421186441000,9.28844091796875,0.0006657897029072046,0.0009321055840700865,0
1772810421196320800,9.29832080078125,0.0006657897029072046,0.0025300008710473776,0.0010652635246515274
1772810421206200800,9.308200927734376,-0.0009321055840700865,0.0030626326333731413,0
1772810421216080600,9.31808056640625,0.0006657897029072046,0.0009321055840700865,0.0005326317623257637
1772810421225960400,9.32796044921875,-0.0003994738217443228,0.0025300008710473776,-0.0010652635246515274
1772810421235840300,9.33784033203125,-0.0003994738217443228,0.004660528153181076,-0.0005326317623257637
1772810421245720300,9.34772021484375,0.0006657897029072046,0.0009321055840700865,0.0005326317623257637
1772810421255600000,9.35760009765625,0.0006657897029072046,-0.00013315794058144093,0.001597895286977291
1772810421265480200,9.367480224609375,-0.001997369108721614,0.0009321055840700865,-0.0010652635246515274
1772810421275360000,9.377360107421875,0.0006657897029072046,0.0003994738217443228,-0.0005326317623257637
1772810421285239800,9.38723974609375,-0.0014647373463958502,0.0003994738217443228,0
1772810421295120000,9.397119873046876,0.0011984214652329683,-0.0011984214652329683,-0.0005326317623257637
1772810421304999700,9.406999755859376,0.00013315794058144093,0.0009321055840700865,-0.0010652635246515274
1772810421314879500,9.41687939453125,0.00013315794058144093,0.0003994738217443228,0.0005326317623257637
1772810421324759600,9.426759521484374,0.00013315794058144093,-0.00013315794058144093,0.0010652635246515274
1772810421334639400,9.436639404296875,-0.0014647373463958502,-0.001731053227558732,-0.0005326317623257637
1772810421344519200,9.446519287109375,-0.0003994738217443228,-0.0022636849898844957,-0.0005326317623257637
1772810421354399200,9.456399169921875,0.0006657897029072046,-0.0027963167522102594,-0.0005326317623257637
1772810421364279000,9.466279052734375,0.0011984214652329683,-0.00013315794058144093,-0.001597895286977291
1772810421374158800,9.476158935546875,0.0011984214652329683,-0.00013315794058144093,-0.0005326317623257637
1772810421384039000,9.486038818359376,0.00013315794058144093,0.0003994738217443228,-0.0010652635246515274
1772810421393918700,9.495918701171876,-0.001997369108721614,-0.00013315794058144093,-0.0010652635246515274
1772810421403798500,9.505798583984374,0.0006657897029072046,0.0014647373463958502,-0.0005326317623257637
1772810421413678300,9.51567822265625,-0.0003994738217443228,0.0025300008710473776,0
1772810421423558400,9.525558349609375,0.00013315794058144093,0.0003994738217443228,0.001597895286977291
1772810421433438200,9.535438232421875,0.00013315794058144093,0.0003994738217443228,0
1772810421443318000,9.545318115234375,-0.0009321055840700865,0.003595264395698905,0.0005326317623257637
1772810421453198000,9.555197998046875,0.00013315794058144093,0.0003994738217443228,0.0010652635246515274
1772810421463078000,9.565077880859375,0.001731053227558732,-0.001731053227558732,0.0005326317623257637
1772810421472958000,9.5749580078125,0.007590002380311489,-0.003861580276861787,-0.001597895286977291
1772810421482837800,9.584837646484376,0.019840532913804054,-0.005992107093334198,-0.0026631588116288185
1772810421492717600,9.594717529296876,0.018775269389152527,-0.005459475331008434,-0.0026631588116288185
1772810421502597000,9.60459716796875,0.013981583528220654,-0.003861580276861787,0.0005326317623257637
1772810421512476700,9.6144765625,0.009720529429614544,0.0009321055840700865,0
1772810421522356000,9.62435595703125,0.006524738855659962,0.004127896390855312,-0.0005326317623257637
1772810421532235500,9.634235595703124,0.0011984214652329683,0.001997369108721614,0
1772810421542114800,9.64411474609375,-0.0014647373463958502,0.0009321055840700865,0.0005326317623257637
1772810421551994400,9.653994384765625,-0.0003994738217443228,-0.0006657897029072046,-0.002130527049303055
1772810421561873700,9.663873779296875,-0.0003994738217443228,-0.0011984214652329683,-0.0005326317623257637
1772810421571753200,9.673753173828125,-0.0009321055840700865,-0.0006657897029072046,0
1772810421581632500,9.683632568359375,0.001731053227558732,-0.0011984214652329683,0.001597895286977291
1772810421591512000,9.693511962890625,0.0011984214652329683,0.0014647373463958502,0
1772810421601391400,9.703391357421875,0.001731053227558732,0.004127896390855312,0.0005326317623257637
1772810421611271000,9.71327099609375,0.0011984214652329683,0.004660528153181076,0.002130527049303055
1772810421621150200,9.723150146484375,0.0006657897029072046,0.004127896390855312,0
1772810421640909000,9.742908935546875,-0.0003994738217443228,0.0014647373463958502,0.0005326317623257637
1772810421650788600,9.75278857421875,0.0006657897029072046,0.0009321055840700865,0.0026631588116288185
1772810421660668200,9.762668212890626,-0.0003994738217443228,-0.0006657897029072046,0.0010652635246515274
1772810421670547500,9.77254736328125,0.00013315794058144093,0.0030626326333731413,0.001597895286977291
1772810421680427000,9.782427001953126,0.0011984214652329683,-0.0006657897029072046,0.0005326317623257637
1772810421690306300,9.792306396484374,-0.0003994738217443228,-0.0006657897029072046,-0.001597895286977291
1772810421700185900,9.802185791015624,-0.0014647373463958502,-0.0006657897029072046,-0.0010652635246515274
1772810421710065200,9.812065185546874,0.0011984214652329683,-0.0006657897029072046,0.0005326317623257637
1772810421719944700,9.82194482421875,-0.0003994738217443228,-0.0011984214652329683,-0.0010652635246515274
1772810421729824000,9.831823974609375,0.00013315794058144093,-0.00013315794058144093,0.001597895286977291
1772810421739703600,9.84170361328125,-0.0003994738217443228,0.0025300008710473776,0.0010652635246515274
1772810421749582800,9.851582763671875,0.00013315794058144093,0.0003994738217443228,0.001597895286977291
1772810421759462400,9.86146240234375,-0.0014647373463958502,0.0014647373463958502,0.0010652635246515274
1772810421769341700,9.871341796875,0.0006657897029072046,0.0003994738217443228,0.002130527049303055
1772810421779221200,9.88122119140625,0.0006657897029072046,-0.00013315794058144093,0
1772810421789100500,9.8911005859375,0.0022636849898844957,-0.0011984214652329683,0.0005326317623257637
1772810421798980000,9.90097998046875,0.00013315794058144093,-0.0006657897029072046,0
1772810421808859400,9.910859375,0.0006657897029072046,-0.0006657897029072046,0.0010652635246515274
1772810421818739000,9.920739013671875,0.0006657897029072046,-0.0011984214652329683,0.001597895286977291
1772810421828618200,9.9306181640625,0.0011984214652329683,-0.00013315794058144093,-0.0005326317623257637
1772810421838497800,9.940497802734376,0.0011984214652329683,0.0025300008710473776,-0.0005326317623257637
1772810421848377000,9.950377197265626,0.001731053227558732,0.00519315991550684,0.0010652635246515274
1772810421858256600,9.960256591796876,0.001731053227558732,0.0030626326333731413,0.0005326317623257637
1772810421868136000,9.970135986328126,0.001731053227558732,0.004127896390855312,0.003195790573954582
1772810421878015500,9.980015380859374,-0.0003994738217443228,0.0014647373463958502,0.0005326317623257637
1772810421887894800,9.989894775390624,0.00013315794058144093,0.0014647373463958502,-0.0005326317623257637
1772810421897774300,9.9997744140625,0.00013315794058144093,-0.00013315794058144093,0.0005326317623257637
1772810421907654000,10.00965380859375,0.00013315794058144093,0.0003994738217443228,0
1772810421917533200,10.019533203125,0.00013315794058144093,0.0003994738217443228,-0.002130527049303055
1772810421927412700,10.029412841796875,0.0011984214652329683,0.0003994738217443228,0
1772810421937292000,10.0392919921875,0.0006657897029072046,0.0025300008710473776,0.0005326317623257637
1772810421947171600,10.049171630859375,0.0006657897029072046,0.0003994738217443228,0.0005326317623257637
1772810421957051000,10.05905078125,-0.0009321055840700865,0.0014647373463958502,-0.0005326317623257637
1772810421966930400,10.068930419921875,0.0006657897029072046,0.0003994738217443228,-0.0005326317623257637
1772810421976809700,10.078809814453125,-0.0003994738217443228,-0.00013315794058144093,-0.0005326317623257637
1772810421986689300,10.088689208984375,0.00013315794058144093,-0.00013315794058144093,0.0010652635246515274
1772810421996568600,10.098568603515625,-0.0025300008710473776,-0.001731053227558732,0.001597895286977291
1772810422006448400,10.108448486328125,-0.0003994738217443228,-0.00013315794058144093,-0.0005326317623257637
1772810422016328400,10.118328369140626,0.001731053227558732,0.0003994738217443228,-0.0005326317623257637
1772810422026208300,10.128208251953126,0.00013315794058144093,-0.0006657897029072046,-0.0005326317623257637
1772810422036088000,10.138088134765624,-0.0009321055840700865,0.0014647373463958502,0
1772810422045968000,10.1479677734375,0.0006657897029072046,-0.001731053227558732,0.0010652635246515274
1772810422055847700,10.15784765625,-0.0014647373463958502,-0.00013315794058144093,0.001597895286977291
1772810422065727500,10.1677275390625,0.0006657897029072046,-0.00013315794058144093,0
1772810422075607300,10.177607177734375,0.00013315794058144093,-0.0006657897029072046,-0.0010652635246515274
1772810422085487000,10.187487060546875,-0.0003994738217443228,-0.0006657897029072046,-0.0005326317623257637
1772810422095367200,10.1973671875,0.00013315794058144093,0.0009321055840700865,0.0010652635246515274
1772810422105247000,10.2072470703125,-0.0003994738217443228,-0.0011984214652329683,-0.0005326317623257637
1772810422115126800,10.217126708984376,0.0022636849898844957,-0.00013315794058144093,0.0005326317623257637
1772810422125006600,10.227006591796876,0.0006657897029072046,-0.00013315794058144093,0
1772810422134886400,10.236886474609374,-0.0003994738217443228,-0.001731053227558732,0
1772810422144766200,10.24676611328125,0.0011984214652329683,0.0003994738217443228,0
1772810422154646000,10.25664599609375,-0.0009321055840700865,0.001997369108721614,-0.0005326317623257637
1772810422164525800,10.26652587890625,0.0006657897029072046,0.001997369108721614,0
1772810422184285700,10.28628564453125,0.0011984214652329683,0.0003994738217443228,0.001597895286977291
1772810422194165500,10.29616552734375,-0.0003994738217443228,-0.0006657897029072046,-0.0010652635246515274
1772810422204045300,10.30604541015625,0.0011984214652329683,-0.00013315794058144093,-0.0005326317623257637
1772810422213925000,10.315925048828126,-0.0003994738217443228,-0.0011984214652329683,0
1772810422223805000,10.325804931640626,-0.0003994738217443228,-0.001731053227558732,0
1772810422233684700,10.335684814453124,-0.0009321055840700865,0.0003994738217443228,0.0010652635246515274
1772810422243564500,10.345564453125,0.00013315794058144093,0.0009321055840700865,0.0010652635246515274
1772810422253444400,10.3554443359375,-0.0014647373463958502,0.0014647373463958502,0.0005326317623257637
1772810422263324200,10.36532421875,-0.0003994738217443228,0.0025300008710473776,-0.0005326317623257637
1772810422273204200,10.375204345703125,0.0006657897029072046,0.0014647373463958502,-0.0005326317623257637
1772810422283084000,10.385083984375,-0.0014647373463958502,0.0014647373463958502,0
1772810422292963800,10.3949638671875,-0.0014647373463958502,-0.0011984214652329683,-0.0005326317623257637
1772810422302843600,10.40484375,-0.0003994738217443228,0.0009321055840700865,-0.0005326317623257637
1772810422312723500,10.414723388671876,0.00013315794058144093,-0.0011984214652329683,0.002130527049303055
1772810422322603300,10.424603271484376,-0.0003994738217443228,0.001997369108721614,-0.0005326317623257637
1772810422332483000,10.434483154296874,0.00013315794058144093,-0.00013315794058144093,0.0005326317623257637
1772810422342363000,10.44436279296875,0.0022636849898844957,0.0009321055840700865,-0.0010652635246515274
1772810422352243000,10.454242919921874,-0.0009321055840700865,0.0003994738217443228,0.0026631588116288185
1772810422362122500,10.46412255859375,0.00013315794058144093,-0.00013315794058144093,0.0026631588116288185
1772810422372002600,10.47400244140625,0.0011984214652329683,-0.0027963167522102594,-0.001597895286977291
1772810422381882400,10.48388232421875,0.00013315794058144093,0.0014647373463958502,0
1772810422391762200,10.49376220703125,-0.0003994738217443228,0.0003994738217443228,0.0010652635246515274
1772810422401642000,10.50364208984375,-0.0003994738217443228,0.0014647373463958502,0.0005326317623257637
1772810422411521800,10.513521728515625,-0.0009321055840700865,-0.001731053227558732,-0.0010652635246515274
1772810422421401600,10.523401611328126,-0.0009321055840700865,-0.0011984214652329683,0.001597895286977291
1772810422431281400,10.533281494140626,0.00013315794058144093,0.001997369108721614,0.0005326317623257637
1772810422441161200,10.5431611328125,-0.0009321055840700865,0.0003994738217443228,-0.0010652635246515274
1772810422451041300,10.553041259765624,0.00013315794058144093,0.0003994738217443228,-0.0010652635246515274
1772810422460921000,10.562921142578125,0.00013315794058144093,0.0003994738217443228,-0.0005326317623257637
1772810422470801000,10.57280078125,0.0006657897029072046,-0.0006657897029072046,0.0005326317623257637
1772810422480680700,10.5826806640625,0.0011984214652329683,0.0009321055840700865,0.0005326317623257637
1772810422490560500,10.592560546875,0.0006657897029072046,-0.0006657897029072046,0
1772810422500440300,10.6024404296875,0.0006657897029072046,-0.001731053227558732,0.0010652635246515274
1772810422510320000,10.612320068359375,-0.0003994738217443228,0.0003994738217443228,-0.0005326317623257637
1772810422520200200,10.6222001953125,-0.0009321055840700865,-0.0011984214652329683,-0.001597895286977291
1772810422530080000,10.632080078125,0.00013315794058144093,-0.00013315794058144093,0
1772810422539959800,10.641959716796874,-0.0003994738217443228,-0.0022636849898844957,-0.0010652635246515274
1772810422549839600,10.651839599609374,-0.0003994738217443228,-0.001731053227558732,-0.0010652635246515274
1772810422559719400,10.661719482421875,0.00013315794058144093,-0.004394211806356907,-0.0010652635246515274
1772810422569599200,10.67159912109375,-0.0014647373463958502,-0.003861580276861787,-0.0010652635246515274
1772810422579479300,10.681479248046875,-0.0009321055840700865,-0.003861580276861787,0
1772810422589359000,10.691359130859375,-0.0009321055840700865,-0.004926843568682671,-0.0005326317623257637
