time,seconds_elapsed,z,y,x
1772810888979620600,0.15862060546875,-0.003728422336280346,-0.00013315794058144093,-0.0014647373463958502
1772810888989501000,0.1685009765625,-0.0010652635246515274,-0.00013315794058144093,-0.0009321055840700865
1772810888999381500,0.178381591796875,0.0010652635246515274,0.0009321055840700865,-0.0003994738217443228
1772810889009262000,0.188261962890625,-0.0005326317623257637,-0.00013315794058144093,0.0006657897029072046
1772810889019142400,0.198142333984375,-0.0005326317623257637,0.0003994738217443228,0.0006657897029072046
1772810889029023000,0.20802294921875,0,-0.0022636849898844957,-0.0003994738217443228
1772810889038903300,0.2179033203125,-0.0010652635246515274,0.0003994738217443228,-0.0009321055840700865
1772810889048784000,0.227783935546875,-0.0005326317623257637,0.0014647373463958502,-0.0003994738217443228
1772810889058664200,0.237664306640625,-0.0005326317623257637,-0.0011984214652329683,0.00013315794058144093
1772810889068544800,0.247544677734375,0.0005326317623257637,-0.0011984214652329683,-0.0003994738217443228
1772810889078425300,0.25742529296875,-0.001597895286977291,-0.0011984214652329683,-0.0003994738217443228
1772810889088305700,0.2673056640625,0.0005326317623257637,-0.0022636849898844957,-0.0003994738217443228
1772810889098186200,0.277186279296875,0,-0.00013315794058144093,-0.0014647373463958502
1772810889108066600,0.287066650390625,-0.001597895286977291,-0.003328948514536023,0.0006657897029072046
1772810889117947100,0.296947021484375,0.0005326317623257637,0.0003994738217443228,-0.0003994738217443228
1772810889127827700,0.30682763671875,0.001597895286977291,0.0003994738217443228,0.0006657897029072046
1772810889137708000,0.3167080078125,0.001597895286977291,0.003595264395698905,0.00013315794058144093
1772810889147588600,0.326588623046875,0,0.0009321055840700865,-0.0014647373463958502
1772810889157469000,0.336468994140625,-0.0005326317623257637,0.0009321055840700865,-0.001997369108721614
1772810889167349500,0.346349609375,-0.002130527049303055,-0.0011984214652329683,-0.0014647373463958502
1772810889177229800,0.356229736328125,0,-0.0006657897029072046,-0.0003994738217443228
1772810889187110400,0.3661103515625,-0.0010652635246515274,0.001997369108721614,0.0011984214652329683
1772810889196990700,0.37599072265625,-0.0010652635246515274,-0.00013315794058144093,0.00013315794058144093
1772810889206871300,0.385871337890625,0,0.001997369108721614,0.0006657897029072046
1772810889216751900,0.395751953125,-0.0010652635246515274,-0.00013315794058144093,-0.0009321055840700865
1772810889226632200,0.405632080078125,0.0005326317623257637,-0.0006657897029072046,-0.0003994738217443228
1772810889236512800,0.4155126953125,-0.001597895286977291,0.0003994738217443228,0.0006657897029072046
1772810889246393000,0.42539306640625,-0.0005326317623257637,-0.0006657897029072046,0.0011984214652329683
1772810889256273700,0.435273681640625,-0.0005326317623257637,0.0003994738217443228,-0.0009321055840700865
1772810889266154000,0.445154052734375,0.002130527049303055,0.0014647373463958502,-0.0009321055840700865
1772810889276034600,0.45503466796875,0,-0.00013315794058144093,0.0011984214652329683
1772810889285915100,0.4649150390625,-0.0010652635246515274,0.0009321055840700865,0.00013315794058144093
1772810889295795500,0.47479541015625,-0.0010652635246515274,-0.0006657897029072046,-0.0009321055840700865
1772810889305676000,0.484676025390625,0.0005326317623257637,-0.00013315794058144093,-0.0003994738217443228
1772810889315556400,0.494556396484375,-0.0005326317623257637,-0.0011984214652329683,0.00013315794058144093
1772810889325437000,0.50443701171875,-0.0005326317623257637,-0.0011984214652329683,0.0011984214652329683
1772810889335317500,0.5143173828125,-0.0005326317623257637,-0.003328948514536023,-0.0014647373463958502
1772810889345197800,0.52419775390625,0.0005326317623257637,0.0025300008710473776,0.0006657897029072046
1772810889355078400,0.534078369140625,0,0.0003994738217443228,0.0006657897029072046
1772810889364958700,0.543958740234375,0.001597895286977291,-0.00013315794058144093,-0.0009321055840700865
1772810889374839300,0.55383935546875,-0.0005326317623257637,0.0009321055840700865,0.0006657897029072046
1772810889384719600,0.5637197265625,-0.0010652635246515274,0.0025300008710473776,0.00013315794058144093
1772810889394600200,0.57360009765625,0.0010652635246515274,-0.0006657897029072046,-0.001997369108721614
1772810889404480800,0.583480712890625,-0.0005326317623257637,-0.00013315794058144093,-0.0003994738217443228
1772810889414361000,0.593361083984375,-0.0005326317623257637,0.0014647373463958502,-0.0003994738217443228
1772810889424241700,0.60324169921875,0.0005326317623257637,-0.0011984214652329683,-0.0014647373463958502
1772810889434122000,0.6131220703125,0,0.0003994738217443228,-0.0003994738217443228
1772810889444002600,0.62300244140625,-0.0005326317623257637,-0.00013315794058144093,-0.0030626326333731413
1772810889463763500,0.642763427734375,0.0010652635246515274,-0.00013315794058144093,-0.0003994738217443228
1772810889473643800,0.652643798828125,0,-0.0011984214652329683,-0.0014647373463958502
1772810889483524400,0.6625244140625,0.0010652635246515274,-0.00013315794058144093,-0.0009321055840700865
1772810889493405000,0.672405029296875,-0.0005326317623257637,-0.0011984214652329683,-0.0003994738217443228
1772810889503285200,0.68228515625,-0.0003994738217443228,-0.0006657897029072046,0.0005326317623257637
1772810889513165600,0.69216552734375,-0.0003994738217443228,0.0025300008710473776,0.0005326317623257637
1772810889523046000,0.7020458984375,0.0011984214652329683,-0.0027963167522102594,0
1772810889532926200,0.71192626953125,0.00013315794058144093,-0.0006657897029072046,0
1772810889542806500,0.721806640625,0.0011984214652329683,0.0014647373463958502,0.0005326317623257637
1772810889552687000,0.73168701171875,-0.0003994738217443228,0.0014647373463958502,0
1772810889562567400,0.7415673828125,0.0022636849898844957,-0.0006657897029072046,0.0005326317623257637
1772810889572447700,0.75144775390625,-0.0009321055840700865,-0.0006657897029072046,0
1772810889582328000,0.761328125,0.00013315794058144093,-0.001731053227558732,-0.0005326317623257637
1772810889592208400,0.77120849609375,-0.0003994738217443228,-0.00013315794058144093,0.0010652635246515274
1772810889602089000,0.7810888671875,0.0006657897029072046,-0.0011984214652329683,-0.0005326317623257637
1772810889611969300,0.79096923828125,0.00013315794058144093,0.0003994738217443228,0.0026631588116288185
1772810889621849600,0.800849609375,0.0006657897029072046,0.0003994738217443228,0.0005326317623257637
1772810889631730000,0.81072998046875,0.0006657897029072046,-0.0022636849898844957,0
1772810889641610200,0.8206103515625,-0.001997369108721614,0.0014647373463958502,0.0005326317623257637
1772810889651490600,0.830490478515625,0.0006657897029072046,0.0003994738217443228,-0.0010652635246515274
1772810889661371000,0.840370849609375,0.001731053227558732,-0.0011984214652329683,0.0005326317623257637
1772810889671251500,0.85025146484375,-0.0003994738217443228,0.0014647373463958502,0.0005326317623257637
1772810889681131800,0.8601318359375,-0.0003994738217443228,0.0025300008710473776,0.0010652635246515274
1772810889691012000,0.87001220703125,-0.0003994738217443228,-0.00013315794058144093,0.0005326317623257637
1772810889700892400,0.879892333984375,-0.0009321055840700865,0.0014647373463958502,-0.0010652635246515274
1772810889710772700,0.889772705078125,0.00013315794058144093,0.0009321055840700865,0.001597895286977291
1772810889720653000,0.899653076171875,0.00013315794058144093,0.0014647373463958502,0
1772810889730533600,0.90953369140625,0.0006657897029072046,-0.00013315794058144093,-0.001597895286977291
1772810889740414000,0.9194140625,0.00013315794058144093,0.0003994738217443228,0.0026631588116288185
1772810889750294300,0.929294189453125,0.00013315794058144093,0.0009321055840700865,0
1772810889760174600,0.939174560546875,0.0006657897029072046,0.0009321055840700865,0.001597895286977291
1772810889770055000,0.949054931640625,0.00013315794058144093,0.0014647373463958502,0.0005326317623257637
1772810889779935200,0.958935302734375,-0.0009321055840700865,-0.0006657897029072046,0
1772810889789815800,0.96881591796875,-0.0009321055840700865,-0.00013315794058144093,0.0005326317623257637
1772810889799696100,0.978696044921875,-0.0009321055840700865,-0.00013315794058144093,0.0005326317623257637
1772810889819456800,0.998456787109375,0.0022636849898844957,0.0014647373463958502,-0.0005326317623257637
1772810889829337000,1.008337158203125,0.00013315794058144093,0.0025300008710473776,0
1772810889839217400,1.018217529296875,0.00013315794058144093,-0.0006657897029072046,0
1772810889849097700,1.02809765625,-0.0014647373463958502,-0.0006657897029072046,0.0005326317623257637
1772810889858978300,1.037978271484375,-0.0009321055840700865,-0.0006657897029072046,0
1772810889868858600,1.047858642578125,0.0022636849898844957,-0.00013315794058144093,0.0005326317623257637
1772810889878739000,1.057739013671875,0.0006657897029072046,0.0003994738217443228,-0.0005326317623257637
1772810889888619300,1.067619384765625,0.00013315794058144093,0.0003994738217443228,0.0005326317623257637
1772810889898499600,1.07749951171875,0.00013315794058144093,-0.0006657897029072046,-0.0010652635246515274
1772810889908380200,1.087380126953125,-0.0003994738217443228,-0.0006657897029072046,-0.0005326317623257637
1772810889918260500,1.097260498046875,-0.0009321055840700865,-0.0006657897029072046,0
1772810889928140800,1.107140869140625,-0.0014647373463958502,0.0003994738217443228,0.0010652635246515274
1772810889938021000,1.117021240234375,0.00013315794058144093,0.0014647373463958502,0
1772810889947901400,1.1269013671875,-0.0009321055840700865,0.0009321055840700865,0
1772810889957781800,1.13678173828125,0.0011984214652329683,-0.00013315794058144093,0
1772810889967662000,1.146662109375,-0.0003994738217443228,0.0003994738217443228,0.0005326317623257637
1772810889977542700,1.156542724609375,0.00013315794058144093,0.0003994738217443228,-0.0005326317623257637
1772810889987423000,1.166423095703125,0.0006657897029072046,-0.001731053227558732,0.0005326317623257637
1772810889997303600,1.176303466796875,0.00013315794058144093,0.0009321055840700865,0.0005326317623257637
1772810890007185200,1.18618505859375,0.0006657897029072046,0.0014647373463958502,0.002130527049303055
1772810890017066500,1.19606640625,0.00013315794058144093,0.0009321055840700865,-0.0005326317623257637
1772810890026948000,1.205947998046875,-0.0014647373463958502,0.0009321055840700865,0
1772810890036829400,1.215829345703125,-0.0003994738217443228,0.003595264395698905,0
1772810890046711000,1.2257109375,-0.0009321055840700865,-0.0011984214652329683,-0.0005326317623257637
1772810890056592600,1.235592529296875,0.0011984214652329683,-0.00013315794058144093,0.0005326317623257637
1772810890066474000,1.245473876953125,0.0006657897029072046,-0.00013315794058144093,0.0010652635246515274
1772810890076355600,1.25535546875,0.0006657897029072046,-0.0011984214652329683,0.0005326317623257637
1772810890086237200,1.2652373046875,0.0006657897029072046,0.0003994738217443228,-0.0005326317623257637
1772810890096118500,1.275118408203125,0.001731053227558732,0.0003994738217443228,-0.0010652635246515274
1772810890106000100,1.285000244140625,-0.0003994738217443228,0.0009321055840700865,0.0005326317623257637
1772810890115881500,1.294881591796875,-0.0009321055840700865,0.001997369108721614,0.0005326317623257637
1772810890125763000,1.30476318359375,0.00013315794058144093,0.0003994738217443228,0
1772810890135644700,1.314644775390625,-0.0009321055840700865,-0.0006657897029072046,0
1772810890145526000,1.324526123046875,-0.0003994738217443228,0.001997369108721614,0.0005326317623257637
1772810890155407600,1.33440771484375,0.0011984214652329683,0.001997369108721614,0.001597895286977291
1772810890165289200,1.344289306640625,-0.0003994738217443228,0.0030626326333731413,-0.0010652635246515274
1772810890175170600,1.354170654296875,0.0011984214652329683,0.0003994738217443228,0.0005326317623257637
1772810890185052200,1.36405224609375,-0.0009321055840700865,0.0003994738217443228,0.0005326317623257637
1772810890194933500,1.37393359375,0.0006657897029072046,0.0014647373463958502,0.003195790573954582
1772810890204815000,1.383815185546875,0.0011984214652329683,0.0009321055840700865,0.0005326317623257637
1772810890214696700,1.39369677734375,0.00013315794058144093,-0.0006657897029072046,-0.0005326317623257637
1772810890224578000,1.403578125,0.0011984214652329683,0.001997369108721614,0.002130527049303055
1772810890234459600,1.413459716796875,0.0006657897029072046,0.0009321055840700865,0.0005326317623257637
1772810890244341000,1.423341064453125,-0.0014647373463958502,0.0003994738217443228,-0.0010652635246515274
1772810890254222600,1.43322265625,0.0006657897029072046,-0.0027963167522102594,0
1772810890264104200,1.443104248046875,0.00013315794058144093,-0.0006657897029072046,0
1772810890273985500,1.452985595703125,0.00013315794058144093,0.0014647373463958502,0
1772810890283867100,1.4628671875,-0.0003994738217443228,-0.0006657897029072046,0.0010652635246515274
1772810890293748700,1.472748779296875,-0.0014647373463958502,0.0003994738217443228,0.001597895286977291
1772810890303630000,1.482630126953125,-0.0003994738217443228,0.0003994738217443228,-0.0005326317623257637
1772810890313511700,1.49251171875,0.00013315794058144093,-0.0006657897029072046,-0.0005326317623257637
1772810890333274600,1.512274658203125,-0.0025300008710473776,0.0003994738217443228,0
1772810890343156200,1.52215625,0.0006657897029072046,-0.00013315794058144093,0.0010652635246515274
1772810890353037600,1.53203759765625,0.0022636849898844957,-0.0006657897029072046,0.0010652635246515274
1772810890362919200,1.541919189453125,0.00013315794058144093,-0.0006657897029072046,-0.0005326317623257637
1772810890372800800,1.55180078125,0.00013315794058144093,0.001997369108721614,-0.0005326317623257637
1772810890382682000,1.56168212890625,-0.0009321055840700865,0.0025300008710473776,0
1772810890392563700,1.571563720703125,0.00013315794058144093,0.0025300008710473776,0
1772810890402445000,1.581445068359375,-0.0009321055840700865,0.0014647373463958502,0.0005326317623257637
1772810890412326700,1.59132666015625,0.00013315794058144093,-0.0006657897029072046,-0.0005326317623257637
1772810890422208300,1.601208251953125,0.0006657897029072046,-0.0006657897029072046,-0.0010652635246515274
1772810890432089600,1.611089599609375,-0.0009321055840700865,0.0014647373463958502,0.0005326317623257637
1772810890451852800,1.630852783203125,-0.0003994738217443228,-0.0006657897029072046,0
1772810890461734100,1.640734130859375,-0.0009321055840700865,0.0014647373463958502,0.0010652635246515274
1772810890471615700,1.65061572265625,0.00013315794058144093,-0.0011984214652329683,0
1772810890481497000,1.6604970703125,0.0006657897029072046,0.0030626326333731413,0.002130527049303055
1772810890501259800,1.680259765625,0.001731053227558732,0.0009321055840700865,0.0005326317623257637
1772810890511140600,1.690140625,0.0022636849898844957,-0.0011984214652329683,-0.0005326317623257637
1772810890521021400,1.700021484375,-0.0009321055840700865,0.0009321055840700865,-0.0005326317623257637
1772810890530902300,1.70990234375,-0.001997369108721614,0.0003994738217443228,0
1772810890540783000,1.719783203125,-0.0003994738217443228,0.0030626326333731413,0
1772810890550664200,1.729664306640625,0.0006657897029072046,0.0014647373463958502,0.0010652635246515274
1772810890560545000,1.739544921875,0.0011984214652329683,0.001997369108721614,-0.0005326317623257637
1772810890570425900,1.74942578125,0.001731053227558732,-0.0022636849898844957,0
1772810890580306700,1.759306640625,0.00013315794058144093,0.0003994738217443228,0.001597895286977291
1772810890590187500,1.7691875,-0.0009321055840700865,0.0009321055840700865,0.0010652635246515274
1772810890600068400,1.779068359375,-0.0003994738217443228,-0.0011984214652329683,0.0005326317623257637
1772810890609949400,1.788949462890625,0.00013315794058144093,0.0014647373463958502,0
1772810890619830300,1.798830322265625,0.0006657897029072046,0.001997369108721614,0
1772810890629711000,1.808711181640625,-0.0009321055840700865,-0.0006657897029072046,-0.0005326317623257637
1772810890639592000,1.818592041015625,-0.0009321055840700865,0.0003994738217443228,-0.0005326317623257637
1772810890649472800,1.82847265625,-0.0003994738217443228,-0.00013315794058144093,-0.0005326317623257637
1772810890659353600,1.838353515625,0.00013315794058144093,0.0003994738217443228,0
1772810890669234700,1.848234619140625,0.0022636849898844957,0.0009321055840700865,0
1772810890679115500,1.858115478515625,-0.001997369108721614,-0.0006657897029072046,0
1772810890688996400,1.867996337890625,-0.0009321055840700865,-0.0006657897029072046,0
1772810890698877200,1.877877197265625,-0.0003994738217443228,0.0025300008710473776,-0.0005326317623257637
1772810890708758000,1.887758056640625,0.00013315794058144093,-0.0011984214652329683,-0.002130527049303055
1772810890718638800,1.897638916015625,0.0006657897029072046,0.0003994738217443228,0
1772810890728520000,1.90752001953125,0.0027963167522102594,-0.0011984214652329683,0
1772810890738400800,1.91740087890625,-0.0003994738217443228,0.0014647373463958502,-0.0010652635246515274
1772810890748281600,1.927281494140625,-0.0009321055840700865,-0.0006657897029072046,-0.0005326317623257637
1772810890758162400,1.937162353515625,0.0006657897029072046,-0.001731053227558732,0.002130527049303055
1772810890768043300,1.947043212890625,-0.0014647373463958502,-0.0006657897029072046,-0.0005326317623257637
1772810890777924000,1.956924072265625,-0.0009321055840700865,0.0009321055840700865,0
1772810890787805000,1.966804931640625,0.00013315794058144093,-0.0006657897029072046,0.0005326317623257637
1772810890797686000,1.97668603515625,-0.0014647373463958502,-0.0011984214652329683,0.0005326317623257637
1772810890807566800,1.98656689453125,-0.0009321055840700865,0.0003994738217443228,-0.0005326317623257637
1772810890817447700,1.99644775390625,-0.0009321055840700865,0.0014647373463958502,0
1772810890827328500,2.00632861328125,0.0011984214652329683,-0.00013315794058144093,0
1772810890837209300,2.016209228515625,0.00013315794058144093,0.0009321055840700865,0.0005326317623257637
1772810890847090200,2.026090087890625,0.00013315794058144093,-0.0006657897029072046,0
1772810890856971300,2.03597119140625,-0.0009321055840700865,0.0014647373463958502,0.002130527049303055
1772810890866852000,2.04585205078125,-0.0003994738217443228,-0.00013315794058144093,-0.0005326317623257637
1772810890876733000,2.05573291015625,0.0011984214652329683,0.0009321055840700865,0
1772810890886613800,2.06561376953125,0.0011984214652329683,-0.0011984214652329683,0.0005326317623257637
1772810890896494600,2.07549462890625,-0.0009321055840700865,-0.0011984214652329683,-0.0010652635246515274
1772810890906375400,2.08537548828125,0.0006657897029072046,-0.00013315794058144093,-0.0005326317623257637
1772810890916256500,2.095256591796875,0.0006657897029072046,-0.001731053227558732,-0.0005326317623257637
1772810890926137300,2.105137451171875,0.00013315794058144093,-0.00013315794058144093,0
1772810890936018200,2.11501806640625,-0.0009321055840700865,0.001997369108721614,0.0005326317623257637
1772810890945899000,2.12489892578125,-0.0003994738217443228,-0.00013315794058144093,0.001597895286977291
1772810890955779800,2.13477978515625,0.0022636849898844957,0.0009321055840700865,0.0005326317623257637
1772810890965660700,2.14466064453125,-0.0003994738217443228,0.0009321055840700865,0
1772810890975541800,2.154541748046875,-0.0003994738217443228,0.0009321055840700865,0.0005326317623257637
1772810890985422600,2.164422607421875,0.0006657897029072046,0.0003994738217443228,0.0005326317623257637
1772810890995303400,2.174303466796875,0.0011984214652329683,-0.00013315794058144093,-0.0005326317623257637
1772810891005184000,2.18418408203125,-0.0003994738217443228,0.0014647373463958502,-0.0005326317623257637
1772810891015064600,2.194064697265625,0.001731053227558732,-0.001731053227558732,-0.0010652635246515274
1772810891024945400,2.2039453125,-0.0003994738217443228,0.0003994738217443228,0.001597895286977291
1772810891034826000,2.213825927734375,-0.0003994738217443228,0.0009321055840700865,0.0005326317623257637
1772810891044706800,2.223706787109375,-0.0003994738217443228,-0.0006657897029072046,0.0005326317623257637
1772810891054587400,2.23358740234375,0.00013315794058144093,-0.0006657897029072046,-0.001597895286977291
1772810891064468000,2.243468017578125,-0.0009321055840700865,0.0009321055840700865,0
1772810891074348800,2.253348876953125,0.00013315794058144093,0.0009321055840700865,0.0010652635246515274
1772810891084229400,2.2632294921875,0.00013315794058144093,0.0003994738217443228,0.0005326317623257637
1772810891094110200,2.273110107421875,-0.0003994738217443228,0.0003994738217443228,0.0010652635246515274
1772810891103990800,2.28299072265625,0.0011984214652329683,-0.00013315794058144093,0.0010652635246515274
1772810891113871600,2.29287158203125,-0.0003994738217443228,0.0003994738217443228,0.0010652635246515274
1772810891123752200,2.302752197265625,-0.0003994738217443228,0.0003994738217443228,0.0010652635246515274
1772810891133632800,2.3126328125,-0.0014647373463958502,-0.001731053227558732,0.0010652635246515274
1772810891143513600,2.322513671875,-0.0003994738217443228,-0.00013315794058144093,0.0005326317623257637
1772810891153394200,2.332394287109375,-0.0009321055840700865,-0.0011984214652329683,0
1772810891163274800,2.342274658203125,0.00013315794058144093,0.001997369108721614,0.0005326317623257637
1772810891173155600,2.352155517578125,0.0006657897029072046,-0.0022636849898844957,-0.001597895286977291
1772810891183036200,2.3620361328125,-0.0003994738217443228,0.0003994738217443228,-0.0005326317623257637
1772810891192917000,2.3719169921875,0.0006657897029072046,0.0003994738217443228,0
1772810891202797600,2.381797607421875,-0.0014647373463958502,-0.00013315794058144093,0.001597895286977291
1772810891212678100,2.39167822265625,0.0006657897029072046,-0.001731053227558732,0.0005326317623257637
1772810891222559000,2.40155908203125,-0.0009321055840700865,-0.0011984214652329683,0.0005326317623257637
1772810891232439600,2.411439453125,0.001731053227558732,0.0009321055840700865,0
1772810891242320400,2.4213203125,0.0006657897029072046,-0.001731053227558732,0.0005326317623257637
1772810891252201000,2.431200927734375,0.00013315794058144093,0.0014647373463958502,0.0010652635246515274
1772810891262081800,2.441081787109375,0.00013315794058144093,-0.0022636849898844957,0.0010652635246515274
1772810891271962400,2.45096240234375,0.00013315794058144093,0.0003994738217443228,0.001597895286977291
1772810891281843000,2.460843017578125,0.00013315794058144093,-0.0014647373463958502,-0.0007989476434886456
1772810891291723800,2.470723876953125,0.001731053227558732,0.0011984214652329683,-0.0013315794058144093
1772810891301604400,2.480604248046875,0.0006657897029072046,0.0011984214652329683,-0.00026631588116288185
1772810891311485200,2.490485107421875,-0.0009321055840700865,-0.0009321055840700865,0.00026631588116288185
1772810891331246300,2.510246337890625,-0.0009321055840700865,-0.0003994738217443228,-0.00026631588116288185
1772810891341127200,2.520127197265625,-0.0003994738217443228,-0.0014647373463958502,0.0013315794058144093
1772810891351007700,2.5300078125,0.0006657897029072046,0.0011984214652329683,-0.00026631588116288185
1772810891360888600,2.539888671875,0.0006657897029072046,0.0027963167522102594,0.00026631588116288185
1772810891370769200,2.54976904296875,-0.0003994738217443228,-0.0003994738217443228,-0.0007989476434886456
1772810891380649700,2.559649658203125,0.00013315794058144093,0.0006657897029072046,0.00026631588116288185
1772810891390530600,2.569530517578125,-0.0014647373463958502,0.00013315794058144093,0.0013315794058144093
1772810891400411100,2.5794111328125,0.00013315794058144093,0.0006657897029072046,-0.00026631588116288185
1772810891410292000,2.5892919921875,0.00013315794058144093,0.00013315794058144093,0.001864211168140173
1772810891420172500,2.599172607421875,-0.0003994738217443228,0.00013315794058144093,0.0007989476434886456
1772810891430053400,2.609053466796875,-0.0014647373463958502,-0.0003994738217443228,-0.00026631588116288185
1772810891439934000,2.618933837890625,0.0011984214652329683,0.00013315794058144093,0.00026631588116288185
1772810891449814500,2.628814453125,-0.0003994738217443228,0.0022636849898844957,-0.00026631588116288185
1772810891459695400,2.6386953125,0.0022636849898844957,-0.0025300008710473776,0.00026631588116288185
1772810891469576000,2.648575927734375,0.00013315794058144093,0.0006657897029072046,-0.00026631588116288185
1772810891479456800,2.658456787109375,0.0006657897029072046,0.0011984214652329683,0.0013315794058144093
1772810891489337300,2.66833740234375,-0.0003994738217443228,0.0006657897029072046,0.00026631588116288185
1772810891499218200,2.67821826171875,0.00013315794058144093,0.00013315794058144093,0.0007989476434886456
1772810891509099300,2.688099365234375,-0.0014647373463958502,-0.0003994738217443228,0.0007989476434886456
1772810891518980400,2.69798046875,0.0011984214652329683,-0.0009321055840700865,-0.00026631588116288185
1772810891528861700,2.70786181640625,-0.0009321055840700865,0.00013315794058144093,-0.0007989476434886456
1772810891538742800,2.71774267578125,-0.001997369108721614,-0.0014647373463958502,-0.0013315794058144093
1772810891548624000,2.727623779296875,0.001731053227558732,0.0011984214652329683,-0.0013315794058144093
1772810891558505000,2.7375048828125,0.0011984214652329683,0.0011984214652329683,-0.00026631588116288185
1772810891568386300,2.74738623046875,-0.0003994738217443228,0.00013315794058144093,0.00026631588116288185
1772810891578267400,2.757267333984375,0.0006657897029072046,0.0011984214652329683,-0.00026631588116288185
1772810891588148500,2.7671484375,-0.0009321055840700865,0.00013315794058144093,0.0013315794058144093
1772810891598029800,2.77702978515625,0.0006657897029072046,0.0006657897029072046,0.00026631588116288185
1772810891607911000,2.786910888671875,-0.0003994738217443228,0.001731053227558732,0.00026631588116288185
1772810891617792000,2.7967919921875,0.0006657897029072046,-0.0025300008710473776,0.0007989476434886456
1772810891627673000,2.806673095703125,0.00013315794058144093,-0.0014647373463958502,-0.0007989476434886456
1772810891637554400,2.816554443359375,-0.0003994738217443228,-0.0003994738217443228,0.00026631588116288185
1772810891647435500,2.826435546875,0.0011984214652329683,0.0006657897029072046,0.0007989476434886456
1772810891657316600,2.836316650390625,-0.0003994738217443228,-0.0003994738217443228,-0.0007989476434886456
1772810891667198000,2.846197998046875,-0.0003994738217443228,-0.0014647373463958502,0.0013315794058144093
1772810891677079000,2.8560791015625,0.0011984214652329683,-0.0009321055840700865,0.00026631588116288185
1772810891686960000,2.865960205078125,0.0011984214652329683,-0.0025300008710473776,-0.00026631588116288185
1772810891696841200,2.87584130859375,-0.0003994738217443228,0.0022636849898844957,0.00026631588116288185
1772810891706722600,2.88572265625,0.0011984214652329683,-0.0009321055840700865,-0.00026631588116288185
1772810891716603600,2.895603759765625,0.00013315794058144093,0.00013315794058144093,0.00026631588116288185
1772810891726484700,2.905484619140625,-0.0009321055840700865,-0.0014647373463958502,-0.0013315794058144093
1772810891736366000,2.915365966796875,-0.0003994738217443228,0.001731053227558732,-0.00026631588116288185
1772810891746247200,2.9252470703125,-0.0009321055840700865,-0.0025300008710473776,-0.00026631588116288185
1772810891756128300,2.935128173828125,0.0006657897029072046,-0.0014647373463958502,0.00026631588116288185
1772810891766009300,2.94500927734375,-0.0003994738217443228,-0.0003994738217443228,-0.00026631588116288185
1772810891775890700,2.954890625,0.0006657897029072046,0.0011984214652329683,-0.0013315794058144093
1772810891785771800,2.964771728515625,0.001731053227558732,-0.0009321055840700865,-0.0007989476434886456
1772810891795652900,2.97465283203125,0.0011984214652329683,0.00013315794058144093,-0.0013315794058144093
1772810891805534200,2.9845341796875,0.00013315794058144093,-0.0003994738217443228,0.00026631588116288185
1772810891815415300,2.994415283203125,-0.0014647373463958502,0.0022636849898844957,-0.00026631588116288185
1772810891825296400,3.00429638671875,-0.001997369108721614,0.0011984214652329683,-0.00026631588116288185
1772810891835177500,3.014177490234375,0.0011984214652329683,-0.001997369108721614,-0.00026631588116288185
1772810891845058800,3.024058837890625,0.00013315794058144093,-0.0014647373463958502,-0.0013315794058144093
1772810891854940000,3.03393994140625,0.0006657897029072046,-0.0003994738217443228,-0.0007989476434886456
1772810891864821000,3.043821044921875,0.00013315794058144093,0.001731053227558732,0.0007989476434886456
1772810891874702300,3.053702392578125,0.0011984214652329683,0.0006657897029072046,-0.00026631588116288185
1772810891884583400,3.06358349609375,0.0006657897029072046,-0.0003994738217443228,-0.00026631588116288185
1772810891894464500,3.073464599609375,0.0027963167522102594,-0.0009321055840700865,-0.001864211168140173
1772810891904345600,3.083345703125,-0.0009321055840700865,-0.0003994738217443228,0.0007989476434886456
1772810891914227000,3.09322705078125,-0.0003994738217443228,0.0011984214652329683,0.0007989476434886456
1772810891924108000,3.10310791015625,-0.0003994738217443228,0.0011984214652329683,-0.0013315794058144093
1772810891933989000,3.112989013671875,0.00013315794058144093,-0.0009321055840700865,-0.001864211168140173
1772810891953751600,3.13275146484375,-0.0009321055840700865,-0.0025300008710473776,-0.001864211168140173
1772810891963632600,3.142632568359375,-0.0003994738217443228,-0.0003994738217443228,-0.0007989476434886456
1772810891973513700,3.152513671875,-0.0003994738217443228,-0.0014647373463958502,-0.0029294746927917004
1772810891983394800,3.162394775390625,0.0011984214652329683,-0.0009321055840700865,0.00026631588116288185
1772810891993276200,3.172276123046875,0.0011984214652329683,0.0011984214652329683,0.00026631588116288185
1772810892003156700,3.18215673828125,-0.0003994738217443228,0.0006657897029072046,0.0007989476434886456
1772810892013037600,3.19203759765625,0.0006657897029072046,-0.0009321055840700865,-0.00026631588116288185
1772810892022918400,3.20191845703125,0.00013315794058144093,0.00013315794058144093,0.0007989476434886456
1772810892032799000,3.211799072265625,0.0006657897029072046,-0.001997369108721614,0.0007989476434886456
1772810892042679800,3.2216796875,0.00013315794058144093,-0.0014647373463958502,-0.0007989476434886456
1772810892052560400,3.231560302734375,0.00013315794058144093,-0.001997369108721614,0.0013315794058144093
1772810892062441200,3.241441162109375,0.00013315794058144093,-0.0014647373463958502,0.00026631588116288185
1772810892072322000,3.251322021484375,0.00013315794058144093,0.0006657897029072046,-0.001864211168140173
1772810892082202600,3.26120263671875,-0.0003994738217443228,0.001731053227558732,0.0013315794058144093
1772810892092083500,3.27108349609375,-0.0014647373463958502,0.0011984214652329683,0.0013315794058144093
1772810892101964000,3.280964111328125,0.00013315794058144093,-0.0014647373463958502,-0.0007989476434886456
1772810892111844900,3.290844970703125,-0.0003994738217443228,-0.0009321055840700865,-0.0007989476434886456
1772810892121725400,3.300725341796875,-0.0009321055840700865,0.00013315794058144093,-0.00026631588116288185
1772810892131606300,3.310606201171875,-0.0009321055840700865,-0.001997369108721614,0.00026631588116288185
1772810892141487000,3.320487060546875,0.00013315794058144093,0.0022636849898844957,-0.0007989476434886456
1772810892151367700,3.33036767578125,0.0006657897029072046,0.0006657897029072046,-0.0007989476434886456
1772810892161248500,3.34024853515625,0.0006657897029072046,0.0006657897029072046,0.0007989476434886456
1772810892171129000,3.350129150390625,-0.0014647373463958502,0.00013315794058144093,-0.0007989476434886456
1772810892181010000,3.360010009765625,0.00013315794058144093,0.0006657897029072046,-0.00026631588116288185
1772810892190890500,3.369890380859375,-0.001997369108721614,0.00013315794058144093,-0.0007989476434886456
1772810892200771300,3.379771240234375,0.0006657897029072046,0.00013315794058144093,-0.00026631588116288185
1772810892210652200,3.389652099609375,0.00013315794058144093,-0.0003994738217443228,-0.00026631588116288185
1772810892220532700,3.39953271484375,-0.0003994738217443228,0.0006657897029072046,-0.0007989476434886456
1772810892230413600,3.40941357421875,0.0011984214652329683,0.001731053227558732,0.00026631588116288185
1772810892240294100,3.419294189453125,-0.0003994738217443228,-0.0009321055840700865,0.00026631588116288185
1772810892250175000,3.429175048828125,-0.0003994738217443228,0.0006657897029072046,-0.001864211168140173
1772810892260055800,3.439055908203125,0.00013315794058144093,0.00013315794058144093,-0.00026631588116288185
1772810892269936400,3.448936279296875,-0.0003994738217443228,0.00013315794058144093,-0.001864211168140173
1772810892279817200,3.458817138671875,0.00013315794058144093,0.00013315794058144093,-0.00026631588116288185
1772810892289697800,3.46869775390625,0.0011984214652329683,-0.0003994738217443228,0.00026631588116288185
1772810892299578600,3.47857861328125,0.0006657897029072046,0.0011984214652329683,-0.00026631588116288185
1772810892309459200,3.488459228515625,0.0006657897029072046,0.0027963167522102594,0.00026631588116288185
1772810892319340000,3.498340087890625,0.00013315794058144093,-0.0009321055840700865,0.00026631588116288185
1772810892329220900,3.508220947265625,0.00013315794058144093,0.00013315794058144093,-0.0013315794058144093
1772810892339101400,3.518101318359375,0.0006657897029072046,0.0006657897029072046,0.0013315794058144093
1772810892348982300,3.527982177734375,0.00013315794058144093,-0.0003994738217443228,-0.0007989476434886456
1772810892358862800,3.53786279296875,0.00013315794058144093,0.0011984214652329683,-0.00026631588116288185
1772810892368743700,3.54774365234375,-0.0003994738217443228,0.0011984214652329683,0.00026631588116288185
1772810892378624500,3.55762451171875,0.00013315794058144093,0.0011984214652329683,-0.0023968429304659367
1772810892388505000,3.567505126953125,-0.0009321055840700865,0.00013315794058144093,-0.00026631588116288185
1772810892398386000,3.577385986328125,0.0011984214652329683,0.0011984214652329683,-0.0007989476434886456
1772810892408266500,3.5872666015625,-0.0003994738217443228,-0.0009321055840700865,-0.00026631588116288185
1772810892418147300,3.597147216796875,-0.0014647373463958502,0.00013315794058144093,-0.0023968429304659367
1772810892428028000,3.60702783203125,0.00013315794058144093,-0.0014647373463958502,-0.0007989476434886456
1772810892437908700,3.61690869140625,0.0011984214652329683,-0.001997369108721614,0.00026631588116288185
1772810892447789600,3.62678955078125,0.0006657897029072046,0.00013315794058144093,-0.0013315794058144093
1772810892457670100,3.636670166015625,0.0011984214652329683,-0.0009321055840700865,-0.0013315794058144093
1772810892467551000,3.646551025390625,-0.0003994738217443228,-0.0003994738217443228,-0.00026631588116288185
1772810892477431600,3.656431640625,0.0011984214652329683,-0.001997369108721614,0.00026631588116288185
1772810892487312400,3.6663125,0.0011984214652329683,0.00013315794058144093,-0.00026631588116288185
1772810892497193000,3.67619287109375,0.00013315794058144093,0.0011984214652329683,-0.0007989476434886456
1772810892507073800,3.68607373046875,0.0006657897029072046,0.00013315794058144093,-0.0013315794058144093
1772810892516954600,3.69595458984375,-0.0003994738217443228,0.001731053227558732,-0.0013315794058144093
1772810892526835500,3.70583544921875,0.00013315794058144093,-0.0003994738217443228,-0.0007989476434886456
1772810892536716300,3.71571630859375,0.00013315794058144093,-0.0014647373463958502,-0.00026631588116288185
1772810892546596900,3.725596923828125,-0.0009321055840700865,0.0006657897029072046,-0.00026631588116288185
1772810892556477700,3.735477783203125,0.00013315794058144093,0.0011984214652329683,-0.0007989476434886456
1772810892566358500,3.745358642578125,0.0006657897029072046,-0.0003994738217443228,0.0013315794058144093
1772810892576239400,3.7552392578125,0.0011984214652329683,-0.0009321055840700865,0.0007989476434886456
1772810892586120200,3.7651201171875,-0.0009321055840700865,-0.0030626326333731413,-0.0007989476434886456
1772810892596000800,3.775000732421875,-0.0009321055840700865,0.00013315794058144093,-0.0007989476434886456
1772810892605881600,3.784881591796875,0.00013315794058144093,0.0006657897029072046,0.00026631588116288185
1772810892615762400,3.794762451171875,-0.0003994738217443228,-0.001997369108721614,0.0007989476434886456
1772810892625643300,3.804643310546875,0.00013315794058144093,0.0006657897029072046,0.00026631588116288185
1772810892635524000,3.814524169921875,-0.0009321055840700865,-0.0003994738217443228,-0.0007989476434886456
1772810892645404700,3.82440478515625,0.00013315794058144093,0.0011984214652329683,-0.0007989476434886456
1772810892655285500,3.834285400390625,-0.0009321055840700865,-0.0030626326333731413,0.0007989476434886456
1772810892665166300,3.844166259765625,-0.0003994738217443228,0.0022636849898844957,0.0007989476434886456
1772810892675047200,3.854047119140625,-0.001997369108721614,0.0011984214652329683,-0.00026631588116288185
1772810892684928000,3.863927978515625,0.00013315794058144093,0.00013315794058144093,0.00026631588116288185
1772810892694808600,3.87380859375,0.0006657897029072046,-0.0009321055840700865,-0.00026631588116288185
1772810892704689400,3.883689453125,0.0006657897029072046,-0.0003994738217443228,0.00026631588116288185
1772810892714570200,3.8935703125,0.00013315794058144093,-0.0014647373463958502,-0.00026631588116288185
1772810892724451000,3.903451171875,-0.0009321055840700865,-0.001997369108721614,-0.0007989476434886456
1772810892734332000,3.913331787109375,0.0011984214652329683,-0.0014647373463958502,-0.0023968429304659367
1772810892744212500,3.92321240234375,0.00013315794058144093,0.0006657897029072046,-0.00026631588116288185
1772810892754093300,3.93309326171875,-0.0009321055840700865,0.0011984214652329683,-0.00026631588116288185
1772810892763974100,3.94297412109375,-0.0003994738217443228,0.0011984214652329683,-0.001864211168140173
1772810892773855000,3.95285498046875,-0.0003994738217443228,0.0006657897029072046,-0.00026631588116288185
1772810892783735800,3.96273583984375,-0.0003994738217443228,-0.0003994738217443228,0.0007989476434886456
1772810892793616400,3.972616455078125,0.00013315794058144093,-0.0009321055840700865,-0.0007989476434886456
1772810892803497200,3.982497314453125,-0.0014647373463958502,0.0006657897029072046,0.00026631588116288185
1772810892813378000,3.9923779296875,-0.001997369108721614,-0.0003994738217443228,0.0013315794058144093
1772810892823259000,4.0022587890625,0.00013315794058144093,-0.0014647373463958502,-0.0007989476434886456
1772810892833139700,4.0121396484375,0.0011984214652329683,0.001731053227558732,0.00026631588116288185
1772810892843020300,4.022020263671875,0.0011984214652329683,0.0022636849898844957,-0.0007989476434886456
1772810892852901000,4.031901123046875,0.00013315794058144093,-0.0009321055840700865,-0.00026631588116288185
1772810892862782000,4.041781982421875,0.00013315794058144093,0.0006657897029072046,-0.001864211168140173
1772810892872662800,4.051662841796875,-0.0009321055840700865,-0.0025300008710473776,-0.00026631588116288185
1772810892882543600,4.061543701171875,-0.0009321055840700865,-0.0003994738217443228,0.0007989476434886456
1772810892892424200,4.071424072265625,0.0006657897029072046,-0.0003994738217443228,-0.0013315794058144093
1772810892902305000,4.081304931640625,0.001731053227558732,-0.0009321055840700865,-0.0013315794058144093
1772810892912185900,4.091185791015625,0.0006657897029072046,0.001731053227558732,-0.001864211168140173
1772810892922066700,4.101066650390625,0.00013315794058144093,0.0022636849898844957,0.00026631588116288185
1772810892931947500,4.110947509765625,0.00013315794058144093,-0.0003994738217443228,0.0007989476434886456
1772810892941828000,4.120828125,-0.0003994738217443228,0.00013315794058144093,-0.00026631588116288185
1772810892951709000,4.130708984375,0.001731053227558732,0.001731053227558732,-0.0007989476434886456
1772810892961589800,4.14058984375,-0.0009321055840700865,-0.0009321055840700865,-0.00026631588116288185
1772810892971470600,4.150470703125,0.0006657897029072046,-0.0003994738217443228,0.0007989476434886456
1772810892981351400,4.160351318359375,0.0006657897029072046,0.0011984214652329683,-0.00026631588116288185
1772810892991232000,4.17023193359375,-0.0009321055840700865,-0.0003994738217443228,-0.0007989476434886456
1772810893001113000,4.180113037109375,-0.0003994738217443228,0.00013315794058144093,-0.0007989476434886456
1772810893020875500,4.19987548828125,0.0011984214652329683,0.0006657897029072046,-0.0007989476434886456
1772810893030756600,4.209756591796875,0.00013315794058144093,-0.0014647373463958502,-0.00026631588116288185
1772810893040637700,4.2196376953125,0.00013315794058144093,0.00013315794058144093,-0.0007989476434886456
1772810893050518800,4.229518798828125,0.0006657897029072046,-0.0003994738217443228,-0.00026631588116288185
1772810893060400000,4.239400146484375,0.00013315794058144093,0.00013315794058144093,-0.0010652635246515274
1772810893070281200,4.24928125,-0.0009321055840700865,0.0006657897029072046,0.0005326317623257637
1772810893080162300,4.259162353515625,0.0006657897029072046,0.0022636849898844957,-0.0005326317623257637
1772810893090043600,4.269043701171875,0.00013315794058144093,-0.0009321055840700865,0.001597895286977291
1772810893099924700,4.2789248046875,-0.0003994738217443228,-0.0003994738217443228,-0.0005326317623257637
1772810893109805800,4.288805908203125,-0.0003994738217443228,0.0011984214652329683,-0.0005326317623257637
1772810893119687000,4.29868701171875,-0.0009321055840700865,-0.0009321055840700865,0
1772810893129568300,4.308568359375,0.0011984214652329683,0.0006657897029072046,0.001597895286977291
1772810893139449300,4.318449462890625,0.0006657897029072046,0.0011984214652329683,0
1772810893149330400,4.328330322265625,-0.0009321055840700865,0.0006657897029072046,-0.0010652635246515274
1772810893159211500,4.33821142578125,-0.0003994738217443228,0.00013315794058144093,0.0005326317623257637
1772810893169092900,4.3480927734375,0.0006657897029072046,0.0006657897029072046,0.0005326317623257637
1772810893178974000,4.357973876953125,-0.0009321055840700865,-0.001997369108721614,-0.0005326317623257637
1772810893188855000,4.36785498046875,-0.001997369108721614,0.001731053227558732,0.0005326317623257637
1772810893198736100,4.377736083984375,0.00013315794058144093,-0.0014647373463958502,0
1772810893208617500,4.387617431640625,-0.0009321055840700865,-0.0025300008710473776,0.0010652635246515274
1772810893218498600,4.39749853515625,-0.0003994738217443228,-0.0009321055840700865,0.0005326317623257637
1772810893228379600,4.407379638671875,0.00013315794058144093,0.0022636849898844957,-0.0010652635246515274
1772810893238261000,4.417260986328125,-0.0003994738217443228,0.00013315794058144093,-0.0005326317623257637
1772810893248142000,4.42714208984375,-0.0003994738217443228,0.0006657897029072046,0.0010652635246515274
1772810893258023200,4.437023193359375,-0.0003994738217443228,-0.0009321055840700865,-0.0010652635246515274
1772810893267904300,4.446904296875,0.0006657897029072046,0.00013315794058144093,0
1772810893277785600,4.45678564453125,-0.0009321055840700865,0.00013315794058144093,0.0010652635246515274
1772810893287666700,4.466666748046875,0.0027963167522102594,0.00013315794058144093,0.0010652635246515274
1772810893297547800,4.4765478515625,0.00013315794058144093,0.001731053227558732,-0.0005326317623257637
1772810893307428900,4.486428955078125,-0.001997369108721614,-0.0003994738217443228,0
1772810893317310200,4.496310302734375,0.0006657897029072046,0.0011984214652329683,0.0010652635246515274
1772810893327191300,4.50619140625,0.0011984214652329683,0.00013315794058144093,0.0010652635246515274
1772810893337072400,4.516072265625,-0.0009321055840700865,0.00013315794058144093,0
1772810893346953700,4.52595361328125,0.0006657897029072046,-0.0009321055840700865,0.0010652635246515274
1772810893356834800,4.535834716796875,0.001731053227558732,0.0011984214652329683,-0.0010652635246515274
1772810893366716000,4.5457158203125,0.0006657897029072046,0.00013315794058144093,-0.0010652635246515274
1772810893376597000,4.555596923828125,-0.0003994738217443228,0.00013315794058144093,-0.001597895286977291
1772810893386478300,4.565478271484375,-0.0003994738217443228,0.0006657897029072046,-0.0005326317623257637
1772810893396359400,4.575359375,0.0011984214652329683,0.0006657897029072046,0
1772810893406240500,4.585240478515625,0.0006657897029072046,0.0006657897029072046,-0.0005326317623257637
1772810893416121900,4.595121826171875,0.0006657897029072046,0.0006657897029072046,0.0005326317623257637
1772810893426003000,4.6050029296875,0.0006657897029072046,0.00013315794058144093,0.0005326317623257637
1772810893435884000,4.614884033203125,0.0022636849898844957,0.0011984214652329683,-0.0010652635246515274
1772810893445765000,4.62476513671875,0.00013315794058144093,0.0006657897029072046,0.0010652635246515274
1772810893455646500,4.634646484375,0.00013315794058144093,-0.0003994738217443228,0.0005326317623257637
1772810893465527600,4.644527587890625,0.001731053227558732,-0.0009321055840700865,-0.0010652635246515274
1772810893475408600,4.65440869140625,0.0006657897029072046,0.0006657897029072046,-0.001597895286977291
1772810893485289700,4.664289794921875,-0.0003994738217443228,-0.0009321055840700865,0.0005326317623257637
1772810893495171000,4.674171142578125,0.0006657897029072046,-0.0003994738217443228,0
1772810893505052200,4.68405224609375,0.00013315794058144093,-0.0009321055840700865,0
1772810893514933200,4.693933349609375,0.00013315794058144093,0.0011984214652329683,-0.0005326317623257637
1772810893524814600,4.703814697265625,0.0006657897029072046,0.00013315794058144093,0.0010652635246515274
1772810893534695700,4.71369580078125,0.00013315794058144093,0.00013315794058144093,0.0010652635246515274
1772810893544577000,4.723576904296875,0.0011984214652329683,-0.001997369108721614,0.0005326317623257637
1772810893554458000,4.7334580078125,0.00013315794058144093,0.00013315794058144093,0.0011984214652329683
1772810893564339200,4.743339111328125,-0.0003994738217443228,0.0005326317623257637,-0.0009321055840700865
1772810893574220500,4.753220458984375,0.0011984214652329683,0,0.0027963167522102594
1772810893584101600,4.7631015625,0.0022636849898844957,-0.0010652635246515274,0.00013315794058144093
1772810893593982700,4.772982666015625,0.0011984214652329683,0,0.0006657897029072046
1772810893603864000,4.782864013671875,0.0006657897029072046,0.0010652635246515274,0.00013315794058144093
1772810893613745200,4.7927451171875,-0.0003994738217443228,-0.0005326317623257637,0.0006657897029072046
1772810893623626500,4.80262646484375,0.00013315794058144093,0.0005326317623257637,0.0006657897029072046
1772810893633507600,4.812507568359375,0.0006657897029072046,0.001597895286977291,0.0006657897029072046
1772810893643388700,4.822388671875,0.00013315794058144093,0.0005326317623257637,0.0011984214652329683
1772810893653270000,4.83227001953125,-0.0014647373463958502,0.0005326317623257637,0.0011984214652329683
1772810893663151000,4.842151123046875,0.00013315794058144093,-0.0005326317623257637,0.00013315794058144093
1772810893673032400,4.852032470703125,-0.0003994738217443228,-0.0005326317623257637,-0.0003994738217443228
1772810893682913500,4.86191357421875,0.0011984214652329683,0.0005326317623257637,0.00013315794058144093
1772810893692794600,4.871794677734375,0.00013315794058144093,-0.0010652635246515274,0.001731053227558732
1772810893702676000,4.881676025390625,0.0011984214652329683,0.0005326317623257637,-0.0003994738217443228
1772810893712557000,4.89155712890625,0.0006657897029072046,0.001731053227558732,0
1772810893722438100,4.901438232421875,-0.0003994738217443228,0.00013315794058144093,0.001597895286977291
1772810893732319500,4.911319580078125,-0.0003994738217443228,0.00013315794058144093,0
1772810893742200600,4.92120068359375,0.00013315794058144093,-0.0003994738217443228,0
1772810893752082000,4.93108203125,0.00013315794058144093,0.0011984214652329683,0.0010652635246515274
1772810893761963000,4.940962890625,0.00013315794058144093,0.0006657897029072046,0
1772810893771844000,4.950843994140625,-0.0003994738217443228,0.0006657897029072046,0.001597895286977291
1772810893781725400,4.960725341796875,0.0006657897029072046,0.0006657897029072046,-0.0005326317623257637
1772810893791606500,4.9706064453125,-0.0003994738217443228,0.0006657897029072046,-0.0005326317623257637
1772810893801487600,4.980487548828125,0.00013315794058144093,0.001731053227558732,0
1772810893811369000,4.990368896484375,-0.0003994738217443228,0.00013315794058144093,-0.001597895286977291
1772810893821250000,5.00025,-0.0003994738217443228,0.0006657897029072046,-0.0005326317623257637
1772810893831131400,5.01013134765625,0.0006657897029072046,-0.0014647373463958502,0.0005326317623257637
1772810893841012500,5.020012451171875,0.0011984214652329683,-0.0003994738217443228,0.001597895286977291
1772810893850893600,5.0298935546875,0.0006657897029072046,0.0006657897029072046,0
1772810893860775000,5.03977490234375,-0.0003994738217443228,-0.001997369108721614,0.001597895286977291
1772810893870656000,5.049656005859375,0.00013315794058144093,-0.0009321055840700865,0.0010652635246515274
1772810893880537000,5.059537109375,-0.0003994738217443228,0.0011984214652329683,-0.0005326317623257637
1772810893890418400,5.06941845703125,0.00013315794058144093,0.0011984214652329683,0.0005326317623257637
1772810893900299500,5.079299560546875,0.00013315794058144093,-0.0009321055840700865,0.0005326317623257637
1772810893910180600,5.0891806640625,0.001731053227558732,0.00013315794058144093,0.0010652635246515274
1772810893920062000,5.09906201171875,0.0011984214652329683,0.00013315794058144093,-0.0005326317623257637
1772810893929943000,5.108943115234375,0.0006657897029072046,0.0006657897029072046,0.0005326317623257637
1772810893939824400,5.118824462890625,-0.0003994738217443228,-0.0003994738217443228,0.0010652635246515274
1772810893949705500,5.12870556640625,-0.0003994738217443228,-0.0009321055840700865,0
1772810893959586600,5.138586669921875,0.00013315794058144093,0.00013315794058144093,0
1772810893969468000,5.148468017578125,0.0006657897029072046,0.0022636849898844957,-0.0005326317623257637
1772810893979349000,5.158348876953125,0.0006657897029072046,0.00013315794058144093,0.0010652635246515274
1772810893989230000,5.16822998046875,0.00013315794058144093,-0.0003994738217443228,0
1772810893999111200,5.178111083984375,-0.0025300008710473776,0.00013315794058144093,0.0005326317623257637
1772810894008991500,5.187991455078125,0.00013315794058144093,0.0006657897029072046,-0.0010652635246515274
1772810894018871800,5.197871826171875,-0.0014647373463958502,-0.0009321055840700865,0.0005326317623257637
1772810894028752100,5.207752197265625,-0.0009321055840700865,0.00013315794058144093,0.0005326317623257637
1772810894038632400,5.217632568359375,0.001731053227558732,-0.0009321055840700865,0.0010652635246515274
1772810894048512800,5.2275126953125,0.0006657897029072046,0.00013315794058144093,0
1772810894058393000,5.23739306640625,-0.0003994738217443228,-0.0014647373463958502,0.0010652635246515274
1772810894068273400,5.2472734375,-0.0009321055840700865,-0.001997369108721614,0.0010652635246515274
1772810894078153700,5.25715380859375,0.0011984214652329683,-0.0014647373463958502,-0.0010652635246515274
1772810894088034000,5.267033935546875,0.0011984214652329683,0.001731053227558732,0.0005326317623257637
1772810894097914400,5.276914306640625,-0.0014647373463958502,0.0006657897029072046,0.0005326317623257637
1772810894107795000,5.286794921875,0.0011984214652329683,-0.0003994738217443228,-0.0005326317623257637
1772810894117675300,5.29667529296875,0.0006657897029072046,0.00013315794058144093,-0.0005326317623257637
1772810894127555600,5.3065556640625,-0.0009321055840700865,0.0022636849898844957,0.0005326317623257637
1772810894137436000,5.316435791015625,-0.0014647373463958502,0.00013315794058144093,0.0005326317623257637
1772810894147316200,5.326316162109375,-0.0003994738217443228,-0.0030626326333731413,0
1772810894157196500,5.336196533203125,0.0011984214652329683,-0.0014647373463958502,0
1772810894167076900,5.346076904296875,0.00013315794058144093,0.001731053227558732,0
1772810894176957200,5.355957275390625,-0.0009321055840700865,-0.0003994738217443228,-0.0005326317623257637
1772810894186837500,5.36583740234375,0.0011984214652329683,0.00013315794058144093,0
1772810894196717800,5.3757177734375,-0.0003994738217443228,0.00013315794058144093,0.001597895286977291
1772810894206598100,5.38559814453125,0.00013315794058144093,0.0011984214652329683,0.001597895286977291
1772810894216478500,5.395478515625,-0.0009321055840700865,0.00013315794058144093,0
1772810894226358800,5.40535888671875,0.0006657897029072046,-0.0025300008710473776,0.0005326317623257637
1772810894236239000,5.415239013671875,-0.0009321055840700865,-0.0003994738217443228,0.0005326317623257637
1772810894246119400,5.425119384765625,-0.0009321055840700865,0.0006657897029072046,0.0005326317623257637
1772810894256000000,5.435,0.0011984214652329683,-0.0014647373463958502,-0.0010652635246515274
1772810894265880000,5.444880126953125,0.00013315794058144093,-0.0014647373463958502,0
1772810894275760600,5.4547607421875,0.00013315794058144093,-0.0003994738217443228,0
1772810894285641000,5.464640869140625,-0.0003994738217443228,0.0011984214652329683,0
1772810894295521300,5.474521240234375,0.00013315794058144093,0.00013315794058144093,0
1772810894305401600,5.484401611328125,0.00013315794058144093,-0.0003994738217443228,0.0005326317623257637
1772810894315282000,5.494281982421875,0.0006657897029072046,0.00013315794058144093,0
1772810894325162200,5.504162353515625,0.00013315794058144093,-0.0003994738217443228,-0.002130527049303055
1772810894335042600,5.51404248046875,0.0011984214652329683,0.00013315794058144093,0.0005326317623257637
1772810894344923000,5.5239228515625,0.00013315794058144093,0.001731053227558732,-0.0005326317623257637
1772810894354803200,5.53380322265625,0.00013315794058144093,-0.0003994738217443228,-0.0010652635246515274
1772810894364683500,5.54368359375,0.0006657897029072046,-0.001997369108721614,-0.0005326317623257637
1772810894374563800,5.553563720703125,0.001731053227558732,0.0011984214652329683,0
1772810894384444200,5.563444091796875,0.001731053227558732,0.001731053227558732,0
1772810894394324500,5.573324462890625,-0.0003994738217443228,-0.0003994738217443228,0.0005326317623257637
1772810894404205000,5.583205078125,0.00013315794058144093,-0.0003994738217443228,0.0005326317623257637
1772810894414085000,5.593085205078125,0.0011984214652329683,0.0006657897029072046,0.0005326317623257637
1772810894423965700,5.602965576171875,0.0011984214652329683,-0.0014647373463958502,0.0005326317623257637
1772810894433846000,5.612845947265625,-0.0003994738217443228,-0.0003994738217443228,0.0010652635246515274
1772810894443726300,5.622726318359375,-0.0003994738217443228,0.0011984214652329683,0
1772810894453606700,5.632606689453125,-0.0009321055840700865,0.0011984214652329683,0.0010652635246515274
1772810894463487000,5.642487060546875,0.001731053227558732,-0.0003994738217443228,-0.0010652635246515274
1772810894473367300,5.6523671875,0.0006657897029072046,0.0006657897029072046,0
1772810894483247600,5.66224755859375,-0.0014647373463958502,0.0006657897029072046,-0.0005326317623257637
1772810894493128000,5.6721279296875,0.0006657897029072046,0.0006657897029072046,0.0010652635246515274
1772810894503009000,5.682009033203125,0.0011984214652329683,-0.001997369108721614,0
1772810894512890000,5.69189013671875,-0.0009321055840700865,0.00013315794058144093,-0.0005326317623257637
1772810894522771200,5.701771240234375,-0.0003994738217443228,-0.0003994738217443228,0.0005326317623257637
1772810894532652300,5.71165234375,0.00013315794058144093,-0.0003994738217443228,0
1772810894542533600,5.72153369140625,0.0006657897029072046,-0.0003994738217443228,-0.0005326317623257637
1772810894552414700,5.731414794921875,-0.0003994738217443228,0.00013315794058144093,-0.0005326317623257637
1772810894562295800,5.7412958984375,0.0006657897029072046,-0.0003994738217443228,0
1772810894572177000,5.751177001953125,0.00013315794058144093,-0.0009321055840700865,0
1772810894582058200,5.761058349609375,-0.0003994738217443228,-0.0009321055840700865,0
1772810894591939300,5.770939208984375,0.001731053227558732,0.00013315794058144093,0.0010652635246515274
1772810894601820400,5.7808203125,0.0006657897029072046,-0.0003994738217443228,0.0010652635246515274
1772810894611701500,5.790701416015625,0.0006657897029072046,0.0011984214652329683,0
1772810894621582800,5.800582763671875,0.0011984214652329683,-0.0009321055840700865,0.0005326317623257637
1772810894631464000,5.8104638671875,0.00013315794058144093,0.0006657897029072046,0.0010652635246515274
1772810894641345000,5.820344970703125,-0.0014647373463958502,-0.0014647373463958502,-0.0005326317623257637
1772810894651226000,5.83022607421875,-0.0009321055840700865,-0.0003994738217443228,-0.0010652635246515274
1772810894661107500,5.840107421875,-0.001997369108721614,0.0006657897029072046,-0.001597895286977291
1772810894670988500,5.849988525390625,-0.0003994738217443228,-0.0009321055840700865,0.0005326317623257637
1772810894690750700,5.869750732421875,0.00013315794058144093,-0.0003994738217443228,0
1772810894700632000,5.879632080078125,-0.0014647373463958502,-0.0003994738217443228,0.0010652635246515274
1772810894710513200,5.88951318359375,-0.0009321055840700865,0.00013315794058144093,-0.0005326317623257637
1772810894720394200,5.899394287109375,-0.0009321055840700865,-0.0009321055840700865,0.0005326317623257637
1772810894730275300,5.909275390625,-0.0009321055840700865,-0.0009321055840700865,0
1772810894740156700,5.91915673828125,-0.001997369108721614,0.0011984214652329683,-0.0026631588116288185
1772810894750037800,5.929037841796875,0.0006657897029072046,0.001731053227558732,0.001597895286977291
1772810894759918800,5.9389189453125,-0.0003994738217443228,0.0006657897029072046,-0.0005326317623257637
1772810894769800000,5.948800048828125,0.001731053227558732,-0.0003994738217443228,0.002130527049303055
1772810894779681300,5.958681396484375,0.0022636849898844957,-0.0003994738217443228,0.0005326317623257637
1772810894789562400,5.968562255859375,-0.0003994738217443228,0.0006657897029072046,0
1772810894799443500,5.978443359375,0.0011984214652329683,-0.0003994738217443228,-0.0010652635246515274
1772810894809324500,5.988324462890625,0.00013315794058144093,0.0006657897029072046,-0.0005326317623257637
1772810894819206000,5.998205810546875,-0.0025300008710473776,-0.0009321055840700865,0.0005326317623257637
1772810894829087000,6.0080869140625,-0.0014647373463958502,0.00013315794058144093,-0.0005326317623257637
1772810894838968000,6.017968017578125,0,0.0011984214652329683,0.0003994738217443228
1772810894848849400,6.027849365234375,0.0010652635246515274,0.0011984214652329683,0.0014647373463958502
1772810894858730500,6.03773046875,-0.0010652635246515274,0.0022636849898844957,0.0003994738217443228
1772810894868611600,6.047611572265625,0.0005326317623257637,-0.001997369108721614,-0.0011984214652329683
1772810894878492700,6.05749267578125,-0.0005326317623257637,0.00013315794058144093,0.0003994738217443228
1772810894888373800,6.067373779296875,0.001597895286977291,-0.0003994738217443228,0.001997369108721614
1772810894898255000,6.077255126953125,0.0005326317623257637,-0.0003994738217443228,-0.0011984214652329683
1772810894908136200,6.08713623046875,-0.0010652635246515274,0.00013315794058144093,0.0003994738217443228
1772810894918017300,6.097017333984375,0.0010652635246515274,0.0011984214652329683,0.0009321055840700865
1772810894927898600,6.106898681640625,0,0.0006657897029072046,0.0003994738217443228
1772810894937779700,6.11677978515625,0.001597895286977291,-0.0025300008710473776,-0.00013315794058144093
1772810894947660800,6.126660888671875,-0.0010652635246515274,0.001731053227558732,-0.0006657897029072046
1772810894957542000,6.1365419921875,-0.0010652635246515274,0.00013315794058144093,0.0003994738217443228
1772810894967423200,6.14642333984375,0,0.0006657897029072046,-0.0006657897029072046
1772810894977304300,6.15630419921875,-0.0010652635246515274,0.00013315794058144093,-0.0006657897029072046
1772810894987185400,6.166185302734375,-0.001597895286977291,0.00013315794058144093,0.0014647373463958502
1772810894997066500,6.17606640625,-0.0005326317623257637,0.00013315794058144093,-0.00013315794058144093
1772810895006947000,6.185947021484375,0.0005326317623257637,0.00013315794058144093,0.001997369108721614
1772810895016828000,6.195827880859375,-0.0010652635246515274,0.0006657897029072046,0.0003994738217443228
1772810895026708500,6.20570849609375,0.0005326317623257637,-0.0014647373463958502,-0.00013315794058144093
1772810895036589300,6.21558935546875,-0.0010652635246515274,-0.0003994738217443228,0.0003994738217443228
1772810895046470000,6.225469970703125,-0.0005326317623257637,0.00013315794058144093,-0.0011984214652329683
1772810895056350500,6.2353505859375,-0.0005326317623257637,0.00013315794058144093,0.0009321055840700865
1772810895066231300,6.245231201171875,0.0010652635246515274,0.0011984214652329683,0.0003994738217443228
1772810895076112000,6.25511181640625,-0.002130527049303055,-0.0014647373463958502,-0.0011984214652329683
1772810895085992700,6.26499267578125,0,0.0011984214652329683,-0.0011984214652329683
1772810895095873300,6.274873291015625,0.0010652635246515274,-0.0003994738217443228,0.0014647373463958502
1772810895105753900,6.28475390625,0.0005326317623257637,0.0011984214652329683,-0.001731053227558732
1772810895115634700,6.294634765625,-0.001597895286977291,0.001731053227558732,0.0003994738217443228
1772810895125515300,6.304515380859375,-0.0005326317623257637,0.00013315794058144093,0.0003994738217443228
1772810895135396000,6.31439599609375,0,-0.0003994738217443228,0.0009321055840700865
1772810895145276700,6.324276611328125,0,0.00013315794058144093,-0.0006657897029072046
1772810895155157200,6.3341572265625,-0.0010652635246515274,-0.0003994738217443228,0.0009321055840700865
1772810895165038000,6.3440380859375,-0.0005326317623257637,-0.0009321055840700865,-0.0011984214652329683
1772810895174918700,6.353918701171875,-0.0010652635246515274,-0.0003994738217443228,-0.0006657897029072046
1772810895184799200,6.36379931640625,-0.0010652635246515274,-0.0009321055840700865,0.0003994738217443228
1772810895194680000,6.37368017578125,0.0005326317623257637,0.00013315794058144093,-0.0006657897029072046
1772810895204560600,6.383560546875,-0.0005326317623257637,0.0006657897029072046,-0.0006657897029072046
1772810895214441500,6.39344140625,0.0010652635246515274,-0.0009321055840700865,0.0003994738217443228
1772810895224322000,6.403322021484375,0,-0.0009321055840700865,-0.001731053227558732
1772810895234202600,6.41320263671875,-0.0005326317623257637,0.0011984214652329683,0.0003994738217443228
1772810895244083500,6.42308349609375,0,0.0006657897029072046,0.0009321055840700865
1772810895253964000,6.432964111328125,0,-0.0003994738217443228,-0.00013315794058144093
1772810895263844900,6.442844970703125,0.001597895286977291,0.0011984214652329683,0.0003994738217443228
1772810895273725400,6.452725341796875,-0.0010652635246515274,0.0011984214652329683,-0.003328948514536023
1772810895283606300,6.462606201171875,0,-0.0009321055840700865,0.0009321055840700865
1772810895293486800,6.47248681640625,0.0005326317623257637,0.003328948514536023,-0.0022636849898844957
1772810895303367400,6.482367431640625,-0.0010652635246515274,-0.0003994738217443228,0.0014647373463958502
1772810895313248300,6.492248291015625,0,0.00013315794058144093,-0.0011984214652329683
1772810895323128800,6.50212890625,0.0005326317623257637,-0.0009321055840700865,-0.0006657897029072046
1772810895333009700,6.512009765625,-0.0005326317623257637,0.00013315794058144093,-0.00013315794058144093
1772810895342890200,6.52189013671875,0.0010652635246515274,0.0011984214652329683,-0.0006657897029072046
1772810895352770800,6.531770751953125,0,0.0006657897029072046,-0.0006657897029072046
1772810895362651600,6.541651611328125,0,0.0006657897029072046,0.0009321055840700865
1772810895372532200,6.5515322265625,-0.0005326317623257637,0.00013315794058144093,-0.0006657897029072046
1772810895392293600,6.571293701171875,0.0005326317623257637,-0.0009321055840700865,-0.0006657897029072046
1772810895402174200,6.58117431640625,-0.0010652635246515274,0.0006657897029072046,0.0003994738217443228
1772810895412055000,6.591054931640625,-0.0005326317623257637,0.001731053227558732,0.0009321055840700865
1772810895421935600,6.600935546875,0,-0.0003994738217443228,0.0009321055840700865
1772810895431816400,6.61081640625,-0.0005326317623257637,-0.0014647373463958502,-0.0006657897029072046
1772810895441697000,6.620697021484375,0.0010652635246515274,-0.0003994738217443228,-0.0006657897029072046
1772810895451577600,6.63057763671875,-0.0005326317623257637,0.0011984214652329683,-0.00013315794058144093
1772810895461458400,6.64045849609375,0,0.00013315794058144093,0.0003994738217443228
1772810895471339000,6.650339111328125,-0.0010652635246515274,0.00013315794058144093,-0.0006657897029072046
1772810895481219800,6.6602197265625,0.001597895286977291,0.00013315794058144093,-0.00013315794058144093
1772810895491100400,6.670100341796875,0.0005326317623257637,-0.0009321055840700865,0.0003994738217443228
1772810895500981200,6.679981201171875,-0.0010652635246515274,0.0006657897029072046,-0.00013315794058144093
1772810895510862300,6.6898623046875,0,-0.0030626326333731413,0.0009321055840700865
1772810895520743400,6.699743408203125,0.0005326317623257637,0.00013315794058144093,0.0003994738217443228
1772810895530624500,6.70962451171875,0,0.0011984214652329683,-0.0011984214652329683
1772810895540505600,6.719505615234375,0.0010652635246515274,0.00013315794058144093,-0.0006657897029072046
1772810895550386700,6.72938671875,0.0005326317623257637,0.0022636849898844957,-0.001731053227558732
1772810895560267800,6.739267822265625,0.0005326317623257637,0.00013315794058144093,0.0009321055840700865
1772810895570148900,6.74914892578125,0,-0.0003994738217443228,0.0003994738217443228
1772810895580030200,6.7590302734375,0.001597895286977291,-0.0003994738217443228,0.0025300008710473776
1772810895589911300,6.768911376953125,0.0010652635246515274,0.00013315794058144093,0.0003994738217443228
1772810895599792400,6.77879248046875,-0.002130527049303055,0.0011984214652329683,-0.0006657897029072046
1772810895609673500,6.788673583984375,0.0005326317623257637,0.0011984214652329683,-0.0006657897029072046
1772810895619554600,6.798554443359375,0,0.00013315794058144093,-0.0006657897029072046
1772810895629435600,6.808435546875,0,0.00013315794058144093,0.0009321055840700865
1772810895639316700,6.818316650390625,0,0.00013315794058144093,-0.0022636849898844957
1772810895649197800,6.82819775390625,0.0010652635246515274,-0.0009321055840700865,-0.0006657897029072046
1772810895659079000,6.838078857421875,0.001597895286977291,-0.0009321055840700865,0.0014647373463958502
1772810895668960000,6.8479599609375,-0.0005326317623257637,0.0006657897029072046,0.0003994738217443228
1772810895688722200,6.86772216796875,0,-0.0003994738217443228,0.0009321055840700865
1772810895698603300,6.877603271484375,0,-0.0009321055840700865,-0.001731053227558732
1772810895708484400,6.887484375,-0.0005326317623257637,0.0006657897029072046,-0.0006657897029072046
1772810895718365400,6.897365478515625,-0.0010652635246515274,-0.0009321055840700865,-0.0022636849898844957
1772810895738127600,6.917127685546875,0,-0.0003994738217443228,-0.00013315794058144093
1772810895748008700,6.9270087890625,0.0005326317623257637,0.00013315794058144093,-0.0022636849898844957
1772810895757889800,6.936889892578125,0.001597895286977291,0.0006657897029072046,-0.0006657897029072046
1772810895767771000,6.94677099609375,-0.0010652635246515274,0.0006657897029072046,-0.0006657897029072046
1772810895777652000,6.95665185546875,-0.0010652635246515274,0.0006657897029072046,-0.00013315794058144093
1772810895787533000,6.966532958984375,0.0010652635246515274,-0.0003994738217443228,0.0003994738217443228
1772810895797414100,6.9764140625,0,0.0011984214652329683,-0.00013315794058144093
1772810895807295200,6.986295166015625,0.001597895286977291,-0.0009321055840700865,-0.001731053227558732
1772810895817176300,6.99617626953125,0.0005326317623257637,-0.0025300008710473776,-0.00013315794058144093
1772810895827057400,7.006057373046875,-0.002130527049303055,-0.0009321055840700865,-0.00013315794058144093
1772810895836938500,7.0159384765625,0,-0.0009321055840700865,-0.0011984214652329683
1772810895846819600,7.025819580078125,0,0.0006657897029072046,0.001997369108721614
1772810895856700700,7.03570068359375,-0.0010652635246515274,0.001731053227558732,-0.001731053227558732
1772810895866581800,7.045581787109375,-0.0005326317623257637,-0.0003994738217443228,-0.0011984214652329683
1772810895876462800,7.055462890625,-0.0010652635246515274,0.0011984214652329683,0.0003994738217443228
1772810895886348800,7.065348876953125,0,0.001731053227558732,0.0003994738217443228
1772810895896230000,7.07522998046875,-0.0010652635246515274,-0.0003994738217443228,0.0003994738217443228
1772810895906111000,7.085111083984375,0.0005326317623257637,0.0011984214652329683,-0.0006657897029072046
1772810895915992300,7.094992431640625,-0.0005326317623257637,-0.0003994738217443228,-0.0006657897029072046
1772810895925873400,7.104873291015625,0.0010652635246515274,0.0011984214652329683,0.0003994738217443228
1772810895935754500,7.11475439453125,-0.0005326317623257637,0.00013315794058144093,0.0003994738217443228
1772810895945635600,7.124635498046875,-0.0010652635246515274,0.001731053227558732,-0.0011984214652329683
1772810895955516700,7.1345166015625,-0.0005326317623257637,0.0006657897029072046,-0.0011984214652329683
1772810895965397800,7.144397705078125,0,0.001731053227558732,-0.00013315794058144093
1772810895975278800,7.15427880859375,-0.0010652635246515274,0.00013315794058144093,-0.00013315794058144093
1772810895985160000,7.164159912109375,-0.0010652635246515274,0.00013315794058144093,-0.00013315794058144093
1772810895995041000,7.174041015625,-0.0005326317623257637,0.001731053227558732,-0.00013315794058144093
1772810896004921600,7.183921630859375,-0.002130527049303055,-0.0003994738217443228,-0.00013315794058144093
1772810896014802400,7.193802490234375,-0.0005326317623257637,0.00013315794058144093,-0.00013315794058144093
1772810896024683300,7.203683349609375,0.0005326317623257637,-0.0003994738217443228,-0.0006657897029072046
1772810896034563800,7.213563720703125,0.0005326317623257637,0.001731053227558732,0.0009321055840700865
1772810896044444700,7.223444580078125,0,0.00013315794058144093,0.0025300008710473776
1772810896054325500,7.233325439453125,-0.001597895286977291,-0.001997369108721614,-0.001731053227558732
1772810896064206300,7.243206298828125,0,0.0006657897029072046,-0.00013315794058144093
1772810896074087000,7.2530869140625,-0.0005326317623257637,0.00013315794058144093,0.0003994738217443228
1772810896083967700,7.2629677734375,0.0005326317623257637,-0.0014647373463958502,0.0003994738217443228
1772810896093848600,7.2728486328125,0.0005326317623257637,-0.0009321055840700865,0.0003994738217443228
1772810896103729400,7.2827294921875,-0.0026631588116288185,-0.0003994738217443228,0.0009321055840700865
1772810896113610000,7.29260986328125,-0.0005326317623257637,0.0006657897029072046,-0.00013315794058144093
1772810896123490800,7.30249072265625,0.0005326317623257637,0.00013315794058144093,0.0009321055840700865
1772810896133371600,7.31237158203125,-0.0010652635246515274,-0.0003994738217443228,-0.00013315794058144093
1772810896143252500,7.32225244140625,0.0005326317623257637,0.00013315794058144093,-0.00013315794058144093
1772810896153133000,7.332133056640625,0.0005326317623257637,-0.0009321055840700865,-0.00013315794058144093
1772810896163014000,7.342013916015625,0,0.00013315794058144093,-0.0027963167522102594
1772810896172894700,7.351894775390625,0.0010652635246515274,-0.0014647373463958502,0.0009321055840700865
1772810896182775300,7.361775390625,0.0005326317623257637,0.00013315794058144093,-0.00013315794058144093
1772810896192656100,7.37165625,0.0005326317623257637,0.00013315794058144093,0.0003994738217443228
1772810896202537000,7.381536865234375,-0.0005326317623257637,0.0022636849898844957,0.0003994738217443228
1772810896212417800,7.391417724609375,-0.0010652635246515274,-0.0025300008710473776,-0.0022636849898844957
1772810896222298600,7.401298583984375,-0.0005326317623257637,-0.0003994738217443228,-0.0006657897029072046
1772810896232179200,7.41117919921875,0.0010652635246515274,0.0011984214652329683,-0.00013315794058144093
1772810896242060000,7.42106005859375,-0.001597895286977291,-0.001997369108721614,-0.0006657897029072046
1772810896251940900,7.43094091796875,0,0.0011984214652329683,0.0009321055840700865
1772810896261821700,7.44082177734375,0.0005326317623257637,0.0006657897029072046,-0.0011984214652329683
1772810896271702300,7.450702392578125,-0.0005326317623257637,-0.0003994738217443228,0.0009321055840700865
1772810896281583000,7.4605830078125,0,0.00013315794058144093,-0.00013315794058144093
1772810896291464000,7.4704638671875,0.001597895286977291,0.00013315794058144093,-0.0006657897029072046
1772810896301344500,7.480344482421875,0.0005326317623257637,-0.0009321055840700865,-0.0006657897029072046
1772810896311225300,7.490225341796875,0,0.00013315794058144093,-0.00013315794058144093
1772810896321106200,7.500106201171875,-0.0005326317623257637,0.0011984214652329683,-0.00013315794058144093
1772810896330987000,7.509987060546875,-0.0005326317623257637,0.0011984214652329683,-0.00013315794058144093
1772810896340867600,7.51986767578125,0.0010652635246515274,0.0006657897029072046,-0.0006657897029072046
1772810896350748400,7.52974853515625,0,0.00013315794058144093,-0.0006657897029072046
1772810896360629200,7.539629150390625,0.0005326317623257637,0.0011984214652329683,0.0030626326333731413
1772810896370510000,7.549510009765625,0,0.00013315794058144093,-0.0006657897029072046
1772810896380390700,7.559390625,-0.0005326317623257637,0.0006657897029072046,-0.00013315794058144093
1772810896390271500,7.569271484375,0,-0.0025300008710473776,-0.00013315794058144093
1772810896400152300,7.57915234375,0,-0.0009321055840700865,0.0014647373463958502
1772810896410033200,7.589033203125,-0.0026631588116288185,-0.0009321055840700865,0.0003994738217443228
1772810896419913700,7.598913818359375,0,-0.0009321055840700865,0.0003994738217443228
1772810896429794600,7.608794677734375,0.0005326317623257637,0.0011984214652329683,-0.00013315794058144093
1772810896439675400,7.61867529296875,0,0.001731053227558732,-0.00013315794058144093
1772810896449556000,7.628555908203125,-0.0005326317623257637,-0.0009321055840700865,0.0009321055840700865
1772810896459436800,7.638436767578125,0,0.0011984214652329683,0.0003994738217443228
1772810896469317600,7.648317626953125,0,0.0011984214652329683,0.0009321055840700865
1772810896479198500,7.658198486328125,-0.0005326317623257637,-0.0003994738217443228,-0.0006657897029072046
1772810896489079000,7.6680791015625,-0.0010652635246515274,0.0006657897029072046,-0.001731053227558732
1772810896498960000,7.6779599609375,-0.0005326317623257637,0.0006657897029072046,-0.00013315794058144093
1772810896508840700,7.6878408203125,-0.0010652635246515274,0.00013315794058144093,0.0003994738217443228
1772810896518721500,7.697721435546875,0,0.0011984214652329683,-0.00013315794058144093
1772810896528602400,7.707602294921875,-0.001597895286977291,-0.0014647373463958502,0.0014647373463958502
1772810896538483200,7.717483154296875,0.002130527049303055,0.0027963167522102594,-0.00013315794058144093
1772810896548363800,7.72736376953125,-0.0010652635246515274,0.00013315794058144093,-0.0011984214652329683
1772810896558244600,7.73724462890625,0.001597895286977291,0.00013315794058144093,0.0003994738217443228
1772810896568125400,7.74712548828125,0.0010652635246515274,0.0006657897029072046,0.0009321055840700865
1772810896578006300,7.75700634765625,-0.0005326317623257637,0.0022636849898844957,0.0003994738217443228
1772810896587887000,7.76688720703125,-0.0010652635246515274,-0.0009321055840700865,-0.00013315794058144093
1772810896597768000,7.776767822265625,-0.0005326317623257637,-0.0003994738217443228,0.0003994738217443228
1772810896607648800,7.786648681640625,-0.0005326317623257637,-0.0003994738217443228,0.001997369108721614
1772810896617529600,7.796529541015625,0.0011984214652329683,-0.0010652635246515274,0
1772810896627410200,7.80641015625,0.0006657897029072046,0.0005326317623257637,-0.0010652635246515274
1772810896637291000,7.816291015625,0.00013315794058144093,0.0005326317623257637,0
1772810896647171800,7.826171875,-0.0009321055840700865,-0.0005326317623257637,0.0010652635246515274
1772810896657052700,7.836052734375,-0.0003994738217443228,0.0005326317623257637,-0.0010652635246515274
1772810896666933500,7.84593359375,0.00013315794058144093,-0.001597895286977291,0.0005326317623257637
1772810896676814300,7.855814453125,0.0006657897029072046,-0.0005326317623257637,0.001597895286977291
1772810896686695200,7.865695068359375,0.0022636849898844957,-0.002130527049303055,0
1772810896696576000,7.875575927734375,-0.0003994738217443228,-0.0005326317623257637,-0.0005326317623257637
1772810896706456800,7.885456787109375,-0.0003994738217443228,0,0.0005326317623257637
1772810896716337400,7.89533740234375,-0.0009321055840700865,0.001597895286977291,-0.0010652635246515274
1772810896726218200,7.90521826171875,0.00013315794058144093,0.0005326317623257637,0.0010652635246515274
1772810896736099000,7.91509912109375,0.0006657897029072046,0.001597895286977291,0
1772810896745980000,7.92497998046875,0.001731053227558732,0,0.0010652635246515274
1772810896755860700,7.93486083984375,0.00013315794058144093,0,-0.0005326317623257637
1772810896765741600,7.944741455078125,-0.0003994738217443228,-0.0005326317623257637,0.0010652635246515274
1772810896775622400,7.954622314453125,-0.0009321055840700865,-0.0005326317623257637,-0.0005326317623257637
1772810896785503200,7.964503173828125,-0.0003994738217443228,-0.0005326317623257637,-0.0005326317623257637
1772810896795383800,7.9743837890625,-0.0003994738217443228,-0.001597895286977291,0
1772810896805264600,7.9842646484375,-0.0014647373463958502,0.0010652635246515274,0
1772810896815145500,7.9941455078125,-0.0014647373463958502,0,0.001597895286977291
1772810896825026300,8.0040263671875,-0.0003994738217443228,0.0010652635246515274,0
1772810896834907100,8.0139072265625,-0.0009321055840700865,-0.001597895286977291,0.0005326317623257637
1772810896844788000,8.0237880859375,0.0006657897029072046,-0.0005326317623257637,-0.0005326317623257637
1772810896854668800,8.033668701171875,0.00013315794058144093,0,0.001597895286977291
1772810896864549600,8.043549560546875,0.0011984214652329683,0.0005326317623257637,-0.0005326317623257637
1772810896874430200,8.05343017578125,-0.0003994738217443228,0.0005326317623257637,0.001597895286977291
1772810896884311000,8.06331103515625,0.0022636849898844957,0,0.0010652635246515274
1772810896894191900,8.07319189453125,0.0011984214652329683,-0.0005326317623257637,0.0010652635246515274
1772810896904072700,8.08307275390625,0.00013315794058144093,0,0.001597895286977291
1772810896913953500,8.09295361328125,-0.0025300008710473776,0,0.0005326317623257637
1772810896923834400,8.10283447265625,0.0006657897029072046,-0.0026631588116288185,0
1772810896933715200,8.112715087890624,0.00013315794058144093,0.0005326317623257637,0.002130527049303055
1772810896953476900,8.132476806640625,0.00013315794058144093,-0.0005326317623257637,0.0005326317623257637
1772810896963357400,8.142357421875,0.0011984214652329683,0.0005326317623257637,-0.0005326317623257637
1772810896973238300,8.15223828125,-0.0003994738217443228,0,0.0010652635246515274
1772810896983119000,8.162119140625,-0.0009321055840700865,-0.0005326317623257637,0.0010652635246515274
1772810897002880800,8.181880859375,-0.0003994738217443228,-0.0010652635246515274,0.001597895286977291
1772810897012761600,8.19176171875,-0.0009321055840700865,-0.0010652635246515274,-0.0010652635246515274
1772810897022642400,8.201642333984376,0.0006657897029072046,0.0005326317623257637,-0.0005326317623257637
1772810897032523500,8.2115234375,-0.0014647373463958502,-0.0010652635246515274,-0.0005326317623257637
1772810897042404400,8.221404296875,-0.0003994738217443228,-0.0010652635246515274,0.0010652635246515274
1772810897052285200,8.23128515625,-0.0009321055840700865,0.002130527049303055,0.0005326317623257637
1772810897062166000,8.241166015625,0.0006657897029072046,0,-0.0005326317623257637
1772810897072046800,8.251046875,-0.0003994738217443228,0,0
1772810897081927700,8.260927734375,0.0006657897029072046,0.0005326317623257637,-0.0005326317623257637
1772810897091808500,8.27080859375,-0.001997369108721614,0,-0.0005326317623257637
1772810897101689600,8.280689697265625,-0.0003994738217443228,0.001597895286977291,0
1772810897111570400,8.2905703125,-0.0014647373463958502,-0.0010652635246515274,0.0010652635246515274
1772810897121451300,8.300451171875,0.0006657897029072046,0,0.001597895286977291
1772810897131332000,8.31033203125,0.00013315794058144093,0.001597895286977291,0
1772810897141213000,8.320212890625,-0.0003994738217443228,-0.0010652635246515274,-0.0010652635246515274
1772810897151093800,8.33009375,0.00013315794058144093,-0.001597895286977291,0.0005326317623257637
1772810897160974600,8.339974609375,0.0011984214652329683,-0.001597895286977291,0.0010652635246515274
1772810897170855700,8.349855712890625,-0.0003994738217443228,-0.0010652635246515274,0.0010652635246515274
1772810897180736500,8.359736572265625,0.00013315794058144093,-0.0010652635246515274,-0.0005326317623257637
1772810897190617300,8.369617431640625,-0.0009321055840700865,-0.0010652635246515274,0
1772810897200498200,8.379498291015626,0.0006657897029072046,0,-0.0005326317623257637
1772810897210379000,8.38937890625,0.0006657897029072046,0,0.001597895286977291
1772810897220259800,8.399259765625,-0.0014647373463958502,-0.0010652635246515274,0
1772810897230140700,8.409140625,-0.0003994738217443228,0.0010652635246515274,0
1772810897240021500,8.419021484375,-0.0009321055840700865,0.0005326317623257637,0
1772810897249902600,8.428902587890626,0.0006657897029072046,0.0010652635246515274,0.0010652635246515274
1772810897259783400,8.438783447265624,-0.0003994738217443228,0.001597895286977291,0.001597895286977291
1772810897269664300,8.448664306640625,0.001731053227558732,-0.0005326317623257637,0.0005326317623257637
1772810897279545000,8.458545166015625,-0.0003994738217443228,-0.0010652635246515274,0.0010652635246515274
1772810897289426000,8.468426025390626,0.0011984214652329683,0.0005326317623257637,0
1772810897299307000,8.47830712890625,0.00013315794058144093,0.0005326317623257637,0.0010652635246515274
1772810897309187800,8.488187744140625,-0.0003994738217443228,-0.0005326317623257637,0.0005326317623257637
1772810897319068700,8.498068603515625,-0.0003994738217443228,-0.0005326317623257637,0.0010652635246515274
1772810897328949500,8.507949462890625,0.0006657897029072046,-0.003728422336280346,0.0010652635246515274
1772810897338830300,8.517830322265626,-0.0003994738217443228,-0.0010652635246515274,0.0005326317623257637
1772810897348711200,8.527711181640624,0.0006657897029072046,0,-0.0010652635246515274
1772810897358592000,8.537592041015625,0.0006657897029072046,0.0010652635246515274,-0.001597895286977291
1772810897368472800,8.547472900390625,0.0006657897029072046,-0.0005326317623257637,0.0005326317623257637
1772810897378354000,8.55735400390625,0.0011984214652329683,-0.0005326317623257637,0
1772810897388234800,8.56723486328125,0.0006657897029072046,0.0010652635246515274,-0.0005326317623257637
1772810897398115600,8.577115478515625,0.0006657897029072046,-0.0005326317623257637,0.0005326317623257637
1772810897407996400,8.586996337890625,-0.0003994738217443228,0.002130527049303055,0.001597895286977291
1772810897417877200,8.596877197265625,-0.0014647373463958502,-0.0005326317623257637,0
1772810897427758000,8.606758056640626,0.0011984214652329683,-0.002130527049303055,0.001597895286977291
1772810897437639000,8.616638916015624,-0.001997369108721614,0,-0.0005326317623257637
1772810897447520000,8.62652001953125,0.0006657897029072046,0,0.0005326317623257637
1772810897457400800,8.63640087890625,0.0006657897029072046,0.0005326317623257637,0.0005326317623257637
1772810897467281700,8.64628173828125,0.0011984214652329683,-0.002130527049303055,0.0010652635246515274
1772810897477162500,8.65616259765625,0.0011984214652329683,-0.0010652635246515274,0
1772810897487043300,8.666043212890624,-0.0003994738217443228,0,0.0010652635246515274
1772810897496924200,8.675924072265625,0.0011984214652329683,-0.0005326317623257637,-0.0010652635246515274
1772810897506804700,8.6858046875,0.0011984214652329683,-0.001597895286977291,-0.0010652635246515274
1772810897516685300,8.695685302734375,-0.0009321055840700865,-0.0005326317623257637,0
1772810897526566000,8.70556591796875,-0.0003994738217443228,-0.0005326317623257637,0.0005326317623257637
1772810897536446700,8.71544677734375,-0.0003994738217443228,0.0005326317623257637,0
1772810897546327300,8.725327392578125,-0.0014647373463958502,-0.001597895286977291,0
1772810897556207900,8.735207763671875,-0.0003994738217443228,0.003195790573954582,0.0005326317623257637
1772810897566088400,8.74508837890625,0.0006657897029072046,-0.0010652635246515274,-0.0010652635246515274
1772810897575969000,8.754968994140626,0.0027963167522102594,0.0010652635246515274,0.0010652635246515274
1772810897585849600,8.764849609375,0.00013315794058144093,-0.0005326317623257637,0.0010652635246515274
1772810897595730200,8.774730224609375,0.00013315794058144093,0,0.0005326317623257637
1772810897605611000,8.784611083984375,0.00013315794058144093,-0.0005326317623257637,-0.0010652635246515274
1772810897615491600,8.79449169921875,-0.0003994738217443228,-0.0026631588116288185,0.0010652635246515274
1772810897625372200,8.8043720703125,0.00013315794058144093,0.0005326317623257637,0
1772810897635252700,8.814252685546874,0.0011984214652329683,-0.0005326317623257637,-0.0005326317623257637
1772810897645133300,8.82413330078125,0.0006657897029072046,-0.0010652635246515274,0.0005326317623257637
1772810897655014000,8.834013916015625,-0.0009321055840700865,0.0005326317623257637,0
1772810897664894500,8.84389453125,0.0011984214652329683,0.001597895286977291,0
1772810897674775000,8.853775146484375,-0.0003994738217443228,-0.0010652635246515274,-0.0010652635246515274
1772810897684655900,8.86365576171875,-0.0003994738217443228,0.0005326317623257637,0.0005326317623257637
1772810897694536400,8.873536376953124,-0.0009321055840700865,0.0005326317623257637,-0.0005326317623257637
1772810897704417000,8.8834169921875,0.0006657897029072046,0.0005326317623257637,0.001597895286977291
1772810897714297600,8.893297607421875,0.00013315794058144093,0,0
1772810897724178200,8.90317822265625,-0.0009321055840700865,0.0010652635246515274,-0.0010652635246515274
1772810897734058800,8.913058837890626,0.0006657897029072046,0.0010652635246515274,0.0010652635246515274
1772810897743939300,8.922939208984374,0.00013315794058144093,-0.001597895286977291,0.0005326317623257637
1772810897753820200,8.932820068359375,0.0006657897029072046,0,0
1772810897763700700,8.94270068359375,-0.0003994738217443228,0,0
1772810897773581300,8.952581298828125,0.0006657897029072046,0.001597895286977291,-0.0010652635246515274
1772810897783462000,8.9624619140625,-0.0009321055840700865,0.002130527049303055,0.0005326317623257637
1772810897793342500,8.972342529296874,0.00013315794058144093,0,0.0005326317623257637
1772810897803223000,8.98222314453125,0.00013315794058144093,0,0
1772810897813103600,8.992103515625,0.00013315794058144093,0.0010652635246515274,0.0005326317623257637
1772810897822984400,9.001984375,-0.0003994738217443228,0.0010652635246515274,0.002130527049303055
1772810897832865000,9.011864990234375,0.00013315794058144093,0,0.0005326317623257637
1772810897842745600,9.02174560546875,-0.0014647373463958502,-0.0005326317623257637,0.0005326317623257637
1772810897852626200,9.031626220703124,0.00013315794058144093,-0.0005326317623257637,-0.0005326317623257637
1772810897862506800,9.0415068359375,0.0011984214652329683,-0.002130527049303055,-0.0010652635246515274
1772810897872387300,9.05138720703125,0.0006657897029072046,-0.0005326317623257637,0.0005326317623257637
1772810897882268000,9.061267822265625,0.0006657897029072046,0.0005326317623257637,0.0010652635246515274
1772810897892148500,9.0711484375,0.0006657897029072046,-0.001597895286977291,0.0005326317623257637
1772810897902029300,9.081029296875,0.00013315794058144093,0.001597895286977291,0
1772810897911910000,9.090909912109375,-0.0003994738217443228,-0.0005326317623257637,0
1772810897921790500,9.10079052734375,0.0022636849898844957,-0.0005326317623257637,-0.002130527049303055
1772810897931671000,9.110671142578125,-0.0009321055840700865,-0.001597895286977291,0.0010652635246515274
1772810897941551600,9.120551513671876,-0.0003994738217443228,-0.0005326317623257637,0
1772810897951432200,9.13043212890625,0.0006657897029072046,0.0010652635246515274,-0.0005326317623257637
1772810897961313000,9.14031298828125,0.0006657897029072046,-0.0010652635246515274,0.0026631588116288185
1772810897971193600,9.150193603515625,0.001731053227558732,-0.0010652635246515274,-0.0010652635246515274
1772810897981074200,9.16007421875,0.0011984214652329683,0.0005326317623257637,0.0010652635246515274
1772810897990954800,9.169954833984375,-0.0009321055840700865,0,0.0005326317623257637
1772810898000835600,9.179835693359376,0.0011984214652329683,0,0.0005326317623257637
1772810898010716400,9.18971630859375,0.00013315794058144093,-0.001597895286977291,0.0005326317623257637
1772810898020597500,9.199597412109375,-0.0009321055840700865,-0.0010652635246515274,0
1772810898030478300,9.209478271484375,0.0006657897029072046,-0.0005326317623257637,0.0010652635246515274
1772810898040359400,9.219359375,-0.0003994738217443228,-0.001597895286977291,-0.0005326317623257637
1772810898050240300,9.229240234375,-0.0003994738217443228,0,-0.0010652635246515274
1772810898060121300,9.239121337890625,0.0011984214652329683,-0.0010652635246515274,0
1772810898070002200,9.249002197265625,-0.0009321055840700865,0.0005326317623257637,0
1772810898079883300,9.25888330078125,0.0006657897029072046,0.0005326317623257637,-0.0005326317623257637
1772810898089764400,9.268764404296874,-0.0003994738217443228,0.001597895286977291,-0.0005326317623257637
1772810898099645200,9.278645263671875,0.0006657897029072046,0,0.0010652635246515274
1772810898109526300,9.2885263671875,0.0011984214652329683,0.0010652635246515274,0
1772810898119407000,9.298406982421875,0.0006657897029072046,-0.0005326317623257637,0.0005326317623257637
1772810898129288200,9.3082880859375,0.0006657897029072046,-0.0010652635246515274,0
1772810898139169000,9.3181689453125,-0.0003994738217443228,0.0010652635246515274,0
1772810898149050000,9.328050048828125,0.0011984214652329683,0,-0.0005326317623257637
1772810898158931000,9.337930908203125,-0.0003994738217443228,-0.0010652635246515274,0.0005326317623257637
1772810898168812000,9.34781201171875,0.001731053227558732,0,0
1772810898178693000,9.357693115234374,0.0011984214652329683,-0.0005326317623257637,-0.0005326317623257637
1772810898188574000,9.367573974609375,0.00013315794058144093,0.0005326317623257637,0
1772810898198455000,9.377455078125,-0.0003994738217443228,-0.001597895286977291,0.0010652635246515274
1772810898208336000,9.3873359375,-0.0009321055840700865,-0.001597895286977291,-0.0010652635246515274
1772810898218217000,9.397217041015624,0.0006657897029072046,-0.002130527049303055,0.0010652635246515274
1772810898228097800,9.407097900390625,-0.0009321055840700865,0.0010652635246515274,0.0005326317623257637
1772810898237979000,9.416978759765625,0.0011984214652329683,0,0
1772810898247859700,9.426859619140625,0.00013315794058144093,-0.0010652635246515274,-0.0005326317623257637
1772810898257740800,9.43674072265625,0.00013315794058144093,0.001597895286977291,-0.0010652635246515274
1772810898267621600,9.44662158203125,-0.0014647373463958502,0.0005326317623257637,-0.001597895286977291
1772810898277502700,9.456502685546875,0.00013315794058144093,0,0.0005326317623257637
1772810898287383800,9.4663837890625,0.0022636849898844957,-0.0005326317623257637,0.0026631588116288185
1772810898297264600,9.4762646484375,0.00013315794058144093,0.0010652635246515274,0
1772810898307145700,9.486145751953124,-0.0009321055840700865,-0.0010652635246515274,0.0010652635246515274
1772810898317026600,9.496026611328125,-0.0009321055840700865,-0.0005326317623257637,0
1772810898326907600,9.50590771484375,0.0006657897029072046,0,-0.0005326317623257637
1772810898336788500,9.51578857421875,0.0011984214652329683,0,0.0005326317623257637
1772810898346669600,9.525669677734374,0.00013315794058144093,-0.0005326317623257637,0.0005326317623257637
1772810898356550400,9.53555029296875,0.0006657897029072046,-0.0005326317623257637,-0.0010652635246515274
1772810898366431500,9.545431396484375,-0.0014647373463958502,-0.0026631588116288185,0
1772810898376312600,9.5553125,0.00013315794058144093,0.0026631588116288185,0
1772810898386193400,9.565193359375,0.0006657897029072046,-0.0005326317623257637,0.0005326317623257637
1772810898396074500,9.575074462890624,0.001597895286977291,-0.0003994738217443228,0.00026631588116288185
1772810898405955300,9.584955322265625,0.0010652635246515274,0.0011984214652329683,-0.0013315794058144093
1772810898415836400,9.59483642578125,-0.0005326317623257637,0.0006657897029072046,-0.0013315794058144093
1772810898425717200,9.60471728515625,-0.0005326317623257637,-0.0003994738217443228,-0.0007989476434886456
1772810898435598300,9.614598388671874,0,0.00013315794058144093,-0.0013315794058144093
1772810898445479200,9.624479248046875,0,-0.0003994738217443228,-0.0007989476434886456
1772810898455360300,9.6343603515625,0.002130527049303055,0.001731053227558732,-0.0013315794058144093
1772810898465241000,9.644240966796875,-0.0005326317623257637,-0.0003994738217443228,-0.0013315794058144093
1772810898475122200,9.6541220703125,-0.0005326317623257637,0.001731053227558732,0.00026631588116288185
1772810898485003000,9.6640029296875,-0.0010652635246515274,0.001731053227558732,0.00026631588116288185
1772810898494884000,9.673884033203125,0.0010652635246515274,-0.0003994738217443228,-0.00026631588116288185
1772810898504765000,9.683764892578125,0,-0.001997369108721614,-0.00026631588116288185
1772810898514646000,9.69364599609375,0,-0.0014647373463958502,-0.00026631588116288185
1772810898524526800,9.70352685546875,0,0.00013315794058144093,-0.00026631588116288185
1772810898534407700,9.71340771484375,-0.0010652635246515274,-0.001997369108721614,-0.0013315794058144093
1772810898544288500,9.72328857421875,-0.0010652635246515274,0.0011984214652329683,-0.0013315794058144093
1772810898554169600,9.733169677734375,0,-0.0009321055840700865,-0.0013315794058144093
1772810898564050400,9.743050537109376,0.0005326317623257637,-0.0003994738217443228,-0.0007989476434886456
1772810898573931300,9.75293115234375,-0.0005326317623257637,0.001731053227558732,-0.0013315794058144093
1772810898583812000,9.76281201171875,0.0010652635246515274,-0.0003994738217443228,-0.0007989476434886456
1772810898593693200,9.772693115234375,0.0005326317623257637,0.00013315794058144093,-0.00026631588116288185
1772810898603574000,9.782573974609376,0.0005326317623257637,-0.0014647373463958502,0.00026631588116288185
1772810898613454800,9.792454833984374,0,0.001731053227558732,-0.00026631588116288185
1772810898623335700,9.802335693359375,-0.002130527049303055,-0.0003994738217443228,-0.00026631588116288185
1772810898633216800,9.812216796875,0,-0.0014647373463958502,0.00026631588116288185
1772810898643097600,9.82209765625,0.0005326317623257637,0.0006657897029072046,0.0007989476434886456
1772810898652978400,9.831978515625,-0.0005326317623257637,-0.0009321055840700865,0.0007989476434886456
1772810898662859300,9.841859375,0.001597895286977291,0.0006657897029072046,0.00026631588116288185
1772810898672740400,9.851740234375,-0.0005326317623257637,-0.0003994738217443228,0.00026631588116288185
1772810898682621200,9.86162109375,0.0010652635246515274,0.0011984214652329683,-0.0007989476434886456
1772810898692502000,9.871501953125,0.001597895286977291,-0.0009321055840700865,-0.0007989476434886456
1772810898702383000,9.881383056640624,-0.0005326317623257637,0.0006657897029072046,0.00026631588116288185
1772810898712264000,9.891263916015625,0,0.00013315794058144093,-0.0013315794058144093
1772810898722144800,9.901144775390625,0,0.0006657897029072046,-0.0013315794058144093
1772810898732025600,9.911025634765625,0,-0.0014647373463958502,0.00026631588116288185
1772810898741906700,9.92090673828125,0.001597895286977291,0.0006657897029072046,-0.00026631588116288185
1772810898751787500,9.93078759765625,0.0005326317623257637,-0.0014647373463958502,-0.00026631588116288185
1772810898761668400,9.94066845703125,0,-0.0009321055840700865,-0.00026631588116288185
1772810898771549200,9.950549072265625,0.0005326317623257637,-0.0009321055840700865,-0.00026631588116288185
1772810898781430300,9.96043017578125,0.001597895286977291,0.00013315794058144093,-0.0013315794058144093
1772810898791311000,9.97031103515625,0.0005326317623257637,-0.0003994738217443228,-0.00026631588116288185
1772810898801192000,9.98019189453125,-0.001597895286977291,0.0006657897029072046,-0.0007989476434886456
1772810898811072800,9.99007275390625,0.0010652635246515274,-0.0014647373463958502,-0.0007989476434886456
1772810898820953900,9.999953857421875,0,0.0006657897029072046,-0.001864211168140173
1772810898830834700,10.009834716796876,0.0010652635246515274,-0.0014647373463958502,-0.0007989476434886456
1772810898840715500,10.019715576171874,0.0005326317623257637,0.0006657897029072046,-0.0007989476434886456
1772810898850596400,10.029596435546875,0.0005326317623257637,0.00013315794058144093,0.00026631588116288185
1772810898860477400,10.0394775390625,0,0.0011984214652329683,-0.00026631588116288185
1772810898870358300,10.049358154296876,0.0005326317623257637,0.00013315794058144093,-0.0007989476434886456
1772810898880239000,10.059239013671874,0.0010652635246515274,-0.001997369108721614,-0.00026631588116288185
1772810898890120000,10.069119873046875,0.0005326317623257637,-0.0003994738217443228,-0.0007989476434886456
1772810898900001000,10.0790009765625,0,-0.0030626326333731413,-0.0013315794058144093
1772810898909881900,10.0888818359375,0.0005326317623257637,-0.0030626326333731413,0.0007989476434886456
1772810898919762700,10.0987626953125,0.0010652635246515274,-0.0014647373463958502,-0.0007989476434886456
1772810898929643800,10.108643798828124,-0.001597895286977291,-0.0009321055840700865,-0.00026631588116288185
1772810898939524600,10.118524658203125,-0.0005326317623257637,-0.0014647373463958502,-0.00026631588116288185
1772810898949405400,10.128405517578125,0.0005326317623257637,-0.0025300008710473776,-0.00026631588116288185
1772810898959286300,10.138286376953126,0.002130527049303055,-0.0009321055840700865,0.0013315794058144093
1772810898969167400,10.14816748046875,0,0.001731053227558732,-0.0007989476434886456
1772810898979048200,10.158048095703125,0.001597895286977291,-0.0003994738217443228,0.0013315794058144093
1772810898988929000,10.167928955078125,-0.0005326317623257637,-0.0009321055840700865,-0.0007989476434886456
1772810898998810000,10.17781005859375,-0.001597895286977291,-0.0025300008710473776,-0.001864211168140173
1772810899008691700,10.187691650390626,-0.0010652635246515274,-0.0009321055840700865,-0.0007989476434886456
1772810899018573300,10.1975732421875,-0.001597895286977291,0.00013315794058144093,-0.00026631588116288185
1772810899028455000,10.207454833984375,0,-0.0003994738217443228,-0.0007989476434886456
1772810899038336500,10.21733642578125,0.0005326317623257637,0.0011984214652329683,0.0007989476434886456
1772810899048218000,10.227218017578124,-0.001597895286977291,0.0006657897029072046,0.00026631588116288185
1772810899058099700,10.237099609375,-0.0005326317623257637,-0.0014647373463958502,-0.0007989476434886456
1772810899067981300,10.246981201171875,-0.0005326317623257637,0.0006657897029072046,0.00026631588116288185
1772810899077863000,10.25686279296875,0,-0.0003994738217443228,0.00026631588116288185
1772810899087744500,10.26674462890625,-0.0005326317623257637,-0.0014647373463958502,0.00026631588116288185
1772810899097626000,10.276626220703125,0.0005326317623257637,-0.001997369108721614,-0.00026631588116288185
1772810899107507700,10.2865078125,0.0010652635246515274,0.0011984214652329683,-0.0007989476434886456
1772810899117389300,10.296389404296875,0.0010652635246515274,-0.0003994738217443228,-0.0007989476434886456
1772810899127271000,10.30627099609375,0,-0.001997369108721614,-0.0013315794058144093
1772810899137152500,10.316152587890626,-0.0010652635246515274,-0.0003994738217443228,-0.00026631588116288185
1772810899147034000,10.3260341796875,-0.0005326317623257637,-0.0014647373463958502,-0.00026631588116288185
1772810899156915700,10.335915771484375,0,0.00013315794058144093,0.0013315794058144093
1772810899166797300,10.34579736328125,-0.0005326317623257637,0.0006657897029072046,-0.0023968429304659367
1772810899176679000,10.355678955078124,-0.0005326317623257637,0.0011984214652329683,0.00026631588116288185
1772810899186560500,10.365560546875,0,0.00013315794058144093,0.00026631588116288185
1772810899196442000,10.375442138671875,0.001597895286977291,0.00013315794058144093,-0.0013315794058144093
1772810899206323700,10.38532373046875,-0.0010652635246515274,0.0006657897029072046,0.0007989476434886456
1772810899216205300,10.395205322265625,0,-0.0009321055840700865,-0.00026631588116288185
1772810899226087000,10.4050869140625,-0.0005326317623257637,0.0006657897029072046,0.00026631588116288185
1772810899235968500,10.414968505859376,0.0005326317623257637,-0.0003994738217443228,0.00026631588116288185
1772810899245850000,10.42485009765625,-0.0005326317623257637,0.00013315794058144093,-0.0013315794058144093
1772810899255731700,10.434731689453125,0.0010652635246515274,-0.0003994738217443228,-0.00026631588116288185
1772810899265613300,10.44461328125,-0.0010652635246515274,0.0011984214652329683,0.00026631588116288185
1772810899275495000,10.454494873046874,-0.0010652635246515274,-0.0014647373463958502,-0.0007989476434886456
1772810899285376500,10.46437646484375,-0.0005326317623257637,-0.0025300008710473776,-0.0007989476434886456
1772810899295258000,10.474258056640625,-0.0010652635246515274,0.00013315794058144093,0.001864211168140173
1772810899305139700,10.4841396484375,-0.0005326317623257637,-0.0009321055840700865,-0.0007989476434886456
1772810899315021300,10.494021240234375,-0.0005326317623257637,-0.0014647373463958502,-0.00026631588116288185
1772810899324903000,10.50390283203125,0.002130527049303055,0.0006657897029072046,-0.00026631588116288185
1772810899334784500,10.513784423828126,0,0.0011984214652329683,-0.0013315794058144093
1772810899344666000,10.523666015625,0,0.0006657897029072046,0.0007989476434886456
1772810899354547700,10.533547607421875,0.0010652635246515274,-0.001997369108721614,-0.00026631588116288185
1772810899364429300,10.54342919921875,0,0.0006657897029072046,0.00026631588116288185
1772810899374311000,10.553310791015624,0,-0.0009321055840700865,0.0007989476434886456
1772810899384192500,10.563192626953125,-0.0010652635246515274,-0.0003994738217443228,-0.0007989476434886456
1772810899394074000,10.57307421875,0.0005326317623257637,0.00013315794058144093,-0.0013315794058144093
1772810899403955700,10.582955810546874,0.0010652635246515274,-0.0014647373463958502,0.00026631588116288185
1772810899413837300,10.59283740234375,-0.0005326317623257637,0.00013315794058144093,-0.00026631588116288185
1772810899423719000,10.602718994140625,-0.0005326317623257637,-0.0003994738217443228,0.0007989476434886456
1772810899433600500,10.6126005859375,0.0005326317623257637,-0.0014647373463958502,-0.00026631588116288185
1772810899443482000,10.622482177734375,0.001597895286977291,-0.0003994738217443228,0.0007989476434886456
1772810899453363700,10.63236376953125,0.0005326317623257637,-0.0014647373463958502,-0.00026631588116288185
1772810899463245300,10.642245361328126,0,0.0011984214652329683,-0.0007989476434886456
1772810899473127000,10.652126953125,0.0005326317623257637,-0.0003994738217443228,0.0007989476434886456
1772810899483008500,10.662008544921875,0,0.0011984214652329683,0.0007989476434886456
1772810899492890000,10.67189013671875,0,0.001731053227558732,0.0013315794058144093
1772810899502771200,10.681771240234376,0,0.0006657897029072046,-0.0007989476434886456
1772810899512652300,10.69165234375,-0.0010652635246515274,-0.001997369108721614,0.0013315794058144093
1772810899522533400,10.701533447265625,-0.0005326317623257637,0.0011984214652329683,-0.00026631588116288185
1772810899532414200,10.711414306640625,0.0005326317623257637,0.0011984214652329683,-0.00026631588116288185
1772810899542295300,10.72129541015625,-0.0005326317623257637,-0.0009321055840700865,-0.0007989476434886456
1772810899552176400,10.73117626953125,0.0010652635246515274,0.02197105996310711,0.010918950662016869
1772810899562057200,10.74105712890625,0.0005326317623257637,-0.0025300008710473776,-0.00026631588116288185
1772810899571938300,10.750938232421875,0.0005326317623257637,0.015046847052872181,0.007723160553723574
1772810899581819100,10.760819091796876,0,0.004926843568682671,0.003994738217443228
1772810899591700200,10.7707001953125,0,0.005459475331008434,0.001864211168140173
1772810899601581300,10.780581298828125,0.0005326317623257637,0.004926843568682671,0.0007989476434886456
1772810899611462100,10.790462158203125,0.0010652635246515274,0.00013315794058144093,-0.0007989476434886456
1772810899621343200,10.80034326171875,0.0010652635246515274,-0.0009321055840700865,-0.00026631588116288185
1772810899631224300,10.810224365234374,-0.0005326317623257637,-0.007856318727135658,-0.003994738217443228
1772810899641105200,10.820105224609375,0.0010652635246515274,-0.013182636350393295,-0.006125265266746283
1772810899650986200,10.829986328125,0.0005326317623257637,-0.017443690448999405,-0.006657897029072046
1772810899660867000,10.8398671875,0.0005326317623257637,-0.008921582251787186,-0.003462106455117464
1772810899670748200,10.849748046875,0.001597895286977291,-0.0009321055840700865,-0.0007989476434886456
1772810899680629200,10.859629150390624,0.0010652635246515274,-0.0014647373463958502,0.0007989476434886456
