time,seconds_elapsed,z,y,x
1772810386053354000,0.17935400390625,0.00013315794058144093,0.004127896390855312,-0.0026631588116288185
1772810386063234600,0.189234619140625,-0.0003994738217443228,0.0014647373463958502,-0.001597895286977291
1772810386073115100,0.199115234375,0.00013315794058144093,0.0003994738217443228,0.001597895286977291
1772810386082995700,0.20899560546875,0.0006657897029072046,0.0003994738217443228,-0.0005326317623257637
1772810386092876300,0.218876220703125,0.00013315794058144093,0.001997369108721614,-0.0010652635246515274
1772810386102756900,0.2287568359375,-0.0014647373463958502,0.0003994738217443228,0.0005326317623257637
1772810386112637400,0.238637451171875,0.00013315794058144093,-0.0006657897029072046,-0.0005326317623257637
1772810386122518000,0.24851806640625,-0.0009321055840700865,0.0003994738217443228,0.0010652635246515274
1772810386132398300,0.2583984375,0.00013315794058144093,0.0009321055840700865,0.0010652635246515274
1772810386142279000,0.26827880859375,0.0006657897029072046,-0.0011984214652329683,0
1772810386152159500,0.278159423828125,-0.0003994738217443228,-0.00013315794058144093,-0.0010652635246515274
1772810386162040000,0.2880400390625,-0.0003994738217443228,-0.0006657897029072046,-0.0005326317623257637
1772810386171920600,0.297920654296875,-0.0003994738217443228,-0.00013315794058144093,-0.0005326317623257637
1772810386181801200,0.30780126953125,0.00013315794058144093,0.0003994738217443228,0.0005326317623257637
1772810386191681800,0.317681884765625,-0.0009321055840700865,0.0003994738217443228,0.0005326317623257637
1772810386201562400,0.327562255859375,0.001731053227558732,0.0014647373463958502,0
1772810386211442700,0.337442626953125,-0.0009321055840700865,-0.001731053227558732,0.0026631588116288185
1772810386221323300,0.3473232421875,-0.001997369108721614,0.0009321055840700865,-0.0005326317623257637
1772810386231203800,0.357203857421875,-0.0003994738217443228,-0.0006657897029072046,0.001597895286977291
1772810386241084400,0.36708447265625,0.0006657897029072046,0.0003994738217443228,0.0010652635246515274
1772810386250965000,0.376965087890625,-0.0014647373463958502,-0.0006657897029072046,-0.001597895286977291
1772810386260845600,0.386845458984375,0.001731053227558732,-0.0011984214652329683,-0.0005326317623257637
1772810386270726100,0.39672607421875,-0.0003994738217443228,-0.0006657897029072046,-0.0010652635246515274
1772810386280606700,0.406606689453125,-0.0003994738217443228,0.0014647373463958502,-0.0005326317623257637
1772810386290487300,0.4164873046875,0.001731053227558732,-0.0006657897029072046,0.0010652635246515274
1772810386300368000,0.426367919921875,-0.0014647373463958502,0.0003994738217443228,-0.0010652635246515274
1772810386310248400,0.43624853515625,0.001731053227558732,0.0014647373463958502,0.0010652635246515274
1772810386320128800,0.446128662109375,0.00013315794058144093,-0.00013315794058144093,0
1772810386330009300,0.45600927734375,0.0006657897029072046,0.0003994738217443228,0
1772810386339890000,0.465889892578125,0.00013315794058144093,-0.0011984214652329683,0
1772810386349770500,0.4757705078125,-0.0014647373463958502,-0.00013315794058144093,0
1772810386359651000,0.485651123046875,-0.0009321055840700865,-0.0006657897029072046,-0.0005326317623257637
1772810386369531600,0.49553173828125,0.00013315794058144093,-0.001731053227558732,-0.0005326317623257637
1772810386379412200,0.505412109375,-0.0003994738217443228,-0.00013315794058144093,0.0010652635246515274
1772810386389292800,0.515292724609375,-0.0003994738217443228,-0.00013315794058144093,0.0005326317623257637
1772810386399173400,0.52517333984375,-0.0009321055840700865,0.0003994738217443228,0.001597895286977291
1772810386409053700,0.5350537109375,0.00013315794058144093,-0.00013315794058144093,-0.0010652635246515274
1772810386418934300,0.544934326171875,0.00013315794058144093,-0.0006657897029072046,-0.0005326317623257637
1772810386428814800,0.55481494140625,0.0011984214652329683,0.0003994738217443228,0
1772810386438695400,0.5646953125,0.0011984214652329683,0.0009321055840700865,0.0010652635246515274
1772810386448576000,0.574575927734375,0.0011984214652329683,-0.00013315794058144093,-0.0010652635246515274
1772810386458456600,0.58445654296875,0.0011984214652329683,0.0025300008710473776,-0.0005326317623257637
1772810386468337200,0.594337158203125,-0.0009321055840700865,0.0003994738217443228,0
1772810386478217700,0.6042177734375,0.0011984214652329683,0.0003994738217443228,0
1772810386488098000,0.61409814453125,-0.0009321055840700865,0.0003994738217443228,0.0010652635246515274
1772810386497978600,0.623978515625,0.00013315794058144093,-0.00013315794058144093,-0.0010652635246515274
1772810386507859000,0.63385888671875,-0.0003994738217443228,0.0003994738217443228,0.0005326317623257637
1772810386517739300,0.6437392578125,-0.0014647373463958502,-0.0006657897029072046,0.0010652635246515274
1772810386527619800,0.653619873046875,-0.0003994738217443228,-0.0006657897029072046,0.0005326317623257637
1772810386537500200,0.663500244140625,-0.0003994738217443228,0.0009321055840700865,0.0010652635246515274
1772810386547380500,0.67338037109375,-0.0009321055840700865,-0.00013315794058144093,0
1772810386557260800,0.6832607421875,-0.0003994738217443228,0.001997369108721614,-0.0005326317623257637
1772810386567141000,0.69314111328125,0.00013315794058144093,0.0003994738217443228,0
1772810386577021400,0.703021484375,0.00013315794058144093,-0.0006657897029072046,0
1772810386586901800,0.71290185546875,0.00013315794058144093,-0.00013315794058144093,-0.0005326317623257637
1772810386596782300,0.7227822265625,0.0006657897029072046,0.0025300008710473776,0.0005326317623257637
1772810386606662700,0.73266259765625,0.00013315794058144093,0.0009321055840700865,0
1772810386616543000,0.74254296875,0.00013315794058144093,0.0009321055840700865,0
1772810386626423300,0.75242333984375,-0.0003994738217443228,0.0014647373463958502,-0.001597895286977291
1772810386636303600,0.7623037109375,-0.0009321055840700865,-0.001731053227558732,0
1772810386646184000,0.772183837890625,-0.0003994738217443228,0.0009321055840700865,-0.0005326317623257637
1772810386656064300,0.782064208984375,-0.0009321055840700865,-0.00013315794058144093,0
1772810386665944600,0.791944580078125,-0.0009321055840700865,0.0009321055840700865,0
1772810386675825200,0.8018251953125,-0.0014647373463958502,-0.0006657897029072046,0.0005326317623257637
1772810386685705500,0.81170556640625,-0.0003994738217443228,-0.0006657897029072046,0.0010652635246515274
1772810386695585800,0.821585693359375,-0.0014647373463958502,-0.0011984214652329683,0.0010652635246515274
1772810386705466000,0.831466064453125,0.0011984214652329683,-0.0011984214652329683,0.0005326317623257637
1772810386715346400,0.841346435546875,-0.0009321055840700865,0.0003994738217443228,0
1772810386725226800,0.851226806640625,-0.0009321055840700865,0.0014647373463958502,0
1772810386735107000,0.861107177734375,0.0006657897029072046,0.0009321055840700865,0
1772810386744987600,0.870987548828125,0.0011984214652329683,-0.0006657897029072046,-0.0010652635246515274
1772810386754868000,0.880867919921875,0.001731053227558732,-0.0006657897029072046,0.0026631588116288185
1772810386764748300,0.890748291015625,-0.0003994738217443228,0.001997369108721614,-0.0005326317623257637
1772810386774628600,0.900628662109375,-0.0003994738217443228,-0.0006657897029072046,0.0005326317623257637
1772810386784509000,0.910509033203125,0.00013315794058144093,-0.0011984214652329683,-0.0010652635246515274
1772810386794389200,0.92038916015625,0.0006657897029072046,-0.0011984214652329683,0.0005326317623257637
1772810386804269600,0.93026953125,0.0011984214652329683,0.0003994738217443228,0
1772810386814150000,0.94014990234375,0.0006657897029072046,0.0014647373463958502,-0.0010652635246515274
1772810386824030500,0.950030517578125,-0.0009321055840700865,-0.0011984214652329683,0
1772810386833910800,0.959910888671875,0.00013315794058144093,-0.001731053227558732,0.0010652635246515274
1772810386843791000,0.969791015625,-0.0003994738217443228,0.0003994738217443228,0.0005326317623257637
1772810386853671400,0.97967138671875,0.00013315794058144093,-0.0006657897029072046,-0.0026631588116288185
1772810386863551700,0.9895517578125,-0.0003994738217443228,-0.00013315794058144093,0
1772810386873432000,0.99943212890625,-0.0014647373463958502,0.0009321055840700865,-0.0005326317623257637
1772810386883312400,1.0093125,0.00013315794058144093,0.001997369108721614,-0.002130527049303055
1772810386893193000,1.01919287109375,-0.0003994738217443228,-0.0022636849898844957,-0.0005326317623257637
1772810386903073300,1.0290732421875,0.0006657897029072046,0.0009321055840700865,-0.0005326317623257637
1772810386912953600,1.03895361328125,-0.0003994738217443228,-0.00013315794058144093,-0.002130527049303055
1772810386922834000,1.048833984375,0.00013315794058144093,0.0014647373463958502,0
1772810386932714200,1.05871435546875,0.0006657897029072046,0.0009321055840700865,0
1772810386942594600,1.068594482421875,0.00013315794058144093,-0.00013315794058144093,-0.0005326317623257637
1772810386952475000,1.078474853515625,-0.0003994738217443228,0.0009321055840700865,0
1772810386962355200,1.088355224609375,-0.0014647373463958502,0.0014647373463958502,-0.001597895286977291
1772810386972235800,1.09823583984375,-0.0009321055840700865,-0.00013315794058144093,0.0005326317623257637
1772810386982116000,1.1081162109375,-0.0025300008710473776,-0.001731053227558732,0.0005326317623257637
1772810386991996400,1.117996337890625,-0.0003994738217443228,-0.00013315794058144093,0
1772810387001876500,1.12787646484375,-0.0009321055840700865,-0.00013315794058144093,0.001597895286977291
1772810387011756300,1.13775634765625,0.0006657897029072046,-0.0022636849898844957,-0.0010652635246515274
1772810387021636400,1.14763623046875,-0.0003994738217443228,-0.00013315794058144093,0.0010652635246515274
1772810387031516200,1.15751611328125,0.0006657897029072046,-0.003328948514536023,-0.001597895286977291
1772810387041396200,1.167396240234375,-0.0003994738217443228,-0.0006657897029072046,0
1772810387051276000,1.177276123046875,0.0006657897029072046,-0.0006657897029072046,0.0005326317623257637
1772810387061156000,1.187156005859375,-0.0003994738217443228,-0.00013315794058144093,0
1772810387071036000,1.197035888671875,-0.0014647373463958502,0.0003994738217443228,0.0005326317623257637
1772810387080915700,1.206915771484375,-0.0003994738217443228,0.0003994738217443228,-0.0010652635246515274
1772810387090795800,1.216795654296875,0.0006657897029072046,-0.0011984214652329683,0
1772810387100675800,1.22667578125,-0.0003994738217443228,-0.00013315794058144093,0.002130527049303055
1772810387110555600,1.2365556640625,0.0006657897029072046,0.001997369108721614,-0.0010652635246515274
1772810387120435500,1.246435546875,0.00026631588116288185,-0.001864211168140173,-0.0010652635246515274
1772810387130315500,1.2563154296875,0.0013315794058144093,-0.00026631588116288185,-0.0005326317623257637
1772810387140195300,1.2661953125,0.00026631588116288185,-0.001864211168140173,-0.0010652635246515274
1772810387150075400,1.276075439453125,0.00026631588116288185,-0.00026631588116288185,0.0010652635246515274
1772810387159955200,1.285955078125,0.00026631588116288185,-0.00026631588116288185,0.0005326317623257637
1772810387169835300,1.295835205078125,0.00026631588116288185,-0.0013315794058144093,0.0005326317623257637
1772810387179715000,1.305715087890625,0.001864211168140173,0.0007989476434886456,0.0005326317623257637
1772810387189595100,1.31559521484375,-0.00026631588116288185,0.0007989476434886456,0
1772810387199475000,1.325474853515625,0.001864211168140173,0.0007989476434886456,0.0005326317623257637
1772810387209355000,1.33535498046875,0.0007989476434886456,0.0013315794058144093,0.0005326317623257637
1772810387219234800,1.34523486328125,-0.0007989476434886456,-0.00026631588116288185,0.0005326317623257637
1772810387229115000,1.355114990234375,0.00026631588116288185,-0.0007989476434886456,0
1772810387238994700,1.36499462890625,-0.00026631588116288185,0.0023968429304659367,-0.0005326317623257637
1772810387248874800,1.374874755859375,-0.001864211168140173,0.0013315794058144093,-0.0005326317623257637
1772810387258754600,1.384754638671875,-0.0007989476434886456,0.0007989476434886456,-0.001597895286977291
1772810387268634400,1.39463427734375,0.00026631588116288185,-0.0013315794058144093,0
1772810387288394200,1.414394287109375,-0.00026631588116288185,0.0007989476434886456,-0.0005326317623257637
1772810387298274300,1.4242744140625,0.0007989476434886456,0.0013315794058144093,0.0010652635246515274
1772810387308154000,1.434154052734375,0.00026631588116288185,-0.00026631588116288185,-0.0010652635246515274
1772810387318034200,1.4440341796875,-0.00026631588116288185,-0.0007989476434886456,0
1772810387327914000,1.4539140625,0.00026631588116288185,-0.00026631588116288185,0.0005326317623257637
1772810387337794000,1.4637939453125,0.001864211168140173,0.0007989476434886456,0.0005326317623257637
1772810387347673900,1.473673828125,0.0007989476434886456,0.0013315794058144093,0
1772810387357554000,1.483553955078125,-0.0007989476434886456,-0.00026631588116288185,-0.0005326317623257637
1772810387367433700,1.493433837890625,0.00026631588116288185,-0.0007989476434886456,0
1772810387377313800,1.503313720703125,-0.0007989476434886456,0.00026631588116288185,0
1772810387387193600,1.513193603515625,-0.0013315794058144093,-0.0007989476434886456,0.0010652635246515274
1772810387397073400,1.523073486328125,0.0007989476434886456,-0.0007989476434886456,0.0005326317623257637
1772810387406953500,1.532953369140625,-0.0013315794058144093,-0.0007989476434886456,0
1772810387416833300,1.542833251953125,-0.00026631588116288185,0.00026631588116288185,0
1772810387426713300,1.55271337890625,0.0007989476434886456,0.0013315794058144093,-0.0010652635246515274
1772810387436593200,1.56259326171875,0.001864211168140173,0.00026631588116288185,0
1772810387446473200,1.57247314453125,0.0007989476434886456,0.00026631588116288185,-0.0010652635246515274
1772810387456353000,1.58235302734375,-0.00026631588116288185,-0.00026631588116288185,0
1772810387466233000,1.592233154296875,-0.00026631588116288185,-0.00026631588116288185,-0.0005326317623257637
1772810387476113000,1.60211279296875,0.0007989476434886456,-0.0013315794058144093,-0.0010652635246515274
1772810387485993000,1.611992919921875,0.00026631588116288185,0.0007989476434886456,-0.0010652635246515274
1772810387505751800,1.631751708984375,-0.00026631588116288185,-0.0007989476434886456,0.0010652635246515274
1772810387515631000,1.641631103515625,0.0007989476434886456,0.00026631588116288185,0.0005326317623257637
1772810387525510100,1.65151025390625,0.00026631588116288185,-0.0007989476434886456,-0.0005326317623257637
1772810387535389400,1.661389404296875,-0.0013315794058144093,-0.0007989476434886456,-0.0005326317623257637
1772810387545268700,1.671268798828125,-0.00026631588116288185,-0.0013315794058144093,-0.0005326317623257637
1772810387555147800,1.681147705078125,-0.00026631588116288185,0.0007989476434886456,0
1772810387565027000,1.691027099609375,0.001864211168140173,-0.0007989476434886456,0.0010652635246515274
1772810387574906400,1.70090625,0.00026631588116288185,-0.0007989476434886456,-0.0010652635246515274
1772810387584785400,1.710785400390625,0.00026631588116288185,-0.0013315794058144093,-0.0010652635246515274
1772810387594664700,1.720664794921875,-0.0007989476434886456,-0.0007989476434886456,0
1772810387604543700,1.730543701171875,0.0013315794058144093,-0.0007989476434886456,0.0005326317623257637
1772810387614423000,1.740423095703125,0.001864211168140173,0.00026631588116288185,0.0005326317623257637
1772810387624302300,1.75030224609375,-0.0007989476434886456,0.0023968429304659367,0.0010652635246515274
1772810387634181400,1.760181396484375,0.00026631588116288185,0.001864211168140173,-0.0005326317623257637
1772810387644060700,1.770060791015625,0.0007989476434886456,0.0013315794058144093,0.0005326317623257637
1772810387653939700,1.779939697265625,0.00026631588116288185,0.00026631588116288185,0.0005326317623257637
1772810387663819000,1.789819091796875,0.0007989476434886456,0.0029294746927917004,0.0010652635246515274
1772810387673698000,1.799697998046875,0.00026631588116288185,-0.0013315794058144093,0.0005326317623257637
1772810387683577300,1.809577392578125,-0.0013315794058144093,0.00026631588116288185,0
1772810387693456600,1.81945654296875,0.001864211168140173,-0.0007989476434886456,-0.001597895286977291
1772810387703335700,1.829335693359375,0.00026631588116288185,0.00026631588116288185,-0.001597895286977291
1772810387713215000,1.839215087890625,0.003462106455117464,-0.0013315794058144093,-0.0005326317623257637
1772810387723094300,1.84909423828125,0.0007989476434886456,0.0013315794058144093,0.0005326317623257637
1772810387732973300,1.858973388671875,-0.00026631588116288185,-0.00026631588116288185,0
1772810387742852600,1.8688525390625,-0.0007989476434886456,-0.0007989476434886456,0.0005326317623257637
1772810387752731600,1.878731689453125,0.0013315794058144093,0.00026631588116288185,0
1772810387762611000,1.88861083984375,-0.0007989476434886456,-0.001864211168140173,0.0005326317623257637
1772810387772490000,1.898489990234375,-0.00026631588116288185,-0.001864211168140173,0.0005326317623257637
1772810387782369300,1.908369384765625,-0.0013315794058144093,0.00026631588116288185,0.0005326317623257637
1772810387792248600,1.91824853515625,0.0023968429304659367,-0.0007989476434886456,0
1772810387802127600,1.928127685546875,0.0007989476434886456,0.00026631588116288185,0.0005326317623257637
1772810387812007000,1.9380068359375,-0.00026631588116288185,0.00026631588116288185,0.0005326317623257637
1772810387821886200,1.94788623046875,-0.0007989476434886456,0.0013315794058144093,0.002130527049303055
1772810387831765200,1.95776513671875,0.00026631588116288185,0.001864211168140173,0.0010652635246515274
1772810387841644500,1.96764453125,0.0013315794058144093,0.0013315794058144093,0
1772810387851523600,1.977523681640625,0.00026631588116288185,0.0013315794058144093,-0.0010652635246515274
1772810387861403000,1.98740283203125,-0.00026631588116288185,0.0013315794058144093,0
1772810387871282000,1.997281982421875,0.0007989476434886456,-0.001864211168140173,-0.0010652635246515274
1772810387881161200,2.0071611328125,-0.0013315794058144093,-0.0013315794058144093,0.0005326317623257637
1772810387891040500,2.01704052734375,0.0007989476434886456,-0.003462106455117464,-0.0005326317623257637
1772810387900919600,2.02691943359375,-0.0007989476434886456,-0.0007989476434886456,0.0005326317623257637
1772810387910798800,2.036798828125,0.00026631588116288185,-0.0007989476434886456,0.0005326317623257637
1772810387920678000,2.046677978515625,-0.00026631588116288185,-0.0007989476434886456,0
1772810387930557200,2.05655712890625,-0.00026631588116288185,0.0013315794058144093,-0.0005326317623257637
1772810387940436500,2.0664365234375,-0.00026631588116288185,-0.0013315794058144093,0.0005326317623257637
1772810387950315500,2.0763154296875,-0.0013315794058144093,-0.0013315794058144093,0
1772810387960194800,2.08619482421875,-0.0007989476434886456,0.0023968429304659367,0
1772810387970073900,2.096073974609375,-0.00026631588116288185,-0.00026631588116288185,0.0005326317623257637
1772810387979953200,2.105953125,-0.00026631588116288185,0.0013315794058144093,0.0010652635246515274
1772810387989832400,2.11583251953125,0.0007989476434886456,0.00026631588116288185,-0.0005326317623257637
1772810387999711700,2.125711669921875,-0.00026631588116288185,-0.001864211168140173,0.0010652635246515274
1772810388009591000,2.135591064453125,-0.0007989476434886456,0.0007989476434886456,0
1772810388019470600,2.145470703125,-0.00026631588116288185,0.00026631588116288185,0
1772810388029350100,2.15535009765625,-0.0013315794058144093,0.00026631588116288185,0
1772810388039229400,2.1652294921875,0.001864211168140173,0.00026631588116288185,0.0005326317623257637
1772810388049109000,2.17510888671875,0.00026631588116288185,0.00026631588116288185,0.002130527049303055
1772810388058988500,2.184988525390625,0.0007989476434886456,0.0023968429304659367,-0.0005326317623257637
1772810388068867800,2.194867919921875,-0.00026631588116288185,0.00026631588116288185,0.0005326317623257637
1772810388088626700,2.214626708984375,0.00026631588116288185,-0.0029294746927917004,0
1772810388098506200,2.22450634765625,0.0013315794058144093,-0.001864211168140173,-0.001597895286977291
1772810388108385800,2.2343857421875,-0.0007989476434886456,-0.0007989476434886456,0
1772810388118265000,2.24426513671875,-0.00026631588116288185,0.001864211168140173,-0.0010652635246515274
1772810388128144600,2.25414453125,-0.0013315794058144093,-0.00026631588116288185,0.0005326317623257637
1772810388138024200,2.264024169921875,0.0007989476434886456,-0.001864211168140173,-0.001597895286977291
1772810388147903500,2.273903564453125,-0.00026631588116288185,-0.0013315794058144093,0
1772810388157783000,2.283782958984375,0.00026631588116288185,0.0007989476434886456,0.0005326317623257637
1772810388167662600,2.29366259765625,-0.0007989476434886456,-0.00026631588116288185,-0.0005326317623257637
1772810388177542000,2.3035419921875,-0.00026631588116288185,0.0013315794058144093,-0.0005326317623257637
1772810388187421400,2.31342138671875,0.00026631588116288185,-0.0007989476434886456,0.0005326317623257637
1772810388197301000,2.323301025390625,0.0007989476434886456,0.0013315794058144093,-0.0010652635246515274
1772810388207180300,2.33318017578125,-0.00026631588116288185,0.0007989476434886456,0.0010652635246515274
1772810388217059800,2.343059814453125,0.00026631588116288185,0.001864211168140173,0.001597895286977291
1772810388226939100,2.352939208984375,0.00026631588116288185,-0.0013315794058144093,-0.0005326317623257637
1772810388236818700,2.362818603515625,0.00026631588116288185,-0.0029294746927917004,0.0005326317623257637
1772810388246698200,2.3726982421875,0.00026631588116288185,-0.00026631588116288185,0
1772810388256577500,2.38257763671875,-0.00026631588116288185,0.0007989476434886456,-0.0005326317623257637
1772810388266457000,2.39245703125,0.00026631588116288185,-0.00026631588116288185,-0.0010652635246515274
1772810388276336600,2.402336669921875,0.00026631588116288185,-0.00026631588116288185,0.001597895286977291
1772810388286216000,2.4122158203125,0.00026631588116288185,-0.00026631588116288185,0.0005326317623257637
1772810388296095500,2.422095458984375,-0.001864211168140173,-0.00026631588116288185,0.002130527049303055
1772810388305975000,2.43197509765625,0.00026631588116288185,-0.0007989476434886456,-0.0010652635246515274
1772810388315854300,2.441854248046875,-0.0013315794058144093,-0.0007989476434886456,-0.0005326317623257637
1772810388325734000,2.45173388671875,-0.0007989476434886456,-0.0007989476434886456,0.0005326317623257637
1772810388335613400,2.461613525390625,0.0013315794058144093,-0.0007989476434886456,-0.0010652635246515274
1772810388345492700,2.47149267578125,-0.0007989476434886456,-0.001864211168140173,-0.0005326317623257637
1772810388355372300,2.481372314453125,-0.00026631588116288185,0.0007989476434886456,0.0010652635246515274
1772810388365251800,2.491251953125,-0.0007989476434886456,-0.00026631588116288185,0.001597895286977291
1772810388375131100,2.501131103515625,-0.0007989476434886456,-0.00026631588116288185,0.001597895286977291
1772810388385010700,2.5110107421875,-0.00026631588116288185,0.001864211168140173,0.0005326317623257637
1772810388394890200,2.52089013671875,-0.00026631588116288185,-0.001864211168140173,0
1772810388404769500,2.53076953125,0.00026631588116288185,-0.0007989476434886456,0
1772810388414649000,2.540649169921875,0.00026631588116288185,-0.001864211168140173,-0.0010652635246515274
1772810388424528600,2.550528564453125,0.00026631588116288185,-0.0013315794058144093,0.0005326317623257637
1772810388434408000,2.560407958984375,-0.00026631588116288185,-0.0013315794058144093,-0.0010652635246515274
1772810388444287500,2.57028759765625,-0.00026631588116288185,-0.0013315794058144093,-0.0005326317623257637
1772810388454167000,2.5801669921875,0.0007989476434886456,0.0007989476434886456,0
1772810388464046300,2.59004638671875,0.00026631588116288185,-0.00026631588116288185,0.0005326317623257637
1772810388473926000,2.59992578125,0.0007989476434886456,-0.0013315794058144093,0.002130527049303055
1772810388483805200,2.60980517578125,0.0007989476434886456,0.0007989476434886456,-0.0005326317623257637
1772810388493684700,2.619684814453125,-0.00026631588116288185,0.0007989476434886456,0
1772810388503564800,2.629564697265625,-0.00026631588116288185,0.0013315794058144093,0.0005326317623257637
1772810388513444600,2.639444580078125,-0.0013315794058144093,-0.00026631588116288185,0
1772810388523324700,2.64932470703125,-0.0013315794058144093,-0.00026631588116288185,0
1772810388533204700,2.659204833984375,0.00026631588116288185,-0.00026631588116288185,-0.0005326317623257637
1772810388543084800,2.669084716796875,0.00026631588116288185,-0.001864211168140173,0.0010652635246515274
1772810388552964600,2.678964599609375,-0.0007989476434886456,-0.00026631588116288185,-0.0005326317623257637
1772810388562844700,2.6888447265625,-0.00026631588116288185,-0.00026631588116288185,0.0005326317623257637
1772810388572724700,2.698724853515625,-0.00026631588116288185,0.0007989476434886456,0.0005326317623257637
1772810388582604800,2.708604736328125,0.0007989476434886456,0.00026631588116288185,0
1772810388592484600,2.718484619140625,-0.00026631588116288185,-0.0007989476434886456,0.002130527049303055
1772810388602364700,2.72836474609375,0.0007989476434886456,0.0013315794058144093,0
1772810388612244700,2.73824462890625,-0.0013315794058144093,-0.00026631588116288185,0.0005326317623257637
1772810388622124800,2.748124755859375,0.00026631588116288185,0.0007989476434886456,0.0010652635246515274
1772810388632004900,2.7580048828125,0.0007989476434886456,0.00026631588116288185,0.0005326317623257637
1772810388641884700,2.767884765625,-0.00026631588116288185,0.001864211168140173,0.0010652635246515274
1772810388651764700,2.7777646484375,0.0007989476434886456,0.00026631588116288185,0
1772810388661644800,2.787644775390625,0.0007989476434886456,0.0007989476434886456,0
1772810388671524900,2.79752490234375,-0.0007989476434886456,-0.0007989476434886456,0
1772810388691284700,2.81728466796875,0.0007989476434886456,-0.0013315794058144093,-0.002130527049303055
1772810388701164800,2.827164794921875,-0.00026631588116288185,-0.00026631588116288185,0
1772810388711044900,2.837044921875,0.00026631588116288185,-0.00026631588116288185,-0.0005326317623257637
1772810388720925000,2.846925048828125,0.00026631588116288185,-0.0007989476434886456,-0.0005326317623257637
1772810388730805000,2.856804931640625,0.00026631588116288185,-0.0007989476434886456,-0.0005326317623257637
1772810388740684800,2.866684814453125,-0.00026631588116288185,0.0029294746927917004,0.001597895286977291
1772810388750564900,2.87656494140625,-0.0007989476434886456,0.00026631588116288185,0.001597895286977291
1772810388760445000,2.88644482421875,-0.00026631588116288185,-0.00026631588116288185,-0.0005326317623257637
1772810388770325000,2.896324951171875,-0.00026631588116288185,0.00026631588116288185,-0.0005326317623257637
1772810388780205000,2.906205078125,-0.0007989476434886456,-0.00026631588116288185,0
1772810388790084900,2.9160849609375,-0.00026631588116288185,0.0013315794058144093,-0.0005326317623257637
1772810388799965000,2.92596484375,0.00026631588116288185,-0.0013315794058144093,0
1772810388809845000,2.935844970703125,0.0013315794058144093,-0.001864211168140173,-0.002130527049303055
1772810388819725000,2.94572509765625,-0.001864211168140173,-0.00026631588116288185,-0.001597895286977291
1772810388829604900,2.95560498046875,0.0013315794058144093,-0.0007989476434886456,0.0010652635246515274
1772810388839485000,2.96548486328125,-0.00026631588116288185,-0.00026631588116288185,0.0005326317623257637
1772810388849365000,2.975364990234375,-0.0007989476434886456,-0.0013315794058144093,-0.0010652635246515274
1772810388859245000,2.9852451171875,-0.0007989476434886456,-0.001864211168140173,0.001597895286977291
1772810388869125000,2.995125,0.0013315794058144093,0.00026631588116288185,0.0005326317623257637
1772810388888885000,3.014885009765625,0.00026631588116288185,0.001864211168140173,-0.0005326317623257637
1772810388898765000,3.02476513671875,-0.0009321055840700865,0.0003994738217443228,0
1772810388908645000,3.03464501953125,0.00013315794058144093,-0.0011984214652329683,-0.0005326317623257637
1772810388918525200,3.044525146484375,-0.0009321055840700865,-0.0011984214652329683,0.0005326317623257637
1772810388928405000,3.054405029296875,0.0011984214652329683,-0.0006657897029072046,0
1772810388938285000,3.06428515625,0.00013315794058144093,0.0014647373463958502,0.0010652635246515274
1772810388948165000,3.0741650390625,-0.0009321055840700865,0.0003994738217443228,-0.0010652635246515274
1772810388958045200,3.084045166015625,0.0011984214652329683,-0.0006657897029072046,-0.0005326317623257637
1772810388967925200,3.09392529296875,0.0011984214652329683,0.0003994738217443228,0.0010652635246515274
1772810388977805000,3.10380517578125,0.00013315794058144093,0.0014647373463958502,0
1772810388987685000,3.11368505859375,0.0006657897029072046,0.0014647373463958502,0.001597895286977291
1772810388997565200,3.123565185546875,0.00013315794058144093,-0.00013315794058144093,0.0005326317623257637
1772810389007445800,3.13344580078125,0.0011984214652329683,0.0014647373463958502,-0.0005326317623257637
1772810389017326300,3.143326416015625,-0.0003994738217443228,-0.0022636849898844957,0
1772810389027207000,3.15320703125,0.00013315794058144093,-0.0006657897029072046,-0.0005326317623257637
1772810389037087200,3.163087158203125,0.00013315794058144093,0.0003994738217443228,0
1772810389046967800,3.1729677734375,0.00013315794058144093,0.0003994738217443228,0
1772810389056848400,3.182848388671875,0.00013315794058144093,-0.00013315794058144093,0.0005326317623257637
1772810389066729000,3.19272900390625,-0.0009321055840700865,0.0003994738217443228,0.0010652635246515274
1772810389076609500,3.202609619140625,-0.0009321055840700865,0.0003994738217443228,0
1772810389086490000,3.212489990234375,-0.001997369108721614,0.0009321055840700865,-0.001597895286977291
1772810389096370400,3.222370361328125,-0.0003994738217443228,-0.00013315794058144093,0
1772810389106251000,3.2322509765625,0.00013315794058144093,-0.0022636849898844957,0.0010652635246515274
1772810389116131600,3.242131591796875,-0.0009321055840700865,0.0030626326333731413,0.0005326317623257637
1772810389126012200,3.25201220703125,-0.0003994738217443228,-0.0006657897029072046,-0.0005326317623257637
1772810389135892500,3.261892578125,-0.0003994738217443228,0.0009321055840700865,-0.0005326317623257637
1772810389145773000,3.27177294921875,0.0011984214652329683,0.0030626326333731413,0.0005326317623257637
1772810389155653600,3.281653564453125,0.00013315794058144093,-0.0006657897029072046,0.0010652635246515274
1772810389165534200,3.2915341796875,-0.0003994738217443228,0.001997369108721614,0.0005326317623257637
1772810389175414800,3.301414794921875,0.0006657897029072046,0.0009321055840700865,0
1772810389185295000,3.311295166015625,0.0011984214652329683,-0.00013315794058144093,0.0010652635246515274
1772810389195175700,3.32117578125,-0.0009321055840700865,0.0003994738217443228,0
1772810389205056300,3.33105615234375,0.0006657897029072046,-0.0006657897029072046,-0.0005326317623257637
1772810389214936800,3.340936767578125,-0.0003994738217443228,0.0003994738217443228,0.0005326317623257637
1772810389224817400,3.3508173828125,0.0006657897029072046,-0.00013315794058144093,0
1772810389234697700,3.36069775390625,0.00013315794058144093,-0.0006657897029072046,0
1772810389244578300,3.370578369140625,-0.0009321055840700865,0.0030626326333731413,0.0010652635246515274
1772810389254459000,3.380458984375,0.0011984214652329683,-0.0006657897029072046,0
1772810389264339500,3.39033935546875,0.00013315794058144093,-0.0006657897029072046,-0.0005326317623257637
1772810389284100400,3.410100341796875,0.00013315794058144093,-0.00013315794058144093,-0.0005326317623257637
1772810389293981000,3.41998095703125,0.00013315794058144093,0.0003994738217443228,0
1772810389303861500,3.429861572265625,0.0006657897029072046,0.0009321055840700865,0.0010652635246515274
1772810389313742000,3.4397421875,-0.0009321055840700865,-0.0006657897029072046,0.0010652635246515274
1772810389323622400,3.449622314453125,-0.0003994738217443228,0.0003994738217443228,0.0010652635246515274
1772810389333503000,3.4595029296875,-0.0009321055840700865,0.0009321055840700865,0
1772810389343383600,3.469383544921875,-0.0014647373463958502,-0.00013315794058144093,-0.0005326317623257637
1772810389353264000,3.47926416015625,0.0011984214652329683,-0.00013315794058144093,-0.0010652635246515274
1772810389363144400,3.48914453125,-0.0003994738217443228,-0.00013315794058144093,0
1772810389373025000,3.49902490234375,-0.0003994738217443228,0.0003994738217443228,-0.0005326317623257637
1772810389382905600,3.508905517578125,0.00013315794058144093,0.0014647373463958502,0.0010652635246515274
1772810389392786200,3.5187861328125,0.0006657897029072046,0.0009321055840700865,-0.0010652635246515274
1772810389402666800,3.528666748046875,0.00013315794058144093,0.0003994738217443228,-0.0005326317623257637
1772810389412547000,3.538547119140625,0.0006657897029072046,-0.0006657897029072046,0
1772810389422427600,3.548427734375,-0.0003994738217443228,-0.0011984214652329683,0.0005326317623257637
1772810389432308200,3.55830810546875,-0.0009321055840700865,-0.001731053227558732,0.0005326317623257637
1772810389442188800,3.568188720703125,-0.0003994738217443228,-0.00013315794058144093,-0.002130527049303055
1772810389452069400,3.5780693359375,-0.0003994738217443228,0.001997369108721614,0.0010652635246515274
1772810389461949700,3.58794970703125,0.0006657897029072046,-0.0011984214652329683,0
1772810389471830300,3.597830322265625,-0.0014647373463958502,0.001997369108721614,-0.0010652635246515274
1772810389481710800,3.6077109375,0.00013315794058144093,0.0003994738217443228,-0.0005326317623257637
1772810389491591400,3.61759130859375,0.00013315794058144093,-0.0006657897029072046,0.001597895286977291
1772810389501471500,3.627471435546875,-0.0014647373463958502,-0.0006657897029072046,0.0005326317623257637
1772810389511351300,3.637351318359375,-0.0014647373463958502,-0.0011984214652329683,-0.0005326317623257637
1772810389521231000,3.647231201171875,0.00013315794058144093,0.0009321055840700865,0
1772810389531111000,3.65711083984375,0.0006657897029072046,-0.0011984214652329683,-0.001597895286977291
1772810389540990700,3.66699072265625,-0.0003994738217443228,-0.0011984214652329683,-0.001597895286977291
1772810389550870500,3.67687060546875,0.00013315794058144093,-0.0006657897029072046,-0.0005326317623257637
1772810389560750300,3.686750244140625,-0.0003994738217443228,0.0014647373463958502,0
1772810389570630100,3.696630126953125,0.0006657897029072046,0.0009321055840700865,0
1772810389580510200,3.70651025390625,0.0006657897029072046,-0.0022636849898844957,0
1772810389590389800,3.7163896484375,-0.0003994738217443228,-0.00013315794058144093,0
1772810389600269800,3.726269775390625,-0.0003994738217443228,0.0003994738217443228,0
1772810389610149600,3.736149658203125,0.00013315794058144093,0.0025300008710473776,0.0005326317623257637
1772810389620029400,3.746029541015625,0.0011984214652329683,0.0009321055840700865,0
1772810389629909200,3.7559091796875,-0.0003994738217443228,0.0009321055840700865,0.001597895286977291
1772810389639789000,3.7657890625,0.00013315794058144093,0.0003994738217443228,0
1772810389649668900,3.7756689453125,-0.0003994738217443228,-0.00013315794058144093,-0.0005326317623257637
1772810389659548700,3.785548583984375,0.00013315794058144093,-0.0022636849898844957,0.0005326317623257637
1772810389669428500,3.795428466796875,-0.0009321055840700865,-0.0006657897029072046,-0.0005326317623257637
1772810389679308300,3.805308349609375,-0.0009321055840700865,0.0003994738217443228,0.0005326317623257637
1772810389689188000,3.81518798828125,0.00013315794058144093,0.0009321055840700865,0.0005326317623257637
1772810389699068200,3.825068115234375,0.00013315794058144093,0.0003994738217443228,0
1772810389708948000,3.834947998046875,0.00013315794058144093,0.0014647373463958502,0.0005326317623257637
1772810389718827800,3.844827880859375,0.001731053227558732,-0.0006657897029072046,-0.0005326317623257637
1772810389728707600,3.85470751953125,0.001731053227558732,-0.00013315794058144093,-0.0005326317623257637
1772810389738587400,3.86458740234375,-0.0009321055840700865,0.0003994738217443228,0.001597895286977291
1772810389748467200,3.87446728515625,-0.0003994738217443228,-0.00013315794058144093,-0.0010652635246515274
1772810389758347000,3.884346923828125,-0.0009321055840700865,-0.00013315794058144093,0.001597895286977291
1772810389768226800,3.894226806640625,-0.0003994738217443228,0.0009321055840700865,-0.0005326317623257637
1772810389778106600,3.904106689453125,-0.0003994738217443228,-0.00013315794058144093,-0.0010652635246515274
1772810389787986400,3.913986328125,-0.001997369108721614,-0.00013315794058144093,0.0005326317623257637
1772810389797866500,3.923866455078125,-0.0014647373463958502,-0.001731053227558732,0
1772810389807746300,3.933746337890625,-0.0003994738217443228,-0.00013315794058144093,0.0026631588116288185
1772810389817626000,3.943626220703125,-0.0009321055840700865,0.0014647373463958502,-0.0005326317623257637
1772810389827506000,3.953505859375,-0.0003994738217443228,0.001997369108721614,-0.0005326317623257637
1772810389837385700,3.9633857421875,0.00013315794058144093,0.0003994738217443228,0
1772810389847265500,3.973265625,0.0006657897029072046,-0.0011984214652329683,0
1772810389857145300,3.983145263671875,0.00013315794058144093,0.0003994738217443228,0
1772810389867025200,3.993025146484375,-0.0003994738217443228,-0.0006657897029072046,-0.001597895286977291
1772810389876905000,4.002905029296875,0.00013315794058144093,0.0009321055840700865,0.0010652635246515274
1772810389886784800,4.01278466796875,-0.0003994738217443228,0.0009321055840700865,0.0010652635246515274
1772810389896664800,4.022664794921875,0.001731053227558732,-0.0006657897029072046,0.0005326317623257637
1772810389906544600,4.032544677734375,0.00013315794058144093,-0.0006657897029072046,0.0005326317623257637
1772810389926304300,4.05230419921875,0.00013315794058144093,-0.0006657897029072046,-0.0005326317623257637
1772810389936184000,4.06218408203125,0.0006657897029072046,-0.0006657897029072046,-0.0010652635246515274
1772810389946064000,4.07206396484375,0.0006657897029072046,-0.00013315794058144093,0.0005326317623257637
1772810389955943700,4.081943603515625,-0.0003994738217443228,-0.0011984214652329683,0.001597895286977291
1772810389965823500,4.091823486328125,-0.0009321055840700865,-0.0011984214652329683,0.001597895286977291
1772810389975703300,4.101703369140625,0.00013315794058144093,-0.001731053227558732,-0.0010652635246515274
1772810389985583000,4.1115830078125,-0.0014647373463958502,0.0009321055840700865,0
1772810389995463000,4.121462890625,0.0006657897029072046,-0.0011984214652329683,0.0010652635246515274
1772810390005343000,4.131343017578125,0.0006657897029072046,0.0014647373463958502,-0.0010652635246515274
1772810390015222800,4.141222900390625,-0.0003994738217443228,-0.00013315794058144093,-0.0005326317623257637
1772810390025102600,4.1511025390625,0.0006657897029072046,0.0014647373463958502,-0.0005326317623257637
1772810390034982400,4.160982421875,0.00013315794058144093,-0.0006657897029072046,-0.0005326317623257637
1772810390044862200,4.1708623046875,-0.0003994738217443228,-0.0011984214652329683,-0.0005326317623257637
1772810390054742000,4.180741943359375,0.0011984214652329683,0.0009321055840700865,-0.0005326317623257637
1772810390064621800,4.190621826171875,-0.0009321055840700865,0.0009321055840700865,0
1772810390074501600,4.200501708984375,0.001731053227558732,-0.0011984214652329683,0.0010652635246515274
1772810390094261200,4.22026123046875,0.001731053227558732,0.0009321055840700865,-0.0005326317623257637
1772810390104141000,4.23014111328125,0.0011984214652329683,0.0003994738217443228,0
1772810390114020900,4.240020751953125,-0.0003994738217443228,-0.0006657897029072046,-0.0010652635246515274
1772810390123900700,4.249900634765625,0.00013315794058144093,0.0003994738217443228,0.0005326317623257637
1772810390133780700,4.25978076171875,-0.0003994738217443228,0.0003994738217443228,0.0005326317623257637
1772810390143660500,4.26966064453125,-0.0003994738217443228,0.0014647373463958502,0.0010652635246515274
1772810390153540400,4.279540283203125,-0.0014647373463958502,0.0003994738217443228,0.0010652635246515274
1772810390163420200,4.289420166015625,-0.0003994738217443228,0.001997369108721614,0
1772810390173300000,4.299300048828125,-0.0003994738217443228,-0.0011984214652329683,-0.0010652635246515274
1772810390183179800,4.3091796875,-0.0003994738217443228,0.0003994738217443228,0.0010652635246515274
1772810390193059600,4.3190595703125,0.00013315794058144093,-0.0006657897029072046,-0.0005326317623257637
1772810390202939400,4.328939453125,-0.0003994738217443228,-0.0006657897029072046,0
1772810390212819200,4.338819091796875,-0.0003994738217443228,0.0003994738217443228,0.0005326317623257637
1772810390222699000,4.348698974609375,-0.0009321055840700865,0.0003994738217443228,0
1772810390232578800,4.358578857421875,-0.0014647373463958502,-0.0006657897029072046,0.0010652635246515274
1772810390252338400,4.37833837890625,0.001731053227558732,0.001997369108721614,-0.0005326317623257637
1772810390262218500,4.388218505859375,0.0006657897029072046,-0.00013315794058144093,0.0005326317623257637
1772810390272098300,4.398098388671875,0.0006657897029072046,0.0025300008710473776,-0.0005326317623257637
1772810390281978000,4.40797802734375,-0.0014647373463958502,0.001997369108721614,0.001597895286977291
1772810390291858000,4.41785791015625,0.0006657897029072046,0.0014647373463958502,0.0010652635246515274
1772810390301737700,4.42773779296875,0.00013315794058144093,-0.0006657897029072046,0
1772810390311617500,4.437617431640625,0.0006657897029072046,-0.0006657897029072046,-0.0005326317623257637
1772810390321497300,4.447497314453125,0.00013315794058144093,-0.00013315794058144093,0
1772810390331377200,4.457377197265625,-0.0003994738217443228,-0.0006657897029072046,-0.001597895286977291
1772810390341257000,4.467257080078125,-0.0009321055840700865,-0.0006657897029072046,0
1772810390351136800,4.47713671875,0.001731053227558732,-0.0006657897029072046,0
1772810390361016600,4.4870166015625,-0.0003994738217443228,0.0003994738217443228,-0.0010652635246515274
1772810390370896400,4.496896484375,-0.0003994738217443228,0.0009321055840700865,-0.0005326317623257637
1772810390380776400,4.5067763671875,0.00013315794058144093,0.0003994738217443228,0
1772810390390656300,4.51665625,-0.0009321055840700865,0.0009321055840700865,0.001597895286977291
1772810390400536000,4.5265361328125,-0.0009321055840700865,0.0003994738217443228,0.001597895286977291
1772810390410415900,4.536415771484375,0.00013315794058144093,0.0009321055840700865,0.0005326317623257637
1772810390420295700,4.546295654296875,0.0011984214652329683,-0.00013315794058144093,0.002130527049303055
1772810390430175500,4.556175537109375,-0.0014647373463958502,0.0003994738217443228,0.0005326317623257637
1772810390440055300,4.56605517578125,0.00013315794058144093,0.001997369108721614,0
1772810390449935000,4.57593505859375,0.001731053227558732,0.001997369108721614,0.0010652635246515274
1772810390459815000,4.58581494140625,0.0006657897029072046,-0.0006657897029072046,0
1772810390469694700,4.59569482421875,0.00013315794058144093,0.0030626326333731413,-0.0005326317623257637
1772810390479574500,4.605574462890625,0.00013315794058144093,0.0009321055840700865,0
1772810390489454300,4.615454345703125,0.00013315794058144093,0.001997369108721614,0.0005326317623257637
1772810390499334100,4.625334228515625,-0.0014647373463958502,0.0009321055840700865,0.0005326317623257637
1772810390509214200,4.635214111328125,-0.0003994738217443228,-0.0006657897029072046,0.0005326317623257637
1772810390519094000,4.645093994140625,0.00013315794058144093,0.0009321055840700865,-0.001597895286977291
1772810390528973800,4.654973876953125,-0.0003994738217443228,-0.0011984214652329683,-0.0010652635246515274
1772810390538853600,4.664853515625,0.00013315794058144093,0.0014647373463958502,0.0005326317623257637
1772810390548733400,4.6747333984375,-0.0014647373463958502,0.0014647373463958502,0
1772810390558613500,4.684613525390625,0.0006657897029072046,0.0003994738217443228,0.0010652635246515274
1772810390568493300,4.694493408203125,-0.0014647373463958502,-0.00013315794058144093,0
1772810390578373000,4.704373046875,0.00013315794058144093,-0.0006657897029072046,-0.001597895286977291
1772810390588253000,4.7142529296875,-0.0009321055840700865,0.0009321055840700865,0.0010652635246515274
1772810390598132700,4.7241328125,-0.0003994738217443228,-0.00013315794058144093,-0.001597895286977291
1772810390608012800,4.7340126953125,-0.0009321055840700865,0.0009321055840700865,-0.0010652635246515274
1772810390617892600,4.743892578125,0.0011984214652329683,-0.0006657897029072046,-0.001597895286977291
1772810390627772400,4.7537724609375,0.0006657897029072046,-0.00013315794058144093,0.0005326317623257637
1772810390637652200,4.76365234375,-0.0009321055840700865,0.001997369108721614,0
1772810390647532300,4.7735322265625,-0.0009321055840700865,0.0003994738217443228,-0.0005326317623257637
1772810390657412000,4.783412109375,0.00013315794058144093,-0.0006657897029072046,0
1772810390667292000,4.7932919921875,0.0011984214652329683,0.0009321055840700865,0.0005326317623257637
1772810390677171700,4.803171630859375,-0.0025300008710473776,-0.001731053227558732,0
1772810390687051500,4.813051513671875,-0.0007989476434886456,-0.0003994738217443228,0.0010652635246515274
1772810390696931300,4.822931396484375,-0.00026631588116288185,0.00013315794058144093,-0.0005326317623257637
1772810390706811400,4.832811279296875,0.00026631588116288185,-0.0009321055840700865,0
1772810390716691200,4.842691162109375,-0.0007989476434886456,-0.0003994738217443228,-0.0005326317623257637
1772810390726571000,4.852571044921875,0.0007989476434886456,0.00013315794058144093,0.0010652635246515274
1772810390736450800,4.862450927734375,-0.00026631588116288185,-0.0025300008710473776,0.0005326317623257637
1772810390746331000,4.872330810546875,-0.0007989476434886456,-0.0003994738217443228,0.0010652635246515274
1772810390756210700,4.882210693359375,0.0007989476434886456,0.0011984214652329683,0
1772810390766090500,4.892090576171875,0.0007989476434886456,-0.0003994738217443228,0
1772810390775970300,4.90197021484375,0.00026631588116288185,0.0011984214652329683,-0.0005326317623257637
1772810390785850000,4.91185009765625,-0.0007989476434886456,0.001731053227558732,0
1772810390795730000,4.92172998046875,-0.00026631588116288185,-0.0014647373463958502,-0.0010652635246515274
1772810390805610000,4.93160986328125,-0.00026631588116288185,0.00013315794058144093,-0.0010652635246515274
1772810390815489800,4.94148974609375,0.0007989476434886456,0.0011984214652329683,0
1772810390825369600,4.95136962890625,0.0007989476434886456,-0.0009321055840700865,0
1772810390835249400,4.96124951171875,-0.00026631588116288185,0.001731053227558732,-0.0005326317623257637
1772810390845129500,4.97112939453125,-0.0007989476434886456,0.00013315794058144093,0.002130527049303055
1772810390855009300,4.98100927734375,-0.00026631588116288185,-0.0014647373463958502,-0.0010652635246515274
1772810390864889000,4.99088916015625,-0.00026631588116288185,0.0006657897029072046,0.0010652635246515274
1772810390874769000,5.000768798828125,0.0013315794058144093,-0.0009321055840700865,0
1772810390884648700,5.010648681640625,0.00026631588116288185,0.00013315794058144093,-0.0005326317623257637
1772810390894528800,5.02052880859375,-0.00026631588116288185,0.0011984214652329683,-0.0010652635246515274
1772810390904408600,5.03040869140625,0.00026631588116288185,0.0022636849898844957,0.0005326317623257637
1772810390914288400,5.040288330078125,-0.0007989476434886456,0.0006657897029072046,0
1772810390924168200,5.050168212890625,-0.00026631588116288185,-0.0009321055840700865,0
1772810390934048000,5.060048095703125,-0.00026631588116288185,-0.0009321055840700865,0
1772810390943928000,5.069927978515625,-0.0013315794058144093,-0.0009321055840700865,0
1772810390953808000,5.079807861328125,-0.00026631588116288185,-0.0003994738217443228,0.001597895286977291
1772810390963687700,5.089687744140625,0.0007989476434886456,-0.0009321055840700865,0.001597895286977291
1772810390973567500,5.0995673828125,-0.00026631588116288185,-0.0025300008710473776,0
1772810390983447300,5.109447265625,-0.0007989476434886456,-0.001997369108721614,0.0010652635246515274
1772810390993327400,5.119327392578125,-0.0007989476434886456,0.0011984214652329683,0.0010652635246515274
1772810391003207000,5.12920703125,0.001864211168140173,0.00013315794058144093,0
1772810391013086500,5.13908642578125,0.00026631588116288185,-0.0003994738217443228,0.0005326317623257637
1772810391022966000,5.148966064453125,0.00026631588116288185,-0.0014647373463958502,0
1772810391032845800,5.158845703125,0.0007989476434886456,0.001731053227558732,0.001597895286977291
1772810391042725400,5.168725341796875,0.00026631588116288185,-0.0009321055840700865,-0.0005326317623257637
1772810391052605000,5.17860498046875,0.0013315794058144093,-0.001997369108721614,-0.0010652635246515274
1772810391062484500,5.188484375,-0.0013315794058144093,0.0006657897029072046,0.0010652635246515274
1772810391072364000,5.198364013671875,-0.0007989476434886456,0.00013315794058144093,0.0005326317623257637
1772810391082243800,5.208243896484375,-0.00026631588116288185,0.0022636849898844957,0
1772810391092123400,5.218123291015625,0.00026631588116288185,0.00013315794058144093,-0.0005326317623257637
1772810391102003000,5.2280029296875,0.0007989476434886456,0.00013315794058144093,0.001597895286977291
1772810391111882500,5.237882568359375,-0.0007989476434886456,-0.0003994738217443228,-0.0010652635246515274
1772810391121762300,5.24776220703125,0.001864211168140173,0.0006657897029072046,0.001597895286977291
1772810391131641900,5.257641845703125,0.0007989476434886456,-0.0009321055840700865,0.0005326317623257637
1772810391141521400,5.267521484375,0.0007989476434886456,-0.0009321055840700865,0.0010652635246515274
1772810391151401000,5.27740087890625,0.00026631588116288185,0.00013315794058144093,0.0005326317623257637
1772810391161280800,5.28728076171875,0.00026631588116288185,0.0006657897029072046,0
1772810391171160300,5.297160400390625,-0.0007989476434886456,-0.0014647373463958502,0.001597895286977291
1772810391181039900,5.307039794921875,-0.00026631588116288185,-0.0025300008710473776,0.0005326317623257637
1772810391190919400,5.31691943359375,-0.00026631588116288185,-0.0009321055840700865,0.0005326317623257637
1772810391200799200,5.32679931640625,0.00026631588116288185,0.0006657897029072046,0.0005326317623257637
1772810391210678800,5.3366787109375,0.00026631588116288185,0.00013315794058144093,0
1772810391220558300,5.346558349609375,0.0013315794058144093,-0.0009321055840700865,-0.0005326317623257637
1772810391230438000,5.35643798828125,-0.0029294746927917004,0.0022636849898844957,-0.0005326317623257637
1772810391240317700,5.366317626953125,-0.0007989476434886456,-0.0003994738217443228,0.0010652635246515274
1772810391250197200,5.376197265625,0.0007989476434886456,0.0006657897029072046,-0.0005326317623257637
1772810391260076800,5.386076904296875,-0.00026631588116288185,0.0006657897029072046,0.0005326317623257637
1772810391269956400,5.395956298828125,-0.00026631588116288185,0.0006657897029072046,0.0010652635246515274
1772810391279836200,5.405836181640625,0.0007989476434886456,0.00013315794058144093,0.0005326317623257637
1772810391289715700,5.4157158203125,0.00026631588116288185,-0.0003994738217443228,0
1772810391299595300,5.42559521484375,0.0007989476434886456,-0.0009321055840700865,-0.0005326317623257637
1772810391309474800,5.435474853515625,-0.0013315794058144093,0.00013315794058144093,0
1772810391319354400,5.445354248046875,-0.0013315794058144093,0.0006657897029072046,-0.0005326317623257637
1772810391329234200,5.455234130859375,-0.0013315794058144093,0.00013315794058144093,-0.0005326317623257637
1772810391339113700,5.46511376953125,-0.00026631588116288185,-0.001997369108721614,0.001597895286977291
1772810391348993300,5.4749931640625,0.0007989476434886456,0.001731053227558732,-0.002130527049303055
1772810391358873000,5.484873046875,-0.0007989476434886456,-0.0003994738217443228,0.0005326317623257637
1772810391368752600,5.494752685546875,0.0007989476434886456,-0.0003994738217443228,0.0005326317623257637
1772810391378632200,5.504632080078125,0.00026631588116288185,-0.0014647373463958502,0.001597895286977291
1772810391388511700,5.51451171875,0.001864211168140173,0.0011984214652329683,-0.0005326317623257637
1772810391398391300,5.524391357421875,-0.0007989476434886456,0.00013315794058144093,0
1772810391408271000,5.53427099609375,-0.0023968429304659367,-0.0009321055840700865,0.0005326317623257637
1772810391418150700,5.544150634765625,0.0007989476434886456,0.00013315794058144093,0.0010652635246515274
1772810391428030200,5.5540302734375,-0.0007989476434886456,0.00013315794058144093,0.0005326317623257637
1772810391437909800,5.56390966796875,-0.001864211168140173,-0.0009321055840700865,0.0005326317623257637
1772810391447789600,5.57378955078125,0.00026631588116288185,-0.0003994738217443228,0.0005326317623257637
1772810391457669000,5.583669189453125,0.00026631588116288185,-0.0003994738217443228,0.0005326317623257637
1772810391467548700,5.593548583984375,0.0007989476434886456,-0.0025300008710473776,-0.002130527049303055
1772810391477428200,5.60342822265625,-0.0007989476434886456,0.0006657897029072046,0.0005326317623257637
1772810391487308000,5.61330810546875,-0.0013315794058144093,0.00013315794058144093,0.0005326317623257637
1772810391497187600,5.6231875,0.0007989476434886456,-0.0025300008710473776,0.001597895286977291
1772810391507067400,5.6330673828125,0.00026631588116288185,0.0006657897029072046,-0.0005326317623257637
1772810391516947500,5.642947509765625,0.00026631588116288185,0.0006657897029072046,0.0005326317623257637
1772810391526827300,5.6528271484375,0.0007989476434886456,-0.0003994738217443228,0.0010652635246515274
1772810391536707000,5.66270703125,0.00026631588116288185,0.0011984214652329683,-0.0005326317623257637
1772810391546587100,5.672587158203125,0.00026631588116288185,0.0027963167522102594,-0.0005326317623257637
1772810391556467000,5.682467041015625,-0.00026631588116288185,0.0006657897029072046,0
1772810391566347000,5.692346923828125,-0.00026631588116288185,-0.0014647373463958502,0
1772810391576226800,5.702226806640625,0.001864211168140173,-0.0003994738217443228,-0.0005326317623257637
1772810391586106600,5.712106689453125,0.0007989476434886456,0.0027963167522102594,0.0005326317623257637
1772810391595986700,5.721986572265625,-0.001864211168140173,-0.0009321055840700865,0
1772810391605866500,5.731866455078125,0.00026631588116288185,0.0006657897029072046,0.0010652635246515274
1772810391615746600,5.74174658203125,-0.0007989476434886456,-0.001997369108721614,0.0010652635246515274
1772810391625626400,5.75162646484375,-0.0007989476434886456,-0.0003994738217443228,-0.0005326317623257637
1772810391635506200,5.761506103515625,0.00026631588116288185,-0.0014647373463958502,-0.0005326317623257637
1772810391645386200,5.77138623046875,0.00026631588116288185,0.00013315794058144093,0
1772810391655266000,5.78126611328125,-0.0007989476434886456,-0.0025300008710473776,-0.0005326317623257637
1772810391665145900,5.791145751953125,0.0013315794058144093,-0.0014647373463958502,0.0005326317623257637
1772810391675026000,5.80102587890625,-0.0007989476434886456,-0.0009321055840700865,-0.0005326317623257637
1772810391684905700,5.81090576171875,-0.001864211168140173,-0.0003994738217443228,0.0010652635246515274
1772810391694785800,5.820785888671875,-0.0007989476434886456,-0.0003994738217443228,0.0010652635246515274
1772810391704665600,5.83066552734375,-0.0013315794058144093,0.001731053227558732,-0.0005326317623257637
1772810391714545400,5.84054541015625,0.00026631588116288185,0.00013315794058144093,-0.0005326317623257637
1772810391724425500,5.850425537109375,0.00026631588116288185,-0.0003994738217443228,0
1772810391734305300,5.86030517578125,-0.0007989476434886456,-0.0003994738217443228,-0.0005326317623257637
1772810391744185300,5.870185302734375,-0.0007989476434886456,-0.0009321055840700865,-0.0010652635246515274
1772810391754065200,5.880065185546875,0.00026631588116288185,-0.001997369108721614,-0.0005326317623257637
1772810391763945200,5.8899453125,0.00026631588116288185,-0.0003994738217443228,0.0005326317623257637
1772810391773825000,5.899824951171875,0.00026631588116288185,-0.0003994738217443228,0.001597895286977291
1772810391783704800,5.909704833984375,0.00026631588116288185,-0.0014647373463958502,0.0005326317623257637
1772810391793585000,5.9195849609375,0.0013315794058144093,-0.0009321055840700865,0.0005326317623257637
1772810391803464700,5.929464599609375,0.0013315794058144093,0.00013315794058144093,0.0010652635246515274
1772810391813344500,5.939344482421875,0.0007989476434886456,0.001731053227558732,0.0010652635246515274
1772810391823224600,5.949224609375,0.00026631588116288185,0.00013315794058144093,0.002130527049303055
1772810391833104400,5.9591044921875,0.0007989476434886456,0.00013315794058144093,0
1772810391842984400,5.968984375,-0.00026631588116288185,0.00013315794058144093,0
1772810391852864300,5.9788642578125,0.00026631588116288185,0.00013315794058144093,0.0005326317623257637
1772810391862744000,5.988744140625,0.00026631588116288185,0.00013315794058144093,0.001597895286977291
1772810391872624000,5.9986240234375,-0.00026631588116288185,-0.0003994738217443228,0.0010652635246515274
1772810391882504000,6.00850390625,0.00026631588116288185,0.00013315794058144093,-0.0005326317623257637
1772810391892384000,6.018384033203125,0.0007989476434886456,0.0006657897029072046,0
1772810391902263800,6.028263916015625,-0.00026631588116288185,0.00013315794058144093,0.0010652635246515274
1772810391912143600,6.0381435546875,-0.00026631588116288185,-0.0030626326333731413,0.0005326317623257637
1772810391922023700,6.048023681640625,-0.00026631588116288185,-0.0003994738217443228,0
1772810391931903500,6.057903564453125,0.00026631588116288185,0.0006657897029072046,0
1772810391941783600,6.067783447265625,-0.001864211168140173,0.0011984214652329683,-0.0005326317623257637
1772810391951663400,6.077663330078125,-0.00026631588116288185,-0.0003994738217443228,0.0010652635246515274
1772810391961543200,6.087543212890625,-0.00026631588116288185,0.00013315794058144093,0
1772810391971423200,6.09742333984375,0.00026631588116288185,0.00013315794058144093,-0.0005326317623257637
1772810391981303000,6.107302978515625,0.0013315794058144093,0.00013315794058144093,0.0010652635246515274
1772810391991182800,6.117182861328125,0.0007989476434886456,0.0011984214652329683,0
1772810392001063200,6.127063232421875,-0.0013315794058144093,0.00013315794058144093,-0.001597895286977291
1772810392010943200,6.136943115234375,-0.0013315794058144093,0.0006657897029072046,0.0010652635246515274
1772810392020823600,6.146823486328125,-0.00026631588116288185,0.00013315794058144093,0.002130527049303055
1772810392030703600,6.15670361328125,0.0007989476434886456,-0.0003994738217443228,0.0005326317623257637
1772810392040584000,6.166583984375,-0.0013315794058144093,0.00013315794058144093,0.001597895286977291
1772810392050464300,6.17646435546875,-0.00026631588116288185,0.0006657897029072046,0.0010652635246515274
1772810392060344300,6.18634423828125,0.00026631588116288185,-0.0003994738217443228,0.0010652635246515274
1772810392070224600,6.196224609375,0.00026631588116288185,-0.0003994738217443228,0.0010652635246515274
1772810392080105000,6.20610498046875,0.0007989476434886456,-0.0009321055840700865,0.0005326317623257637
1772810392089985000,6.215985107421875,-0.00026631588116288185,-0.0014647373463958502,0.0005326317623257637
1772810392099865300,6.225865234375,0.001864211168140173,-0.0003994738217443228,0.0010652635246515274
1772810392109745400,6.235745361328125,-0.0007989476434886456,-0.0003994738217443228,0.0005326317623257637
1772810392119625700,6.245625732421875,0.0013315794058144093,0.00013315794058144093,0.0005326317623257637
1772810392129506000,6.255506103515625,0.0007989476434886456,-0.0003994738217443228,0.0010652635246515274
1772810392139386000,6.26538623046875,0.0007989476434886456,0.00013315794058144093,-0.001597895286977291
1772810392149266400,6.275266357421875,-0.0007989476434886456,-0.0003994738217443228,-0.0005326317623257637
1772810392159146500,6.285146484375,0.00026631588116288185,-0.0025300008710473776,0
1772810392169026800,6.29502685546875,-0.0007989476434886456,-0.0003994738217443228,0
1772810392178907100,6.3049072265625,0.00026631588116288185,0.0006657897029072046,-0.0005326317623257637
1772810392188787200,6.314787109375,-0.0007989476434886456,-0.0014647373463958502,0.0010652635246515274
1772810392198667500,6.32466748046875,-0.00026631588116288185,-0.0014647373463958502,-0.0005326317623257637
1772810392208547600,6.334547607421875,0.00026631588116288185,-0.0003994738217443228,0
1772810392218428000,6.344427978515625,-0.00026631588116288185,-0.0003994738217443228,-0.0005326317623257637
1772810392228308200,6.35430810546875,0.00026631588116288185,-0.0003994738217443228,-0.0005326317623257637
1772810392238188300,6.364188232421875,-0.0007989476434886456,-0.0030626326333731413,0.0005326317623257637
1772810392248068600,6.374068603515625,-0.00026631588116288185,-0.0009321055840700865,-0.0005326317623257637
1772810392257948700,6.38394873046875,-0.00026631588116288185,-0.001997369108721614,-0.001597895286977291
1772810392267829000,6.3938291015625,0.0013315794058144093,0.0006657897029072046,0.0005326317623257637
1772810392277709300,6.403709228515625,0.00026631588116288185,0.00013315794058144093,0
1772810392287589400,6.41358935546875,0.00026631588116288185,-0.0009321055840700865,-0.0005326317623257637
1772810392297469700,6.4234697265625,0.0007989476434886456,-0.0014647373463958502,0.0010652635246515274
1772810392307349800,6.433349853515625,0.0013315794058144093,-0.001997369108721614,0.0005326317623257637
1772810392317230000,6.44322998046875,0.0023968429304659367,0.00013315794058144093,-0.0010652635246515274
1772810392327110400,6.4531103515625,-0.0007989476434886456,0.0006657897029072046,-0.0010652635246515274
1772810392336990500,6.462990478515625,-0.00026631588116288185,0.00013315794058144093,-0.0010652635246515274
1772810392346870800,6.472870849609375,0.0013315794058144093,0.00013315794058144093,-0.0005326317623257637
1772810392356751000,6.482751220703125,-0.0007989476434886456,-0.0003994738217443228,0.0010652635246515274
1772810392366631200,6.492631103515625,-0.00026631588116288185,-0.0009321055840700865,-0.0005326317623257637
1772810392376511500,6.502511474609375,-0.00026631588116288185,-0.0009321055840700865,0.0005326317623257637
1772810392386391600,6.5123916015625,-0.00026631588116288185,-0.003595264395698905,-0.0005326317623257637
1772810392396271900,6.52227197265625,0.00026631588116288185,-0.0009321055840700865,0
1772810392406152200,6.532152099609375,0.00026631588116288185,-0.0014647373463958502,0.0010652635246515274
1772810392416032300,6.5420322265625,0.0007989476434886456,-0.0009321055840700865,0.001597895286977291
1772810392425912600,6.55191259765625,0.00026631588116288185,-0.0014647373463958502,0
1772810392435792600,6.561792724609375,0.00026631588116288185,-0.0009321055840700865,0.0005326317623257637
1772810392445673000,6.5716728515625,0.0007989476434886456,0.00013315794058144093,-0.0005326317623257637
1772810392455553300,6.58155322265625,-0.0013315794058144093,-0.0014647373463958502,0.0005326317623257637
1772810392465433300,6.591433349609375,0.00026631588116288185,0.0009321055840700865,0.00026631588116288185
1772810392475313700,6.601313720703125,0.0007989476434886456,-0.0022636849898844957,0.0007989476434886456
1772810392485193700,6.61119384765625,-0.00026631588116288185,-0.0011984214652329683,0.0007989476434886456
1772810392495074000,6.621073974609375,-0.0013315794058144093,0.0003994738217443228,-0.00026631588116288185
1772810392504954400,6.630954345703125,0.00026631588116288185,-0.001731053227558732,-0.00026631588116288185
1772810392514834700,6.640834716796875,-0.00026631588116288185,0.0003994738217443228,-0.0013315794058144093
1772810392524715000,6.650715087890625,0.001864211168140173,-0.00013315794058144093,0.0007989476434886456
1772810392534595300,6.66059521484375,0.0007989476434886456,0.001997369108721614,-0.00026631588116288185
1772810392544475600,6.6704755859375,-0.0007989476434886456,-0.00013315794058144093,0.00026631588116288185
1772810392554356000,6.68035595703125,-0.0007989476434886456,-0.00013315794058144093,-0.0013315794058144093
1772810392564236300,6.690236328125,-0.0007989476434886456,-0.0027963167522102594,-0.001864211168140173
1772810392574116600,6.70011669921875,-0.0013315794058144093,0.0009321055840700865,0.00026631588116288185
1772810392583997000,6.709996826171875,0.00026631588116288185,0.0003994738217443228,0.00026631588116288185
1772810392593877200,6.719877197265625,-0.0007989476434886456,0.0014647373463958502,0.00026631588116288185
1772810392603757600,6.729757568359375,-0.00026631588116288185,-0.00013315794058144093,-0.001864211168140173
1772810392613638000,6.739637939453125,-0.00026631588116288185,-0.00013315794058144093,0.0007989476434886456
1772810392623518200,6.749518310546875,-0.0007989476434886456,-0.0011984214652329683,-0.00026631588116288185
1772810392633398500,6.7593984375,-0.00026631588116288185,-0.0006657897029072046,0.00026631588116288185
1772810392643278800,6.76927880859375,0.00026631588116288185,-0.001731053227558732,-0.00026631588116288185
1772810392653159200,6.7791591796875,-0.0013315794058144093,-0.00013315794058144093,-0.00026631588116288185
1772810392663039500,6.78903955078125,-0.0013315794058144093,0.0003994738217443228,-0.00026631588116288185
1772810392672919800,6.798919921875,-0.00026631588116288185,-0.0006657897029072046,-0.0007989476434886456
1772810392682800000,6.808800048828125,-0.0007989476434886456,-0.0011984214652329683,0.00026631588116288185
1772810392692680400,6.818680419921875,0.00026631588116288185,-0.0022636849898844957,-0.0007989476434886456
1772810392702560800,6.828560791015625,0.0013315794058144093,-0.0006657897029072046,-0.00026631588116288185
1772810392712441000,6.838441162109375,-0.00026631588116288185,0.0009321055840700865,0.00026631588116288185
1772810392722321400,6.8483212890625,-0.00026631588116288185,-0.0011984214652329683,-0.00026631588116288185
1772810392732201700,6.85820166015625,0.0007989476434886456,-0.00013315794058144093,-0.001864211168140173
1772810392742082000,6.86808203125,-0.0007989476434886456,0.0009321055840700865,-0.00026631588116288185
1772810392751962400,6.87796240234375,-0.00026631588116288185,0.0009321055840700865,-0.00026631588116288185
1772810392761842700,6.8878427734375,-0.0007989476434886456,0.0014647373463958502,0.00026631588116288185
1772810392771723000,6.897722900390625,0.00026631588116288185,-0.00013315794058144093,-0.0007989476434886456
1772810392781603300,6.907603271484375,0.00026631588116288185,-0.0006657897029072046,0.00026631588116288185
1772810392791483600,6.917483642578125,0.0013315794058144093,0.0003994738217443228,0.00026631588116288185
1772810392801364000,6.927364013671875,0.0007989476434886456,-0.0006657897029072046,0.0007989476434886456
1772810392811244300,6.937244384765625,-0.00026631588116288185,-0.00013315794058144093,0.0013315794058144093
1772810392821124600,6.94712451171875,-0.0013315794058144093,-0.0006657897029072046,0.00026631588116288185
1772810392831005000,6.9570048828125,0.001864211168140173,0.0003994738217443228,0.00026631588116288185
1772810392840885200,6.96688525390625,-0.0007989476434886456,0.0014647373463958502,-0.00026631588116288185
1772810392850765600,6.976765625,0.0007989476434886456,-0.00013315794058144093,-0.0007989476434886456
1772810392860646000,6.98664599609375,-0.00026631588116288185,0.0003994738217443228,0.0007989476434886456
1772810392870526200,6.996526123046875,-0.0013315794058144093,0.0003994738217443228,-0.001864211168140173
1772810392880406300,7.00640625,-0.00026631588116288185,0.0003994738217443228,-0.00026631588116288185
1772810392890286600,7.01628662109375,0.001864211168140173,-0.001731053227558732,-0.0007989476434886456
1772810392900167000,7.0261669921875,0.00026631588116288185,0.0009321055840700865,-0.00026631588116288185
1772810392910047200,7.036047119140625,0.00026631588116288185,0.0003994738217443228,0.0013315794058144093
1772810392919927600,7.045927490234375,-0.00026631588116288185,0.001997369108721614,0.00026631588116288185
1772810392929808100,7.05580810546875,-0.0013315794058144093,-0.00013315794058144093,0.0007989476434886456
1772810392939688400,7.0656884765625,-0.0007989476434886456,0.0025300008710473776,-0.0007989476434886456
1772810392949568500,7.075568603515625,0.00026631588116288185,-0.0011984214652329683,-0.00026631588116288185
1772810392959448800,7.08544873046875,-0.00026631588116288185,0.0009321055840700865,0.00026631588116288185
1772810392969329200,7.0953291015625,-0.0013315794058144093,-0.0006657897029072046,0.0007989476434886456
1772810392979209500,7.10520947265625,0.001864211168140173,0.0003994738217443228,-0.0007989476434886456
1772810392989089800,7.11508984375,0.00026631588116288185,0.001997369108721614,0.00026631588116288185
1772810392998969900,7.124969970703125,-0.00026631588116288185,0.0009321055840700865,-0.00026631588116288185
1772810393008849400,7.134849365234375,0.00026631588116288185,-0.00013315794058144093,0.00026631588116288185
1772810393018728700,7.144728759765625,-0.0007989476434886456,0.0014647373463958502,-0.0007989476434886456
1772810393028608300,7.154608154296875,-0.00026631588116288185,0.001997369108721614,0.0013315794058144093
1772810393038487800,7.16448779296875,0.0007989476434886456,0.0009321055840700865,-0.00026631588116288185
1772810393048367000,7.1743671875,-0.0007989476434886456,-0.0006657897029072046,-0.0013315794058144093
1772810393058246700,7.18424658203125,0.00026631588116288185,-0.0006657897029072046,0.00026631588116288185
1772810393068126000,7.1941259765625,0.0007989476434886456,-0.0006657897029072046,-0.0007989476434886456
1772810393078005500,7.204005615234375,-0.00026631588116288185,0.0014647373463958502,-0.00026631588116288185
1772810393087885000,7.213885009765625,0.00026631588116288185,-0.0006657897029072046,-0.00026631588116288185
1772810393097764400,7.223764404296875,0.001864211168140173,-0.00013315794058144093,-0.0007989476434886456
1772810393107644000,7.233643798828125,0.0013315794058144093,-0.0011984214652329683,-0.00026631588116288185
1772810393117523200,7.243523193359375,-0.00026631588116288185,-0.001731053227558732,0.0007989476434886456
1772810393137282300,7.2632822265625,0.0013315794058144093,0.0014647373463958502,0.00026631588116288185
1772810393147161600,7.27316162109375,-0.00026631588116288185,-0.00013315794058144093,-0.0007989476434886456
1772810393157041200,7.283041259765625,-0.00026631588116288185,-0.0011984214652329683,-0.00026631588116288185
1772810393166920400,7.29292041015625,0.0007989476434886456,0.0009321055840700865,-0.0007989476434886456
1772810393176800000,7.302800048828125,0.00026631588116288185,0.0014647373463958502,-0.0013315794058144093
1772810393186679300,7.31267919921875,0.00026631588116288185,0.0003994738217443228,0.0007989476434886456
1772810393196558800,7.322558837890625,-0.0007989476434886456,0.0003994738217443228,0.00026631588116288185
1772810393206438400,7.3324384765625,0.0013315794058144093,-0.00013315794058144093,0.0007989476434886456
1772810393216317700,7.342317626953125,-0.00026631588116288185,0.0014647373463958502,-0.0007989476434886456
1772810393226197200,7.352197265625,0.00026631588116288185,0.0003994738217443228,-0.0007989476434886456
1772810393245956000,7.3719560546875,0.0007989476434886456,0.0003994738217443228,-0.00026631588116288185
1772810393255835600,7.381835693359375,0.0013315794058144093,0.0014647373463958502,0.0007989476434886456
1772810393265715000,7.39171484375,-0.00026631588116288185,0.0003994738217443228,0.0007989476434886456
1772810393275594500,7.401594482421875,0.0007989476434886456,-0.00013315794058144093,-0.0007989476434886456
1772810393285473800,7.411473876953125,0.00026631588116288185,-0.0006657897029072046,0.00026631588116288185
1772810393295353300,7.421353271484375,0.00026631588116288185,-0.0006657897029072046,-0.0007989476434886456
1772810393305233000,7.43123291015625,0.0013315794058144093,-0.0011984214652329683,-0.00026631588116288185
1772810393315112200,7.4411123046875,-0.0007989476434886456,-0.0006657897029072046,-0.00026631588116288185
1772810393324991700,7.45099169921875,-0.0007989476434886456,-0.00013315794058144093,-0.001864211168140173
1772810393334871000,7.46087109375,0.00026631588116288185,-0.0006657897029072046,0.0007989476434886456
1772810393344750600,7.47075048828125,-0.00026631588116288185,-0.00013315794058144093,-0.00026631588116288185
1772810393354630100,7.480630126953125,0.00026631588116288185,-0.0011984214652329683,-0.0023968429304659367
1772810393364509400,7.490509521484375,0.00026631588116288185,0.0014647373463958502,-0.00026631588116288185
1772810393374389000,7.500388916015625,-0.00026631588116288185,-0.0006657897029072046,0.00026631588116288185
1772810393384268300,7.510268310546875,0.0013315794058144093,0.0014647373463958502,-0.0007989476434886456
1772810393394147800,7.52014794921875,0.0007989476434886456,0.0014647373463958502,-0.0013315794058144093
1772810393404027400,7.53002734375,-0.0007989476434886456,-0.0011984214652329683,0.00026631588116288185
1772810393413906700,7.53990673828125,-0.0007989476434886456,-0.0022636849898844957,-0.00026631588116288185
1772810393423786200,7.5497861328125,-0.0007989476434886456,0.0003994738217443228,-0.0007989476434886456
1772810393443545000,7.569545166015625,0.0013315794058144093,0.0003994738217443228,0.0007989476434886456
1772810393453424600,7.579424560546875,-0.00026631588116288185,-0.0011984214652329683,-0.0013315794058144093
1772810393463304000,7.589303955078125,0.0007989476434886456,0.0003994738217443228,0.00026631588116288185
1772810393473183500,7.59918359375,-0.00026631588116288185,0.0009321055840700865,-0.00026631588116288185
1772810393483062800,7.609062744140625,-0.001864211168140173,-0.0006657897029072046,0.00026631588116288185
1772810393492942300,7.6189423828125,-0.00026631588116288185,0.0025300008710473776,0.0007989476434886456
1772810393502822100,7.628822265625,-0.00026631588116288185,0.001997369108721614,-0.0007989476434886456
1772810393512702200,7.6387021484375,-0.0007989476434886456,-0.0006657897029072046,-0.00026631588116288185
1772810393522582300,7.648582275390625,0.0007989476434886456,0.0003994738217443228,-0.0007989476434886456
1772810393532462300,7.65846240234375,-0.00026631588116288185,0.0014647373463958502,0.00026631588116288185
1772810393542342400,7.66834228515625,-0.00026631588116288185,0.0009321055840700865,0.0007989476434886456
1772810393552222200,7.67822216796875,0.0007989476434886456,-0.00013315794058144093,0.0013315794058144093
1772810393562102300,7.688102294921875,0.00026631588116288185,0.0014647373463958502,-0.00026631588116288185
1772810393571982300,7.697982421875,0.0007989476434886456,0.0009321055840700865,0.00026631588116288185
1772810393581862400,7.7078623046875,0.00026631588116288185,0.0025300008710473776,-0.00026631588116288185
1772810393591742500,7.717742431640625,0.00026631588116288185,0.0014647373463958502,0.00026631588116288185
1772810393601622500,7.72762255859375,-0.0013315794058144093,-0.001731053227558732,-0.0007989476434886456
1772810393611502300,7.73750244140625,-0.0007989476434886456,-0.00013315794058144093,-0.00026631588116288185
1772810393621382400,7.74738232421875,-0.00026631588116288185,0.0003994738217443228,-0.0013315794058144093
1772810393631262500,7.757262451171875,-0.0007989476434886456,0.0003994738217443228,-0.0007989476434886456
1772810393641142500,7.767142578125,0.001864211168140173,0.0009321055840700865,0.00026631588116288185
1772810393651022600,7.777022705078125,-0.0007989476434886456,0.001997369108721614,0.00026631588116288185
1772810393660902700,7.786902587890625,0.0023968429304659367,-0.0006657897029072046,0.00026631588116288185
1772810393670782700,7.79678271484375,0.0013315794058144093,-0.0022636849898844957,0.0007989476434886456
1772810393690542600,7.81654248046875,0.001864211168140173,0.0009321055840700865,0.0013315794058144093
1772810393700422700,7.826422607421875,0.0007989476434886456,-0.001731053227558732,0.0007989476434886456
1772810393710302700,7.836302734375,0.0007989476434886456,0.0003994738217443228,-0.0007989476434886456
1772810393720182800,7.846182861328125,-0.00026631588116288185,0.0014647373463958502,-0.00026631588116288185
1772810393730062600,7.8560625,-0.00026631588116288185,-0.0006657897029072046,-0.00026631588116288185
1772810393739942700,7.865942626953125,-0.0013315794058144093,-0.00013315794058144093,-0.00026631588116288185
1772810393749822700,7.87582275390625,-0.00026631588116288185,-0.001731053227558732,0.00026631588116288185
1772810393759702800,7.885702880859375,-0.0007989476434886456,0.0003994738217443228,-0.0007989476434886456
1772810393769582800,7.895582763671875,0.00026631588116288185,0.0009321055840700865,-0.00026631588116288185
1772810393779463000,7.905462890625,-0.00026631588116288185,-0.0006657897029072046,0.00026631588116288185
1772810393789342700,7.9153427734375,-0.00026631588116288185,-0.00013315794058144093,0.00026631588116288185
1772810393799222800,7.925222900390625,-0.00026631588116288185,-0.0011984214652329683,-0.00026631588116288185
1772810393809102800,7.935102783203125,0.0013315794058144093,-0.0011984214652329683,-0.0007989476434886456
1772810393818983000,7.94498291015625,0.00026631588116288185,0.0014647373463958502,-0.001864211168140173
1772810393828863000,7.954863037109375,0.00026631588116288185,-0.0006657897029072046,-0.0007989476434886456
1772810393838742800,7.96474267578125,-0.00026631588116288185,0.0009321055840700865,0.00026631588116288185
1772810393848622800,7.974622802734375,0.0007989476434886456,0.0009321055840700865,0.0007989476434886456
1772810393858503000,7.9845029296875,0.0007989476434886456,-0.0011984214652329683,0.00026631588116288185
1772810393868383000,7.994383056640625,-0.00026631588116288185,0.0009321055840700865,-0.00026631588116288185
1772810393878263000,8.004262939453126,-0.0007989476434886456,0.0009321055840700865,0.00026631588116288185
1772810393888143000,8.01414306640625,0.001864211168140173,0.0014647373463958502,-0.0013315794058144093
1772810393898023200,8.024023193359374,-0.0007989476434886456,-0.00013315794058144093,0.001864211168140173
1772810393907903000,8.033903076171875,-0.00026631588116288185,0.0009321055840700865,-0.0013315794058144093
1772810393917783000,8.043782958984375,-0.0007989476434886456,0.001997369108721614,-0.00026631588116288185
1772810393927663000,8.0536630859375,-0.00026631588116288185,0.0003994738217443228,0.0013315794058144093
1772810393937543200,8.063543212890625,-0.0013315794058144093,0.0003994738217443228,0.0007989476434886456
1772810393947423200,8.07342333984375,-0.00026631588116288185,0.0009321055840700865,0.00026631588116288185
1772810393957303300,8.08330322265625,0.00026631588116288185,-0.0011984214652329683,0.00026631588116288185
1772810393967183000,8.09318310546875,-0.00026631588116288185,-0.00013315794058144093,-0.0013315794058144093
1772810393977063200,8.103063232421874,0.0013315794058144093,0.0009321055840700865,0.0013315794058144093
1772810393986943200,8.112943115234375,-0.0013315794058144093,-0.00013315794058144093,-0.00026631588116288185
1772810393996823300,8.1228232421875,0.0013315794058144093,0.0009321055840700865,0.0007989476434886456
1772810394006703000,8.132703125,0.0007989476434886456,0.0025300008710473776,-0.00026631588116288185
1772810394016583200,8.142583251953125,0.00026631588116288185,0.0003994738217443228,0.0007989476434886456
1772810394026463200,8.152463134765625,0.0007989476434886456,-0.003328948514536023,-0.0007989476434886456
1772810394036343000,8.162343017578126,0.0007989476434886456,0.0003994738217443228,-0.0007989476434886456
1772810394046223000,8.17222314453125,-0.0007989476434886456,-0.00013315794058144093,0.0007989476434886456
1772810394056103000,8.18210302734375,-0.0007989476434886456,0.0009321055840700865,0.0013315794058144093
1772810394065983000,8.19198291015625,-0.0007989476434886456,0.0003994738217443228,-0.00026631588116288185
1772810394075862800,8.20186279296875,0.00026631588116288185,-0.0006657897029072046,0.0013315794058144093
1772810394085742800,8.211742919921875,-0.00026631588116288185,-0.0011984214652329683,-0.00026631588116288185
1772810394095623000,8.221622802734375,0.00026631588116288185,-0.00013315794058144093,-0.00026631588116288185
1772810394105502700,8.231502685546875,-0.00026631588116288185,0.0003994738217443228,-0.00026631588116288185
1772810394115382800,8.2413828125,-0.0007989476434886456,-0.00013315794058144093,-0.0013315794058144093
1772810394125262800,8.251262939453126,0.00026631588116288185,0.0009321055840700865,-0.0013315794058144093
1772810394145022700,8.271022705078124,0.00026631588116288185,-0.0006657897029072046,0.003994738217443228
1772810394154902500,8.280902587890624,-0.0007989476434886456,-0.0006657897029072046,0.0013315794058144093
1772810394164782600,8.290782470703125,-0.00026631588116288185,0.0014647373463958502,-0.0023968429304659367
1772810394174662700,8.30066259765625,-0.00026631588116288185,-0.00013315794058144093,0.0013315794058144093
1772810394184542500,8.31054248046875,0.0007989476434886456,-0.0006657897029072046,0.00026631588116288185
1772810394194422500,8.320422607421875,0.00026631588116288185,0.0014647373463958502,-0.0013315794058144093
1772810394204302300,8.33030224609375,0.001864211168140173,-0.003328948514536023,0.0007989476434886456
1772810394214182400,8.340182373046876,-0.0007989476434886456,0.0014647373463958502,0.0023968429304659367
1772810394224062200,8.350062255859376,0.00026631588116288185,0.001997369108721614,0.0007989476434886456
1772810394233942300,8.3599423828125,0.00026631588116288185,0.0003994738217443228,0.00026631588116288185
1772810394243822300,8.369822265625,-0.001864211168140173,-0.00026631588116288185,0.0023968429304659367
1772810394253702100,8.3797021484375,-0.00026631588116288185,0.0007989476434886456,-0.00026631588116288185
1772810394263582200,8.389582275390625,-0.00026631588116288185,-0.0013315794058144093,-0.00026631588116288185
1772810394273462000,8.3994619140625,-0.0013315794058144093,-0.001864211168140173,0.0007989476434886456
1772810394283342000,8.409342041015625,0.0007989476434886456,0.0013315794058144093,-0.00026631588116288185
1772810394293222100,8.41922216796875,0.001864211168140173,0.0007989476434886456,0.0023968429304659367
1772810394303102000,8.42910205078125,-0.00026631588116288185,-0.00026631588116288185,0.0007989476434886456
1772810394312982000,8.43898193359375,0.00026631588116288185,0.00026631588116288185,-0.0023968429304659367
1772810394322862000,8.448862060546874,0.0023968429304659367,0.00026631588116288185,0.00026631588116288185
1772810394332742000,8.458741943359374,0.0013315794058144093,0.0007989476434886456,0.00026631588116288185
1772810394342622000,8.4686220703125,0.0007989476434886456,-0.00026631588116288185,0.0013315794058144093
1772810394352501800,8.478501708984375,0.00026631588116288185,-0.0007989476434886456,-0.0007989476434886456
1772810394362381800,8.4883818359375,-0.0007989476434886456,0.0007989476434886456,0.0007989476434886456
1772810394372262000,8.498261962890625,0.00026631588116288185,0.00026631588116288185,-0.0013315794058144093
1772810394382141700,8.5081416015625,0.0007989476434886456,-0.0023968429304659367,0.00026631588116288185
1772810394392021800,8.518021728515626,-0.0013315794058144093,0.0007989476434886456,-0.0007989476434886456
1772810394401901600,8.527901611328126,-0.00026631588116288185,-0.001864211168140173,-0.0013315794058144093
1772810394411781600,8.53778173828125,0.0013315794058144093,0.00026631588116288185,0.00026631588116288185
1772810394421661400,8.547661376953124,0.0007989476434886456,0.008788423612713814,0.0029294746927917004
1772810394431541500,8.55754150390625,0.0013315794058144093,0.0007989476434886456,-0.00026631588116288185
1772810394441421600,8.567421630859375,0.00026631588116288185,-0.0013315794058144093,0.0007989476434886456
1772810394451301400,8.57730126953125,-0.00026631588116288185,-0.0013315794058144093,-0.0013315794058144093
1772810394461181400,8.587181396484375,0.0007989476434886456,0.0023968429304659367,0.0013315794058144093
1772810394471061200,8.597061279296875,-0.0013315794058144093,0.0013315794058144093,0.0013315794058144093
1772810394480941300,8.60694140625,-0.00026631588116288185,0.0007989476434886456,-0.0007989476434886456
1772810394490821400,8.6168212890625,-0.00026631588116288185,0.003994738217443228,0.00026631588116288185
1772810394510581000,8.6365810546875,0.00026631588116288185,0.001864211168140173,0.00026631588116288185
1772810394520461000,8.6464609375,0.0007989476434886456,0.0029294746927917004,0.001864211168140173
1772810394530340900,8.6563408203125,-0.00026631588116288185,0.0007989476434886456,0.00026631588116288185
1772810394540220700,8.666220703125,0.00026631588116288185,0.001864211168140173,-0.00026631588116288185
1772810394550100500,8.6761005859375,-0.00026631588116288185,0.0013315794058144093,0.0007989476434886456
1772810394559980500,8.68598046875,0.00026631588116288185,-0.0007989476434886456,-0.0007989476434886456
1772810394569860400,8.6958603515625,0.00026631588116288185,-0.0013315794058144093,0.0013315794058144093
1772810394579740200,8.705740234375,0.0007989476434886456,0.0013315794058144093,0.00026631588116288185
1772810394589620000,8.715619873046874,-0.0007989476434886456,-0.0007989476434886456,0.00026631588116288185
1772810394599500000,8.7255,-0.00026631588116288185,-0.0007989476434886456,-0.00026631588116288185
1772810394609379800,8.7353798828125,-0.00026631588116288185,0.0013315794058144093,0.0007989476434886456
1772810394619259600,8.745259765625,-0.00026631588116288185,0.001864211168140173,0.0007989476434886456
1772810394629139700,8.7551396484375,-0.00026631588116288185,0.001864211168140173,0.00026631588116288185
1772810394639019500,8.76501953125,-0.0007989476434886456,0.00026631588116288185,-0.00026631588116288185
1772810394648899300,8.7748994140625,0.0013315794058144093,0.00026631588116288185,-0.0007989476434886456
1772810394658779100,8.784779052734375,-0.0007989476434886456,0.0007989476434886456,0.0007989476434886456
1772810394668659200,8.7946591796875,-0.0007989476434886456,0.0007989476434886456,-0.00026631588116288185
1772810394678539000,8.8045390625,0.0013315794058144093,0.0007989476434886456,-0.001864211168140173
1772810394688418800,8.814418701171874,0.00026631588116288185,-0.00026631588116288185,0.0013315794058144093
1772810394698298600,8.824298583984374,0.0013315794058144093,0.0013315794058144093,-0.00026631588116288185
1772810394708178700,8.8341787109375,-0.00026631588116288185,0.00026631588116288185,0.00026631588116288185
1772810394718058500,8.84405859375,0.00026631588116288185,0.00026631588116288185,0.0013315794058144093
1772810394727938300,8.853938232421875,-0.00026631588116288185,0.0013315794058144093,-0.00026631588116288185
1772810394737818400,8.863818359375,-0.00026631588116288185,0.0007989476434886456,-0.0007989476434886456
1772810394747698200,8.8736982421875,-0.0007989476434886456,0.00026631588116288185,0.00026631588116288185
1772810394757578000,8.883577880859375,0.0013315794058144093,0.00026631588116288185,-0.00026631588116288185
1772810394767457800,8.893457763671876,-0.00026631588116288185,-0.001864211168140173,-0.001864211168140173
1772810394777337900,8.903337890625,-0.00026631588116288185,-0.001864211168140173,0.0007989476434886456
1772810394787217700,8.9132177734375,0.0007989476434886456,0.00026631588116288185,-0.001864211168140173
1772810394806977500,8.9329775390625,0.0013315794058144093,0.00026631588116288185,-0.00026631588116288185
1772810394816857300,8.942857421875,-0.0013315794058144093,-0.0013315794058144093,0.00026631588116288185
1772810394826737200,8.952737060546875,0.00026631588116288185,0.001864211168140173,0.00026631588116288185
1772810394836617000,8.962616943359375,-0.0007989476434886456,-0.00026631588116288185,-0.0007989476434886456
1772810394846497000,8.9724970703125,-0.00026631588116288185,0.0013315794058144093,-0.00026631588116288185
1772810394856376800,8.982376953125,0.00026631588116288185,0.0007989476434886456,-0.00026631588116288185
1772810394866256600,8.992256591796876,-0.00026631588116288185,0.0007989476434886456,-0.0013315794058144093
1772810394876136700,9.00213671875,-0.00026631588116288185,0.00026631588116288185,0.0007989476434886456
1772810394895896300,9.021896240234375,-0.0013315794058144093,0.0029294746927917004,-0.00026631588116288185
1772810394905776000,9.031776123046875,0.00026631588116288185,-0.0007989476434886456,-0.00026631588116288185
1772810394915656200,9.04165625,0.0007989476434886456,0.0007989476434886456,0.00026631588116288185
1772810394925536000,9.051535888671875,0.0007989476434886456,0.0007989476434886456,-0.0007989476434886456
1772810394935415800,9.061415771484375,-0.00026631588116288185,0.00026631588116288185,-0.0013315794058144093
1772810394945295600,9.071295654296875,-0.001864211168140173,-0.00026631588116288185,-0.00026631588116288185
1772810394955175700,9.08117578125,-0.00026631588116288185,-0.00026631588116288185,0.00026631588116288185
1772810394965055500,9.091055419921876,-0.00026631588116288185,0.001864211168140173,-0.0013315794058144093
1772810394974935300,9.100935302734374,-0.001864211168140173,0.0007989476434886456,-0.00026631588116288185
1772810394984815400,9.1108154296875,0.00026631588116288185,-0.00026631588116288185,-0.0007989476434886456
1772810394994695200,9.120695068359375,-0.00026631588116288185,-0.001864211168140173,-0.00026631588116288185
1772810395004574700,9.13057470703125,-0.00026631588116288185,-0.0007989476434886456,-0.001864211168140173
1772810395014454300,9.140454345703125,0.0007989476434886456,0.00026631588116288185,-0.0007989476434886456
1772810395024333800,9.150333740234375,0.00026631588116288185,-0.00026631588116288185,-0.0007989476434886456
1772810395034213400,9.16021337890625,0.0007989476434886456,-0.00026631588116288185,-0.00026631588116288185
1772810395044093000,9.170093017578125,0.00026631588116288185,-0.00026631588116288185,-0.00026631588116288185
1772810395053972500,9.179972412109375,0.00026631588116288185,-0.00026631588116288185,-0.0007989476434886456
1772810395063852000,9.18985205078125,-0.00026631588116288185,-0.00026631588116288185,-0.0007989476434886456
1772810395073731600,9.199731689453126,-0.00026631588116288185,-0.001864211168140173,-0.0007989476434886456
1772810395083611100,9.209611083984376,-0.00026631588116288185,0.00026631588116288185,0.0007989476434886456
1772810395093490700,9.21949072265625,-0.00026631588116288185,-0.0007989476434886456,0.00026631588116288185
1772810395103370200,9.229370361328124,-0.0007989476434886456,0.0013315794058144093,-0.0007989476434886456
1772810395113249800,9.239249755859374,0.00026631588116288185,0.0013315794058144093,-0.0013315794058144093
1772810395123129300,9.24912939453125,-0.0007989476434886456,-0.00026631588116288185,0.0007989476434886456
1772810395133009000,9.2590087890625,-0.0013315794058144093,-0.0013315794058144093,0.00026631588116288185
1772810395142888700,9.268888671875,0.00026631588116288185,-0.00026631588116288185,-0.00026631588116288185
1772810395152768000,9.27876806640625,0.0007989476434886456,-0.001864211168140173,0.00026631588116288185
1772810395162647800,9.288647705078125,-0.0007989476434886456,0.0029294746927917004,-0.0007989476434886456
1772810395172527400,9.29852734375,0.001864211168140173,-0.0007989476434886456,0.00026631588116288185
1772810395182407000,9.308406982421875,0.0007989476434886456,0.0013315794058144093,0.0013315794058144093
1772810395192286500,9.318286376953125,-0.0007989476434886456,-0.0007989476434886456,-0.0007989476434886456
1772810395202166000,9.328166015625,0.0007989476434886456,0.00026631588116288185,-0.00026631588116288185
1772810395212045600,9.338045654296875,-0.0007989476434886456,0.0013315794058144093,0.0013315794058144093
1772810395221925000,9.347925048828126,0.0007989476434886456,0.001864211168140173,-0.0013315794058144093
1772810395231804700,9.3578046875,-0.00026631588116288185,-0.0013315794058144093,-0.00026631588116288185
1772810395241684200,9.367684326171876,0.001864211168140173,0.0013315794058144093,-0.00026631588116288185
1772810395251563800,9.377563720703124,-0.0013315794058144093,0.0007989476434886456,-0.0013315794058144093
1772810395261443300,9.387443359375,-0.0013315794058144093,0.0013315794058144093,0.00026631588116288185
1772810395271323000,9.397322998046874,0.00026631588116288185,0.0013315794058144093,-0.00026631588116288185
1772810395281202400,9.407202392578125,-0.0007989476434886456,-0.00026631588116288185,-0.0013315794058144093
1772810395291082000,9.41708203125,0.0013315794058144093,0.0007989476434886456,0.00026631588116288185
1772810395300961500,9.42696142578125,-0.00026631588116288185,0.00026631588116288185,-0.0007989476434886456
1772810395310841000,9.436841064453125,0.0007989476434886456,0.00026631588116288185,-0.00026631588116288185
1772810395320720600,9.446720703125,-0.0007989476434886456,-0.0007989476434886456,0.0007989476434886456
1772810395330600200,9.45660009765625,0.00026631588116288185,-0.00026631588116288185,-0.0007989476434886456
1772810395340479700,9.466479736328125,-0.0013315794058144093,-0.0029294746927917004,-0.00026631588116288185
1772810395350359300,9.476359375,-0.001864211168140173,-0.0013315794058144093,0.0007989476434886456
1772810395360238800,9.48623876953125,0.0007989476434886456,0.0007989476434886456,-0.0007989476434886456
1772810395370118700,9.49611865234375,-0.0013315794058144093,0.00026631588116288185,-0.0013315794058144093
1772810395379998000,9.505998046875,-0.00026631588116288185,-0.0007989476434886456,0.00026631588116288185
1772810395389877800,9.515877685546876,-0.00026631588116288185,-0.00026631588116288185,0.00026631588116288185
1772810395399757000,9.525757080078124,-0.00026631588116288185,-0.00026631588116288185,-0.0007989476434886456
1772810395409636900,9.535636962890624,0.00026631588116288185,-0.00026631588116288185,0.0007989476434886456
1772810395419516400,9.545516357421874,-0.00026631588116288185,0.0023968429304659367,-0.00026631588116288185
1772810395429396000,9.55539599609375,-0.0023968429304659367,0.0013315794058144093,-0.001864211168140173
1772810395439275500,9.565275634765625,-0.00026631588116288185,0.0023968429304659367,-0.00026631588116288185
1772810395449155000,9.575155029296875,-0.00026631588116288185,0.0007989476434886456,-0.00026631588116288185
1772810395459034600,9.58503466796875,-0.0007989476434886456,0.001864211168140173,-0.00026631588116288185
1772810395468914200,9.5949140625,0.0023968429304659367,0.0007989476434886456,-0.0007989476434886456
1772810395478793700,9.604793701171875,0.0013315794058144093,0.0007989476434886456,-0.0007989476434886456
1772810395488673300,9.61467333984375,0.0013315794058144093,-0.0007989476434886456,-0.0007989476434886456
1772810395498552800,9.624552734375,-0.0007989476434886456,-0.0007989476434886456,-0.001864211168140173
1772810395508432600,9.6344326171875,-0.00026631588116288185,-0.0029294746927917004,-0.0023968429304659367
1772810395518312400,9.6443125,0.00026631588116288185,0.0013315794058144093,-0.001864211168140173
1772810395528192300,9.654192138671876,0.0007989476434886456,-0.001864211168140173,-0.00026631588116288185
1772810395538072000,9.664072021484374,0.0013315794058144093,0.001864211168140173,0.0013315794058144093
1772810395547951900,9.673951904296874,-0.0013315794058144093,0.003462106455117464,-0.00026631588116288185
1772810395557832000,9.68383203125,0.0007989476434886456,-0.0023968429304659367,0.0007989476434886456
1772810395567711500,9.69371142578125,-0.0007989476434886456,0.0007989476434886456,-0.00026631588116288185
1772810395577591600,9.703591552734375,0.0007989476434886456,-0.0007989476434886456,0.0007989476434886456
1772810395587471400,9.713471435546875,0.001864211168140173,-0.0013315794058144093,-0.0007989476434886456
1772810395597351200,9.72335107421875,0.0013315794058144093,-0.0007989476434886456,-0.0007989476434886456
1772810395607231000,9.73323095703125,0.0007989476434886456,0.0023968429304659367,0.00026631588116288185
1772810395626990600,9.752990478515626,-0.0007989476434886456,-0.00026631588116288185,0.00026631588116288185
1772810395636870400,9.762870361328124,-0.0013315794058144093,0.0023968429304659367,0.003462106455117464
1772810395646750200,9.772750244140624,0.0023968429304659367,0.006657897029072046,0.001864211168140173
1772810395656630000,9.782630126953125,0.0013315794058144093,0.00719052879139781,0.0023968429304659367
1772810395666509800,9.792509765625,0.00026631588116288185,0.003994738217443228,0.0007989476434886456
1772810395676389600,9.8023896484375,0.00026631588116288185,0.003994738217443228,0.0007989476434886456
1772810395686269400,9.81226953125,0.0007989476434886456,0.001864211168140173,-0.0007989476434886456
1772810395696149200,9.822149169921875,-0.0013315794058144093,-0.001864211168140173,-0.0023968429304659367
1772810395706029000,9.832029052734375,-0.00026631588116288185,-0.007723160553723574,-0.0023968429304659367
1772810395715908900,9.841908935546876,0.00026631588116288185,-0.011451583355665207,-0.005592633504420519
1772810395725788700,9.85178857421875,-0.00026631588116288185,-0.009321056306362152,-0.003462106455117464
1772810395735668500,9.86166845703125,-0.0007989476434886456,-0.006125265266746283,0.00026631588116288185
1772810395745548500,9.871548583984374,-0.00026631588116288185,-0.0023968429304659367,-0.0013315794058144093
