time,seconds_elapsed,z,y,x
1772810412203027500,0.30502734375,-0.07913398742675781,-0.009826555848121643,-0.01322413980960846
1772810412222786600,0.32478662109375,-0.08392620086669922,-0.021773047745227814,-0.008310116827487946
1772810412242545700,0.344545654296875,-0.08392810821533203,0.0046090856194496155,-0.008239440619945526
1772810412262304800,0.3643046875,-0.07433891296386719,-0.002699136734008789,0.015268586575984955
1772810412282064000,0.38406396484375,-0.0911102294921875,0.0022240951657295227,-0.006063088774681091
1772810412301823000,0.403822998046875,-0.10518646240234375,-0.0001933947205543518,-0.0035437196493148804
1772810412321582000,0.42358203125,-0.08183002471923828,-0.007452517747879028,0.0036627203226089478
1772810412341341200,0.443341064453125,-0.07464027404785156,-0.0025796815752983093,-0.0038647204637527466
1772810412361100300,0.463100341796875,-0.0911102294921875,-0.014369972050189972,-0.015873394906520844
1772810412380859400,0.482859375,-0.0791311264038086,-0.009598642587661743,0.007945232093334198
1772810412400618500,0.502618408203125,-0.060268402099609375,-0.0022270306944847107,-0.004011675715446472
1772810412420377600,0.522377685546875,-0.09560108184814453,0.007485918700695038,-0.004093252122402191
1772810412440136700,0.54213671875,-0.09350776672363281,0.00996505469083786,-0.006366796791553497
1772810412459895800,0.561895751953125,-0.07464122772216797,0.009890951216220856,-0.004054076969623566
1772810412479655000,0.581655029296875,-0.0791311264038086,-0.011791229248046875,0.002346441149711609
1772810412499414300,0.601414306640625,-0.0743408203125,-0.009414955973625183,-0.009507313370704651
1772810412519173600,0.621173583984375,-0.060271263122558594,-0.018914401531219482,-0.006831593811511993
1772810412538933000,0.64093310546875,-0.08632373809814453,0.014651000499725342,0.0005292370915412903
1772810412558692400,0.6606923828125,-0.11477279663085938,-0.028278589248657227,0.012628085911273956
1772810412578451700,0.68045166015625,-0.045905113220214844,0.008198723196983337,0.00285937637090683
1772810412598211000,0.700211181640625,-0.07435321807861328,0.003643825650215149,-0.009148143231868744
1772810412617970700,0.719970703125,-0.12166500091552734,-0.012885868549346924,0.005243822932243347
1772810412637730000,0.73972998046875,0.069671630859375,-0.008011005818843842,-0.0019223690032958984
1772810412657489400,0.759489501953125,-0.21149635314941406,-0.027243107557296753,-0.009087398648262024
1772810412677248800,0.779248779296875,-0.07705497741699219,-0.0050928667187690735,0.008451476693153381
1772810412697008400,0.79900830078125,0.022357940673828125,0.008906334638595581,0.006177857518196106
1772810412716767700,0.818767822265625,-0.11717700958251953,0.0017393603920936584,-0.013066612184047699
1772810412736527000,0.838527099609375,-0.11238479614257812,-0.014746308326721191,0.003668084740638733
1772810412756286500,0.858286376953125,-0.020463943481445312,0.006841100752353668,0.001705653965473175
1772810412776045800,0.8780458984375,-0.09113121032714844,-0.005056276917457581,0.0016755983233451843
1772810412795805200,0.89780517578125,-0.12197113037109375,-0.002684548497200012,-0.012775614857673645
1772810412815564800,0.917564697265625,-0.03932762145996094,0.004482686519622803,-0.0025249049067497253
1772810412835324200,0.93732421875,-0.10520172119140625,-0.0029321759939193726,-0.004898428916931152
1772810412855083500,0.95708349609375,-0.09112930297851562,-0.00040384382009506226,0.007097393274307251
1772810412874843000,0.9768427734375,-0.072265625,-0.0057625845074653625,0.011306814849376678
1772810412894602200,0.996602294921875,-0.07675647735595703,0.001348055899143219,-0.0030436813831329346
1772810412914361600,1.016361572265625,-0.09801578521728516,-0.01718033105134964,0.006400220096111298
1772810412934121200,1.036121337890625,-0.07226181030273438,-0.012251347303390503,0.006107881665229797
1772810412953880600,1.055880615234375,-0.07196044921875,-0.007620811462402344,0.012998275458812714
1772810412973640000,1.075639892578125,-0.0791473388671875,0.006688207387924194,0.01764800399541855
1772810412993399300,1.0953994140625,-0.08872795104980469,-0.014341548085212708,-0.011228799819946289
1772810413013160400,1.115160400390625,-0.07704925537109375,-0.012314073741436005,0.0055572837591171265
1772810413032921300,1.13492138671875,-0.08872604370117188,0.006734073162078857,-0.001815997064113617
1772810413052682500,1.1546826171875,-0.09801006317138672,-0.014037303626537323,0.01252126693725586
1772810413072443600,1.174443603515625,-0.08872604370117188,-0.00996551662683487,-0.00697220116853714
1772810413092204500,1.19420458984375,-0.08842658996582031,-0.019563794136047363,-0.02161574363708496
1772810413111965700,1.213965576171875,-0.0956125259399414,-0.00036985427141189575,-0.0024828091263771057
1772810413131726600,1.2337265625,-0.07435226440429688,-0.005181565880775452,0.002173088490962982
1772810413151487700,1.25348779296875,-0.086029052734375,-0.005098596215248108,-0.012329712510108948
1772810413171248600,1.27324853515625,-0.06746292114257812,-0.00501386821269989,0.009141840040683746
1772810413191009800,1.293009765625,-0.105194091796875,-0.0026402175426483154,-0.0027106478810310364
1772810413210770700,1.312770751953125,-0.0884256362915039,-0.00016255676746368408,-0.00029574334621429443
1772810413230531800,1.33253173828125,-0.06266975402832031,-0.000337161123752594,-0.0077699944376945496
1772810413250292700,1.352292724609375,-0.08632469177246094,-0.012433663010597229,-0.0005639642477035522
1772810413270054000,1.372053955078125,-0.06236839294433594,-0.019526734948158264,-0.007884368300437927
1772810413289815000,1.39181494140625,-0.06985187530517578,-0.0051198601722717285,-0.0033830180764198303
1772810413309576000,1.411575927734375,-0.0887155532836914,-0.005086533725261688,-0.015437841415405273
1772810413329337000,1.431337158203125,-0.07224464416503906,0.01180914044380188,0.00822369009256363
1772810413349098000,1.451097900390625,-0.0743398666381836,-0.009612031280994415,0.005638569593429565
1772810413368859100,1.470859130859375,-0.0815267562866211,-0.004892624914646149,0.0008673444390296936
1772810413388620000,1.4906201171875,-0.07433700561523438,-0.024067893624305725,0.01738990843296051
1772810413408381200,1.510381103515625,-0.07433605194091797,-0.0071107372641563416,0.005222871899604797
1772810413428142000,1.53014208984375,-0.0743398666381836,-0.009366735816001892,0.005445294082164764
1772810413447903200,1.5499033203125,-0.10758018493652344,0.01231953501701355,-0.001514241099357605
1772810413467664400,1.569664306640625,-0.07464408874511719,-0.027956925332546234,0.006039902567863464
1772810413487425300,1.58942529296875,-0.06506156921386719,0.0028090253472328186,-0.0007744580507278442
1772810413507186000,1.60918603515625,-0.09111595153808594,-0.020803332328796387,0.006581470370292664
1772810413526946300,1.6289462890625,-0.08392906188964844,-0.006697051227092743,-0.005424581468105316
1772810413546706700,1.648706787109375,-0.07225322723388672,-0.008551530539989471,-0.022213347256183624
1772810413566467000,1.668467041015625,-0.0770425796508789,0.010336577892303467,-0.0032341480255126953
1772810413586227700,1.688227783203125,-0.06267166137695312,0.0011367946863174438,-0.005401507019996643
1772810413605988000,1.707988037109375,-0.10039997100830078,-0.0032726675271987915,-0.02229197323322296
1772810413625748500,1.72774853515625,-0.09590911865234375,-0.0034369900822639465,-0.02465386688709259
1772810413645508900,1.7475087890625,-0.07704639434814453,0.0137571319937706,-0.007913641631603241
1772810413665269500,1.76726953125,-0.07704544067382812,-0.0033298879861831665,0.0016349703073501587
1772810413685030000,1.78702978515625,-0.09081745147705078,0.006083264946937561,0.0012916475534439087
1772810413704790300,1.806790283203125,-0.0818328857421875,-0.012899011373519897,0.015623539686203003
1772810413724550700,1.826550537109375,-0.08842086791992188,-0.019795328378677368,0.006160333752632141
1772810413744311300,1.846311279296875,-0.09560966491699219,-0.0009000226855278015,-0.0031940117478370667
1772810413764071700,1.86607177734375,-0.09590816497802734,-0.007805123925209045,-0.005720488727092743
1772810413783832000,1.88583203125,-0.08632755279541016,-0.003086291253566742,-0.005645379424095154
1772810413803592400,1.905592529296875,-0.07674598693847656,-0.0007115155458450317,0.0016109272837638855
1772810413823352800,1.925352783203125,-0.06267261505126953,-0.008014857769012451,-0.005451016128063202
1772810413843113500,1.945113525390625,-0.07944107055664062,-0.0008502379059791565,0.004148215055465698
1772810413862873900,1.964873779296875,-0.0842294692993164,-0.0032143816351890564,-0.005668140947818756
1772810413882634200,1.98463427734375,-0.07464790344238281,-0.006029650568962097,-0.0007541999220848083
1772810413902394600,2.00439453125,-0.06027412414550781,0.0008350387215614319,0.003950588405132294
1772810413922155300,2.0241552734375,-0.09081649780273438,-0.020134128630161285,-0.005607627332210541
1772810413941915600,2.04391552734375,-0.09111309051513672,-0.0037372559309005737,0.0038886219263076782
1772810413961676000,2.063676025390625,-0.060273170471191406,0.01253645122051239,0.008883371949195862
1772810413981436700,2.083436767578125,-0.08392524719238281,-0.01112470030784607,-0.005809783935546875
1772810414001196500,2.103196533203125,-0.10758113861083984,-0.004307590425014496,-0.02249162644147873
1772810414020956000,2.122955810546875,-0.08182811737060547,0.014721177518367767,-0.005854785442352295
1772810414040715300,2.14271533203125,-0.07943344116210938,-0.020670093595981598,-0.005676664412021637
1772810414060474600,2.162474609375,-0.08871078491210938,0.00261099636554718,-0.010802008211612701
1772810414080234000,2.18223388671875,-0.10488605499267578,-0.02593163400888443,-0.013807736337184906
1772810414099993300,2.201993408203125,-0.06715869903564453,0.011817626655101776,0.0004401877522468567
1772810414119752700,2.221752685546875,-0.06955432891845703,-0.014242544770240784,0.0076908692717552185
1772810414139512000,2.241511962890625,-0.08841896057128906,-0.0025363415479660034,-0.0019709914922714233
1772810414159271400,2.261271484375,-0.08362674713134766,-0.012130826711654663,-0.006892070174217224
1772810414179030800,2.28103076171875,-0.06925392150878906,-0.014380984008312225,-0.006971113383769989
1772810414198790100,2.3007900390625,-0.07883739471435547,-0.0071609243750572205,-0.02115190029144287
1772810414218549500,2.320549560546875,-0.08363151550292969,0.00010792911052703857,-0.00725024938583374
1772810414238308900,2.340308837890625,-0.0740518569946289,-0.009437762200832367,-0.002230733633041382
1772810414258068200,2.360068115234375,-0.0812387466430664,-0.009554676711559296,-0.0069454386830329895
1772810414277827600,2.37982763671875,-0.07944202423095703,0.010282732546329498,-0.00517793744802475
1772810414297587000,2.3995869140625,-0.08393383026123047,0.010303981602191925,-0.005205877125263214
1772810414317346300,2.41934619140625,-0.0980062484741211,-0.013710737228393555,-0.005183868110179901
1772810414337105700,2.439105712890625,-0.08632755279541016,-0.0016489699482917786,0.001915961503982544
1772810414356865000,2.458864990234375,-0.08153629302978516,-0.0038674920797348022,-0.010136358439922333
1772810414376624400,2.478624267578125,-0.09351348876953125,-0.02507694810628891,-0.00048273801803588867
1772810414396383700,2.4983837890625,-0.07704925537109375,-0.008168645203113556,0.0045302435755729675
1772810414416143000,2.51814306640625,-0.09591484069824219,0.0016462281346321106,-0.016993887722492218
1772810414435902200,2.537902099609375,-0.09352302551269531,-0.00040906667709350586,-0.009078532457351685
1772810414455661800,2.557661865234375,-0.07705402374267578,-0.005163982510566711,0.0075465962290763855
1772810414475421000,2.5774208984375,-0.0791473388671875,-0.00598655641078949,-0.005655378103256226
1772810414495180500,2.5971806640625,-0.0695648193359375,-0.0012169256806373596,0.008729547262191772
1772810414514940400,2.6169404296875,-0.09561538696289062,0.00578741729259491,0.008844025433063507
1772810414534700000,2.636699951171875,-0.0743560791015625,0.005760282278060913,0.008803829550743103
1772810414554460000,2.6564599609375,-0.10040569305419922,-0.015756815671920776,-0.017664752900600433
1772810414574219800,2.6762197265625,-0.08154106140136719,-0.0014556050300598145,-0.0032699108123779297
1772810414593979600,2.695979736328125,-0.09082698822021484,-0.003663778305053711,-0.0031440556049346924
1772810414613739500,2.715739501953125,-0.076751708984375,-0.0037344247102737427,-0.005617789924144745
1772810414633499100,2.7354990234375,-0.0743560791015625,-0.006145484745502472,-0.0007555633783340454
1772810414653259000,2.755259033203125,-0.09322071075439453,0.005596868693828583,0.0017099082469940186
1772810414673019000,2.775018798828125,-0.06507205963134766,-0.008788339793682098,0.004068605601787567
1772810414692778800,2.79477880859375,-0.10759353637695312,-0.006252400577068329,0.004134081304073334
1772810414712538600,2.81453857421875,-0.09082508087158203,0.000912792980670929,-0.01026240736246109
1772810414732298500,2.834298583984375,-0.08842945098876953,-0.013520456850528717,0.006518758833408356
1772810414752058000,2.85405810546875,-0.09082889556884766,-0.003907419741153717,0.016363315284252167
1772810414771818000,2.87381787109375,-0.07675552368164062,0.003307059407234192,-0.012403495609760284
1772810414791577900,2.893577880859375,-0.10759639739990234,-0.006291896104812622,0.0043286532163619995
1772810414811337700,2.913337646484375,-0.08154678344726562,-0.003964908421039581,-0.009964138269424438
1772810414831097600,2.93309765625,-0.08154487609863281,-0.006324395537376404,0.004320420324802399
1772810414850857200,2.952857177734375,-0.08124732971191406,0.008120283484458923,-0.009970620274543762
1772810414870617000,2.9726171875,-0.08603668212890625,-0.008868105709552765,-0.005103215575218201
1772810414890377000,2.992376953125,-0.08603858947753906,-0.0064873769879341125,-0.012206576764583588
1772810414910136800,3.01213671875,-0.08603477478027344,-0.0161273255944252,0.009156621992588043
1772810414929896700,3.031896728515625,-0.08124351501464844,-0.008900865912437439,-0.0032531321048736572
1772810414949656600,3.051656494140625,-0.09801006317138672,-0.018586277961730957,0.005988843739032745
1772810414969416200,3.071416259765625,-0.09531307220458984,-0.028110556304454803,-0.006168283522129059
1772810414989176000,3.091176025390625,-0.10010433197021484,0.0027067363262176514,-0.006143093109130859
1772810415008935200,3.11093505859375,-0.0932168960571289,-0.004347480833530426,0.0009128525853157043
1772810415028694300,3.1306943359375,-0.10040473937988281,0.007190883159637451,0.0011441335082054138
1772810415048453000,3.150453125,-0.07884693145751953,-0.004548951983451843,-0.003721572458744049
1772810415068212000,3.1702119140625,-0.09082412719726562,0.002959117293357849,-0.008179552853107452
1772810415087971000,3.18997119140625,-0.07645130157470703,-0.0016610026359558105,0.00651116669178009
1772810415107730000,3.20972998046875,-0.08154106140136719,0.007833361625671387,-0.007930681109428406
1772810415127489000,3.229489013671875,-0.10249996185302734,0.005560822784900665,-0.005659639835357666
1772810415147247900,3.249247802734375,-0.08124065399169922,-0.001497521996498108,0.0013966262340545654
1772810415167007000,3.269007080078125,-0.06507301330566406,-0.0014186426997184753,-0.000818200409412384
1772810415186765800,3.288765869140625,-0.09801006317138672,0.013118930160999298,0.0014456883072853088
1772810415206525000,3.30852490234375,-0.08843040466308594,0.0012177526950836182,0.01353510469198227
1772810415226283800,3.32828369140625,-0.09561538696289062,-0.013474948704242706,-0.015117563307285309
1772810415246042600,3.348042724609375,-0.08842849731445312,-0.025451965630054474,-0.007998593151569366
1772810415265801700,3.3678017578125,-0.07435321807861328,0.003056570887565613,0.0015554428100585938
1772810415285560800,3.387560791015625,-0.0767507553100586,-0.00415223091840744,-0.007733859121799469
1772810415305319700,3.407319580078125,-0.08363819122314453,0.007894046604633331,0.008892983198165894
1772810415325078500,3.42707861328125,-0.08603477478027344,0.0008352622389793396,-0.002952978014945984
1772810415344837600,3.446837646484375,-0.09561920166015625,0.012769468128681183,0.004460126161575317
1772810415364596500,3.466596435546875,-0.08363914489746094,-0.016039453446865082,0.0018836930394172668
1772810415384355600,3.48635546875,-0.09562015533447266,-0.025619663298130035,-0.007404841482639313
1772810415404114400,3.506114501953125,-0.07885265350341797,-0.013446196913719177,0.004540562629699707
1772810415423873500,3.52587353515625,-0.08364582061767578,-0.0014966055750846863,-0.00974196195602417
1772810415443632400,3.54563232421875,-0.08843421936035156,0.0009225308895111084,0.011673130095005035
1772810415463391500,3.5653916015625,-0.08364200592041016,0.015353076159954071,-0.0004852190613746643
1772810415483150300,3.585150390625,-0.08603763580322266,-0.0038328394293785095,-0.00823540985584259
1772810415502910000,3.604909912109375,-0.08364200592041016,0.0032173022627830505,-0.005754582583904266
1772810415522669800,3.624669921875,-0.06956958770751953,-0.01829484850168228,0.013521179556846619
1772810415542430000,3.644429931640625,-0.08603858947753906,-0.015699394047260284,0.01337406039237976
1772810415562189800,3.66418994140625,-0.078857421875,-0.008373729884624481,0.0017803683876991272
1772810415581950000,3.683949951171875,-0.0932302474975586,-0.013279028236865997,-0.005373626947402954
1772810415601709800,3.703709716796875,-0.0932302474975586,-0.0012214705348014832,-0.005395099520683289
1772810415621470000,3.723469970703125,-0.08844375610351562,-0.01549866795539856,0.004464447498321533
1772810415641229800,3.743229736328125,-0.08125877380371094,0.005625113844871521,-0.0024880915880203247
1772810415660990000,3.762989990234375,-0.08605098724365234,0.012770414352416992,-0.004647769033908844
1772810415680749800,3.782749755859375,-0.08156108856201172,-0.013239465653896332,0.0031591951847076416
1772810415700510000,3.802510009765625,-0.09084510803222656,0.0013112351298332214,0.0008390098810195923
1772810415720270000,3.82227001953125,-0.06958389282226562,-0.0012646391987800598,-0.001528903841972351
1772810415740030000,3.842030029296875,-0.07677173614501953,-0.003474108874797821,-0.011123888194561005
1772810415759790000,3.8617900390625,-0.09084892272949219,-0.015355408191680908,-0.015610933303833008
1772810415779550000,3.881550048828125,-0.1052236557006836,-0.008031591773033142,-0.015564806759357452
1772810415799310000,3.90131005859375,-0.0884552001953125,0.0015712901949882507,-0.015569604933261871
1772810415819070000,3.921070068359375,-0.10042953491210938,0.0013354495167732239,0.0035113170742988586
1772810415838830000,3.940830078125,-0.10522174835205078,0.010927170515060425,0.0059233978390693665
1772810415858590000,3.96058984375,-0.08395957946777344,0.0014678984880447388,-0.00393570214509964
1772810415878350000,3.98035009765625,-0.06958484649658203,-0.0010566189885139465,0.005065888166427612
1772810415898110200,4.000110107421875,-0.08366107940673828,0.010734617710113525,-0.026066437363624573
1772810415917870000,4.0198701171875,-0.09324169158935547,0.0013201460242271423,-0.0020325034856796265
1772810415937630200,4.039630126953125,-0.08845138549804688,0.015047065913677216,0.014739878475666046
1772810415957390000,4.05939013671875,-0.08605670928955078,-0.010510176420211792,-0.011569492518901825
1772810415977150200,4.079150146484375,-0.08365917205810547,-0.022586211562156677,0.012238174676895142
1772810415996910300,4.098910400390625,-0.09084320068359375,0.020033366978168488,0.0047601088881492615
1772810416016671000,4.1186708984375,-0.08366012573242188,-0.015356265008449554,0.00025134533643722534
1772810416036432000,4.138431884765625,-0.09084510803222656,-0.003595806658267975,-0.006953015923500061
1772810416056192800,4.15819287109375,-0.0836639404296875,-0.0013205334544181824,-0.0020294785499572754
1772810416075953700,4.17795361328125,-0.09803390502929688,-0.007823050022125244,-0.014167100191116333
1772810416095714300,4.19771435546875,-0.07437801361083984,0.0016276389360427856,0.002621680498123169
1772810416115475200,4.21747509765625,-0.07437992095947266,0.0017537549138069153,-0.014101877808570862
1772810416135236000,4.237236083984375,-0.08845329284667969,-0.007740728557109833,-0.002199821174144745
1772810416154997000,4.2569970703125,-0.07437992095947266,-0.003023192286491394,-0.002120576798915863
1772810416174757600,4.276757568359375,-0.0692901611328125,-0.0031486377120018005,-0.0016904324293136597
1772810416194518500,4.2965185546875,-0.07647705078125,-0.00566650927066803,0.01064775139093399
1772810416214279400,4.316279541015625,-0.07438182830810547,-0.0009526088833808899,0.00847131758928299
1772810416234040000,4.3360400390625,-0.09085273742675781,-0.008052676916122437,0.00375230610370636
1772810416253801000,4.355801025390625,-0.0860595703125,0.0013964399695396423,0.0036687850952148438
1772810416273561900,4.375561767578125,-0.10282707214355469,-0.0009736493229866028,-0.003539152443408966
1772810416293322500,4.395322509765625,-0.07677841186523438,-0.015245825052261353,0.006108969449996948
1772810416313083400,4.41508349609375,-0.09804153442382812,-0.02227173000574112,0.003990598022937775
1772810416332844300,4.43484423828125,-0.08636283874511719,-0.00791456550359726,-0.0033206194639205933
1772810416352605000,4.45460498046875,-0.07198715209960938,-0.005742616951465607,0.0037294551730155945
1772810416372365800,4.47436572265625,-0.0791778564453125,-0.0032176151871681213,-0.005558796226978302
1772810416392126700,4.494126708984375,-0.0815744400024414,0.015944525599479675,0.023281261324882507
1772810416411887600,4.5138876953125,-0.09085559844970703,-0.007871642708778381,0.006672680377960205
1772810416431648300,4.533648193359375,-0.06989765167236328,-0.005390346050262451,0.002356618642807007
1772810416451409200,4.5534091796875,-0.09564876556396484,-0.012636639177799225,-0.0024572983384132385
1772810416471170000,4.573170166015625,-0.08366870880126953,0.0037983208894729614,0.0014998093247413635
1772810416490931000,4.592930908203125,-0.09325027465820312,-0.0011641234159469604,0.010337747633457184
1772810416510696000,4.612696044921875,-0.09564590454101562,-0.013200916349887848,0.0032747164368629456
1772810416530456300,4.632456298828125,-0.07648181915283203,0.001194298267364502,0.003140196204185486
1772810416550216400,4.652216552734375,-0.08606338500976562,-0.01068735122680664,-0.0016769841313362122
1772810416569976600,4.6719765625,-0.0884552001953125,-0.01079956442117691,-0.00016602873802185059
1772810416589736700,4.69173681640625,-0.08845806121826172,-0.010447129607200623,-0.00009080767631530762
1772810416609497000,4.7114970703125,-0.07408618927001953,0.0016029104590415955,0.0023266375064849854
1772810416629257200,4.73125732421875,-0.08816146850585938,-0.010542400181293488,-0.002176351845264435
1772810416649017300,4.751017333984375,-0.09774303436279297,0.003900304436683655,0.009758368134498596
1772810416668777700,4.77077783203125,-0.07648181915283203,-0.0009642988443374634,-0.00449196994304657
1772810416688537900,4.790537841796875,-0.08367252349853516,0.006390325725078583,-0.0038512125611305237
1772810416708298000,4.810298095703125,-0.06480884552001953,-0.007595084607601166,-0.010994620621204376
1772810416728058000,4.83005810546875,-0.06690311431884766,-0.007909119129180908,0.00324346125125885
1772810416747818500,4.849818603515625,-0.07888221740722656,0.01838451623916626,0.012880928814411163
1772810416767578600,4.86957861328125,-0.1025390625,-0.01908239722251892,-0.01586637645959854
1772810416787338800,4.8893388671875,-0.07888412475585938,0.009161680936813354,-0.001482948660850525
1772810416807099100,4.90909912109375,-0.05762290954589844,-0.0027518346905708313,-0.0017010867595672607
1772810416826859300,4.928859375,-0.08606719970703125,0.009377256035804749,0.010013028979301453
1772810416846619400,4.948619384765625,-0.08367156982421875,-0.01394905149936676,0.01233682781457901
1772810416866379500,4.968379638671875,-0.07648181915283203,0.004562996327877045,-0.0022895634174346924
1772810416886140000,4.988139892578125,-0.08367061614990234,0.0022748783230781555,-0.00452326238155365
1772810416905900000,5.007900146484375,-0.08367443084716797,-0.0074937790632247925,-0.004155188798904419
1772810416925660200,5.02766015625,-0.06929779052734375,0.011762216687202454,0.002716340124607086
1772810416945420500,5.047420654296875,-0.07438850402832031,-0.0026005804538726807,0.012330502271652222
1772810416965180700,5.0671806640625,-0.07409191131591797,-0.00955883413553238,0.0004052296280860901
1772810416984940800,5.08694091796875,-0.06929588317871094,-0.016812346875667572,-0.0022963732481002808
1772810417004700400,5.106700439453125,-0.07887744903564453,-0.009656734764575958,-0.009568147361278534
1772810417024460000,5.1264599609375,-0.08366870880126953,0.004560798406600952,0.0072910115122795105
1772810417044219400,5.146219482421875,-0.08845996856689453,-0.019510217010974884,-0.004471495747566223
1772810417063979000,5.16597900390625,-0.07887840270996094,-0.012141570448875427,-0.004566684365272522
1772810417083738400,5.18573828125,-0.09085559844970703,-0.01933830976486206,-0.002817966043949127
1772810417103498000,5.205498046875,-0.06929302215576172,-0.0170605406165123,-0.0005766302347183228
1772810417123257300,5.22525732421875,-0.0788736343383789,-0.01936674863100052,0.00395125150680542
1772810417143017000,5.245016845703125,-0.09564018249511719,-0.007319696247577667,0.006233431398868561
1772810417162776300,5.2647763671875,-0.09803581237792969,0.004656612873077393,-0.0057860687375068665
1772810417182535700,5.28453564453125,-0.07647514343261719,-0.0000768899917602539,0.008470021188259125
1772810417202295300,5.30429541015625,-0.09534549713134766,-0.0023596882820129395,-0.012705259025096893
1772810417222054700,5.3240546875,-0.07887840270996094,-0.0024519339203834534,-0.007745638489723206
1772810417241814300,5.343814208984375,-0.08127117156982422,-0.000049136579036712646,-0.005547158420085907
1772810417261573600,5.36357373046875,-0.08845806121826172,-0.02161616086959839,0.0016884133219718933
1772810417281333200,5.383333251953125,-0.071990966796875,-0.00408104807138443,0.005361862480640411
1772810417301092600,5.403092529296875,-0.08366870880126953,0.00056447833776474,-0.008931443095207214
1772810417320852200,5.422852294921875,-0.0767822265625,0.010288171470165253,-0.004234820604324341
1772810417340611600,5.442611572265625,-0.0767822265625,-0.008903130888938904,0.005439840257167816
1772810417360371000,5.462370849609375,-0.09564781188964844,-0.020734481513500214,-0.006474167108535767
1772810417380130600,5.482130615234375,-0.07887840270996094,-0.006444476544857025,0.007780313491821289
1772810417399890000,5.501889892578125,-0.08606338500976562,-0.008972704410552979,0.0005417168140411377
1772810417419649500,5.5216494140625,-0.0884542465209961,-0.009154513478279114,0.010145716369152069
1772810417439409000,5.541408935546875,-0.0674905776977539,0.007762260735034943,0.0028923004865646362
1772810417459168500,5.56116845703125,-0.07467365264892578,0.00999390333890915,0.005070909857749939
1772810417478928000,5.580927978515625,-0.07916545867919922,0.002909846603870392,-0.012323953211307526
1772810417498687200,5.600687255859375,-0.06509113311767578,-0.0018685534596443176,0.009114518761634827
1772810417518446800,5.62044677734375,-0.0671844482421875,-0.004455044865608215,-0.014370180666446686
1772810417538206200,5.640206298828125,-0.0719757080078125,0.000291675329208374,-0.004780009388923645
1772810417557965600,5.659965576171875,-0.0791616439819336,0.002482794225215912,-0.01662372052669525
1772810417577725200,5.67972509765625,-0.08365058898925781,-0.004843562841415405,0.01683102548122406
1772810417597484500,5.699484619140625,-0.0791616439819336,0.009464733302593231,-0.00690295547246933
1772810417617244000,5.719243896484375,-0.08634757995605469,-0.007179521024227142,-0.002263501286506653
1772810417637003300,5.739003173828125,-0.09113788604736328,0.009525060653686523,-0.016605079174041748
1772810417656763000,5.758762939453125,-0.07706356048583984,-0.016639873385429382,0.000057794153690338135
1772810417676522200,5.778522216796875,-0.0908346176147461,-0.014769785106182098,-0.00836154818534851
1772810417696281600,5.798281494140625,-0.07436466217041016,-0.008159250020980835,0.010678730905056
1772810417716041200,5.818041259765625,-0.08125114440917969,0.008652947843074799,-0.0037913471460342407
1772810417735800600,5.837800537109375,-0.05520057678222656,-0.01297849416732788,-0.008462786674499512
1772810417755560000,5.857559814453125,-0.10251426696777344,-0.017831221222877502,0.0037641823291778564
1772810417775319300,5.8773193359375,-0.08843708038330078,0.006016068160533905,0.0035505592823028564
1772810417795079000,5.897078857421875,-0.06478214263916016,-0.010621726512908936,0.003543943166732788
1772810417814838300,5.91683837890625,-0.07166767120361328,-0.005709528923034668,0.002980656921863556
1772810417834597600,5.93659765625,-0.08364295959472656,-0.010474100708961487,0.00241861492395401
1772810417854357000,5.95635693359375,-0.08364200592041016,-0.01029379665851593,-0.012034378945827484
1772810417874116600,5.97611669921875,-0.09082889556884766,0.013742290437221527,-0.009670771658420563
1772810417893876000,5.9958759765625,-0.07645606994628906,-0.00550997257232666,0.007137306034564972
1772810417913635300,6.01563525390625,-0.07885265350341797,-0.007989637553691864,0.004837833344936371
1772810417933394700,6.035394775390625,-0.08813667297363281,0.001493118703365326,-0.0021385326981544495
1772810417953154300,6.055154296875,-0.08843612670898438,0.0014985054731369019,0.007479429244995117
1772810417972913700,6.07491357421875,-0.07645797729492188,-0.00821588933467865,-0.004489295184612274
1772810417992673000,6.094673095703125,-0.07885169982910156,-0.015419401228427887,0.012153677642345428
1772810418012433700,6.11443359375,-0.07406044006347656,-0.01782379299402237,-0.016911499202251434
1772810418032194300,6.1341943359375,-0.07166767120361328,-0.015391409397125244,-0.0026782825589179993
1772810418051955000,6.153954833984375,-0.06448078155517578,-0.0038432851433753967,-0.009897217154502869
1772810418071715600,6.173715576171875,-0.08095073699951172,-0.0010880231857299805,-0.004601724445819855
1772810418091476200,6.193476318359375,-0.08364391326904297,-0.00795358419418335,-0.02093663066625595
1772810418111236600,6.213236572265625,-0.08124828338623047,-0.010322444140911102,-0.004160195589065552
1772810418130997200,6.232997314453125,-0.07885360717773438,0.006644867360591888,-0.009036026895046234
1772810418150758000,6.2527578125,-0.09322643280029297,0.0020123571157455444,0.005273930728435516
1772810418170518500,6.2725185546875,-0.09322547912597656,0.0044564902782440186,0.0027698352932929993
1772810418190279200,6.292279052734375,-0.09561824798583984,-0.002820715308189392,-0.0021724626421928406
1772810418210039800,6.312039794921875,-0.08364105224609375,-0.004795849323272705,-0.007105529308319092
1772810418229800400,6.331800537109375,-0.07885265350341797,-0.011703625321388245,0.012342974543571472
1772810418249561000,6.35156103515625,-0.06956863403320312,-0.006942786276340485,0.012215077877044678
1772810418269321700,6.37132177734375,-0.07645416259765625,-0.014096416532993317,-0.009231828153133392
1772810418289082400,6.391082275390625,-0.09082698822021484,-0.004498004913330078,-0.004082702100276947
1772810418308842800,6.4108427734375,-0.06717109680175781,-0.006871990859508514,-0.004178166389465332
1772810418328603400,6.430603271484375,-0.0719594955444336,0.004997760057449341,-0.009104959666728973
1772810418348364000,6.450364013671875,-0.09082412719726562,-0.014134332537651062,-0.004303701221942902
1772810418368124700,6.470124755859375,-0.07674884796142578,-0.006928049027919769,-0.0045523494482040405
1772810418387885300,6.48988525390625,-0.06956195831298828,-0.00202246755361557,0.01453053206205368
1772810418407646000,6.50964599609375,-0.08154010772705078,-0.013964183628559113,0.0025987550616264343
1772810418427406600,6.529406494140625,-0.06476783752441406,0.005039714276790619,-0.006524629890918732
1772810418447167200,6.549167236328125,-0.07914161682128906,-0.006813056766986847,-0.0018340349197387695
1772810418466927600,6.568927734375,-0.0908203125,-0.007196567952632904,-0.007156923413276672
1772810418486688300,6.588688232421875,-0.07674598693847656,0.004534490406513214,-0.012575618922710419
1772810418506448000,6.60844775390625,-0.0692596435546875,-0.0025877878069877625,-0.003090888261795044
1772810418526207200,6.628207275390625,-0.09560680389404297,0.0047501251101493835,0.0037777647376060486
1772810418545966300,6.64796630859375,-0.086029052734375,-0.016818292438983917,-0.003145560622215271
1772810418565725700,6.6677255859375,-0.08603096008300781,0.00016382336616516113,0.0016757622361183167
1772810418585484800,6.68748486328125,-0.09082412719726562,-0.014219909906387329,0.004012711346149445
1772810418605244000,6.707243896484375,-0.0860280990600586,0.00016380101442337036,-0.0062772780656814575
1772810418625003300,6.727003173828125,-0.06926250457763672,-0.0046081021428108215,-0.0036747679114341736
1772810418644762400,6.746762451171875,-0.07884502410888672,0.0026329457759857178,-0.0084548220038414
1772810418664521500,6.766521484375,-0.08363533020019531,0.0002979487180709839,-0.008650824427604675
1772810418684280800,6.78628076171875,-0.06207561492919922,-0.0020331591367721558,-0.015862375497817993
1772810418704040000,6.8060400390625,-0.09291839599609375,-0.0019687265157699585,0.0009485185146331787
1772810418723799000,6.825799072265625,-0.07645225524902344,-0.0018515139818191528,0.0035355761647224426
1772810418743558400,6.845558349609375,-0.07884407043457031,-0.011504456400871277,0.010384246706962585
1772810418763317500,6.8653173828125,-0.07166004180908203,0.0029745325446128845,0.001051589846611023
1772810418783076600,6.88507666015625,-0.08124446868896484,0.003078460693359375,-0.008466891944408417
1772810418802836000,6.9048359375,-0.07405567169189453,-0.0041425228118896484,-0.0038292258977890015
1772810418822595000,6.924594970703125,-0.08603477478027344,-0.016178108751773834,-0.017966635525226593
1772810418842354200,6.944354248046875,-0.07406044006347656,0.010262295603752136,-0.00821906328201294
1772810418862113500,6.964113525390625,-0.08125019073486328,-0.0016499757766723633,-0.005613066256046295
1772810418881872600,6.98387255859375,-0.092926025390625,0.02933391183614731,-0.014623396098613739
1772810418901631700,7.0036318359375,-0.08604049682617188,0.0029866844415664673,-0.002544872462749481
1772810418921391000,7.02339111328125,-0.09322643280029297,0.0028867051005363464,-0.00249558687210083
1772810418941150200,7.043150146484375,-0.08603858947753906,0.014788888394832611,-0.007380500435829163
1772810418960909300,7.062909423828125,-0.08843421936035156,-0.006798237562179565,-0.004930436611175537
1772810418980668700,7.082668701171875,-0.09082603454589844,-0.011048302054405212,-0.0028992444276809692
1772810419000427800,7.102427734375,-0.0743560791015625,0.0077581629157066345,-0.010226450860500336
1772810419020187400,7.1221875,-0.08364009857177734,-0.003655366599559784,-0.007615320384502411
1772810419039946800,7.14194677734375,-0.08843231201171875,0.01539091020822525,0.004294604063034058
1772810419059706400,7.161706298828125,-0.05549430847167969,0.003613598644733429,0.006719529628753662
1772810419079465700,7.1814658203125,-0.07406330108642578,-0.003750316798686981,-0.01216818392276764
1772810419099225300,7.201225341796875,-0.0884389877319336,0.007973283529281616,0.0024489015340805054
1772810419118984700,7.220984619140625,-0.06927680969238281,0.0031313300132751465,-0.01892060786485672
1772810419138744000,7.240744140625,-0.0671834945678711,-0.004088349640369415,-0.011510074138641357
1772810419158503700,7.260503662109375,-0.08365345001220703,0.0006601214408874512,0.0005611851811408997
1772810419178263000,7.280262939453125,-0.08604812622070312,0.005395479500293732,-0.018569007515907288
1772810419198022400,7.3000224609375,-0.07646656036376953,0.0029509738087654114,-0.006532788276672363
1772810419217782000,7.319781982421875,-0.07407283782958984,0.0033558979630470276,-0.020867764949798584
1772810419237541400,7.339541259765625,-0.09084224700927734,0.00778999924659729,0.0008358433842658997
1772810419257301000,7.359301025390625,-0.06958198547363281,-0.003467060625553131,-0.011176824569702148
1772810419277060400,7.379060302734375,-0.08365631103515625,-0.015650629997253418,-0.0017007291316986084
1772810419296819700,7.39881982421875,-0.048323631286621094,-0.006398797035217285,-0.006327830255031586
1772810419316579300,7.418579345703125,-0.08605575561523438,0.003183715045452118,0.005888529121875763
1772810419336338700,7.438338623046875,-0.08366203308105469,0.005677752196788788,-0.010759472846984863
1772810419356098300,7.458098388671875,-0.09084796905517578,-0.0037851333618164062,-0.013287253677845001
1772810419375857700,7.477857666015625,-0.0953369140625,0.001063801348209381,-0.003910578787326813
1772810419395617000,7.497616943359375,-0.07407665252685547,0.005747869610786438,-0.003908880054950714
1772810419415376600,7.517376708984375,-0.07407474517822266,0.008032068610191345,0.005601964890956879
1772810419435136000,7.537135986328125,-0.0812673568725586,-0.006368473172187805,-0.0035154223442077637
1772810419454895400,7.556895263671875,-0.0860586166381836,-0.008736513555049896,-0.01302383840084076
1772810419474655000,7.576655029296875,-0.0908498764038086,-0.003178440034389496,-0.005284227430820465
1772810419494414600,7.59641455078125,-0.10042953491210938,-0.005859926342964172,-0.0029428452253341675
1772810419514175200,7.61617529296875,-0.0884542465209961,-0.005736418068408966,-0.007671721279621124
1772810419533936000,7.63593603515625,-0.0740814208984375,0.001559339463710785,-0.012442372739315033
1772810419553696800,7.65569677734375,-0.10252571105957031,-0.012930095195770264,0.0041535720229148865
1772810419573457700,7.675457763671875,-0.08844757080078125,-0.0009407028555870056,0.008607715368270874
1772810419593218300,7.69521826171875,-0.09323978424072266,0.010969854891300201,-0.005553998053073883
1772810419612979200,7.714979248046875,-0.07227802276611328,-0.0010455772280693054,-0.008197732269763947
1772810419632739800,7.73473974609375,-0.09323978424072266,-0.012778840959072113,-0.010525792837142944
1772810419652500700,7.754500732421875,-0.08635139465332031,-0.003385968506336212,0.003779105842113495
1772810419672261400,7.774261474609375,-0.07677078247070312,0.008581757545471191,-0.015254788100719452
1772810419692022300,7.794022216796875,-0.09084224700927734,-0.012990906834602356,-0.027436591684818268
1772810419711783000,7.813782958984375,-0.09323692321777344,0.010844960808753967,0.0013504251837730408
1772810419731543800,7.833543701171875,-0.08605194091796875,-0.010732591152191162,-0.005624428391456604
1772810419751304400,7.853304443359375,-0.0698843002319336,0.0012509524822235107,-0.003125518560409546
1772810419771065300,7.8730654296875,-0.07407855987548828,-0.006017453968524933,-0.005308665335178375
1772810419790826000,7.892825927734375,-0.08845138549804688,-0.005892850458621979,0.004205234348773956
1772810419810587000,7.9125869140625,-0.07647418975830078,0.008472174406051636,-0.017323464155197144
1772810419830347500,7.932347412109375,-0.08635425567626953,-0.00842563807964325,-0.01261291652917862
1772810419850108400,7.9521083984375,-0.08365821838378906,0.010620802640914917,0.006528250873088837
1772810419869869000,7.971869140625,-0.08126544952392578,0.0008490309119224548,-0.012757956981658936
1772810419889629700,7.991629638671875,-0.09563922882080078,-0.0011841058731079102,-0.0057621002197265625
1772810419909390600,8.011390625,-0.0836639404296875,-0.020344100892543793,-0.007940612733364105
1772810419929151500,8.0311513671875,-0.0860605239868164,-0.006197378039360046,0.0015281811356544495
1772810419948912000,8.050912109375,-0.07168865203857422,-0.006223082542419434,-0.005499579012393951
1772810419968672800,8.0706728515625,-0.0908517837524414,0.0055008456110954285,-0.007883325219154358
1772810419988433700,8.09043359375,-0.07887554168701172,-0.004115067422389984,-0.0007018744945526123
1772810420008194600,8.110194580078126,-0.09294509887695312,-0.006382398307323456,-0.017747893929481506
1772810420027955200,8.129955078125,-0.071685791015625,-0.0017305612564086914,-0.0009345337748527527
1772810420047716000,8.149716064453125,-0.07408332824707031,-0.027758918702602386,-0.007955983281135559
1772810420067477000,8.16947705078125,-0.06929492950439453,0.0032913610339164734,0.006549671292304993
1772810420087238000,8.18923779296875,-0.05312824249267578,0.0032924488186836243,-0.0028768032789230347
1772810420106998800,8.208998779296875,-0.08606433868408203,-0.0037739351391792297,-0.005370058119297028
1772810420126759400,8.228759521484376,-0.07887840270996094,0.012870974838733673,-0.0029751062393188477
1772810420146520300,8.248520263671875,-0.06929588317871094,0.010252803564071655,-0.007547929883003235
1772810420166281200,8.26828125,-0.07408523559570312,-0.013761848211288452,-0.007693924009799957
1772810420186042000,8.2880419921875,-0.09325122833251953,-0.01840132474899292,-0.00040877610445022583
1772810420205802800,8.307802734375,-0.09325218200683594,-0.001414656639099121,-0.00046672672033309937
1772810420225563600,8.327563720703125,-0.08127689361572266,-0.013453707098960876,-0.007437750697135925
1772810420245324500,8.347324462890626,-0.08127880096435547,-0.0014647319912910461,-0.00727275013923645
1772810420265085400,8.36708544921875,-0.08846569061279297,0.0012869462370872498,0.00020579993724822998
1772810420284846300,8.386846435546875,-0.07199668884277344,0.0017460882663726807,-0.006724119186401367
1772810420304607000,8.40660693359375,-0.08367443084716797,-0.007857084274291992,-0.00437946617603302
1772810420324368000,8.426367919921875,-0.07678794860839844,0.013679243624210358,-0.01871582865715027
1772810420344128800,8.446128662109375,-0.08397388458251953,-0.003132961690425873,0.005305550992488861
1772810420363889700,8.4658896484375,-0.06720542907714844,-0.017723605036735535,-0.0017522796988487244
1772810420383650300,8.485650390625,-0.0884695053100586,0.001589559018611908,-0.011183768510818481
1772810420403411200,8.5054111328125,-0.06960582733154297,-0.0032475143671035767,-0.015812687575817108
1772810420423172000,8.525172119140626,-0.08397960662841797,0.011303052306175232,0.008144669234752655
1772810420442933000,8.54493310546875,-0.07679176330566406,0.006288766860961914,-0.011074647307395935
1772810420462694000,8.56469384765625,-0.07439422607421875,-0.0009486600756645203,-0.0016224309802055359
1772810420482454500,8.58445458984375,-0.08846569061279297,-0.0009986460208892822,-0.01604054868221283
1772810420502215200,8.604215087890625,-0.07409477233886719,-0.0034930184483528137,0.01046297699213028
1772810420521975600,8.6239755859375,-0.08607006072998047,-0.008420273661613464,-0.008865661919116974
1772810420541736000,8.64373583984375,-0.08157825469970703,-0.001179426908493042,0.0006316900253295898
1772810420561496000,8.66349609375,-0.0815725326538086,0.00833120197057724,0.002576574683189392
1772810420581256400,8.68325634765625,-0.08396244049072266,-0.0037429630756378174,-0.004937984049320221
1772810420601016800,8.703016845703125,-0.08366680145263672,0.008213311433792114,-0.004647701978683472
1772810420620777200,8.722777099609376,-0.08127212524414062,-0.0060449689626693726,-0.007056146860122681
1772810420640537300,8.742537353515624,-0.07678508758544922,0.006123952567577362,-0.01159251481294632
1772810420660297700,8.762297607421875,-0.08846092224121094,0.0012759268283843994,-0.021257497370243073
1772810420680058000,8.78205810546875,-0.09804248809814453,-0.0060541629791259766,-0.004405505955219269
1772810420699818200,8.801818359375,-0.0815744400024414,0.001075252890586853,-0.0019833967089653015
1772810420719578600,8.82157861328125,-0.06719684600830078,0.001071244478225708,0.004903271794319153
1772810420739339000,8.841339111328125,-0.09085369110107422,-0.006154097616672516,-0.0046465396881103516
1772810420759099400,8.861099365234375,-0.06479930877685547,-0.0038558021187782288,0.009571470320224762
1772810420778859500,8.880859619140624,-0.0836629867553711,0.0009815320372581482,0.006974831223487854
1772810420798620000,8.900619873046875,-0.09563732147216797,0.0056520625948905945,-0.022201821208000183
1772810420818380300,8.92038037109375,-0.055206298828125,-0.013895243406295776,0.003997191786766052
1772810420838140400,8.940140380859376,-0.07886314392089844,0.000577777624130249,-0.0009664520621299744
1772810420857900800,8.95990087890625,-0.10970783233642578,0.007792636752128601,0.006082788109779358
1772810420877661200,8.9796611328125,-0.048023223876953125,-0.01183919608592987,-0.0060649290680885315
1772810420897421600,8.999421630859375,-0.06238555908203125,0.004915937781333923,0.005096063017845154
1772810420917181700,9.019181640625,-0.08573532104492188,-0.011827550828456879,-0.007862433791160583
1772810420936942000,9.038942138671874,-0.08124256134033203,-0.004475541412830353,-0.013159282505512238
1772810420956702500,9.058702392578125,-0.05040454864501953,0.009615018963813782,0.01130666583776474
1772810420976462800,9.078462890625,-0.055202484130859375,-0.016594581305980682,-0.0025213584303855896
1772810420996223000,9.098222900390626,-0.09772396087646484,0.007340438663959503,-0.004678346216678619
1772810421015982800,9.11798291015625,-0.0692758560180664,0.014493279159069061,-0.004853539168834686
1772810421035742500,9.137742431640625,-0.10461139678955078,0.008958056569099426,0.0030157044529914856
1772810421055502300,9.15750244140625,-0.06688499450683594,-0.015375860035419464,-0.008505471050739288
1772810421075262200,9.17726220703125,-0.060001373291015625,0.011039920151233673,0.004648745059967041
1772810421095021800,9.197021728515624,-0.09324455261230469,-0.0030796006321907043,-0.006229199469089508
1772810421114781700,9.21678173828125,-0.0836629867553711,-0.0055661797523498535,-0.018090397119522095
1772810421134541600,9.23654150390625,-0.057910919189453125,-0.005504295229911804,-0.003891564905643463
1772810421154301200,9.25630126953125,-0.07886791229248047,-0.0030537620186805725,0.0030006766319274902
1772810421174061000,9.27606103515625,-0.08844852447509766,-0.0033589601516723633,-0.0041534751653671265
1772810421193821000,9.295821044921874,-0.08395957946777344,-0.0034545287489891052,-0.008593462407588959
1772810421213580500,9.31558056640625,-0.06479930877685547,-0.003499723970890045,0.0013684406876564026
1772810421233340400,9.33534033203125,-0.09085941314697266,-0.012898467481136322,-0.005112737417221069
1772810421253100300,9.355100341796875,-0.07468891143798828,-0.017853088676929474,0.004530355334281921
1772810421272860000,9.37485986328125,-0.07888412475585938,-0.0009310096502304077,0.007034339010715485
1772810421292619800,9.394619873046874,-0.07199668884277344,-0.005658738315105438,0.006936103105545044
1772810421312379600,9.414379638671875,-0.07199764251708984,0.001573815941810608,-0.0001252889633178711
1772810421332139300,9.43413916015625,-0.07439136505126953,0.0039048120379447937,0.0020810887217521667
1772810421351899100,9.453899169921876,-0.0648040771484375,-0.005561798810958862,0.006362020969390869
1772810421371659000,9.473658935546876,-0.07678413391113281,-0.007731392979621887,-0.005633458495140076
1772810421391418600,9.493418701171874,-0.07199382781982422,0.016385875642299652,-0.0008175075054168701
1772810421411178500,9.513178466796875,-0.08397674560546875,-0.005111098289489746,0.006734922528266907
1772810421430938400,9.5329384765625,-0.08607101440429688,-0.00047572702169418335,-0.0003779307007789612
1772810421450698000,9.552697998046876,-0.07918834686279297,-0.005411624908447266,0.000038601458072662354
1772810421470457900,9.572457763671874,-0.07677650451660156,0.39706388115882874,0.11893436312675476
1772810421490217700,9.5922177734375,-0.0956125259399414,0.6158907413482666,0.28477561473846436
1772810421509976600,9.6119765625,-0.08603763580322266,-0.3886825442314148,-0.08721376210451126
1772810421529735400,9.6317353515625,-0.0791788101196289,-0.6329039931297302,-0.3397154211997986
1772810421549494300,9.651494384765625,-0.07648277282714844,0.04027702659368515,0.021970480680465698
1772810421569253000,9.671253173828125,-0.09564495086669922,-0.006968572735786438,-0.006942644715309143
1772810421589012000,9.691011962890625,-0.08606243133544922,0.011414214968681335,0.012210145592689514
1772810421608770800,9.710770751953126,-0.07918357849121094,-0.005597278475761414,-0.0037038475275039673
1772810421628529700,9.73052978515625,-0.062419891357421875,-0.012157395482063293,0.001518748700618744
1772810421648288500,9.75028857421875,-0.0956563949584961,0.013249307870864868,-0.007816515862941742
1772810421668047400,9.77004736328125,-0.0717020034790039,0.0010091662406921387,-0.002790309488773346
1772810421687806200,9.78980615234375,-0.057628631591796875,0.0034983381628990173,-0.000526919960975647
1772810421707565000,9.80956494140625,-0.078887939453125,-0.013187989592552185,-0.0030480846762657166
1772810421727324000,9.829323974609375,-0.09565353393554688,-0.001261681318283081,-0.007952868938446045
1772810421747082800,9.849082763671875,-0.0860748291015625,0.0032605454325675964,-0.026770569384098053
1772810421766841900,9.868841796875,-0.06960487365722656,0.005330361425876617,-0.014579921960830688
1772810421786600700,9.8886005859375,-0.09325790405273438,-0.0066813454031944275,-0.01945824921131134
1772810421806359600,9.908359619140626,-0.07199668884277344,-0.004379287362098694,0.0019623413681983948
1772810421826118400,9.928118408203124,-0.09774589538574219,-0.004471860826015472,-0.0172935351729393
1772810421845877200,9.947877197265624,-0.08847236633300781,-0.018848471343517303,-0.006952658295631409
1772810421865636000,9.967635986328125,-0.07889556884765625,0.002345062792301178,0.005700424313545227
1772810421885395000,9.98739501953125,-0.07889842987060547,-0.013792291283607483,0.008354783058166504
1772810421905153800,10.00715380859375,-0.10285186767578125,-0.002162851393222809,-0.001203484833240509
1772810421924912600,10.02691259765625,-0.08848190307617188,0.007306866347789764,-0.013076260685920715
1772810421944671500,10.04667138671875,-0.07920265197753906,-0.013723157346248627,-0.012765802443027496
1772810421964430300,10.066430419921875,-0.07441425323486328,-0.011198721826076508,0.004168771207332611
1772810421984189200,10.086189208984376,-0.08160114288330078,0.004904419183731079,-0.01259804517030716
1772810422003948500,10.105948486328124,-0.0741128921508789,-0.006565876305103302,-0.01991717517375946
1772810422023708200,10.125708251953125,-0.0884847640991211,0.014461077749729156,0.006385184824466705
1772810422043467800,10.1454677734375,-0.05524635314941406,-0.0065880268812179565,0.003950498998165131
1772810422063227400,10.165227294921875,-0.09566879272460938,0.0004391670227050781,-0.010426141321659088
1772810422082987300,10.1849873046875,-0.0699167251586914,-0.004188552498817444,0.004401549696922302
1772810422102747000,10.204746826171874,-0.069915771484375,0.010105021297931671,-0.004898346960544586
1772810422122506500,10.224506591796874,-0.11003971099853516,-0.004256702959537506,-0.0046905651688575745
1772810422142266000,10.24426611328125,-0.07440662384033203,-0.0019093602895736694,0.004815690219402313
1772810422162026000,10.26402587890625,-0.07470989227294922,-0.013802602887153625,0.0027962177991867065
1772810422181785600,10.28378564453125,-0.06991863250732422,-0.0020266547799110413,0.0005230158567428589
1772810422201545200,10.303545166015626,-0.07231426239013672,0.014857910573482513,-0.0019497200846672058
1772810422221304800,10.323304931640624,-0.08638477325439453,0.0076490119099617004,-0.004621423780918121
1772810422241064700,10.343064697265625,-0.0818929672241211,0.01010885089635849,0.0002939850091934204
1772810422260824300,10.36282421875,-0.08878326416015625,0.0032095015048980713,-0.006492137908935547
1772810422280584000,10.382583984375,-0.07651042938232422,0.021170713007450104,-0.019338123500347137
1772810422300343600,10.402343505859376,-0.06692886352539062,-0.00984615832567215,-0.00020225346088409424
1772810422320103200,10.422103271484374,-0.07651042938232422,0.009137265384197235,-0.007894210517406464
1772810422339863000,10.441863037109375,-0.07651233673095703,-0.0003916695713996887,-0.005413621664047241
1772810422359622700,10.46162255859375,-0.0645303726196289,-0.010465919971466064,-0.007767006754875183
1772810422379382300,10.48138232421875,-0.0884857177734375,0.004050537943840027,-0.01027100533246994
1772810422399142000,10.501141845703126,-0.08130073547363281,0.0014933496713638306,-0.007679209113121033
1772810422418901800,10.52090185546875,-0.0645294189453125,-0.003344491124153137,-0.01511373370885849
1772810422438661400,10.540661376953125,-0.10226058959960938,-0.0035865530371665955,0.003968417644500732
1772810422458421000,10.5604208984375,-0.06932449340820312,-0.0013339444994926453,-0.015382565557956696
1772810422478180600,10.5801806640625,-0.08130264282226562,0.0069290101528167725,-0.0015845447778701782
1772810422497940500,10.5999404296875,-0.08639049530029297,-0.005139455199241638,0.0029610246419906616
1772810422517700000,10.6197001953125,-0.06512928009033203,0.014191418886184692,0.007652059197425842
1772810422537459700,10.639459716796875,-0.08848285675048828,-0.00008062273263931274,0.00022833794355392456
1772810422557219600,10.659219482421875,-0.08608341217041016,-0.009434521198272705,0.004409961402416229
1772810422576979200,10.678979248046875,-0.07439804077148438,0.007413655519485474,-0.0011290684342384338
