time,seconds_elapsed,z,y,x
1772810370052926000,0.222926025390625,0.001731053227558732,-0.0006657897029072046,0.001597895286977291
1772810370072685000,0.24268505859375,0.0011984214652329683,-0.00013315794058144093,-0.0010652635246515274
1772810370082564600,0.252564697265625,-0.0009321055840700865,0.0003994738217443228,-0.0005326317623257637
1772810370092444200,0.262444091796875,0.00013315794058144093,0.0014647373463958502,0.0005326317623257637
1772810370102323700,0.27232373046875,-0.0009321055840700865,0.001997369108721614,-0.0005326317623257637
1772810370112203300,0.282203369140625,0.00013315794058144093,0.0014647373463958502,-0.0010652635246515274
1772810370122082800,0.292082763671875,0.00013315794058144093,-0.0022636849898844957,-0.0010652635246515274
1772810370131962400,0.30196240234375,-0.0009321055840700865,0.0003994738217443228,0
1772810370141842000,0.311842041015625,-0.0009321055840700865,0.0003994738217443228,0
1772810370151721500,0.321721435546875,-0.0009321055840700865,0.0030626326333731413,0.001597895286977291
1772810370161600800,0.331600830078125,0.0006657897029072046,0.0009321055840700865,-0.0010652635246515274
1772810370171480300,0.341480224609375,-0.0003994738217443228,0.0003994738217443228,-0.002130527049303055
1772810370181359900,0.35135986328125,-0.0014647373463958502,-0.00013315794058144093,0.002130527049303055
1772810370191239400,0.361239501953125,0.00013315794058144093,-0.00013315794058144093,-0.0010652635246515274
1772810370201119000,0.371118896484375,0.0006657897029072046,-0.00013315794058144093,-0.0010652635246515274
1772810370210998500,0.38099853515625,0.0006657897029072046,0.0003994738217443228,0
1772810370220878000,0.390878173828125,-0.0003994738217443228,-0.0011984214652329683,0.0026631588116288185
1772810370230757600,0.400757568359375,-0.0003994738217443228,-0.00013315794058144093,-0.0010652635246515274
1772810370240637200,0.41063720703125,-0.0003994738217443228,0.0003994738217443228,0
1772810370250516700,0.420516845703125,-0.0014647373463958502,-0.0022636849898844957,-0.0010652635246515274
1772810370260396300,0.430396240234375,0.0006657897029072046,0.0009321055840700865,-0.0005326317623257637
1772810370270275800,0.44027587890625,0.001731053227558732,0.0009321055840700865,-0.0005326317623257637
1772810370280155100,0.450155029296875,0.0006657897029072046,-0.00013315794058144093,0.0005326317623257637
1772810370290034700,0.46003466796875,0.001731053227558732,0.0003994738217443228,0.0010652635246515274
1772810370299914200,0.469914306640625,0.001731053227558732,0.0003994738217443228,0.001597895286977291
1772810370309793800,0.479793701171875,0.0006657897029072046,-0.00013315794058144093,-0.0010652635246515274
1772810370319673300,0.48967333984375,0.0011984214652329683,-0.0006657897029072046,0.0026631588116288185
1772810370329553000,0.499552978515625,0.00013315794058144093,-0.0027963167522102594,0
1772810370339432400,0.509432373046875,0.0006657897029072046,-0.00013315794058144093,-0.0005326317623257637
1772810370349312000,0.51931201171875,0.00013315794058144093,-0.00013315794058144093,0.002130527049303055
1772810370359191600,0.529191650390625,-0.0003994738217443228,-0.00013315794058144093,-0.0005326317623257637
1772810370369071000,0.539071044921875,-0.001997369108721614,-0.00013315794058144093,-0.001597895286977291
1772810370378950400,0.548950439453125,-0.001997369108721614,0.0003994738217443228,-0.0005326317623257637
1772810370388830000,0.558829833984375,0.0011984214652329683,0.0014647373463958502,0.0005326317623257637
1772810370398709500,0.56870947265625,-0.0003994738217443228,0.0003994738217443228,-0.0005326317623257637
1772810370408589000,0.578589111328125,-0.0009321055840700865,0.0003994738217443228,0
1772810370418468600,0.588468505859375,0.00013315794058144093,-0.00013315794058144093,0.0005326317623257637
1772810370428348200,0.59834814453125,-0.0003994738217443228,0.0003994738217443228,0.001597895286977291
1772810370438227700,0.608227783203125,-0.0003994738217443228,-0.0006657897029072046,0.0005326317623257637
1772810370448107300,0.618107177734375,0.00013315794058144093,-0.0022636849898844957,-0.0005326317623257637
1772810370457986800,0.62798681640625,-0.0003994738217443228,-0.00013315794058144093,0
1772810370467866400,0.637866455078125,0.00013315794058144093,0.003595264395698905,-0.0010652635246515274
1772810370477746000,0.647745849609375,0.00013315794058144093,-0.0011984214652329683,0
1772810370487625500,0.65762548828125,0.00013315794058144093,-0.00013315794058144093,-0.0010652635246515274
1772810370497504800,0.6675048828125,-0.0003994738217443228,-0.0006657897029072046,0.0010652635246515274
1772810370507384000,0.677384033203125,0.0006657897029072046,0.0003994738217443228,-0.0005326317623257637
1772810370517263400,0.687263427734375,-0.0003994738217443228,0.0009321055840700865,0.0005326317623257637
1772810370527142700,0.697142578125,-0.0003994738217443228,0.0014647373463958502,-0.0005326317623257637
1772810370537022000,0.70702197265625,-0.0014647373463958502,-0.0006657897029072046,0.0005326317623257637
1772810370546901200,0.7169013671875,0.0006657897029072046,-0.0006657897029072046,0
1772810370556780500,0.726780517578125,0.0006657897029072046,0.0009321055840700865,0.0010652635246515274
1772810370566660000,0.73666015625,0.0006657897029072046,0.001997369108721614,-0.0005326317623257637
1772810370576539400,0.746539306640625,0.0011984214652329683,0.0003994738217443228,-0.0010652635246515274
1772810370586418700,0.756418701171875,-0.0009321055840700865,-0.00013315794058144093,-0.0005326317623257637
1772810370596298000,0.766298095703125,-0.0014647373463958502,-0.0006657897029072046,0
1772810370606177300,0.77617724609375,-0.0003994738217443228,0.0009321055840700865,-0.001597895286977291
1772810370616056600,0.786056640625,0.00013315794058144093,0.0014647373463958502,0
1772810370625936000,0.795935791015625,-0.0009321055840700865,0.0009321055840700865,0
1772810370635815200,0.805815185546875,0.0006657897029072046,-0.00013315794058144093,0.0010652635246515274
1772810370645694500,0.815694580078125,0.0011984214652329683,-0.00013315794058144093,0.0005326317623257637
1772810370655573800,0.82557373046875,-0.0003994738217443228,-0.0006657897029072046,-0.0005326317623257637
1772810370665453000,0.835453125,0.0006657897029072046,-0.0006657897029072046,-0.0005326317623257637
1772810370685212000,0.8552119140625,-0.0003994738217443228,-0.0011984214652329683,-0.0005326317623257637
1772810370695091200,0.86509130859375,0.0011984214652329683,-0.00013315794058144093,-0.0005326317623257637
1772810370704970500,0.874970458984375,0.001731053227558732,-0.0011984214652329683,0.0005326317623257637
1772810370714849800,0.884849853515625,-0.0003994738217443228,0.0003994738217443228,0
1772810370724729000,0.89472900390625,0.00013315794058144093,0.0009321055840700865,0
1772810370734608400,0.9046083984375,0.00013315794058144093,-0.00013315794058144093,0.0005326317623257637
1772810370744487700,0.91448779296875,0.0011984214652329683,0.0009321055840700865,0.0005326317623257637
1772810370754367000,0.924366943359375,0.0006657897029072046,-0.00013315794058144093,0.0005326317623257637
1772810370764246300,0.934246337890625,-0.0003994738217443228,0.0014647373463958502,-0.0005326317623257637
1772810370774125600,0.94412548828125,0.0006657897029072046,0.0009321055840700865,-0.0005326317623257637
1772810370784004900,0.9540048828125,-0.0009321055840700865,-0.00013315794058144093,0.001597895286977291
1772810370793884200,0.96388427734375,-0.0009321055840700865,0.0003994738217443228,-0.0005326317623257637
1772810370803763700,0.973763671875,-0.0014647373463958502,0.0003994738217443228,0.0010652635246515274
1772810370813643000,0.98364306640625,0.0006657897029072046,0.0009321055840700865,0
1772810370823522300,0.993522216796875,0.00013315794058144093,-0.0011984214652329683,-0.0010652635246515274
1772810370833401600,1.003401611328125,0.0006657897029072046,0.001997369108721614,0
1772810370843281000,1.013281005859375,0.00013315794058144093,-0.0006657897029072046,-0.002130527049303055
1772810370853160200,1.02316015625,0.0011984214652329683,-0.0006657897029072046,0.001597895286977291
1772810370863039500,1.03303955078125,-0.0003994738217443228,-0.00013315794058144093,0
1772810370872918800,1.042918701171875,-0.0014647373463958502,0.0009321055840700865,0.0010652635246515274
1772810370882798000,1.052798095703125,-0.0030626326333731413,-0.0011984214652329683,-0.0005326317623257637
1772810370892677400,1.062677490234375,-0.0009321055840700865,0.0003994738217443228,0
1772810370902556700,1.072556640625,0.00013315794058144093,0.001997369108721614,0
1772810370912436000,1.08243603515625,-0.0025300008710473776,0.0003994738217443228,0
1772810370922315500,1.0923154296875,0.0006657897029072046,0.0014647373463958502,-0.001597895286977291
1772810370932194800,1.10219482421875,0.0006657897029072046,0.0014647373463958502,0
1772810370942074000,1.11207421875,0.0011984214652329683,0.0009321055840700865,-0.001597895286977291
1772810370951953400,1.121953369140625,-0.0014647373463958502,0.0003994738217443228,0
1772810370961832700,1.131832763671875,0.00013315794058144093,0.0003994738217443228,0
1772810370971712000,1.1417119140625,-0.0014647373463958502,-0.001731053227558732,0.0010652635246515274
1772810370981591300,1.15159130859375,-0.0009321055840700865,0.0025300008710473776,0
1772810370991470600,1.161470703125,-0.0003994738217443228,-0.00013315794058144093,0.0010652635246515274
1772810371001350100,1.17135009765625,0.0006657897029072046,-0.0006657897029072046,-0.002130527049303055
1772810371011229700,1.181229736328125,0.0006657897029072046,0.0009321055840700865,-0.0010652635246515274
1772810371021109200,1.191109130859375,-0.0003994738217443228,-0.00013315794058144093,-0.0005326317623257637
1772810371030988800,1.20098876953125,0.00013315794058144093,-0.0006657897029072046,0
1772810371040868600,1.21086865234375,-0.0009321055840700865,0.0009321055840700865,-0.0005326317623257637
1772810371050748200,1.220748046875,-0.0003994738217443228,-0.0006657897029072046,0.0005326317623257637
1772810371060627700,1.230627685546875,-0.0025300008710473776,0.0003994738217443228,0.0005326317623257637
1772810371070507300,1.24050732421875,-0.0003994738217443228,-0.00013315794058144093,0.0010652635246515274
1772810371080386800,1.25038671875,0.00013315794058144093,-0.0006657897029072046,-0.0005326317623257637
1772810371090266600,1.2602666015625,0.0011984214652329683,-0.00013315794058144093,0.0010652635246515274
1772810371100146200,1.270146240234375,0.0011984214652329683,-0.0006657897029072046,0.0010652635246515274
1772810371110025700,1.280025634765625,-0.0013315794058144093,0.0007989476434886456,-0.0010652635246515274
1772810371119905300,1.2899052734375,-0.00026631588116288185,-0.0007989476434886456,0.0010652635246515274
1772810371129784800,1.299784912109375,0.00026631588116288185,0.00026631588116288185,-0.001597895286977291
1772810371139664400,1.309664306640625,-0.00026631588116288185,-0.0013315794058144093,-0.0010652635246515274
1772810371149544200,1.319544189453125,-0.0007989476434886456,-0.0023968429304659367,0
1772810371159423700,1.329423828125,-0.0013315794058144093,-0.00026631588116288185,0.0005326317623257637
1772810371169303300,1.33930322265625,-0.00026631588116288185,0.00026631588116288185,0
1772810371179182800,1.349182861328125,-0.0007989476434886456,-0.0007989476434886456,-0.0010652635246515274
1772810371189062400,1.3590625,0.0007989476434886456,-0.0013315794058144093,0
1772810371198942000,1.36894189453125,0.0013315794058144093,0.00026631588116288185,0
1772810371208821800,1.37882177734375,-0.00026631588116288185,-0.00026631588116288185,-0.0010652635246515274
1772810371218701300,1.388701416015625,0.00026631588116288185,-0.001864211168140173,0.0005326317623257637
1772810371228580900,1.398580810546875,0.0013315794058144093,-0.00026631588116288185,0
1772810371238460400,1.40846044921875,-0.0013315794058144093,-0.0013315794058144093,0.0010652635246515274
1772810371248340000,1.418340087890625,0.00026631588116288185,0.00026631588116288185,0
1772810371258219800,1.4282197265625,0.0007989476434886456,-0.001864211168140173,0
1772810371268099300,1.438099365234375,0.0023968429304659367,-0.0007989476434886456,0
1772810371277979000,1.447978759765625,0.0007989476434886456,-0.0007989476434886456,0.0005326317623257637
1772810371287858400,1.4578583984375,-0.00026631588116288185,0.0013315794058144093,-0.0005326317623257637
1772810371297738000,1.467738037109375,0.0007989476434886456,-0.0023968429304659367,0
1772810371307617500,1.477617431640625,0.001864211168140173,0.00026631588116288185,-0.0005326317623257637
1772810371317497300,1.487497314453125,0.0013315794058144093,-0.0007989476434886456,-0.0010652635246515274
1772810371327377000,1.497376953125,0.00026631588116288185,0.0013315794058144093,-0.0005326317623257637
1772810371337256400,1.50725634765625,-0.0007989476434886456,0.0007989476434886456,0
1772810371347136000,1.517135986328125,-0.00026631588116288185,-0.00026631588116288185,0
1772810371357015600,1.527015625,0.00026631588116288185,0.0013315794058144093,-0.0010652635246515274
1772810371366895400,1.536895263671875,-0.0013315794058144093,-0.0013315794058144093,-0.0005326317623257637
1772810371376775000,1.54677490234375,0.0007989476434886456,-0.0013315794058144093,0.001597895286977291
1772810371386654500,1.556654541015625,0.0013315794058144093,0.0007989476434886456,-0.0005326317623257637
1772810371396534000,1.566533935546875,-0.0007989476434886456,0.00026631588116288185,0
1772810371406413600,1.57641357421875,0.00026631588116288185,-0.0007989476434886456,0.001597895286977291
1772810371416293000,1.586293212890625,-0.00026631588116288185,-0.0007989476434886456,-0.002130527049303055
1772810371426173000,1.5961728515625,0.0007989476434886456,0.0013315794058144093,0.001597895286977291
1772810371436052500,1.606052490234375,-0.00026631588116288185,0.00026631588116288185,0.0005326317623257637
1772810371445932000,1.61593212890625,-0.0007989476434886456,-0.00026631588116288185,0
1772810371455811600,1.6258115234375,-0.0013315794058144093,0.00026631588116288185,0.0005326317623257637
1772810371465691100,1.635691162109375,-0.00026631588116288185,0.001864211168140173,-0.001597895286977291
1772810371475571000,1.645571044921875,-0.0007989476434886456,-0.0013315794058144093,-0.0010652635246515274
1772810371485450500,1.655450439453125,0.00026631588116288185,0.0007989476434886456,0.0005326317623257637
1772810371495330000,1.665330078125,0.0007989476434886456,0.00026631588116288185,-0.002130527049303055
1772810371505210400,1.67521044921875,0.0007989476434886456,-0.00026631588116288185,0
1772810371515090400,1.68509033203125,-0.00026631588116288185,-0.0013315794058144093,0.0005326317623257637
1772810371524970800,1.694970703125,-0.0007989476434886456,-0.0029294746927917004,0.0005326317623257637
1772810371534851000,1.70485107421875,-0.0007989476434886456,0.0029294746927917004,-0.0005326317623257637
1772810371544731400,1.7147314453125,0.00026631588116288185,-0.001864211168140173,-0.0010652635246515274
1772810371554611500,1.724611572265625,0.00026631588116288185,0.00026631588116288185,0.0005326317623257637
1772810371564491800,1.73449169921875,0.00026631588116288185,-0.00026631588116288185,0.001597895286977291
1772810371574372000,1.7443720703125,0.0007989476434886456,0.0007989476434886456,0
1772810371584252200,1.754252197265625,0.0023968429304659367,0.0013315794058144093,-0.0010652635246515274
1772810371594132500,1.764132568359375,0.00026631588116288185,-0.0007989476434886456,-0.0005326317623257637
1772810371604012800,1.7740126953125,0.00026631588116288185,-0.00026631588116288185,-0.0005326317623257637
1772810371613893000,1.78389306640625,-0.00026631588116288185,-0.001864211168140173,-0.0010652635246515274
1772810371633653500,1.803653564453125,-0.0013315794058144093,-0.0007989476434886456,0.0005326317623257637
1772810371643533800,1.813533935546875,0.0007989476434886456,-0.00026631588116288185,0.001597895286977291
1772810371653414000,1.823413818359375,0.00026631588116288185,-0.0023968429304659367,0.0005326317623257637
1772810371663294200,1.833294189453125,0.00026631588116288185,0.00026631588116288185,-0.0005326317623257637
1772810371673174500,1.843174560546875,0.00026631588116288185,-0.00026631588116288185,0.0005326317623257637
1772810371683054800,1.853054931640625,-0.0007989476434886456,-0.00026631588116288185,0.0005326317623257637
1772810371692935000,1.862934814453125,-0.0013315794058144093,0.00026631588116288185,-0.002130527049303055
1772810371702815200,1.872815185546875,-0.00026631588116288185,-0.001864211168140173,0
1772810371712695600,1.882695556640625,-0.0013315794058144093,-0.0007989476434886456,0.0010652635246515274
1772810371722576000,1.892575927734375,0.00026631588116288185,-0.00026631588116288185,0
1772810371732456000,1.9024560546875,0.00026631588116288185,-0.0007989476434886456,0.0010652635246515274
1772810371742336300,1.912336181640625,0.00026631588116288185,0.00026631588116288185,-0.0005326317623257637
1772810371752216600,1.922216552734375,0.00026631588116288185,-0.00026631588116288185,0
1772810371762096600,1.9320966796875,0.0007989476434886456,0.00026631588116288185,0.0005326317623257637
1772810371771977000,1.94197705078125,-0.0007989476434886456,0.001864211168140173,0
1772810371781857300,1.951857177734375,0.0007989476434886456,-0.00026631588116288185,0.0005326317623257637
1772810371791737600,1.961737548828125,0.00026631588116288185,-0.00026631588116288185,0
1772810371801617700,1.97161767578125,-0.0007989476434886456,-0.0007989476434886456,-0.001597895286977291
1772810371811498000,1.981498046875,-0.0013315794058144093,0.0007989476434886456,0.0005326317623257637
1772810371821378300,1.99137841796875,0.0007989476434886456,-0.00026631588116288185,-0.0005326317623257637
1772810371831258400,2.00125830078125,0.00026631588116288185,-0.00026631588116288185,-0.0005326317623257637
1772810371841138700,2.011138671875,-0.00026631588116288185,0.00026631588116288185,0.0005326317623257637
1772810371851019000,2.02101904296875,0.001864211168140173,0.0013315794058144093,0.0010652635246515274
1772810371860899300,2.0308994140625,0.0007989476434886456,0.0013315794058144093,-0.0005326317623257637
1772810371870779400,2.040779296875,0.00026631588116288185,0.00026631588116288185,-0.0005326317623257637
1772810371880659700,2.05065966796875,-0.00026631588116288185,-0.00026631588116288185,-0.0005326317623257637
1772810371890540000,2.0605400390625,-0.0007989476434886456,0.0007989476434886456,0.0010652635246515274
1772810371900420400,2.07042041015625,-0.0007989476434886456,-0.001864211168140173,0.001597895286977291
1772810371910300400,2.080300537109375,0.0007989476434886456,0.0007989476434886456,-0.0005326317623257637
1772810371920180700,2.0901806640625,0.00026631588116288185,-0.0007989476434886456,0.0005326317623257637
1772810371930061000,2.10006103515625,-0.00026631588116288185,0.0007989476434886456,-0.0005326317623257637
1772810371939941000,2.109941162109375,-0.0013315794058144093,0.0029294746927917004,-0.0010652635246515274
1772810371949821400,2.119821533203125,0.00026631588116288185,0.00026631588116288185,0
1772810371959701800,2.12970166015625,0.0013315794058144093,0.0007989476434886456,-0.0005326317623257637
1772810371969582000,2.13958203125,0.00026631588116288185,0.0007989476434886456,0.001597895286977291
1772810371979462100,2.149462158203125,0.0013315794058144093,0.0007989476434886456,0.0005326317623257637
1772810371989342500,2.159342529296875,0.0007989476434886456,0.0007989476434886456,0.001597895286977291
1772810371999222500,2.169222412109375,-0.00026631588116288185,0.0007989476434886456,-0.0010652635246515274
1772810372009102600,2.1791025390625,-0.00026631588116288185,0.0007989476434886456,-0.0010652635246515274
1772810372018982400,2.188982421875,0.0007989476434886456,-0.00026631588116288185,-0.0005326317623257637
1772810372028862500,2.198862548828125,0.0013315794058144093,-0.00026631588116288185,-0.0026631588116288185
1772810372038742300,2.2087421875,0.0007989476434886456,-0.00026631588116288185,0
1772810372048622300,2.218622314453125,-0.0013315794058144093,0.00026631588116288185,0
1772810372058502100,2.228502197265625,0.0007989476434886456,-0.0007989476434886456,0
1772810372068382200,2.23838232421875,-0.0007989476434886456,-0.00026631588116288185,-0.0005326317623257637
1772810372078262000,2.248261962890625,0.0013315794058144093,0.0007989476434886456,0.001597895286977291
1772810372088142000,2.25814208984375,0.00026631588116288185,0.0007989476434886456,-0.002130527049303055
1772810372098022000,2.26802197265625,0.0013315794058144093,0.001864211168140173,-0.0005326317623257637
1772810372107902000,2.27790185546875,0.0007989476434886456,-0.0013315794058144093,-0.0005326317623257637
1772810372117781800,2.28778173828125,-0.0007989476434886456,-0.00026631588116288185,0
1772810372127661800,2.297661865234375,0.0007989476434886456,0.00026631588116288185,0
1772810372137541600,2.307541748046875,0.00026631588116288185,-0.0013315794058144093,0.0005326317623257637
1772810372147421400,2.31742138671875,0.00026631588116288185,-0.00026631588116288185,-0.002130527049303055
1772810372157301500,2.327301513671875,-0.0013315794058144093,-0.001864211168140173,-0.001597895286977291
1772810372167181600,2.337181640625,-0.00026631588116288185,0.00026631588116288185,0.001597895286977291
1772810372177061400,2.347061279296875,0.0013315794058144093,-0.0007989476434886456,0
1772810372186941200,2.356941162109375,-0.00026631588116288185,0.00026631588116288185,0.0010652635246515274
1772810372196821200,2.3668212890625,0.0007989476434886456,-0.0007989476434886456,0.001597895286977291
1772810372206701300,2.376701416015625,-0.0013315794058144093,0.0007989476434886456,-0.0005326317623257637
1772810372216581000,2.3865810546875,0.0007989476434886456,-0.0023968429304659367,-0.002130527049303055
1772810372226461000,2.3964609375,-0.0007989476434886456,-0.00026631588116288185,-0.0010652635246515274
1772810372236341000,2.406341064453125,-0.0007989476434886456,0.00026631588116288185,0.0010652635246515274
1772810372246220800,2.416220703125,0.00026631588116288185,-0.0013315794058144093,0.0005326317623257637
1772810372256100900,2.426100830078125,-0.0029294746927917004,-0.00026631588116288185,0.0005326317623257637
1772810372265980700,2.435980712890625,-0.0013315794058144093,0.0007989476434886456,0
1772810372275860700,2.44586083984375,0.0013315794058144093,0.001864211168140173,0
1772810372285740500,2.455740478515625,0.00026631588116288185,-0.0013315794058144093,0
1772810372295620600,2.46562060546875,0.0007989476434886456,0.0007989476434886456,-0.0005326317623257637
1772810372305500400,2.47550048828125,-0.0007989476434886456,0.00026631588116288185,0.0005326317623257637
1772810372315380500,2.48538037109375,0.00026631588116288185,0.001864211168140173,0.001597895286977291
1772810372325260300,2.49526025390625,0.0013315794058144093,0.00026631588116288185,-0.001597895286977291
1772810372335140400,2.505140380859375,0.001864211168140173,-0.0007989476434886456,0.0010652635246515274
1772810372345020200,2.515020263671875,-0.00026631588116288185,-0.00026631588116288185,0
1772810372354900200,2.524900146484375,0.00026631588116288185,0.00026631588116288185,0.0010652635246515274
1772810372364780000,2.534780029296875,0.0007989476434886456,-0.0007989476434886456,0.0005326317623257637
1772810372374660000,2.54466015625,-0.0007989476434886456,0.0023968429304659367,-0.0005326317623257637
1772810372384540000,2.554539794921875,0.0007989476434886456,0.00026631588116288185,0
1772810372394420000,2.564419921875,0.0007989476434886456,0.0013315794058144093,0.002130527049303055
1772810372404299800,2.5742998046875,0.00026631588116288185,-0.00026631588116288185,-0.0010652635246515274
1772810372414179800,2.584179931640625,0.0007989476434886456,-0.00026631588116288185,-0.0010652635246515274
1772810372424059600,2.5940595703125,0.0007989476434886456,-0.0007989476434886456,0.0010652635246515274
1772810372433939700,2.603939697265625,-0.00026631588116288185,-0.00026631588116288185,-0.0005326317623257637
1772810372443819500,2.613819580078125,-0.0007989476434886456,-0.00026631588116288185,0
1772810372453699600,2.623699462890625,0.0013315794058144093,-0.00026631588116288185,-0.0005326317623257637
1772810372463579400,2.633579345703125,-0.0013315794058144093,0.0023968429304659367,-0.002130527049303055
1772810372473459500,2.64345947265625,-0.00026631588116288185,-0.00026631588116288185,-0.0005326317623257637
1772810372483339300,2.65333935546875,-0.0007989476434886456,-0.0007989476434886456,0.0010652635246515274
1772810372493219300,2.66321923828125,-0.00026631588116288185,0.0007989476434886456,0.0010652635246515274
1772810372503099100,2.67309912109375,-0.0007989476434886456,0.0029294746927917004,0
1772810372512979000,2.68297900390625,0.0013315794058144093,0.0013315794058144093,-0.0005326317623257637
1772810372522859000,2.69285888671875,-0.001864211168140173,-0.0013315794058144093,0
1772810372542618600,2.71261865234375,-0.00026631588116288185,0.0007989476434886456,0.0010652635246515274
1772810372552498400,2.72249853515625,0.0007989476434886456,0.00026631588116288185,-0.001597895286977291
1772810372562378500,2.73237841796875,-0.0013315794058144093,-0.0013315794058144093,-0.001597895286977291
1772810372572258300,2.74225830078125,-0.00026631588116288185,-0.00026631588116288185,0
1772810372582138000,2.75213818359375,-0.0007989476434886456,0.00026631588116288185,0.0005326317623257637
1772810372592018200,2.76201806640625,0.0007989476434886456,0.00026631588116288185,0.0005326317623257637
1772810372601898000,2.77189794921875,-0.00026631588116288185,-0.0029294746927917004,-0.0010652635246515274
1772810372611777800,2.78177783203125,0.00026631588116288185,-0.0007989476434886456,0.002130527049303055
1772810372621657900,2.791657958984375,-0.00026631588116288185,-0.00026631588116288185,0.0010652635246515274
1772810372631537700,2.80153759765625,-0.00026631588116288185,-0.001864211168140173,-0.0010652635246515274
1772810372641417500,2.81141748046875,-0.00026631588116288185,0.0007989476434886456,0
1772810372651297500,2.821297607421875,-0.00026631588116288185,-0.0007989476434886456,0
1772810372661177300,2.83117724609375,-0.0013315794058144093,0.00026631588116288185,0.0010652635246515274
1772810372671057400,2.841057373046875,-0.0007989476434886456,0.0007989476434886456,-0.0005326317623257637
1772810372680937200,2.850937255859375,-0.0007989476434886456,0.003462106455117464,0
1772810372690817000,2.860817138671875,0.00026631588116288185,0.001864211168140173,0
1772810372700697000,2.870697021484375,-0.00026631588116288185,-0.0007989476434886456,-0.001597895286977291
1772810372710577000,2.880576904296875,-0.00026631588116288185,-0.0007989476434886456,-0.0005326317623257637
1772810372720456700,2.890456787109375,-0.00026631588116288185,-0.0029294746927917004,0
1772810372730336500,2.90033642578125,0.0013315794058144093,0.00026631588116288185,0.0005326317623257637
1772810372740216600,2.910216552734375,-0.00026631588116288185,0.0013315794058144093,0.0005326317623257637
1772810372750096400,2.920096435546875,-0.00026631588116288185,0.00026631588116288185,0
1772810372759976200,2.92997607421875,-0.0013315794058144093,0.0023968429304659367,0.002130527049303055
1772810372769856300,2.939856201171875,0.0007989476434886456,-0.0013315794058144093,-0.0005326317623257637
1772810372779736000,2.949736083984375,0.0013315794058144093,-0.0007989476434886456,0
1772810372789615900,2.959615966796875,-0.0007989476434886456,-0.0007989476434886456,0.001597895286977291
1772810372799496000,2.969495849609375,-0.00026631588116288185,0.00026631588116288185,0
1772810372809375700,2.979375732421875,-0.00026631588116288185,0.0013315794058144093,-0.0010652635246515274
1772810372819255600,2.989255615234375,0.0007989476434886456,-0.0023968429304659367,0.001597895286977291
1772810372829135600,2.999135498046875,0.00026631588116288185,0.00026631588116288185,0
1772810372839015400,3.009015380859375,-0.00026631588116288185,-0.0007989476434886456,-0.0005326317623257637
1772810372848895200,3.018895263671875,0.0013315794058144093,0.0007989476434886456,0
1772810372858775300,3.028775390625,0.0007989476434886456,-0.0013315794058144093,-0.0010652635246515274
1772810372868655000,3.038655029296875,0.0007989476434886456,-0.0029294746927917004,-0.0005326317623257637
1772810372878535200,3.04853515625,0.00026631588116288185,-0.0029294746927917004,0.0010652635246515274
1772810372888415000,3.0584150390625,0.0007989476434886456,0.0009321055840700865,-0.0005326317623257637
1772810372898294800,3.068294677734375,-0.0007989476434886456,0.0014647373463958502,-0.0005326317623257637
1772810372908174600,3.078174560546875,-0.00026631588116288185,0.0009321055840700865,0.001597895286977291
1772810372918054700,3.0880546875,0.00026631588116288185,-0.0006657897029072046,-0.0010652635246515274
1772810372927934500,3.0979345703125,-0.0007989476434886456,-0.00013315794058144093,0.0005326317623257637
1772810372937814300,3.107814208984375,0.0013315794058144093,0.0003994738217443228,0.0010652635246515274
1772810372947694300,3.1176943359375,-0.0007989476434886456,0.0003994738217443228,0.0010652635246515274
1772810372957574100,3.12757421875,0.0007989476434886456,0.0009321055840700865,-0.0005326317623257637
1772810372967454000,3.137453857421875,-0.0007989476434886456,0.0003994738217443228,-0.0005326317623257637
1772810372977334000,3.147333984375,0.0007989476434886456,0.0003994738217443228,-0.0005326317623257637
1772810372987213800,3.1572138671875,0.0007989476434886456,-0.0006657897029072046,-0.0010652635246515274
1772810372997093600,3.16709375,-0.0007989476434886456,-0.001731053227558732,0.0005326317623257637
1772810373006973700,3.1769736328125,-0.00026631588116288185,0.0009321055840700865,-0.0010652635246515274
1772810373016853500,3.186853515625,-0.00026631588116288185,-0.0006657897029072046,0.0005326317623257637
1772810373026733300,3.1967333984375,-0.0013315794058144093,-0.00013315794058144093,0.001597895286977291
1772810373036613400,3.20661328125,0.00026631588116288185,0.0003994738217443228,0.0010652635246515274
1772810373046493200,3.2164931640625,0.0013315794058144093,-0.00013315794058144093,0.0010652635246515274
1772810373056373200,3.226373291015625,0.0007989476434886456,-0.00013315794058144093,-0.001597895286977291
1772810373066253000,3.236253173828125,-0.0013315794058144093,-0.00013315794058144093,0.0010652635246515274
1772810373076133000,3.246133056640625,0.00026631588116288185,-0.00013315794058144093,0
1772810373086013000,3.256012939453125,0.0007989476434886456,-0.00013315794058144093,0.0005326317623257637
1772810373095892700,3.265892822265625,0.0007989476434886456,-0.0006657897029072046,-0.0005326317623257637
1772810373105772800,3.275772705078125,-0.0013315794058144093,0.001997369108721614,0.0010652635246515274
1772810373115652600,3.285652587890625,-0.0007989476434886456,-0.00013315794058144093,-0.0005326317623257637
1772810373125532700,3.29553271484375,0.0007989476434886456,-0.0006657897029072046,0.001597895286977291
1772810373135412500,3.30541259765625,0.001864211168140173,0.0014647373463958502,0
1772810373145292500,3.31529248046875,-0.00026631588116288185,0.0003994738217443228,0
1772810373155172400,3.32517236328125,-0.00026631588116288185,0.0003994738217443228,-0.0005326317623257637
1772810373165052200,3.33505224609375,-0.0013315794058144093,-0.00013315794058144093,-0.0005326317623257637
1772810373174932200,3.34493212890625,0.00026631588116288185,0.0009321055840700865,0.0010652635246515274
1772810373184812000,3.35481201171875,-0.00026631588116288185,0.0025300008710473776,-0.0005326317623257637
1772810373194692000,3.364692138671875,-0.0013315794058144093,0.0009321055840700865,0.0005326317623257637
1772810373204572000,3.374572021484375,0.00026631588116288185,0.0014647373463958502,0.0010652635246515274
1772810373214452000,3.384451904296875,0.0013315794058144093,-0.0011984214652329683,-0.0005326317623257637
1772810373224331800,3.394331787109375,-0.0007989476434886456,-0.00013315794058144093,-0.0005326317623257637
1772810373234211600,3.404211669921875,0.00026631588116288185,0.0009321055840700865,0
1772810373244091600,3.414091552734375,0.00026631588116288185,0.0014647373463958502,-0.0010652635246515274
1772810373253971500,3.423971435546875,0.00026631588116288185,0.0009321055840700865,-0.0005326317623257637
1772810373263851500,3.4338515625,-0.0007989476434886456,-0.00013315794058144093,-0.0010652635246515274
1772810373273731300,3.4437314453125,0.00026631588116288185,-0.0006657897029072046,-0.0005326317623257637
1772810373283611400,3.453611328125,-0.0007989476434886456,0.0030626326333731413,0.0010652635246515274
1772810373293491200,3.4634912109375,0.00026631588116288185,-0.001731053227558732,-0.0005326317623257637
1772810373303371300,3.473371337890625,-0.00026631588116288185,0.0003994738217443228,0
1772810373313251000,3.4832509765625,-0.00026631588116288185,-0.0006657897029072046,-0.0005326317623257637
1772810373323131000,3.493130859375,0.00026631588116288185,0.0014647373463958502,-0.0010652635246515274
1772810373333011000,3.503010986328125,0.0013315794058144093,0.0003994738217443228,0
1772810373342890800,3.512890869140625,-0.00026631588116288185,-0.0006657897029072046,-0.0010652635246515274
1772810373352770800,3.522770751953125,-0.00026631588116288185,0.0003994738217443228,0.0005326317623257637
1772810373362650600,3.532650634765625,0.0013315794058144093,0.0003994738217443228,0
1772810373372530700,3.54253076171875,0.0007989476434886456,0.0003994738217443228,0.0005326317623257637
1772810373382410500,3.552410400390625,0.00026631588116288185,0.0003994738217443228,0
1772810373392290300,3.562290283203125,0.0007989476434886456,0.0009321055840700865,0.0005326317623257637
1772810373402170400,3.57217041015625,-0.00026631588116288185,-0.00013315794058144093,0
1772810373412050200,3.58205029296875,-0.0013315794058144093,-0.00013315794058144093,0
1772810373421930200,3.59193017578125,-0.0007989476434886456,0.0009321055840700865,0.0005326317623257637
1772810373431810000,3.60181005859375,-0.00026631588116288185,-0.0022636849898844957,0
1772810373441690000,3.611690185546875,-0.0007989476434886456,-0.00013315794058144093,0.0010652635246515274
1772810373451570000,3.62156982421875,-0.00026631588116288185,-0.0006657897029072046,-0.0005326317623257637
1772810373461449700,3.63144970703125,-0.0007989476434886456,-0.0006657897029072046,0.0005326317623257637
1772810373471329800,3.641329833984375,-0.0007989476434886456,0.004127896390855312,0.0005326317623257637
1772810373481209600,3.651209716796875,-0.00026631588116288185,-0.00013315794058144093,0
1772810373491089700,3.661089599609375,-0.0007989476434886456,0.0009321055840700865,0.0005326317623257637
1772810373500969700,3.6709697265625,0.00026631588116288185,0.0009321055840700865,-0.0005326317623257637
1772810373510850000,3.68085009765625,-0.00026631588116288185,0.0009321055840700865,0.0005326317623257637
1772810373520730600,3.690730712890625,-0.0007989476434886456,-0.0006657897029072046,0.0005326317623257637
1772810373530611000,3.70061083984375,-0.00026631588116288185,0.0003994738217443228,0
1772810373540491300,3.7104912109375,-0.0013315794058144093,0.0014647373463958502,0.0010652635246515274
1772810373550371600,3.72037158203125,0.0007989476434886456,0.0014647373463958502,0.002130527049303055
1772810373560252200,3.730252197265625,0.0007989476434886456,-0.0006657897029072046,0.001597895286977291
1772810373570132500,3.740132568359375,-0.00026631588116288185,0.0003994738217443228,0
1772810373580012800,3.7500126953125,-0.00026631588116288185,-0.0011984214652329683,0.0010652635246515274
1772810373589893000,3.75989306640625,-0.0013315794058144093,-0.00013315794058144093,-0.0005326317623257637
1772810373599773700,3.769773681640625,0.0007989476434886456,-0.0011984214652329683,-0.0005326317623257637
1772810373609654000,3.779654052734375,-0.00026631588116288185,-0.001731053227558732,0.001597895286977291
1772810373619534300,3.789534423828125,0.001864211168140173,0.0003994738217443228,-0.0005326317623257637
1772810373629414700,3.79941455078125,-0.0007989476434886456,-0.0006657897029072046,0
1772810373639295200,3.809295166015625,-0.0013315794058144093,-0.00013315794058144093,-0.0010652635246515274
1772810373649175600,3.819175537109375,-0.00026631588116288185,-0.00013315794058144093,-0.0010652635246515274
1772810373659055900,3.829055908203125,0.0007989476434886456,-0.0006657897029072046,0
1772810373668936400,3.8389365234375,0.0007989476434886456,0.0003994738217443228,0
1772810373678816800,3.848816650390625,-0.0023968429304659367,0.0014647373463958502,0
1772810373688697000,3.858697021484375,-0.0007989476434886456,-0.00013315794058144093,0
1772810373698577700,3.86857763671875,0.00026631588116288185,-0.0011984214652329683,0
1772810373708458000,3.8784580078125,0.00026631588116288185,-0.00013315794058144093,0
1772810373718338300,3.88833837890625,0.00026631588116288185,-0.00013315794058144093,0.0005326317623257637
1772810373728218600,3.898218505859375,-0.00026631588116288185,0.0003994738217443228,0.0005326317623257637
1772810373738099000,3.908098876953125,0.0007989476434886456,-0.0011984214652329683,-0.0005326317623257637
1772810373747979500,3.9179794921875,-0.00026631588116288185,0.001997369108721614,0.0005326317623257637
1772810373757859800,3.92785986328125,0.00026631588116288185,-0.0022636849898844957,0
1772810373767740200,3.937740234375,0.00026631588116288185,-0.0011984214652329683,0
1772810373777620700,3.947620849609375,0.00026631588116288185,-0.00013315794058144093,-0.001597895286977291
1772810373787501000,3.9575009765625,-0.0007989476434886456,0.0014647373463958502,-0.001597895286977291
1772810373797381400,3.96738134765625,0.00026631588116288185,0.0009321055840700865,-0.001597895286977291
1772810373807261700,3.97726171875,-0.00026631588116288185,0.0003994738217443228,0
1772810373817142300,3.987142333984375,0.0007989476434886456,0.0003994738217443228,0
1772810373827022600,3.997022705078125,0.00026631588116288185,-0.0011984214652329683,-0.0005326317623257637
1772810373836903000,4.00690283203125,-0.00026631588116288185,0.0014647373463958502,0.0005326317623257637
1772810373846783500,4.016783447265625,-0.00026631588116288185,0.0003994738217443228,0
1772810373856663800,4.026663818359375,0.0007989476434886456,0.0003994738217443228,0.0010652635246515274
1772810373866544000,4.036544189453125,0.00026631588116288185,0.001997369108721614,-0.0005326317623257637
1772810373876424400,4.046424560546875,0.0023968429304659367,-0.00013315794058144093,-0.002130527049303055
1772810373886304800,4.0563046875,-0.00026631588116288185,0.001997369108721614,-0.0010652635246515274
1772810373896185300,4.066185302734375,0.0007989476434886456,0.0003994738217443228,0.0005326317623257637
1772810373906065700,4.076065673828125,0.0013315794058144093,0.0009321055840700865,-0.0005326317623257637
1772810373915946000,4.085946044921875,-0.00026631588116288185,0.0003994738217443228,-0.0005326317623257637
1772810373925826600,4.09582666015625,0.00026631588116288185,-0.0011984214652329683,-0.0005326317623257637
1772810373935707000,4.105706787109375,0.00026631588116288185,-0.0022636849898844957,0.0005326317623257637
1772810373945587200,4.115587158203125,0.0007989476434886456,0.0009321055840700865,0.0010652635246515274
1772810373955467500,4.125467529296875,0.0007989476434886456,-0.0006657897029072046,0
1772810373965348000,4.13534814453125,-0.00026631588116288185,0.0025300008710473776,-0.0005326317623257637
1772810373975228400,4.145228515625,-0.0013315794058144093,0.0009321055840700865,0
1772810373985108700,4.155108642578125,0.0013315794058144093,-0.0011984214652329683,0.0010652635246515274
1772810373994989000,4.164989013671875,0.0013315794058144093,-0.00013315794058144093,-0.0005326317623257637
1772810374004869000,4.174869140625,-0.0007989476434886456,0.0003994738217443228,-0.0005326317623257637
1772810374014749200,4.184749267578125,-0.00026631588116288185,-0.0011984214652329683,-0.0005326317623257637
1772810374024629200,4.194629150390625,-0.0007989476434886456,0.0003994738217443228,0.0010652635246515274
1772810374034509300,4.20450927734375,0.00026631588116288185,-0.00013315794058144093,0.0005326317623257637
1772810374044389400,4.214389404296875,0.0013315794058144093,-0.00013315794058144093,0
1772810374054269400,4.22426953125,0.00026631588116288185,-0.0006657897029072046,0.0005326317623257637
1772810374064149500,4.2341494140625,0.00026631588116288185,0.0003994738217443228,0
1772810374074029600,4.244029541015625,-0.00026631588116288185,0.0014647373463958502,0.0010652635246515274
1772810374083909600,4.25390966796875,-0.0007989476434886456,-0.00013315794058144093,-0.0005326317623257637
1772810374093789700,4.263789794921875,0.00026631588116288185,0.0009321055840700865,-0.0005326317623257637
1772810374103669800,4.273669677734375,0.0007989476434886456,0.0014647373463958502,0
1772810374113549800,4.2835498046875,0.001864211168140173,0.0009321055840700865,0.0005326317623257637
1772810374123430000,4.293429931640625,-0.001864211168140173,0.0014647373463958502,-0.0010652635246515274
1772810374133310200,4.303310302734375,-0.0007989476434886456,0.0003994738217443228,-0.0005326317623257637
1772810374143190300,4.313190185546875,-0.0013315794058144093,0.0003994738217443228,0.001597895286977291
1772810374153070000,4.323070068359375,-0.00026631588116288185,0.0009321055840700865,-0.0010652635246515274
1772810374162950100,4.3329501953125,0.0007989476434886456,-0.0011984214652329683,0.0005326317623257637
1772810374172830500,4.34283056640625,0.00026631588116288185,-0.001731053227558732,-0.0005326317623257637
1772810374182710500,4.35271044921875,0.0007989476434886456,0.0009321055840700865,0
1772810374192590300,4.36259033203125,0.0013315794058144093,0.0003994738217443228,0.0005326317623257637
1772810374202470400,4.372470458984375,0.001864211168140173,0.0009321055840700865,-0.0005326317623257637
1772810374212350700,4.382350830078125,0.00026631588116288185,0.0009321055840700865,0
1772810374222230800,4.392230712890625,0.00026631588116288185,0.001997369108721614,0.001597895286977291
1772810374232110600,4.402110595703125,-0.0013315794058144093,0.0009321055840700865,-0.0005326317623257637
1772810374241991000,4.411990966796875,-0.00026631588116288185,0.0025300008710473776,-0.0010652635246515274
1772810374251871000,4.42187109375,-0.0007989476434886456,0.001997369108721614,0.0026631588116288185
1772810374261751000,4.4317509765625,0.00026631588116288185,0.001997369108721614,0.0010652635246515274
1772810374271631000,4.441631103515625,0.0013315794058144093,-0.00013315794058144093,0.001597895286977291
1772810374281511200,4.45151123046875,0.0013315794058144093,-0.001731053227558732,0.0005326317623257637
1772810374291391200,4.46139111328125,0.0007989476434886456,0.0014647373463958502,-0.0010652635246515274
1772810374301271300,4.471271240234375,-0.00026631588116288185,0.0003994738217443228,0.0005326317623257637
1772810374311151400,4.4811513671875,-0.00026631588116288185,0.0003994738217443228,-0.001597895286977291
1772810374321031400,4.491031494140625,0.0007989476434886456,0.0014647373463958502,0.0010652635246515274
1772810374330911500,4.500911376953125,0.0007989476434886456,-0.0006657897029072046,-0.0010652635246515274
1772810374340791600,4.51079150390625,-0.00026631588116288185,-0.0011984214652329683,0.0010652635246515274
1772810374350671600,4.520671630859375,0.0007989476434886456,0.0009321055840700865,-0.0005326317623257637
1772810374360551700,4.5305517578125,-0.0007989476434886456,0.0014647373463958502,0.0010652635246515274
1772810374370431700,4.540431640625,-0.0007989476434886456,0.0009321055840700865,0
1772810374380311800,4.550311767578125,0.0007989476434886456,0.0009321055840700865,-0.0005326317623257637
1772810374390191900,4.56019189453125,0.00026631588116288185,0.0003994738217443228,-0.0010652635246515274
1772810374400072000,4.570072021484375,0.00026631588116288185,0.0014647373463958502,0.0010652635246515274
1772810374409952000,4.579951904296875,0.0007989476434886456,0.0003994738217443228,0
1772810374419832000,4.58983203125,-0.0007989476434886456,0.0003994738217443228,0.0005326317623257637
1772810374429712100,4.599712158203125,-0.00026631588116288185,0.0025300008710473776,0.0005326317623257637
1772810374439592200,4.60959228515625,-0.0013315794058144093,0.0009321055840700865,0.0005326317623257637
1772810374449472300,4.61947216796875,-0.001864211168140173,0.0003994738217443228,0.0005326317623257637
1772810374459352300,4.629352294921875,0.0007989476434886456,-0.00013315794058144093,0
1772810374469232400,4.639232421875,-0.00026631588116288185,0.0003994738217443228,0
1772810374479112400,4.649112548828125,-0.0007989476434886456,0.0003994738217443228,-0.0005326317623257637
1772810374488992500,4.658992431640625,-0.0007989476434886456,-0.0006657897029072046,0.0005326317623257637
1772810374498872300,4.668872314453125,-0.0007989476434886456,-0.0006657897029072046,-0.0010652635246515274
1772810374508752100,4.678752197265625,-0.0007989476434886456,-0.00013315794058144093,0
1772810374518632000,4.6886318359375,-0.00026631588116288185,0.0003994738217443228,0
1772810374528511700,4.69851171875,-0.0013315794058144093,-0.0011984214652329683,-0.0010652635246515274
1772810374538391600,4.7083916015625,-0.0007989476434886456,0.0003994738217443228,0.0005326317623257637
1772810374548271400,4.718271240234375,-0.0007989476434886456,0.0003994738217443228,0
1772810374558151200,4.728151123046875,-0.0007989476434886456,-0.0006657897029072046,0
1772810374568031000,4.738031005859375,0.00026631588116288185,0.0025300008710473776,0.0005326317623257637
1772810374577910800,4.747910888671875,-0.00026631588116288185,0.0003994738217443228,-0.0010652635246515274
1772810374587790600,4.75779052734375,-0.0007989476434886456,-0.0011984214652329683,0.0005326317623257637
1772810374597670400,4.76767041015625,0.0013315794058144093,-0.0006657897029072046,0
1772810374607550200,4.77755029296875,-0.00026631588116288185,0.0003994738217443228,0.0005326317623257637
1772810374617430000,4.787429931640625,0.0007989476434886456,-0.0027963167522102594,0.0005326317623257637
1772810374627309800,4.797309814453125,0.001864211168140173,0.0025300008710473776,-0.0005326317623257637
1772810374637189600,4.807189697265625,0.0007989476434886456,0.0014647373463958502,0
1772810374647069400,4.8170693359375,0.0007989476434886456,0.0003994738217443228,0
1772810374656949200,4.82694921875,-0.0013315794058144093,0.0003994738217443228,0
1772810374666829000,4.8368291015625,-0.0007989476434886456,-0.0003994738217443228,-0.0005326317623257637
1772810374676708900,4.846708984375,0.00026631588116288185,0.00013315794058144093,0.0005326317623257637
1772810374686588700,4.856588623046875,-0.0023968429304659367,-0.0003994738217443228,-0.001597895286977291
1772810374696468500,4.866468505859375,0.0007989476434886456,0.0006657897029072046,-0.0005326317623257637
1772810374706348300,4.876348388671875,0.001864211168140173,0.0006657897029072046,0
1772810374716228000,4.88622802734375,-0.0007989476434886456,0.0006657897029072046,0.0010652635246515274
1772810374726108000,4.89610791015625,0.00026631588116288185,-0.0014647373463958502,0
1772810374735987700,4.90598779296875,-0.001864211168140173,0.0022636849898844957,0.0005326317623257637
1772810374745867500,4.915867431640625,-0.00026631588116288185,-0.0003994738217443228,0.0005326317623257637
1772810374755747300,4.925747314453125,0.0007989476434886456,0.0006657897029072046,0
1772810374765627100,4.935627197265625,0.0007989476434886456,-0.001997369108721614,0.0005326317623257637
1772810374775507000,4.9455068359375,0.0007989476434886456,0.00013315794058144093,0
1772810374785386800,4.95538671875,0.00026631588116288185,-0.0003994738217443228,0.0005326317623257637
1772810374795266600,4.9652666015625,0.00026631588116288185,0.001731053227558732,0
1772810374805146400,4.975146484375,0.0007989476434886456,0.00013315794058144093,0.0005326317623257637
1772810374815026200,4.985026123046875,0.00026631588116288185,0.0011984214652329683,-0.0010652635246515274
1772810374824906000,4.994906005859375,-0.00026631588116288185,-0.0003994738217443228,0.0010652635246515274
1772810374834785800,5.004785888671875,0.00026631588116288185,-0.001997369108721614,0.0005326317623257637
1772810374844665600,5.01466552734375,0.00026631588116288185,-0.0003994738217443228,-0.0005326317623257637
1772810374854545400,5.02454541015625,-0.0007989476434886456,0.0006657897029072046,0
1772810374864425200,5.03442529296875,0.00026631588116288185,0.0006657897029072046,-0.0005326317623257637
1772810374874304800,5.0443046875,0.00026631588116288185,-0.0014647373463958502,0.0005326317623257637
1772810374884184600,5.0541845703125,-0.00026631588116288185,0.0011984214652329683,0
1772810374894064600,5.064064697265625,0.00026631588116288185,-0.001997369108721614,0
1772810374903944200,5.073944091796875,0.0013315794058144093,0.0006657897029072046,-0.0005326317623257637
1772810374913824000,5.083823974609375,0.0007989476434886456,0.001731053227558732,0.001597895286977291
1772810374923703800,5.093703857421875,-0.0007989476434886456,-0.001997369108721614,0.0005326317623257637
1772810374933583600,5.10358349609375,-0.00026631588116288185,0.0006657897029072046,0.001597895286977291
1772810374943463400,5.11346337890625,-0.0007989476434886456,0.00013315794058144093,0.0005326317623257637
1772810374953343200,5.12334326171875,0.0013315794058144093,-0.0009321055840700865,0.0010652635246515274
1772810374963223000,5.13322314453125,-0.0007989476434886456,-0.0003994738217443228,0
1772810374973102800,5.143102783203125,0.00026631588116288185,0.0011984214652329683,0.0005326317623257637
1772810374982982700,5.152982666015625,0.0007989476434886456,-0.0014647373463958502,0.0010652635246515274
1772810374992862500,5.162862548828125,0.00026631588116288185,-0.0003994738217443228,0
1772810375002741800,5.17274169921875,0.00026631588116288185,0.0011984214652329683,0
1772810375012621000,5.18262109375,0.0007989476434886456,0.00013315794058144093,0
1772810375032379400,5.20237939453125,-0.00026631588116288185,-0.0014647373463958502,0
1772810375042258700,5.2122587890625,0.00026631588116288185,0.0006657897029072046,0
1772810375052137700,5.2221376953125,-0.00026631588116288185,0.0006657897029072046,0.0005326317623257637
1772810375062017000,5.23201708984375,0.0013315794058144093,-0.0009321055840700865,-0.0005326317623257637
1772810375071896000,5.24189599609375,-0.00026631588116288185,-0.0003994738217443228,-0.0005326317623257637
1772810375081775400,5.251775390625,0.001864211168140173,-0.0014647373463958502,0
1772810375091654400,5.261654296875,-0.00026631588116288185,-0.0003994738217443228,-0.0005326317623257637
1772810375101533700,5.27153369140625,-0.0007989476434886456,-0.0003994738217443228,0.0005326317623257637
1772810375111413000,5.2814130859375,0.0007989476434886456,-0.0014647373463958502,-0.0005326317623257637
1772810375121292000,5.2912919921875,0.0013315794058144093,0.0006657897029072046,-0.0005326317623257637
1772810375131171300,5.30117138671875,0.0007989476434886456,-0.0003994738217443228,-0.0005326317623257637
1772810375141050400,5.31105029296875,0.00026631588116288185,0.00013315794058144093,0.001597895286977291
1772810375150929700,5.3209296875,0.00026631588116288185,0.0011984214652329683,0.0005326317623257637
1772810375160809000,5.33080908203125,-0.00026631588116288185,-0.0003994738217443228,0
1772810375170688000,5.34068798828125,0.0007989476434886456,0.00013315794058144093,0.0005326317623257637
1772810375180567300,5.3505673828125,0.00026631588116288185,-0.0009321055840700865,0.001597895286977291
1772810375190446300,5.3604462890625,0.0013315794058144093,-0.0014647373463958502,-0.0010652635246515274
1772810375200325600,5.37032568359375,0.0013315794058144093,-0.0009321055840700865,0.0010652635246515274
1772810375210204700,5.38020458984375,-0.0007989476434886456,-0.0009321055840700865,0.0010652635246515274
1772810375220084000,5.390083984375,0.001864211168140173,0.0006657897029072046,0.001597895286977291
1772810375229963300,5.39996337890625,-0.00026631588116288185,-0.001997369108721614,0.0005326317623257637
1772810375239842300,5.40984228515625,-0.0007989476434886456,0.00013315794058144093,0
1772810375249721600,5.4197216796875,0.00026631588116288185,-0.0009321055840700865,0.0010652635246515274
1772810375259600600,5.4296005859375,-0.00026631588116288185,-0.0009321055840700865,-0.0005326317623257637
1772810375269480000,5.43947998046875,-0.00026631588116288185,-0.0014647373463958502,0.001597895286977291
1772810375279359200,5.449359130859375,-0.0007989476434886456,0.0027963167522102594,-0.0005326317623257637
1772810375289238300,5.45923828125,-0.0013315794058144093,-0.0003994738217443228,0
1772810375299117600,5.46911767578125,0.0007989476434886456,-0.0003994738217443228,0.001597895286977291
1772810375308996600,5.47899658203125,-0.0007989476434886456,0.0011984214652329683,-0.001597895286977291
1772810375318876000,5.4888759765625,-0.0007989476434886456,-0.0003994738217443228,-0.0005326317623257637
1772810375328755000,5.4987548828125,0.00026631588116288185,0.0006657897029072046,0.001597895286977291
1772810375338634200,5.50863427734375,0.0007989476434886456,0.00013315794058144093,-0.001597895286977291
1772810375348513500,5.518513427734375,0.00026631588116288185,0.0006657897029072046,0.0010652635246515274
1772810375358392600,5.528392578125,-0.0013315794058144093,0.0011984214652329683,0.0010652635246515274
1772810375368272000,5.53827197265625,0.00026631588116288185,-0.001997369108721614,0.0010652635246515274
1772810375378151000,5.54815087890625,0.00026631588116288185,-0.0003994738217443228,-0.0005326317623257637
1772810375388030200,5.5580302734375,0.00026631588116288185,0.0006657897029072046,0.0005326317623257637
1772810375397909200,5.5679091796875,-0.0007989476434886456,-0.0003994738217443228,0
1772810375407788500,5.57778857421875,0.0007989476434886456,0.0006657897029072046,0
1772810375417667800,5.587667724609375,0.0013315794058144093,0.0006657897029072046,-0.0005326317623257637
1772810375427547000,5.597546875,0.001864211168140173,-0.0009321055840700865,0
1772810375437426200,5.60742626953125,-0.0013315794058144093,0.00013315794058144093,0.0010652635246515274
1772810375447305200,5.61730517578125,0.00026631588116288185,-0.0014647373463958502,-0.0005326317623257637
1772810375457184500,5.6271845703125,0.001864211168140173,0.0006657897029072046,0.0005326317623257637
1772810375467063800,5.637063720703125,-0.00026631588116288185,0.0006657897029072046,-0.0005326317623257637
1772810375476942800,5.64694287109375,0.00026631588116288185,-0.0003994738217443228,0.0005326317623257637
1772810375486822100,5.656822265625,0.00026631588116288185,-0.0003994738217443228,0.0010652635246515274
1772810375496701400,5.666701416015625,0.00026631588116288185,0.0011984214652329683,-0.0005326317623257637
1772810375506581200,5.676581298828125,0.0007989476434886456,-0.0014647373463958502,0.002130527049303055
1772810375516461000,5.6864609375,-0.0007989476434886456,0.0006657897029072046,0
1772810375526340900,5.6963408203125,-0.00026631588116288185,0.0011984214652329683,0.002130527049303055
1772810375536220700,5.706220703125,0.0007989476434886456,-0.0009321055840700865,-0.0010652635246515274
1772810375546100500,5.7161005859375,0.0007989476434886456,0.00013315794058144093,0
1772810375555980300,5.725980224609375,-0.0013315794058144093,0.0006657897029072046,-0.0010652635246515274
1772810375565860000,5.735860107421875,-0.00026631588116288185,0.00013315794058144093,-0.0005326317623257637
1772810375575740200,5.745740234375,-0.00026631588116288185,0.00013315794058144093,0.0005326317623257637
1772810375585620000,5.755619873046875,0.0013315794058144093,0.00013315794058144093,0
1772810375595499800,5.765499755859375,-0.0007989476434886456,0.00013315794058144093,0.0005326317623257637
1772810375605379600,5.775379638671875,-0.0007989476434886456,-0.0003994738217443228,-0.0005326317623257637
1772810375615259400,5.78525927734375,-0.00026631588116288185,-0.0003994738217443228,0.002130527049303055
1772810375625139200,5.79513916015625,-0.00026631588116288185,-0.0003994738217443228,-0.0010652635246515274
1772810375635019000,5.80501904296875,-0.0013315794058144093,0.00013315794058144093,0.001597895286977291
1772810375644899000,5.814899169921875,-0.00026631588116288185,0.00013315794058144093,0.0005326317623257637
1772810375654779000,5.82477880859375,-0.0013315794058144093,0.0011984214652329683,0
1772810375664658700,5.83465869140625,0.0007989476434886456,0.001731053227558732,0
1772810375674538500,5.84453857421875,-0.001864211168140173,-0.0003994738217443228,-0.0005326317623257637
1772810375684418300,5.854418212890625,-0.00026631588116288185,-0.0003994738217443228,0.0005326317623257637
1772810375694298000,5.864298095703125,0.0007989476434886456,0.0011984214652329683,0
1772810375704178000,5.874177978515625,-0.00026631588116288185,-0.0014647373463958502,0.0005326317623257637
1772810375714057700,5.8840576171875,-0.00026631588116288185,-0.0009321055840700865,0.0010652635246515274
1772810375723937500,5.8939375,-0.0007989476434886456,0.00013315794058144093,0.001597895286977291
1772810375733817600,5.903817626953125,-0.00026631588116288185,-0.0009321055840700865,0.0005326317623257637
1772810375743697400,5.913697509765625,-0.0007989476434886456,-0.0003994738217443228,0
1772810375753577200,5.9235771484375,-0.00026631588116288185,0.0006657897029072046,0
1772810375763457000,5.93345703125,0.00026631588116288185,0.0022636849898844957,-0.0005326317623257637
1772810375773336800,5.9433369140625,0.00026631588116288185,0.001731053227558732,-0.0005326317623257637
1772810375783216600,5.953216552734375,-0.0007989476434886456,-0.0003994738217443228,-0.0005326317623257637
1772810375793096400,5.963096435546875,0.0023968429304659367,-0.0014647373463958502,0.0005326317623257637
1772810375802976500,5.9729765625,-0.00026631588116288185,-0.0014647373463958502,0
1772810375812856300,5.982856201171875,0.0007989476434886456,0.0006657897029072046,-0.0010652635246515274
1772810375822736100,5.992736083984375,-0.0007989476434886456,0.0011984214652329683,-0.0010652635246515274
1772810375832616000,6.002615966796875,0.0007989476434886456,0.0011984214652329683,-0.0010652635246515274
1772810375842495700,6.012495849609375,0.0013315794058144093,-0.0014647373463958502,-0.0005326317623257637
1772810375852375600,6.02237548828125,0.0007989476434886456,0.0006657897029072046,0.0005326317623257637
1772810375862255400,6.03225537109375,0.0007989476434886456,-0.0014647373463958502,0.0026631588116288185
1772810375872135400,6.042135498046875,-0.0007989476434886456,0.00013315794058144093,0
1772810375882015000,6.052014892578125,-0.00026631588116288185,0.00013315794058144093,0.002130527049303055
1772810375891895000,6.06189501953125,0.00026631588116288185,0.00013315794058144093,-0.0010652635246515274
1772810375901774800,6.07177490234375,-0.0013315794058144093,0.0011984214652329683,0.0005326317623257637
1772810375911654700,6.081654541015625,-0.0013315794058144093,0.00013315794058144093,0
1772810375921534500,6.091534423828125,0.0013315794058144093,-0.0003994738217443228,0.0010652635246515274
1772810375931414300,6.101414306640625,0.0007989476434886456,0.001731053227558732,0.0005326317623257637
1772810375941294000,6.111294189453125,-0.0007989476434886456,0.00013315794058144093,-0.0005326317623257637
1772810375951174000,6.121173828125,0.00026631588116288185,-0.0003994738217443228,0.001597895286977291
1772810375961054000,6.131053955078125,-0.00026631588116288185,0.0011984214652329683,-0.0010652635246515274
1772810375970933800,6.140933837890625,0.00026631588116288185,-0.001997369108721614,0
1772810375980813600,6.1508134765625,0.00026631588116288185,0.00013315794058144093,-0.0010652635246515274
1772810375990693400,6.160693359375,0.0007989476434886456,-0.0003994738217443228,-0.0005326317623257637
1772810376000573000,6.170572998046875,-0.001864211168140173,-0.0003994738217443228,0.0005326317623257637
1772810376010452500,6.180452392578125,0.0007989476434886456,0.0022636849898844957,-0.0010652635246515274
1772810376020332000,6.19033203125,-0.0007989476434886456,0.00013315794058144093,0.0010652635246515274
1772810376030211600,6.200211669921875,0.0007989476434886456,0.0006657897029072046,0.0005326317623257637
1772810376040091100,6.210091064453125,0.0007989476434886456,0.0011984214652329683,0
1772810376049970700,6.219970703125,0.0007989476434886456,-0.001997369108721614,0.0005326317623257637
1772810376059850000,6.22985009765625,0.00026631588116288185,0.0006657897029072046,-0.001597895286977291
1772810376069729500,6.2397294921875,0.0007989476434886456,0.0006657897029072046,0.0010652635246515274
1772810376079609000,6.249609130859375,-0.0013315794058144093,0.003861580276861787,0.0010652635246515274
1772810376089488600,6.259488525390625,-0.0007989476434886456,-0.0003994738217443228,0
1772810376099368200,6.2693681640625,0.0013315794058144093,-0.0003994738217443228,0.0005326317623257637
1772810376109247700,6.279247802734375,0.0007989476434886456,-0.0014647373463958502,0.002130527049303055
1772810376119127300,6.289127197265625,-0.0007989476434886456,-0.0014647373463958502,0.0005326317623257637
1772810376129006600,6.299006591796875,-0.0007989476434886456,0.0006657897029072046,-0.0005326317623257637
1772810376138886100,6.30888623046875,-0.00026631588116288185,0.0006657897029072046,0.0010652635246515274
1772810376148765700,6.318765625,-0.00026631588116288185,-0.0014647373463958502,0
1772810376158645200,6.328645263671875,-0.0007989476434886456,0.0011984214652329683,0.001597895286977291
1772810376168524800,6.33852490234375,0.0013315794058144093,0.0006657897029072046,0
1772810376178404400,6.348404296875,0.0013315794058144093,-0.0003994738217443228,0
1772810376188284000,6.358283935546875,-0.00026631588116288185,0.00013315794058144093,0
1772810376198163500,6.36816357421875,-0.0013315794058144093,-0.0009321055840700865,-0.0005326317623257637
1772810376208042800,6.378042724609375,0.00026631588116288185,0.00013315794058144093,-0.0005326317623257637
1772810376217922300,6.38792236328125,-0.0013315794058144093,-0.0003994738217443228,0.0010652635246515274
1772810376227801900,6.3978017578125,-0.00026631588116288185,0.0006657897029072046,0.0005326317623257637
1772810376237681400,6.407681396484375,-0.00026631588116288185,0.00013315794058144093,-0.0005326317623257637
1772810376247561000,6.41756103515625,0.0007989476434886456,0.00013315794058144093,0
1772810376257440500,6.4274404296875,-0.0023968429304659367,0.001731053227558732,0
1772810376267320000,6.437320068359375,0.00026631588116288185,-0.0014647373463958502,0
1772810376277199600,6.44719970703125,-0.00026631588116288185,-0.0003994738217443228,0.0010652635246515274
1772810376287079200,6.4570791015625,0.00026631588116288185,-0.0003994738217443228,-0.0005326317623257637
1772810376296958500,6.46695849609375,0.0007989476434886456,0.0011984214652329683,0
1772810376306838000,6.476838134765625,-0.00026631588116288185,0.00013315794058144093,0
1772810376316717600,6.486717529296875,0.00026631588116288185,-0.0003994738217443228,-0.0010652635246515274
1772810376326597000,6.49659716796875,-0.00026631588116288185,-0.0003994738217443228,0.0005326317623257637
1772810376336476700,6.5064765625,-0.00026631588116288185,0.00013315794058144093,0
1772810376346356200,6.516356201171875,0.001864211168140173,0.00013315794058144093,-0.0005326317623257637
1772810376356235800,6.52623583984375,-0.00026631588116288185,-0.0014647373463958502,0
1772810376366115300,6.536115234375,0.00026631588116288185,0.0006657897029072046,-0.0005326317623257637
1772810376375994600,6.54599462890625,0.0013315794058144093,0.00013315794058144093,0.001597895286977291
1772810376385874200,6.555874267578125,0.0007989476434886456,0.00013315794058144093,-0.0010652635246515274
1772810376395753700,6.565753662109375,-0.00026631588116288185,-0.0003994738217443228,0.0010652635246515274
1772810376405633300,6.57563330078125,0.00026631588116288185,0.00013315794058144093,-0.001597895286977291
1772810376415512800,6.585512939453125,-0.0007989476434886456,0.00013315794058144093,-0.0005326317623257637
1772810376425392400,6.595392333984375,-0.00026631588116288185,-0.0003994738217443228,0
1772810376435272000,6.60527197265625,0.0013315794058144093,0.0006657897029072046,-0.0005326317623257637
1772810376445151200,6.615151123046875,-0.0013315794058144093,-0.0009321055840700865,0.0009321055840700865
1772810376455030800,6.62503076171875,0.00026631588116288185,-0.0003994738217443228,-0.0011984214652329683
1772810376464910300,6.634910400390625,0.0013315794058144093,-0.0009321055840700865,-0.00013315794058144093
1772810376474790000,6.644789794921875,0.00026631588116288185,-0.0003994738217443228,-0.00013315794058144093
1772810376484669400,6.65466943359375,0.0007989476434886456,0.001731053227558732,0.0009321055840700865
1772810376494549000,6.664549072265625,0.0007989476434886456,-0.001997369108721614,0.0009321055840700865
1772810376504429000,6.674428955078125,0.0007989476434886456,-0.0003994738217443228,0.0009321055840700865
1772810376514309400,6.684309326171875,-0.00026631588116288185,-0.0014647373463958502,-0.0011984214652329683
1772810376524189700,6.694189697265625,-0.00026631588116288185,0.00013315794058144093,0.0009321055840700865
1772810376534070000,6.704070068359375,-0.00026631588116288185,-0.0014647373463958502,-0.00013315794058144093
1772810376543950300,6.713950439453125,-0.0007989476434886456,0.0011984214652329683,-0.00013315794058144093
1772810376553831000,6.723830810546875,-0.0007989476434886456,-0.0009321055840700865,-0.00013315794058144093
1772810376563711200,6.733711181640625,0.0023968429304659367,0.001731053227558732,0.0003994738217443228
1772810376573591600,6.743591552734375,0.00026631588116288185,0.00013315794058144093,0.0003994738217443228
1772810376583471900,6.753471923828125,-0.00026631588116288185,-0.001997369108721614,0.0003994738217443228
1772810376593352200,6.763352294921875,0.0007989476434886456,0.0006657897029072046,-0.00013315794058144093
1772810376603232500,6.773232421875,-0.001864211168140173,-0.0003994738217443228,-0.00013315794058144093
1772810376613112800,6.78311279296875,0.00026631588116288185,-0.0014647373463958502,0.0003994738217443228
1772810376622993200,6.7929931640625,0.00026631588116288185,0.0006657897029072046,0.0009321055840700865
1772810376632873500,6.80287353515625,-0.0007989476434886456,-0.0009321055840700865,-0.0006657897029072046
1772810376642753800,6.81275390625,-0.0007989476434886456,-0.0003994738217443228,-0.0006657897029072046
1772810376652634000,6.822634033203125,-0.00026631588116288185,0.0011984214652329683,-0.00013315794058144093
1772810376662514400,6.832514404296875,-0.00026631588116288185,-0.0014647373463958502,0.0003994738217443228
1772810376672395000,6.84239501953125,0.00026631588116288185,0.0006657897029072046,-0.0011984214652329683
1772810376682275300,6.852275390625,0.001864211168140173,0.0011984214652329683,-0.00013315794058144093
1772810376692155600,6.86215576171875,-0.00026631588116288185,0.00013315794058144093,-0.0011984214652329683
1772810376702036000,6.872035888671875,-0.0013315794058144093,-0.0003994738217443228,-0.0006657897029072046
1772810376711916300,6.881916259765625,-0.0007989476434886456,-0.0003994738217443228,0.0003994738217443228
1772810376721796600,6.891796630859375,0.00026631588116288185,-0.0009321055840700865,-0.00013315794058144093
1772810376731677000,6.901677001953125,-0.001864211168140173,0.00013315794058144093,0.0014647373463958502
1772810376741557200,6.91155712890625,0.0007989476434886456,-0.0009321055840700865,0.0014647373463958502
1772810376751437600,6.9214375,-0.0013315794058144093,-0.0009321055840700865,-0.0006657897029072046
1772810376761318000,6.93131787109375,-0.0013315794058144093,0.00013315794058144093,-0.0011984214652329683
1772810376771198200,6.9411982421875,0.00026631588116288185,0.00013315794058144093,0.0003994738217443228
1772810376781078500,6.95107861328125,-0.00026631588116288185,-0.001997369108721614,0.0009321055840700865
1772810376790958800,6.960958740234375,0.00026631588116288185,-0.0003994738217443228,0.0003994738217443228
1772810376800839400,6.97083935546875,-0.0007989476434886456,-0.0009321055840700865,0.0009321055840700865
1772810376810719700,6.9807197265625,-0.0007989476434886456,0.00013315794058144093,-0.0011984214652329683
1772810376820600000,6.99060009765625,0.00026631588116288185,0.0006657897029072046,0.0009321055840700865
1772810376830480400,7.00048046875,-0.00026631588116288185,-0.0025300008710473776,-0.0011984214652329683
1772810376840360700,7.010360595703125,-0.00026631588116288185,-0.001997369108721614,0.0014647373463958502
1772810376850241000,7.020240966796875,-0.001864211168140173,-0.0009321055840700865,0.0003994738217443228
1772810376860121300,7.030121337890625,-0.00026631588116288185,0.00013315794058144093,0.0009321055840700865
1772810376879882000,7.049882080078125,0.0007989476434886456,-0.0025300008710473776,-0.0006657897029072046
1772810376889762300,7.05976220703125,0.00026631588116288185,0.00013315794058144093,-0.00013315794058144093
1772810376899642600,7.069642578125,0.00026631588116288185,0.0006657897029072046,0.0003994738217443228
1772810376909523000,7.07952294921875,-0.00026631588116288185,-0.0003994738217443228,-0.0006657897029072046
1772810376919403300,7.0894033203125,0.00026631588116288185,-0.0003994738217443228,0.0003994738217443228
1772810376929283600,7.09928369140625,-0.001864211168140173,-0.0014647373463958502,0.0003994738217443228
1772810376939164200,7.1091640625,0.00026631588116288185,0.0006657897029072046,-0.0011984214652329683
1772810376949044500,7.11904443359375,0.0007989476434886456,0.0006657897029072046,0.0003994738217443228
1772810376958924800,7.1289248046875,-0.0007989476434886456,-0.0003994738217443228,-0.00013315794058144093
1772810376968805000,7.13880517578125,0.0023968429304659367,0.0011984214652329683,-0.00013315794058144093
1772810376978685400,7.148685546875,0.00026631588116288185,0.0006657897029072046,-0.0006657897029072046
1772810376988565800,7.158565673828125,0.00026631588116288185,0.0011984214652329683,-0.00013315794058144093
1772810376998446000,7.168446044921875,0.0007989476434886456,0.001731053227558732,-0.00013315794058144093
1772810377008326100,7.178326171875,-0.0013315794058144093,-0.0009321055840700865,-0.00013315794058144093
1772810377018206500,7.18820654296875,0.00026631588116288185,-0.0003994738217443228,0.0009321055840700865
1772810377028086800,7.198086669921875,0.0007989476434886456,-0.0003994738217443228,-0.00013315794058144093
1772810377037966800,7.207966796875,0.00026631588116288185,-0.0009321055840700865,0.0009321055840700865
1772810377047847200,7.21784716796875,-0.0007989476434886456,-0.0003994738217443228,-0.00013315794058144093
1772810377057727200,7.227727294921875,-0.00026631588116288185,-0.0014647373463958502,0.0003994738217443228
1772810377067607600,7.237607666015625,-0.00026631588116288185,-0.0003994738217443228,-0.0011984214652329683
1772810377077487900,7.24748779296875,0.0007989476434886456,0.00013315794058144093,-0.0011984214652329683
1772810377087368000,7.257367919921875,0.0013315794058144093,0.0006657897029072046,0.0003994738217443228
1772810377097248300,7.267248291015625,-0.0007989476434886456,0.00013315794058144093,0.0014647373463958502
1772810377107128300,7.27712841796875,-0.0007989476434886456,-0.0025300008710473776,-0.00013315794058144093
1772810377126889000,7.296888916015625,0.0013315794058144093,0.0022636849898844957,0.0009321055840700865
1772810377136769000,7.30676904296875,0.0013315794058144093,0.001731053227558732,-0.00013315794058144093
1772810377146649300,7.3166494140625,-0.0007989476434886456,-0.004127896390855312,-0.00013315794058144093
1772810377156529700,7.32652978515625,0.0007989476434886456,0.00013315794058144093,0.0009321055840700865
1772810377166409700,7.33640966796875,-0.00026631588116288185,-0.0014647373463958502,0.0003994738217443228
1772810377176290000,7.3462900390625,0.00026631588116288185,-0.0003994738217443228,-0.00013315794058144093
1772810377186170000,7.356170166015625,-0.0013315794058144093,-0.0014647373463958502,-0.00013315794058144093
1772810377196050400,7.366050537109375,-0.00026631588116288185,-0.0014647373463958502,-0.00013315794058144093
1772810377205930800,7.3759306640625,-0.00026631588116288185,0.0006657897029072046,0.0003994738217443228
1772810377215810800,7.385810791015625,0.001864211168140173,-0.0025300008710473776,0.0003994738217443228
1772810377225691100,7.395691162109375,0.0007989476434886456,-0.0014647373463958502,-0.0006657897029072046
1772810377235571200,7.4055712890625,-0.00026631588116288185,0.00013315794058144093,0.0014647373463958502
1772810377245451500,7.415451416015625,-0.0013315794058144093,0.0011984214652329683,0.0009321055840700865
1772810377255331800,7.425331787109375,-0.00026631588116288185,-0.001997369108721614,-0.00013315794058144093
1772810377265212000,7.4352119140625,0.00026631588116288185,0.0011984214652329683,-0.0011984214652329683
1772810377275092200,7.44509228515625,-0.00026631588116288185,0.0006657897029072046,-0.00013315794058144093
1772810377284972300,7.45497216796875,0.001864211168140173,-0.0014647373463958502,-0.00013315794058144093
1772810377294852600,7.4648525390625,0.00026631588116288185,0.0006657897029072046,-0.0006657897029072046
1772810377304733000,7.47473291015625,0.0007989476434886456,0.00013315794058144093,0.0003994738217443228
1772810377314613000,7.484613037109375,0.00026631588116288185,-0.0003994738217443228,0.0009321055840700865
1772810377324493300,7.494493408203125,0.001864211168140173,-0.0009321055840700865,-0.0006657897029072046
1772810377334373600,7.50437353515625,-0.00026631588116288185,-0.001997369108721614,0.0009321055840700865
1772810377344253700,7.514253662109375,-0.00026631588116288185,-0.0003994738217443228,0.0009321055840700865
1772810377354134000,7.524134033203125,-0.0007989476434886456,0.0006657897029072046,-0.00013315794058144093
1772810377364014000,7.53401416015625,0.00026631588116288185,-0.0009321055840700865,0.0009321055840700865
1772810377373894400,7.543894287109375,0.0007989476434886456,-0.0009321055840700865,-0.00013315794058144093
1772810377383774700,7.553774658203125,-0.00026631588116288185,0.0006657897029072046,-0.00013315794058144093
1772810377393654800,7.56365478515625,-0.0013315794058144093,-0.0003994738217443228,-0.0011984214652329683
1772810377403535000,7.57353515625,-0.0007989476434886456,-0.0009321055840700865,0.0003994738217443228
1772810377413415200,7.583415283203125,0.0007989476434886456,0.0006657897029072046,0.0003994738217443228
1772810377423295500,7.59329541015625,0.0007989476434886456,-0.0014647373463958502,-0.001731053227558732
1772810377433175800,7.60317578125,0.0013315794058144093,-0.001997369108721614,-0.00013315794058144093
1772810377443055900,7.613055908203125,-0.00026631588116288185,-0.0003994738217443228,0.0003994738217443228
1772810377452936200,7.622936279296875,-0.00026631588116288185,-0.0003994738217443228,0.0003994738217443228
1772810377462816300,7.632816162109375,-0.00026631588116288185,0.00013315794058144093,-0.00013315794058144093
1772810377472696600,7.642696533203125,0.0007989476434886456,-0.0014647373463958502,-0.001731053227558732
1772810377482577000,7.652576904296875,-0.0013315794058144093,0.00013315794058144093,-0.00013315794058144093
1772810377492457000,7.66245703125,0.0013315794058144093,0.0006657897029072046,-0.00013315794058144093
1772810377502337000,7.6723369140625,-0.0007989476434886456,-0.0014647373463958502,0.0003994738217443228
1772810377512216800,7.682216796875,0.0007989476434886456,0.0006657897029072046,-0.00013315794058144093
1772810377522096600,7.6920966796875,-0.00026631588116288185,-0.0009321055840700865,-0.00013315794058144093
1772810377531976400,7.7019765625,-0.00026631588116288185,-0.0014647373463958502,-0.00013315794058144093
1772810377541856300,7.711856201171875,0.00026631588116288185,-0.001997369108721614,-0.00013315794058144093
1772810377551736000,7.721736083984375,0.0013315794058144093,-0.0003994738217443228,0.0009321055840700865
1772810377561616000,7.731615966796875,0.001864211168140173,-0.0009321055840700865,0.0009321055840700865
1772810377571495700,7.74149560546875,0.00026631588116288185,0.00013315794058144093,0.0003994738217443228
1772810377581375500,7.75137548828125,0.00026631588116288185,0.0006657897029072046,-0.0006657897029072046
1772810377591255300,7.76125537109375,-0.0007989476434886456,0.00013315794058144093,0.0003994738217443228
1772810377601135000,7.771135009765625,0.0007989476434886456,0.0011984214652329683,-0.0011984214652329683
1772810377611015000,7.781014892578125,-0.00026631588116288185,-0.0025300008710473776,-0.00013315794058144093
1772810377620894700,7.790894775390625,-0.0007989476434886456,0.00013315794058144093,0.0003994738217443228
1772810377630774500,7.8007744140625,0.0013315794058144093,-0.0009321055840700865,-0.0011984214652329683
1772810377640654300,7.810654296875,0.001864211168140173,0.00013315794058144093,-0.00013315794058144093
1772810377650534100,7.8205341796875,0.0013315794058144093,0.0011984214652329683,0.0009321055840700865
1772810377660414000,7.8304140625,0.00026631588116288185,0.00013315794058144093,0.0014647373463958502
1772810377670293800,7.840293701171875,0.0007989476434886456,-0.0009321055840700865,-0.00013315794058144093
1772810377680173600,7.850173583984375,-0.0007989476434886456,0.0011984214652329683,0.0003994738217443228
1772810377690053400,7.860053466796875,0.00026631588116288185,-0.0009321055840700865,-0.0006657897029072046
1772810377699933400,7.869933349609375,0.0007989476434886456,0.0027963167522102594,0.0003994738217443228
1772810377709813000,7.87981298828125,-0.0013315794058144093,0.0006657897029072046,-0.0006657897029072046
1772810377719693000,7.889693115234375,0.0023968429304659367,0.00013315794058144093,0.0003994738217443228
1772810377729572900,7.89957275390625,-0.0007989476434886456,0.00013315794058144093,-0.00013315794058144093
1772810377739452700,7.90945263671875,-0.00026631588116288185,-0.0009321055840700865,0.0009321055840700865
1772810377749332500,7.91933251953125,0.00026631588116288185,-0.001997369108721614,0.0003994738217443228
1772810377759212300,7.92921240234375,0.0007989476434886456,-0.0014647373463958502,0.0014647373463958502
1772810377769092000,7.939092041015625,0.001864211168140173,-0.001997369108721614,-0.00013315794058144093
1772810377778972000,7.948971923828125,-0.00026631588116288185,-0.0003994738217443228,-0.0006657897029072046
1772810377788851700,7.958851806640625,0.0007989476434886456,-0.0025300008710473776,-0.0011984214652329683
1772810377798731500,7.9687314453125,0.0013315794058144093,-0.0014647373463958502,-0.0011984214652329683
1772810377808611300,7.978611328125,0.00026631588116288185,0.0006657897029072046,-0.00013315794058144093
1772810377818491100,7.9884912109375,-0.001864211168140173,-0.0003994738217443228,-0.0022636849898844957
1772810377828371000,7.998370849609375,0.0007989476434886456,-0.0014647373463958502,-0.0006657897029072046
1772810377838250800,8.008250732421875,0.0007989476434886456,-0.0003994738217443228,-0.00013315794058144093
1772810377848130600,8.018130615234375,0.0007989476434886456,-0.0014647373463958502,0.0003994738217443228
1772810377858010400,8.02801025390625,-0.00026631588116288185,0.00013315794058144093,-0.0006657897029072046
1772810377867890200,8.03789013671875,-0.00026631588116288185,0.0011984214652329683,-0.00013315794058144093
1772810377877770000,8.04777001953125,0.0013315794058144093,-0.0003994738217443228,-0.0011984214652329683
1772810377887649800,8.05764990234375,-0.001864211168140173,-0.0003994738217443228,0.0003994738217443228
1772810377897529900,8.06752978515625,0.00026631588116288185,-0.0003994738217443228,0.0003994738217443228
1772810377907409400,8.077409423828126,0.00026631588116288185,0.0006657897029072046,-0.0006657897029072046
1772810377917289500,8.08728955078125,-0.00026631588116288185,0.00013315794058144093,0.0003994738217443228
1772810377927169300,8.097169189453124,0.0013315794058144093,0.00013315794058144093,-0.00013315794058144093
1772810377937049000,8.107049072265625,0.00026631588116288185,0.001731053227558732,0.0003994738217443228
1772810377946929000,8.116928955078125,-0.00026631588116288185,-0.0003994738217443228,0.0014647373463958502
1772810377956808700,8.12680859375,0.00026631588116288185,-0.0003994738217443228,-0.00013315794058144093
1772810377966688500,8.1366884765625,0.0007989476434886456,-0.0025300008710473776,0.0009321055840700865
1772810377976568300,8.146568359375,0.00026631588116288185,-0.0009321055840700865,-0.00013315794058144093
1772810377986448100,8.1564482421875,0.0007989476434886456,0.0006657897029072046,-0.00013315794058144093
1772810377996328000,8.166327880859376,0.00026631588116288185,0.0006657897029072046,-0.00013315794058144093
1772810378006208000,8.1762080078125,0.00026631588116288185,0.0011984214652329683,-0.00013315794058144093
1772810378016088000,8.186088134765624,-0.00026631588116288185,-0.0025300008710473776,0.0014647373463958502
1772810378025968400,8.195968505859375,0.0013315794058144093,0.0011984214652329683,-0.00013315794058144093
1772810378035848400,8.205848388671875,0.0013315794058144093,0.0011984214652329683,-0.0006657897029072046
1772810378045728500,8.215728515625,0.001864211168140173,0.00013315794058144093,-0.0011984214652329683
1772810378055608800,8.22560888671875,-0.0007989476434886456,-0.0014647373463958502,0.0003994738217443228
1772810378065489000,8.235489013671875,-0.0007989476434886456,-0.0003994738217443228,0.0009321055840700865
1772810378075369000,8.245368896484376,0.0013315794058144093,-0.001997369108721614,-0.00013315794058144093
1772810378085249300,8.255249267578124,0.00026631588116288185,0.0011984214652329683,-0.0011984214652329683
1772810378095129300,8.26512939453125,-0.00026631588116288185,0.00013315794058144093,-0.001731053227558732
1772810378105009400,8.275009521484375,-0.00026631588116288185,0.00013315794058144093,0.0003994738217443228
1772810378114889500,8.284889404296875,-0.0013315794058144093,0.00013315794058144093,-0.0006657897029072046
1772810378124769800,8.294769775390625,0.0013315794058144093,0.0006657897029072046,-0.00013315794058144093
1772810378134649900,8.30464990234375,0.0013315794058144093,0.0006657897029072046,-0.00013315794058144093
1772810378144530000,8.314530029296876,0.0013315794058144093,0.0006657897029072046,-0.001731053227558732
1772810378154410200,8.32441015625,-0.0007989476434886456,0.00013315794058144093,-0.00013315794058144093
1772810378164290300,8.334290283203124,0.0007989476434886456,-0.001997369108721614,0.0003994738217443228
1772810378174170400,8.34417041015625,0.0007989476434886456,-0.0014647373463958502,-0.00013315794058144093
1772810378184050700,8.35405078125,-0.0007989476434886456,-0.0009321055840700865,-0.0006657897029072046
1772810378193930800,8.3639306640625,-0.00026631588116288185,0.00013315794058144093,-0.00013315794058144093
1772810378203810800,8.373810791015625,-0.001864211168140173,0.00013315794058144093,-0.00013315794058144093
1772810378213691000,8.38369091796875,-0.0007989476434886456,0.0006657897029072046,-0.00013315794058144093
1772810378223571200,8.3935712890625,-0.0009321055840700865,-0.0027963167522102594,-0.00013315794058144093
1772810378233451300,8.403451171875,0.00013315794058144093,-0.001731053227558732,-0.00013315794058144093
1772810378243331300,8.413331298828124,-0.0009321055840700865,0.0003994738217443228,-0.0022636849898844957
1772810378253211600,8.423211669921875,-0.0009321055840700865,-0.00013315794058144093,0.0003994738217443228
1772810378263091700,8.433091796875,0.00013315794058144093,-0.001731053227558732,-0.00013315794058144093
1772810378272971800,8.4429716796875,0.0006657897029072046,0.0003994738217443228,-0.00013315794058144093
1772810378282852000,8.45285205078125,-0.0003994738217443228,0.0014647373463958502,-0.0006657897029072046
1772810378292732200,8.462732177734376,0.00013315794058144093,0.0003994738217443228,0.0009321055840700865
1772810378302612200,8.4726123046875,0.0011984214652329683,0.0009321055840700865,-0.00013315794058144093
1772810378312492500,8.482492431640624,0.0011984214652329683,0.0003994738217443228,0.0003994738217443228
1772810378322372600,8.49237255859375,-0.0003994738217443228,-0.0011984214652329683,-0.00013315794058144093
1772810378332252700,8.502252685546875,0.001731053227558732,0.0003994738217443228,-0.00013315794058144093
1772810378342132700,8.5121328125,-0.0009321055840700865,-0.00013315794058144093,0.0003994738217443228
1772810378352013000,8.522012939453125,-0.0009321055840700865,-0.0006657897029072046,-0.0006657897029072046
1772810378361893000,8.53189306640625,0.0006657897029072046,0.0025300008710473776,-0.0006657897029072046
1772810378371773200,8.541773193359376,0.00013315794058144093,-0.0011984214652329683,-0.0006657897029072046
1772810378381653500,8.551653564453124,0.0006657897029072046,-0.0006657897029072046,-0.0006657897029072046
1772810378391533600,8.561533447265624,-0.0009321055840700865,-0.0006657897029072046,-0.0006657897029072046
1772810378401413600,8.57141357421875,0.0006657897029072046,0.0003994738217443228,-0.00013315794058144093
1772810378411294000,8.5812939453125,-0.0009321055840700865,-0.0006657897029072046,-0.00013315794058144093
1772810378421174000,8.591174072265625,-0.0009321055840700865,0.0014647373463958502,-0.00013315794058144093
1772810378431054000,8.60105419921875,0.0006657897029072046,-0.0011984214652329683,0.0009321055840700865
1772810378440934100,8.61093408203125,0.0011984214652329683,-0.0006657897029072046,0.001997369108721614
1772810378450814500,8.620814453125,-0.0003994738217443228,-0.0011984214652329683,0.0009321055840700865
1772810378460694500,8.630694580078124,-0.0014647373463958502,-0.00013315794058144093,-0.001731053227558732
1772810378470574600,8.64057470703125,-0.0009321055840700865,-0.0011984214652329683,0.0003994738217443228
1772810378480455000,8.650454833984375,-0.0003994738217443228,0.0003994738217443228,-0.00013315794058144093
1772810378490335000,8.6603349609375,0.0006657897029072046,0.0009321055840700865,0.0014647373463958502
1772810378500214800,8.67021484375,0.0011984214652329683,-0.0006657897029072046,0.0003994738217443228
1772810378510094600,8.680094482421875,0.0006657897029072046,0.0003994738217443228,-0.0006657897029072046
1772810378519974100,8.68997412109375,0.00013315794058144093,-0.00013315794058144093,-0.00013315794058144093
1772810378529853700,8.699853759765626,-0.0014647373463958502,-0.00013315794058144093,-0.00013315794058144093
1772810378539733500,8.7097333984375,0.0006657897029072046,-0.00013315794058144093,0.0014647373463958502
1772810378549613000,8.719613037109376,0.0006657897029072046,0.0003994738217443228,0.0009321055840700865
1772810378559492600,8.72949267578125,-0.0014647373463958502,0.001997369108721614,-0.00013315794058144093
1772810378569372200,8.7393720703125,0.00013315794058144093,0.0014647373463958502,0.0003994738217443228
1772810378579252000,8.749251953125,-0.0009321055840700865,-0.00013315794058144093,-0.0006657897029072046
1772810378589131500,8.759131591796875,-0.0009321055840700865,0.0009321055840700865,0.0009321055840700865
1772810378599011000,8.769010986328125,0.0006657897029072046,0.0009321055840700865,-0.0006657897029072046
1772810378608891000,8.778890869140625,0.0011984214652329683,-0.0027963167522102594,0.0003994738217443228
1772810378618770400,8.7887705078125,0.0011984214652329683,0.0003994738217443228,-0.0006657897029072046
1772810378628650000,8.79864990234375,-0.0003994738217443228,0.0009321055840700865,-0.00013315794058144093
1772810378638529800,8.80852978515625,-0.001997369108721614,0.0014647373463958502,0.0009321055840700865
1772810378648409300,8.818409423828125,-0.0003994738217443228,-0.0022636849898844957,0.0009321055840700865
1772810378658289000,8.828288818359376,-0.0014647373463958502,0.0003994738217443228,-0.0011984214652329683
1772810378668168700,8.838168701171876,0.001731053227558732,-0.00013315794058144093,0.0009321055840700865
1772810378678048300,8.84804833984375,0.00013315794058144093,-0.0006657897029072046,-0.001731053227558732
1772810378687927800,8.857927734375,-0.0014647373463958502,0.0025300008710473776,-0.0006657897029072046
1772810378697807600,8.8678076171875,0.0006657897029072046,-0.001731053227558732,-0.0011984214652329683
1772810378707687200,8.877687255859374,0.0006657897029072046,-0.0006657897029072046,-0.00013315794058144093
1772810378717566700,8.887566650390625,-0.0009321055840700865,0.0003994738217443228,-0.0006657897029072046
1772810378727446500,8.897446533203125,0.00013315794058144093,-0.00013315794058144093,0.0003994738217443228
1772810378737326000,8.907326171875,0.00013315794058144093,0.0030626326333731413,0.0009321055840700865
1772810378747205600,8.91720556640625,0.00013315794058144093,-0.00013315794058144093,-0.0006657897029072046
1772810378757085400,8.92708544921875,0.00013315794058144093,0.0003994738217443228,-0.0011984214652329683
1772810378766965000,8.936965087890625,0.001731053227558732,0.0014647373463958502,0.0014647373463958502
1772810378776844500,8.946844482421875,0.0006657897029072046,0.0003994738217443228,0.0009321055840700865
1772810378786724400,8.956724365234376,-0.0003994738217443228,0.0009321055840700865,0.0003994738217443228
1772810378796604000,8.96660400390625,0.00013315794058144093,0.0014647373463958502,0.0003994738217443228
1772810378806483500,8.9764833984375,-0.0003994738217443228,0.0009321055840700865,0.0003994738217443228
1772810378816363300,8.98636328125,-0.0003994738217443228,-0.0011984214652329683,0.0009321055840700865
1772810378826242800,8.996242919921874,0.0011984214652329683,0.001997369108721614,0.0003994738217443228
1772810378836122400,9.006122314453124,-0.0014647373463958502,-0.00013315794058144093,-0.0006657897029072046
1772810378846002200,9.016002197265625,-0.0003994738217443228,-0.0022636849898844957,-0.00013315794058144093
1772810378855881700,9.0258818359375,-0.0003994738217443228,-0.00013315794058144093,-0.001731053227558732
1772810378865761300,9.03576123046875,-0.0009321055840700865,-0.001731053227558732,-0.0006657897029072046
1772810378875641000,9.04564111328125,0.0006657897029072046,0.0003994738217443228,-0.00013315794058144093
1772810378885520600,9.055520751953125,0.00013315794058144093,-0.0006657897029072046,0.0014647373463958502
1772810378895400200,9.065400146484375,0.00013315794058144093,-0.001731053227558732,-0.00013315794058144093
1772810378905280000,9.075280029296875,0.0022636849898844957,0.0030626326333731413,-0.00013315794058144093
1772810378915159600,9.08515966796875,-0.0009321055840700865,0.0014647373463958502,0.0003994738217443228
1772810378925039000,9.0950390625,0.0006657897029072046,0.0025300008710473776,0.0003994738217443228
1772810378934919000,9.1049189453125,-0.0009321055840700865,0.0003994738217443228,-0.001731053227558732
1772810378944798500,9.114798583984374,-0.0014647373463958502,-0.00013315794058144093,-0.00013315794058144093
1772810378954678000,9.124677978515624,-0.0014647373463958502,-0.00013315794058144093,0.0009321055840700865
1772810378964557800,9.134557861328124,0.00013315794058144093,0.0003994738217443228,-0.0006657897029072046
1772810378974437400,9.144437255859375,0.00013315794058144093,0.0009321055840700865,-0.0006657897029072046
1772810378984317000,9.15431689453125,-0.0009321055840700865,0.0003994738217443228,-0.0006657897029072046
1772810378994196500,9.164196533203125,0.00013315794058144093,0.0025300008710473776,-0.0011984214652329683
1772810379004076000,9.174075927734375,-0.0003994738217443228,-0.00013315794058144093,0.0003994738217443228
1772810379013955300,9.183955322265625,0.0006657897029072046,-0.00013315794058144093,0.0025300008710473776
1772810379023835000,9.1938349609375,-0.0003994738217443228,0.0009321055840700865,-0.0006657897029072046
1772810379033714200,9.203714111328125,0.00013315794058144093,0.0009321055840700865,-0.0006657897029072046
1772810379043593500,9.213593505859375,0.0006657897029072046,0.0014647373463958502,-0.0006657897029072046
1772810379053473000,9.22347314453125,-0.0009321055840700865,-0.0006657897029072046,-0.0006657897029072046
1772810379063352300,9.233352294921875,-0.0030626326333731413,-0.00013315794058144093,0.0014647373463958502
1772810379073231600,9.243231689453125,-0.0003994738217443228,-0.0011984214652329683,0.0003994738217443228
1772810379083111200,9.253111083984376,-0.0009321055840700865,0.0009321055840700865,-0.0011984214652329683
1772810379092990500,9.262990478515626,-0.0003994738217443228,0.0009321055840700865,-0.00013315794058144093
1772810379102869800,9.272869873046876,0.0011984214652329683,-0.0006657897029072046,-0.00013315794058144093
1772810379112749300,9.282749267578126,-0.001997369108721614,0.0009321055840700865,-0.0022636849898844957
1772810379122628600,9.292628662109376,0.0006657897029072046,-0.001731053227558732,-0.00013315794058144093
1772810379132508000,9.3025078125,-0.0003994738217443228,-0.0006657897029072046,-0.0006657897029072046
1772810379142387500,9.312387451171874,0.00013315794058144093,-0.00013315794058144093,-0.00013315794058144093
1772810379152266800,9.322266845703124,-0.0014647373463958502,0.0014647373463958502,-0.00013315794058144093
1772810379162146000,9.33214599609375,0.001731053227558732,-0.0006657897029072046,-0.00013315794058144093
1772810379172025600,9.342025634765625,-0.0009321055840700865,0.0009321055840700865,0.0003994738217443228
1772810379181905000,9.35190478515625,0.0006657897029072046,-0.00013315794058144093,0.0003994738217443228
1772810379191784200,9.3617841796875,-0.0014647373463958502,-0.0011984214652329683,0.0025300008710473776
1772810379201663700,9.371663818359375,-0.0003994738217443228,-0.001731053227558732,-0.00013315794058144093
1772810379211543000,9.38154296875,-0.0009321055840700865,0.0003994738217443228,-0.0006657897029072046
1772810379221422300,9.39142236328125,-0.0003994738217443228,-0.00013315794058144093,0.0014647373463958502
1772810379231302000,9.401302001953125,0.001731053227558732,-0.0006657897029072046,-0.00013315794058144093
1772810379241181200,9.41118115234375,0.0006657897029072046,-0.0006657897029072046,-0.0006657897029072046
1772810379251060700,9.421060791015625,-0.0003994738217443228,0.0003994738217443228,-0.0006657897029072046
1772810379260940000,9.43093994140625,-0.0009321055840700865,0.0009321055840700865,0.0025300008710473776
1772810379270819300,9.4408193359375,0.0006657897029072046,-0.0011984214652329683,-0.001731053227558732
1772810379280698600,9.45069873046875,-0.0003994738217443228,0.0003994738217443228,0.0009321055840700865
1772810379290578200,9.460578125,0.0006657897029072046,-0.0027963167522102594,-0.00013315794058144093
1772810379300457500,9.47045751953125,0.0006657897029072046,-0.00013315794058144093,0.0003994738217443228
1772810379310336800,9.480336669921876,0.0006657897029072046,-0.0006657897029072046,-0.00013315794058144093
1772810379320216300,9.49021630859375,-0.0003994738217443228,-0.0006657897029072046,0.0009321055840700865
1772810379330095600,9.500095703125,0.00013315794058144093,-0.00013315794058144093,0.0003994738217443228
1772810379339975200,9.50997509765625,0.00013315794058144093,-0.00013315794058144093,-0.0011984214652329683
1772810379349854500,9.5198544921875,0.00013315794058144093,-0.0011984214652329683,0.0009321055840700865
1772810379359733800,9.529733642578124,-0.0014647373463958502,-0.00013315794058144093,0.0003994738217443228
1772810379369613000,9.539613037109374,0.0011984214652329683,-0.001731053227558732,-0.001731053227558732
1772810379379492600,9.54949267578125,-0.0003994738217443228,-0.0011984214652329683,0.0003994738217443228
1772810379389372000,9.559371826171875,-0.0014647373463958502,-0.00013315794058144093,-0.0006657897029072046
1772810379399251500,9.56925146484375,-0.0003994738217443228,0.0009321055840700865,-0.0006657897029072046
1772810379409130800,9.579130859375,0.00013315794058144093,0.001997369108721614,0.0014647373463958502
1772810379419010000,9.589010009765625,-0.0014647373463958502,0.0003994738217443228,-0.00013315794058144093
1772810379428889300,9.598889404296875,-0.0009321055840700865,-0.0006657897029072046,-0.001731053227558732
1772810379438769000,9.608768798828125,-0.0030626326333731413,-0.0011984214652329683,0.0014647373463958502
1772810379448648200,9.618648193359375,0.0006657897029072046,-0.0006657897029072046,-0.00013315794058144093
1772810379458527500,9.628527587890625,0.00013315794058144093,0.0003994738217443228,0.0003994738217443228
1772810379468407000,9.638406982421875,-0.0009321055840700865,-0.00013315794058144093,-0.00013315794058144093
1772810379488166000,9.658165771484375,0.0011984214652329683,-0.00013315794058144093,0.0003994738217443228
1772810379498045400,9.66804541015625,-0.0014647373463958502,-0.0011984214652329683,-0.00013315794058144093
1772810379507925800,9.67792578125,0.0006657897029072046,-0.0006657897029072046,0.0003994738217443228
1772810379517806000,9.68780615234375,-0.0025300008710473776,-0.0022636849898844957,-0.00013315794058144093
1772810379527686400,9.697686279296875,-0.0003994738217443228,-0.0011984214652329683,-0.00013315794058144093
1772810379537566700,9.707566650390625,-0.001997369108721614,-0.00013315794058144093,0.0014647373463958502
1772810379547447000,9.717447021484375,0.0006657897029072046,0.0003994738217443228,0.0009321055840700865
1772810379567207700,9.737207763671876,0.00013315794058144093,0.0003994738217443228,0.0009321055840700865
1772810379577088000,9.747087890625,-0.0003994738217443228,-0.0006657897029072046,-0.00013315794058144093
1772810379586968300,9.75696826171875,-0.0003994738217443228,-0.0011984214652329683,-0.0011984214652329683
1772810379596848600,9.7668486328125,0.00013315794058144093,0.0003994738217443228,-0.0006657897029072046
1772810379606729000,9.77672900390625,-0.0009321055840700865,-0.00013315794058144093,0.0014647373463958502
1772810379616609300,9.786609375,0.00013315794058144093,-0.0006657897029072046,0.0009321055840700865
1772810379626489300,9.7964892578125,-0.0003994738217443228,-0.0011984214652329683,-0.0006657897029072046
1772810379636369700,9.80636962890625,0.0006657897029072046,0.0014647373463958502,0.0003994738217443228
1772810379646250000,9.81625,0.0011984214652329683,-0.0006657897029072046,-0.00013315794058144093
1772810379656130300,9.82613037109375,-0.0009321055840700865,-0.0011984214652329683,0.0003994738217443228
1772810379666010600,9.8360107421875,0.0006657897029072046,0.0003994738217443228,0.0003994738217443228
1772810379675891000,9.845890869140625,0.00013315794058144093,-0.00013315794058144093,-0.0006657897029072046
1772810379685771300,9.855771240234375,-0.0009321055840700865,-0.0022636849898844957,-0.0006657897029072046
1772810379695651600,9.865651611328126,0.0006657897029072046,0.001997369108721614,-0.00013315794058144093
1772810379705532000,9.875531982421874,0.00013315794058144093,0.0014647373463958502,-0.00013315794058144093
1772810379715412200,9.885412109375,0.001731053227558732,-0.00013315794058144093,-0.0006657897029072046
1772810379725292500,9.89529248046875,0.00013315794058144093,-0.0006657897029072046,-0.0006657897029072046
1772810379735172900,9.9051728515625,-0.001997369108721614,-0.00013315794058144093,-0.00013315794058144093
1772810379745053200,9.91505322265625,0.0006657897029072046,0.0009321055840700865,0.0003994738217443228
1772810379754933500,9.92493359375,-0.0003994738217443228,0.0003994738217443228,0.0009321055840700865
1772810379764813800,9.934813720703126,0.0006657897029072046,0.0003994738217443228,-0.0011984214652329683
1772810379774694100,9.944694091796874,0.0011984214652329683,-0.00013315794058144093,-0.00013315794058144093
1772810379784574500,9.954574462890625,-0.0003994738217443228,-0.001731053227558732,0.0014647373463958502
1772810379794454800,9.964454833984375,0.001731053227558732,-0.0022636849898844957,-0.00013315794058144093
1772810379804335000,9.974335205078125,0.00013315794058144093,-0.0006657897029072046,-0.00013315794058144093
1772810379814215400,9.98421533203125,0.0006657897029072046,-0.00013315794058144093,-0.00013315794058144093
1772810379824095700,9.994095703125,-0.0003994738217443228,-0.00013315794058144093,-0.0006657897029072046
1772810379833976000,10.00397607421875,-0.0003994738217443228,0.001997369108721614,-0.00013315794058144093
1772810379843856400,10.0138564453125,0.00013315794058144093,-0.001731053227558732,-0.0006657897029072046
1772810379853736700,10.02373681640625,0.00013315794058144093,-0.00013315794058144093,-0.0011984214652329683
1772810379863617000,10.033616943359375,-0.0009321055840700865,-0.0006657897029072046,0.0003994738217443228
1772810379873497300,10.043497314453125,0.0006657897029072046,-0.0006657897029072046,-0.00013315794058144093
1772810379883377700,10.053377685546875,0.00013315794058144093,-0.0022636849898844957,0.0003994738217443228
1772810379893257700,10.0632578125,0.00013315794058144093,-0.0006657897029072046,-0.0011984214652329683
1772810379903138000,10.073137939453124,0.00013315794058144093,-0.0011984214652329683,-0.0011984214652329683
1772810379913018400,10.083018310546874,-0.0014647373463958502,-0.00013315794058144093,-0.0011984214652329683
1772810379922898700,10.092898681640625,0.00013315794058144093,0.0009321055840700865,-0.00013315794058144093
1772810379932779000,10.102779052734375,-0.0009321055840700865,-0.0006657897029072046,0.0009321055840700865
1772810379942659300,10.112659423828125,-0.0009321055840700865,-0.00013315794058144093,-0.0006657897029072046
1772810379952539600,10.12253955078125,0.0006657897029072046,-0.00013315794058144093,0.0003994738217443228
1772810379962420000,10.132419921875,0.001731053227558732,-0.0011984214652329683,0.0003994738217443228
1772810379972300300,10.14230029296875,-0.0003994738217443228,0.0009321055840700865,-0.0006657897029072046
1772810379982180600,10.1521806640625,-0.0009321055840700865,-0.0006657897029072046,-0.00013315794058144093
1772810379992061000,10.16206103515625,0.00013315794058144093,0.0014647373463958502,-0.001731053227558732
1772810380001941000,10.17194091796875,0.0013315794058144093,0,-0.00013315794058144093
1772810380011820800,10.18182080078125,0.00026631588116288185,0.0005326317623257637,0.0009321055840700865
1772810380021700900,10.191700927734376,-0.00026631588116288185,0,0.0009321055840700865
1772810380031580700,10.20158056640625,-0.0007989476434886456,-0.0005326317623257637,-0.001731053227558732
1772810380041460700,10.211460693359374,0.0007989476434886456,0.0010652635246515274,0.0009321055840700865
1772810380051340500,10.221340576171874,-0.0007989476434886456,-0.0005326317623257637,0.0009321055840700865
1772810380061220400,10.231220458984374,0.00026631588116288185,0,-0.00013315794058144093
1772810380071100400,10.241100341796875,-0.0013315794058144093,0.001597895286977291,-0.0006657897029072046
1772810380080980200,10.250980224609375,0.00026631588116288185,0,0.0003994738217443228
1772810380090860000,10.260860107421875,-0.0013315794058144093,0,0.0009321055840700865
1772810380100740000,10.270739990234375,-0.00026631588116288185,0,0.0003994738217443228
1772810380110620000,10.280619873046875,-0.00026631588116288185,0.0010652635246515274,-0.00013315794058144093
1772810380120500000,10.2905,0.00026631588116288185,0,-0.00013315794058144093
1772810380130379800,10.3003798828125,0.0007989476434886456,0,-0.0011984214652329683
1772810380140259800,10.310259765625,0.00026631588116288185,-0.001597895286977291,-0.0006657897029072046
1772810380150139600,10.3201396484375,0.001864211168140173,0.001597895286977291,-0.00013315794058144093
1772810380160019500,10.33001953125,-0.0013315794058144093,0.001597895286977291,-0.0006657897029072046
1772810380169899500,10.3398994140625,-0.0013315794058144093,-0.0005326317623257637,-0.00013315794058144093
1772810380179779300,10.349779296875,-0.00026631588116288185,0.003195790573954582,0.0014647373463958502
1772810380189659100,10.3596591796875,-0.0013315794058144093,0.009587371721863747,0.003595264395698905
1772810380199539200,10.369539306640625,0.00026631588116288185,0.006924212910234928,0.0030626326333731413
1772810380209419000,10.3794189453125,0.0007989476434886456,-0.0010652635246515274,-0.0011984214652329683
1772810380219299000,10.389299072265626,0.00026631588116288185,-0.003195790573954582,-0.001731053227558732
1772810380229179000,10.399178955078124,0.0007989476434886456,-0.00426105409860611,0.0003994738217443228
1772810380239059000,10.409058837890624,-0.0013315794058144093,-0.002130527049303055,-0.00013315794058144093
1772810380248938800,10.418938720703125,0.0007989476434886456,-0.001597895286977291,-0.0006657897029072046
1772810380258818800,10.42881884765625,0.00026631588116288185,0.002130527049303055,0.0009321055840700865
1772810380268698600,10.43869873046875,-0.0007989476434886456,0.007989476434886456,0.003595264395698905
1772810380278578400,10.448578369140625,0.0007989476434886456,0.009054739959537983,0.004127896390855312
1772810380288458500,10.45845849609375,-0.00026631588116288185,0.009054739959537983,0.003595264395698905
1772810380298338300,10.46833837890625,-0.001864211168140173,0.004793685860931873,0.0009321055840700865
1772810380308218000,10.478218017578126,-0.00026631588116288185,-0.0026631588116288185,-0.0011984214652329683
1772810380318098200,10.48809814453125,0.00026631588116288185,-0.015446321107447147,-0.003861580276861787
1772810380327978000,10.49797802734375,0.0007989476434886456,-0.015446321107447147,-0.004394211806356907
1772810380337858000,10.507858154296875,-0.00026631588116288185,-0.0005326317623257637,-0.0006657897029072046
1772810380347737900,10.51773779296875,-0.00026631588116288185,0.0005326317623257637,-0.0006657897029072046
