time,seconds_elapsed,z,y,x
1772810864800839200,0.177839111328125,0.003195790573954582,-0.0009321055840700865,-0.0027963167522102594
1772810864810720800,0.187720703125,-0.0010652635246515274,-0.0025300008710473776,-0.0006657897029072046
1772810864820602000,0.19760205078125,-0.0010652635246515274,-0.0025300008710473776,-0.0011984214652329683
1772810864830483700,0.207483642578125,-0.0010652635246515274,-0.0003994738217443228,-0.0027963167522102594
1772810864840365000,0.217364990234375,0.0005326317623257637,0.004793685860931873,0
1772810864850246700,0.22724658203125,-0.001597895286977291,0.001597895286977291,-0.0005326317623257637
1772810864860128000,0.2371279296875,-0.0026631588116288185,-0.0005326317623257637,0
1772810864870009600,0.247009521484375,-0.0005326317623257637,0.001597895286977291,-0.0010652635246515274
1772810864879891000,0.256890869140625,0.0010652635246515274,0.0010652635246515274,0.0005326317623257637
1772810864889772500,0.2667724609375,-0.0005326317623257637,0.001597895286977291,-0.0005326317623257637
1772810864899654000,0.27665380859375,0.0005326317623257637,0.0005326317623257637,-0.001597895286977291
1772810864909535500,0.286535400390625,0,0.0005326317623257637,0.00013315794058144093
1772810864919416800,0.296416748046875,0.0005326317623257637,-0.0010652635246515274,-0.0009321055840700865
1772810864929298400,0.30629833984375,-0.0003994738217443228,-0.001597895286977291,0.00013315794058144093
1772810864939180000,0.316179931640625,0.00013315794058144093,0,0.0006657897029072046
1772810864949061400,0.326061279296875,0.00013315794058144093,0.0005326317623257637,-0.0003994738217443228
1772810864958943000,0.33594287109375,0.0011984214652329683,-0.002130527049303055,-0.0014647373463958502
1772810864968824300,0.34582421875,0.0006657897029072046,0.002130527049303055,0.0022636849898844957
1772810864978706000,0.355705810546875,0.00013315794058144093,-0.0010652635246515274,0.00026631588116288185
1772810864988587300,0.365587158203125,-0.0014647373463958502,0.0010652635246515274,0.0007989476434886456
1772810864998468000,0.375468017578125,0.0011984214652329683,0.001597895286977291,0.00026631588116288185
1772810865008348000,0.385347900390625,0.001731053227558732,0,0.00026631588116288185
1772810865018227700,0.395227783203125,0,0.00013315794058144093,-0.0006657897029072046
1772810865028107300,0.405107177734375,-0.0010652635246515274,0.0006657897029072046,0.0003994738217443228
1772810865037987000,0.414987060546875,-0.001597895286977291,-0.004127896390855312,0.0014647373463958502
1772810865047867000,0.424866943359375,0.0005326317623257637,0.0011984214652329683,-0.0006657897029072046
1772810865057746700,0.43474658203125,0.001597895286977291,0.0006657897029072046,-0.0006657897029072046
1772810865067626500,0.44462646484375,0.001597895286977291,-0.0009321055840700865,0.0014647373463958502
1772810865077506000,0.454506103515625,0.001597895286977291,-0.0003994738217443228,0.0009321055840700865
1772810865087385900,0.4643857421875,-0.0005326317623257637,-0.0003994738217443228,0.0009321055840700865
1772810865097265700,0.474265625,-0.002130527049303055,-0.0014647373463958502,-0.0006657897029072046
1772810865107145500,0.4841455078125,0.0005326317623257637,-0.0003994738217443228,0.0003994738217443228
1772810865117025000,0.49402490234375,0,-0.001997369108721614,0.0009321055840700865
1772810865126904800,0.50390478515625,0.0010652635246515274,-0.0003994738217443228,-0.0011984214652329683
1772810865136784600,0.51378466796875,-0.0010652635246515274,0.0011984214652329683,-0.00013315794058144093
1772810865146664400,0.52366455078125,0.0005326317623257637,-0.0009321055840700865,-0.0006657897029072046
1772810865156544000,0.5335439453125,0.0005326317623257637,-0.0003994738217443228,0.0003994738217443228
1772810865166423800,0.543423828125,0,-0.0003994738217443228,-0.00013315794058144093
1772810865176303600,0.5533037109375,0.0005326317623257637,0.0006657897029072046,-0.00013315794058144093
1772810865186183400,0.563183349609375,0.0005326317623257637,-0.0009321055840700865,-0.00013315794058144093
1772810865196063000,0.57306298828125,0.0010652635246515274,0.00013315794058144093,0.0014647373463958502
1772810865205942800,0.58294287109375,-0.0010652635246515274,-0.0014647373463958502,-0.0006657897029072046
1772810865215822600,0.592822509765625,0,-0.0003994738217443228,-0.0006657897029072046
1772810865225702400,0.602702392578125,0.0005326317623257637,0.00013315794058144093,-0.00013315794058144093
1772810865235582000,0.61258203125,-0.0010652635246515274,0.0006657897029072046,-0.00013315794058144093
1772810865245461800,0.622461669921875,-0.0005326317623257637,0.0006657897029072046,-0.0006657897029072046
1772810865255341600,0.632341552734375,0,0.00013315794058144093,-0.0011984214652329683
1772810865265221400,0.642221435546875,0.0010652635246515274,-0.001997369108721614,0.0003994738217443228
1772810865275101200,0.65210107421875,0.001597895286977291,-0.0009321055840700865,-0.00013315794058144093
1772810865284980700,0.661980712890625,-0.0005326317623257637,-0.0009321055840700865,-0.001731053227558732
1772810865294860500,0.671860595703125,-0.0010652635246515274,0.003328948514536023,-0.0011984214652329683
1772810865304740400,0.681740234375,0.0005326317623257637,0.0006657897029072046,-0.00013315794058144093
1772810865314620200,0.6916201171875,0,-0.0014647373463958502,0.0014647373463958502
1772810865324499700,0.701499755859375,-0.0005326317623257637,-0.0009321055840700865,-0.00013315794058144093
1772810865334379500,0.711379638671875,0,0.00013315794058144093,0.0009321055840700865
1772810865344259300,0.72125927734375,0.0005326317623257637,0.00013315794058144093,0.0014647373463958502
1772810865354139100,0.73113916015625,0.0010652635246515274,0.0011984214652329683,-0.00013315794058144093
1772810865364018700,0.741018798828125,0,0.00013315794058144093,-0.0011984214652329683
1772810865373898500,0.7508984375,-0.0005326317623257637,-0.0014647373463958502,0.0003994738217443228
1772810865383778300,0.7607783203125,0,-0.0003994738217443228,-0.0006657897029072046
1772810865393658000,0.770658203125,0,0.0006657897029072046,-0.0006657897029072046
1772810865403537700,0.78053759765625,0.0010652635246515274,-0.0009321055840700865,-0.00013315794058144093
1772810865413417500,0.79041748046875,0.0010652635246515274,0.0011984214652329683,0.0009321055840700865
1772810865423297300,0.80029736328125,0,-0.001997369108721614,-0.0006657897029072046
1772810865433177000,0.810177001953125,0.0005326317623257637,-0.0025300008710473776,0.0009321055840700865
1772810865443056600,0.820056640625,-0.0005326317623257637,-0.0014647373463958502,0.001997369108721614
1772810865452936400,0.8299365234375,0.0010652635246515274,-0.0003994738217443228,-0.00013315794058144093
1772810865462816300,0.839816162109375,0,0.0011984214652329683,0.0009321055840700865
1772810865472696000,0.849696044921875,0,0.001731053227558732,-0.00013315794058144093
1772810865482575600,0.85957568359375,0.0010652635246515274,-0.0009321055840700865,-0.0006657897029072046
1772810865492455400,0.869455322265625,-0.0005326317623257637,0.00013315794058144093,-0.00013315794058144093
1772810865502336500,0.87933642578125,-0.0010652635246515274,0.00013315794058144093,-0.0011984214652329683
1772810865512217900,0.8892177734375,0.001597895286977291,-0.0014647373463958502,-0.001731053227558732
1772810865522099200,0.89909912109375,0,0.00013315794058144093,0.0009321055840700865
1772810865531980500,0.90898046875,0,0.0006657897029072046,0.0009321055840700865
1772810865541862000,0.91886181640625,-0.0005326317623257637,-0.0003994738217443228,-0.00013315794058144093
1772810865551743200,0.9287431640625,-0.001597895286977291,-0.0003994738217443228,0.0003994738217443228
1772810865571506000,0.948505859375,-0.0010652635246515274,-0.0009321055840700865,-0.0011984214652329683
1772810865581387300,0.95838720703125,0,0.00013315794058144093,-0.0006657897029072046
1772810865591268600,0.9682685546875,-0.0010652635246515274,-0.0003994738217443228,0.0009321055840700865
1772810865601150000,0.97814990234375,0,0.0006657897029072046,-0.00013315794058144093
1772810865611031300,0.98803125,0.0005326317623257637,-0.0009321055840700865,-0.00013315794058144093
1772810865620912600,0.99791259765625,-0.0010652635246515274,-0.0003994738217443228,-0.0011984214652329683
1772810865630794000,1.0077939453125,0,-0.0014647373463958502,-0.0006657897029072046
1772810865640675300,1.01767529296875,0.0005326317623257637,0.00013315794058144093,-0.0006657897029072046
1772810865650556700,1.027556640625,-0.0005326317623257637,-0.0003994738217443228,0.0003994738217443228
1772810865660438000,1.03743798828125,-0.0005326317623257637,0.0006657897029072046,-0.0006657897029072046
1772810865670319400,1.0473193359375,0.0010652635246515274,0.001731053227558732,-0.0006657897029072046
1772810865680200700,1.05720068359375,0.0005326317623257637,-0.0014647373463958502,-0.00013315794058144093
1772810865690082000,1.06708203125,0.0005326317623257637,0.001731053227558732,0.0009321055840700865
1772810865699963400,1.07696337890625,-0.001597895286977291,-0.0003994738217443228,-0.00013315794058144093
1772810865709844700,1.0868447265625,0.0005326317623257637,0.001731053227558732,-0.0011984214652329683
1772810865719726000,1.09672607421875,-0.0005326317623257637,-0.0003994738217443228,-0.00013315794058144093
1772810865729607400,1.106607421875,0,0.0006657897029072046,0.0009321055840700865
1772810865739488800,1.11648876953125,0.001597895286977291,-0.001997369108721614,-0.0011984214652329683
1772810865749370400,1.126370361328125,-0.0010652635246515274,0.001731053227558732,-0.00013315794058144093
1772810865759251700,1.136251708984375,0.0010652635246515274,-0.0014647373463958502,-0.0006657897029072046
1772810865769133000,1.146133056640625,-0.0010652635246515274,0.00013315794058144093,-0.0006657897029072046
1772810865788895700,1.165895751953125,-0.0005326317623257637,-0.0014647373463958502,-0.0006657897029072046
1772810865798776800,1.17577685546875,0.001597895286977291,0.0027963167522102594,-0.0006657897029072046
1772810865808658400,1.185658447265625,0.0005326317623257637,0.0011984214652329683,-0.00013315794058144093
1772810865818539800,1.195539794921875,0,-0.001997369108721614,-0.001731053227558732
1772810865828421000,1.205421142578125,-0.0026631588116288185,-0.0003994738217443228,-0.0006657897029072046
1772810865838302500,1.215302490234375,0.0010652635246515274,0.001731053227558732,-0.00013315794058144093
1772810865848183800,1.225183837890625,0.0005326317623257637,0.00013315794058144093,-0.00013315794058144093
1772810865858065200,1.235065185546875,-0.002130527049303055,0.00013315794058144093,-0.00013315794058144093
1772810865867946500,1.244946533203125,0.0005326317623257637,-0.0003994738217443228,-0.0006657897029072046
1772810865877827800,1.254827880859375,0,0.0011984214652329683,-0.0006657897029072046
1772810865887709200,1.264709228515625,0,-0.0014647373463958502,-0.0011984214652329683
1772810865897590500,1.274590576171875,0.0010652635246515274,-0.0003994738217443228,-0.0011984214652329683
1772810865907472000,1.284471923828125,0.0026631588116288185,-0.0009321055840700865,0.0003994738217443228
1772810865917353200,1.294353271484375,-0.0010652635246515274,0.0006657897029072046,-0.0006657897029072046
1772810865927234600,1.304234619140625,-0.0005326317623257637,0.00013315794058144093,0.0014647373463958502
1772810865937116000,1.314115966796875,0.002130527049303055,-0.0009321055840700865,-0.00013315794058144093
1772810865946997200,1.323997314453125,0,-0.0003994738217443228,0.0014647373463958502
1772810865956878600,1.333878662109375,0.001597895286977291,0.0011984214652329683,-0.00013315794058144093
1772810865966760000,1.343760009765625,-0.0005326317623257637,-0.0003994738217443228,0.0009321055840700865
1772810865976641300,1.353641357421875,-0.0005326317623257637,-0.0003994738217443228,-0.0022636849898844957
1772810865986522600,1.363522705078125,0.0005326317623257637,0.0006657897029072046,0.0003994738217443228
1772810865996404200,1.373404296875,-0.0005326317623257637,0.00013315794058144093,-0.0006657897029072046
1772810866006285800,1.383285888671875,0,0.0011984214652329683,-0.00013315794058144093
1772810866016167400,1.39316748046875,0.0010652635246515274,0.00013315794058144093,0.0009321055840700865
1772810866026049000,1.403049072265625,-0.0010652635246515274,-0.0009321055840700865,-0.0011984214652329683
1772810866035931000,1.412930908203125,0,-0.0003994738217443228,0.0003994738217443228
1772810866045812500,1.4228125,-0.0005326317623257637,0.0006657897029072046,0.0003994738217443228
1772810866055694000,1.432694091796875,0.0010652635246515274,0.00013315794058144093,-0.00013315794058144093
1772810866065576000,1.442575927734375,-0.001597895286977291,-0.0003994738217443228,0.0009321055840700865
1772810866075457500,1.45245751953125,-0.0010652635246515274,-0.0009321055840700865,-0.00013315794058144093
1772810866085339100,1.462339111328125,-0.0010652635246515274,0.0011984214652329683,-0.0006657897029072046
1772810866095221000,1.472220947265625,0.0005326317623257637,-0.0003994738217443228,0.0003994738217443228
1772810866105102600,1.4821025390625,0,-0.0014647373463958502,-0.0006657897029072046
1772810866114984200,1.491984130859375,0,0.00013315794058144093,-0.00013315794058144093
1772810866124866000,1.501865966796875,0.0005326317623257637,0.0006657897029072046,0.0009321055840700865
1772810866134747600,1.51174755859375,-0.0005326317623257637,-0.0025300008710473776,-0.0006657897029072046
1772810866144629200,1.521629150390625,-0.0010652635246515274,0.0022636849898844957,-0.00013315794058144093
1772810866154511000,1.531510986328125,0.0005326317623257637,-0.0003994738217443228,0.0003994738217443228
1772810866164392700,1.541392822265625,0.0005326317623257637,0.0006657897029072046,0.001997369108721614
1772810866174274300,1.5512744140625,-0.0005326317623257637,-0.0014647373463958502,-0.0006657897029072046
1772810866184156200,1.56115625,-0.0010652635246515274,0.0011984214652329683,-0.0006657897029072046
1772810866194037800,1.571037841796875,0,0.0006657897029072046,0.0009321055840700865
1772810866203919400,1.58091943359375,0.0005326317623257637,-0.0003994738217443228,0.0003994738217443228
1772810866213801200,1.59080126953125,0.0010652635246515274,-0.0003994738217443228,0.0003994738217443228
1772810866223682800,1.600682861328125,0.0005326317623257637,0.00013315794058144093,0.0009321055840700865
1772810866233564400,1.610564453125,0.0010652635246515274,0.00013315794058144093,0.0003994738217443228
1772810866243446300,1.6204462890625,0.0005326317623257637,0.00013315794058144093,0.0025300008710473776
1772810866253328000,1.630327880859375,0.0010652635246515274,0.001731053227558732,-0.00013315794058144093
1772810866263209500,1.64020947265625,0.001597895286977291,-0.0025300008710473776,0.0003994738217443228
1772810866273091300,1.65009130859375,-0.0005326317623257637,-0.0014647373463958502,0.0009321055840700865
1772810866282973000,1.659972900390625,0.0005326317623257637,-0.001997369108721614,0.0003994738217443228
1772810866292854500,1.6698544921875,0.0005326317623257637,-0.0003994738217443228,0.0009321055840700865
1772810866302736400,1.679736328125,0.001597895286977291,0.00013315794058144093,-0.0006657897029072046
1772810866312618000,1.689617919921875,0,0.00013315794058144093,-0.0011984214652329683
1772810866322499600,1.69949951171875,-0.0010652635246515274,-0.0030626326333731413,-0.0006657897029072046
1772810866332381400,1.70938134765625,-0.0005326317623257637,-0.0009321055840700865,-0.0006657897029072046
1772810866342263000,1.719262939453125,-0.0005326317623257637,0.00013315794058144093,-0.0006657897029072046
1772810866352144600,1.72914453125,0.0005326317623257637,-0.0003994738217443228,-0.00013315794058144093
1772810866362026500,1.739026611328125,-0.0005326317623257637,0.0006657897029072046,-0.00013315794058144093
1772810866371908000,1.748908203125,0.0010652635246515274,-0.00026631588116288185,0.002130527049303055
1772810866381789700,1.758789794921875,-0.0010652635246515274,-0.0013315794058144093,0.0005326317623257637
1772810866391671600,1.768671630859375,0.0005326317623257637,-0.0007989476434886456,-0.0010652635246515274
1772810866401553200,1.77855322265625,0.0005326317623257637,-0.0007989476434886456,0
1772810866411434800,1.788434814453125,0.0005326317623257637,-0.0007989476434886456,0.0005326317623257637
1772810866421316600,1.798316650390625,-0.001597895286977291,0.0013315794058144093,0.0010652635246515274
1772810866431198200,1.8081982421875,0.0005326317623257637,0.0007989476434886456,-0.0010652635246515274
1772810866441079800,1.818079833984375,-0.0010652635246515274,-0.00026631588116288185,0.0005326317623257637
1772810866450961700,1.827961669921875,0.0005326317623257637,-0.0007989476434886456,-0.0005326317623257637
1772810866460843300,1.83784326171875,0.0010652635246515274,0.0007989476434886456,-0.0010652635246515274
1772810866470724900,1.847724853515625,-0.0010652635246515274,0.0013315794058144093,-0.0005326317623257637
1772810866480606700,1.857606689453125,0.0005326317623257637,0.00026631588116288185,0
1772810866490488300,1.86748828125,0,-0.00026631588116288185,0.0005326317623257637
1772810866500369700,1.87736962890625,-0.0005326317623257637,0.00026631588116288185,0
1772810866510250500,1.88725048828125,0.0005326317623257637,0.0013315794058144093,-0.0005326317623257637
1772810866520131300,1.89713134765625,0,-0.00026631588116288185,0
1772810866530012200,1.90701220703125,0,0.0007989476434886456,0.001597895286977291
1772810866539893000,1.91689306640625,0.0010652635246515274,-0.00026631588116288185,0
1772810866549773800,1.92677392578125,0.0026631588116288185,0.0013315794058144093,-0.0005326317623257637
1772810866559654700,1.936654541015625,0,0.00026631588116288185,0.001597895286977291
1772810866569535500,1.946535400390625,0.0010652635246515274,-0.00026631588116288185,0
1772810866589297200,1.966297119140625,-0.0010652635246515274,-0.00026631588116288185,-0.002130527049303055
1772810866599178000,1.976177978515625,-0.0005326317623257637,0.0013315794058144093,0
1772810866609058800,1.986058837890625,0,0.0007989476434886456,0
1772810866618940000,1.99593994140625,0.0005326317623257637,0.00026631588116288185,-0.0005326317623257637
1772810866628820700,2.00582080078125,0,-0.0007989476434886456,-0.0005326317623257637
1772810866638701600,2.01570166015625,-0.0005326317623257637,-0.001864211168140173,0
1772810866648582400,2.02558251953125,-0.0010652635246515274,0.00026631588116288185,-0.0005326317623257637
1772810866658463200,2.035463134765625,0,-0.0007989476434886456,-0.0005326317623257637
1772810866668344000,2.045343994140625,-0.0010652635246515274,-0.0007989476434886456,0.0005326317623257637
1772810866678225000,2.055224853515625,0.0005326317623257637,-0.001864211168140173,0.0005326317623257637
1772810866688105700,2.065105712890625,0,-0.00026631588116288185,0.0010652635246515274
1772810866697986600,2.074986572265625,0,0.00026631588116288185,0
1772810866707867600,2.08486767578125,-0.0005326317623257637,-0.0007989476434886456,-0.0005326317623257637
1772810866717748500,2.09474853515625,0.0010652635246515274,-0.00026631588116288185,0.0005326317623257637
1772810866727629300,2.10462939453125,0,-0.0013315794058144093,-0.001597895286977291
1772810866737510100,2.11451025390625,-0.0010652635246515274,0.0013315794058144093,0.0005326317623257637
1772810866747391000,2.124390869140625,0.002130527049303055,-0.0007989476434886456,-0.0005326317623257637
1772810866757271800,2.134271728515625,0.001597895286977291,-0.0013315794058144093,-0.0010652635246515274
1772810866767152600,2.144152587890625,-0.0010652635246515274,-0.001864211168140173,-0.0010652635246515274
1772810866777033500,2.154033447265625,0,-0.0023968429304659367,0.0010652635246515274
1772810866786914300,2.163914306640625,-0.001597895286977291,-0.0013315794058144093,0.0005326317623257637
1772810866796795100,2.173795166015625,-0.0010652635246515274,-0.0007989476434886456,-0.0005326317623257637
1772810866806676000,2.183676025390625,0.0010652635246515274,-0.00026631588116288185,0.0026631588116288185
1772810866816557000,2.19355712890625,0.0005326317623257637,-0.00026631588116288185,-0.0010652635246515274
1772810866826438000,2.20343798828125,0.0010652635246515274,-0.001864211168140173,-0.0010652635246515274
1772810866836318700,2.213318603515625,0,-0.0023968429304659367,0
1772810866846199600,2.223199462890625,0,0.00026631588116288185,0.0005326317623257637
1772810866856080400,2.233080322265625,-0.0010652635246515274,-0.00026631588116288185,0.0005326317623257637
1772810866865961200,2.242961181640625,0.0010652635246515274,0.00026631588116288185,-0.0005326317623257637
1772810866875842000,2.252842041015625,0,0.001864211168140173,0
1772810866885723000,2.262722900390625,0.0005326317623257637,-0.0007989476434886456,-0.001597895286977291
1772810866895603700,2.272603759765625,0,0.00026631588116288185,0
1772810866905484500,2.282484619140625,0,-0.0023968429304659367,0.0005326317623257637
1772810866915365400,2.292365478515625,-0.0010652635246515274,0.003462106455117464,0
1772810866925246500,2.30224658203125,0.002130527049303055,0.00026631588116288185,-0.0005326317623257637
1772810866935127300,2.312127197265625,0,-0.0007989476434886456,-0.001597895286977291
1772810866945008000,2.322008056640625,0,-0.00026631588116288185,0.0005326317623257637
1772810866954889000,2.331888916015625,-0.001597895286977291,-0.0013315794058144093,-0.001597895286977291
1772810866964769800,2.341769775390625,0,-0.0007989476434886456,0.001597895286977291
1772810866974650600,2.351650634765625,0.001597895286977291,0.00026631588116288185,-0.0010652635246515274
1772810866984531500,2.361531494140625,0.0005326317623257637,-0.0007989476434886456,0
1772810866994412300,2.371412353515625,0,0.0013315794058144093,0.0005326317623257637
1772810867004293600,2.381293701171875,-0.0010652635246515274,0.00026631588116288185,0.0005326317623257637
1772810867014175000,2.391175048828125,-0.0005326317623257637,-0.0013315794058144093,0.002130527049303055
1772810867024056300,2.401056396484375,0,-0.0007989476434886456,0.0010652635246515274
1772810867033937700,2.410937744140625,0.0010652635246515274,-0.0013315794058144093,-0.0005326317623257637
1772810867043819000,2.420819091796875,-0.001597895286977291,0.001864211168140173,0.0005326317623257637
1772810867053700400,2.430700439453125,0,-0.00026631588116288185,0.0005326317623257637
1772810867063581700,2.440581787109375,-0.0005326317623257637,0.0013315794058144093,-0.0005326317623257637
1772810867073463000,2.450463134765625,0.0005326317623257637,-0.0029294746927917004,0.001597895286977291
1772810867083344400,2.460344482421875,-0.0005326317623257637,0.0013315794058144093,-0.0010652635246515274
1772810867093225700,2.470225830078125,-0.0005326317623257637,-0.00026631588116288185,0.001597895286977291
1772810867103107000,2.480107177734375,0.001597895286977291,-0.00026631588116288185,-0.0010652635246515274
1772810867112988400,2.489988525390625,-0.0005326317623257637,-0.00026631588116288185,0.0010652635246515274
1772810867122869800,2.499869873046875,0,0.00026631588116288185,0.0010652635246515274
1772810867132751000,2.509751220703125,-0.001597895286977291,-0.0007989476434886456,0
1772810867142632400,2.519632568359375,0,0.0013315794058144093,0
1772810867152513800,2.529513671875,-0.0005326317623257637,0.0007989476434886456,0.0010652635246515274
1772810867162395100,2.53939501953125,0.001597895286977291,-0.0007989476434886456,0
1772810867172276500,2.5492763671875,-0.0010652635246515274,-0.0013315794058144093,-0.0005326317623257637
1772810867182157800,2.55915771484375,0,-0.0013315794058144093,0
1772810867192039200,2.5690390625,0.0005326317623257637,0.0007989476434886456,0
1772810867201920500,2.57892041015625,0.0005326317623257637,-0.00026631588116288185,-0.0005326317623257637
1772810867211801900,2.5888017578125,0.001597895286977291,0.0007989476434886456,0
1772810867221683200,2.59868310546875,-0.0005326317623257637,-0.0007989476434886456,0
1772810867231564500,2.608564453125,0,-0.0007989476434886456,0.0010652635246515274
1772810867241446000,2.61844580078125,-0.0005326317623257637,0.00026631588116288185,0.0005326317623257637
1772810867251327200,2.6283271484375,-0.001597895286977291,0.0007989476434886456,0.0005326317623257637
1772810867261208600,2.63820849609375,0.0005326317623257637,-0.00026631588116288185,0
1772810867271090000,2.64808984375,0.0010652635246515274,-0.0007989476434886456,-0.0005326317623257637
1772810867280971300,2.65797119140625,-0.0010652635246515274,0.0013315794058144093,0.0010652635246515274
1772810867290852600,2.6678525390625,0,0.0007989476434886456,0.0005326317623257637
1772810867300734000,2.67773388671875,0.0005326317623257637,0.0007989476434886456,0.0026631588116288185
1772810867310615300,2.687615234375,0.0005326317623257637,0.00026631588116288185,0.0005326317623257637
1772810867320496600,2.69749658203125,0,0.00026631588116288185,0
1772810867330377700,2.707377685546875,0.003195790573954582,-0.0007989476434886456,0.0005326317623257637
1772810867340259300,2.71725927734375,0.0005326317623257637,0.0007989476434886456,-0.0005326317623257637
1772810867350140700,2.727140625,-0.001597895286977291,-0.001864211168140173,-0.0005326317623257637
1772810867360021800,2.737021728515625,-0.0010652635246515274,-0.0013315794058144093,-0.0005326317623257637
1772810867369903000,2.746903076171875,0.0005326317623257637,0.0013315794058144093,-0.0005326317623257637
1772810867379784400,2.756784423828125,-0.003195790573954582,-0.00026631588116288185,0.0010652635246515274
1772810867389665800,2.766665771484375,0.0005326317623257637,0.00026631588116288185,0
1772810867399547100,2.776547119140625,-0.0010652635246515274,-0.0023968429304659367,0
1772810867409428500,2.786428466796875,-0.0005326317623257637,-0.00026631588116288185,0.0010652635246515274
1772810867419309800,2.796309814453125,0,0.00026631588116288185,0.001597895286977291
1772810867429191200,2.806191162109375,0,0.00026631588116288185,0.0005326317623257637
1772810867439072500,2.816072509765625,0,-0.0013315794058144093,-0.0005326317623257637
1772810867458835200,2.835835205078125,0.0005326317623257637,-0.001864211168140173,0
1772810867468716500,2.845716552734375,-0.0026631588116288185,0.00026631588116288185,0
1772810867478598000,2.855597900390625,-0.0005326317623257637,0.00026631588116288185,0.0010652635246515274
1772810867488479200,2.865479248046875,0.0026631588116288185,-0.0013315794058144093,0.002130527049303055
1772810867498360600,2.875360595703125,0.002130527049303055,-0.00026631588116288185,-0.001597895286977291
1772810867508241700,2.88524169921875,0.001597895286977291,0.0013315794058144093,0
1772810867518123000,2.895123046875,-0.002130527049303055,0.0007989476434886456,0.002130527049303055
1772810867528004000,2.905004150390625,-0.002130527049303055,-0.001864211168140173,0
1772810867537885200,2.91488525390625,-0.0005326317623257637,-0.00026631588116288185,0.0010652635246515274
1772810867547766300,2.924766357421875,0,-0.0007989476434886456,-0.0005326317623257637
1772810867557647400,2.9346474609375,0.0010652635246515274,0.001864211168140173,-0.0010652635246515274
1772810867567528700,2.94452880859375,-0.001597895286977291,-0.00026631588116288185,0.0010652635246515274
1772810867577409800,2.954409912109375,0.0005326317623257637,-0.0007989476434886456,0.0005326317623257637
1772810867587291000,2.964290771484375,0.0005326317623257637,0.00026631588116288185,-0.0010652635246515274
1772810867597172200,2.974172119140625,0.0005326317623257637,-0.0013315794058144093,0.0005326317623257637
1772810867607053300,2.98405322265625,-0.002130527049303055,0.0007989476434886456,0.0005326317623257637
1772810867616934400,2.993934326171875,-0.0005326317623257637,0.0013315794058144093,0
1772810867626815500,3.0038154296875,0,-0.00026631588116288185,0.0010652635246515274
1772810867636696800,3.01369677734375,-0.0010652635246515274,0.0007989476434886456,0.0010652635246515274
1772810867646578000,3.023577880859375,-0.0010652635246515274,-0.00026631588116288185,0
1772810867656459000,3.033458984375,-0.0010652635246515274,0.0013315794058144093,0.001597895286977291
1772810867666340400,3.04334033203125,0,-0.00026631588116288185,0.0005326317623257637
1772810867676221400,3.053221435546875,0.0005326317623257637,0.0013315794058144093,-0.0005326317623257637
1772810867686102500,3.0631025390625,0,-0.0007989476434886456,0.0005326317623257637
1772810867695983600,3.072983642578125,-0.0005326317623257637,0.00026631588116288185,-0.0010652635246515274
1772810867705864700,3.08286474609375,0.0010652635246515274,-0.0007989476434886456,0.0010652635246515274
1772810867715746000,3.09274609375,0,-0.0013315794058144093,0.0005326317623257637
1772810867725627100,3.102627197265625,0.0005326317623257637,-0.0007989476434886456,0.0010652635246515274
1772810867735508200,3.11250830078125,0.0010652635246515274,-0.00026631588116288185,-0.0010652635246515274
1772810867745389600,3.1223896484375,0,0.00026631588116288185,-0.0005326317623257637
1772810867755270700,3.132270751953125,-0.001597895286977291,-0.00026631588116288185,-0.0005326317623257637
1772810867765151700,3.14215185546875,0.0005326317623257637,0.001864211168140173,-0.0005326317623257637
1772810867775032800,3.15203271484375,0,0.0007989476434886456,-0.0005326317623257637
1772810867784914200,3.1619140625,0,0.0007989476434886456,0.0010652635246515274
1772810867794795300,3.171795166015625,-0.0005326317623257637,0.001864211168140173,-0.0005326317623257637
1772810867804676400,3.18167626953125,-0.0005326317623257637,-0.0013315794058144093,0.0005326317623257637
1772810867814557400,3.191557373046875,0,0.00026631588116288185,0
1772810867824438800,3.201438720703125,0,-0.0007989476434886456,0.0005326317623257637
1772810867834320000,3.21131982421875,0.0005326317623257637,0.00026631588116288185,-0.0005326317623257637
1772810867844201000,3.221200927734375,-0.0005326317623257637,0.001864211168140173,0
1772810867854082000,3.23108203125,0.0005326317623257637,-0.0007989476434886456,0.0010652635246515274
1772810867863963400,3.24096337890625,-0.001597895286977291,-0.00026631588116288185,0.001597895286977291
1772810867873844500,3.250844482421875,0,-0.00026631588116288185,-0.0005326317623257637
1772810867883725600,3.2607255859375,-0.0005326317623257637,0.0029294746927917004,-0.001597895286977291
1772810867893607000,3.27060693359375,-0.0005326317623257637,-0.0007989476434886456,-0.0005326317623257637
1772810867903488000,3.280488037109375,0,-0.00026631588116288185,0.0005326317623257637
1772810867913369000,3.290369140625,0.001597895286977291,0.00026631588116288185,-0.0010652635246515274
1772810867923250200,3.300250244140625,0,0.0007989476434886456,0.0010652635246515274
1772810867933131500,3.310131591796875,-0.001597895286977291,-0.00026631588116288185,-0.0005326317623257637
1772810867943012600,3.3200126953125,0.0010652635246515274,0.0013315794058144093,0.0005326317623257637
1772810867952893700,3.329893798828125,-0.0005326317623257637,-0.0007989476434886456,0
1772810867962774800,3.33977490234375,0,0.0013315794058144093,0.0010652635246515274
1772810867972656000,3.34965625,-0.001597895286977291,0.00026631588116288185,-0.0005326317623257637
1772810867982537200,3.359537109375,0.0010652635246515274,0.0013315794058144093,0.0010652635246515274
1772810867992418300,3.369418212890625,0.0005326317623257637,0.00026631588116288185,0.0005326317623257637
1772810868002299400,3.37929931640625,0,-0.0007989476434886456,0
1772810868012180500,3.389180419921875,0.002130527049303055,-0.0013315794058144093,0.0010652635246515274
1772810868022061600,3.3990615234375,0.0010652635246515274,0.0013315794058144093,0.0005326317623257637
1772810868031942700,3.408942626953125,-0.0005326317623257637,0.001864211168140173,0
1772810868051704800,3.428704833984375,-0.0010652635246515274,0.0007989476434886456,0.002130527049303055
1772810868061586000,3.4385859375,0,0.0013315794058144093,0.0005326317623257637
1772810868071467000,3.448467041015625,-0.0005326317623257637,-0.001864211168140173,0
1772810868081348000,3.45834814453125,0,0.00026631588116288185,0.0005326317623257637
1772810868091229200,3.468229248046875,-0.0005326317623257637,0.00026631588116288185,-0.0005326317623257637
1772810868101110300,3.4781103515625,-0.0010652635246515274,-0.00026631588116288185,0.0005326317623257637
1772810868110991400,3.487991455078125,-0.0010652635246515274,0.0007989476434886456,0.0005326317623257637
1772810868120872400,3.49787255859375,0,0.00026631588116288185,0.0010652635246515274
1772810868130753500,3.50775341796875,0,0.0023968429304659367,0
1772810868140634600,3.517634521484375,-0.0005326317623257637,0.00026631588116288185,0.0010652635246515274
1772810868150515700,3.527515625,0,0.0013315794058144093,-0.0006657897029072046
1772810868160396800,3.537396728515625,0.0005326317623257637,0.0013315794058144093,-0.00013315794058144093
1772810868170277600,3.547277587890625,0.0005326317623257637,0.0007989476434886456,-0.0011984214652329683
1772810868180158700,3.55715869140625,0.0005326317623257637,0.0007989476434886456,0.0003994738217443228
1772810868190039800,3.567039794921875,-0.0005326317623257637,0.0013315794058144093,-0.0006657897029072046
1772810868199921000,3.5769208984375,0,-0.0007989476434886456,-0.00013315794058144093
1772810868209802000,3.586802001953125,0.001597895286977291,0.00026631588116288185,0.0009321055840700865
1772810868219683000,3.59668310546875,0.0010652635246515274,-0.0007989476434886456,0.0014647373463958502
1772810868229564200,3.606564208984375,0,0.00026631588116288185,-0.00013315794058144093
1772810868239445200,3.6164453125,-0.001597895286977291,-0.0007989476434886456,0.0003994738217443228
1772810868249326300,3.626326416015625,0.0005326317623257637,0.001864211168140173,-0.00013315794058144093
1772810868259207400,3.63620751953125,-0.0010652635246515274,-0.001864211168140173,-0.00013315794058144093
1772810868269088500,3.646088623046875,0,-0.00026631588116288185,0.0009321055840700865
1772810868288850700,3.6658505859375,0.0005326317623257637,-0.00026631588116288185,0.0003994738217443228
1772810868298731800,3.675731689453125,0.0010652635246515274,0.001864211168140173,-0.0011984214652329683
1772810868308612900,3.68561279296875,0.0010652635246515274,0.0007989476434886456,-0.00013315794058144093
1772810868318494000,3.695493896484375,0.0005326317623257637,0.0013315794058144093,0.0014647373463958502
1772810868328375000,3.705375,-0.0005326317623257637,-0.00026631588116288185,0.0014647373463958502
1772810868338256100,3.715256103515625,0.0005326317623257637,0.0013315794058144093,-0.001731053227558732
1772810868348137200,3.72513720703125,-0.0005326317623257637,0.0013315794058144093,-0.0011984214652329683
1772810868358018300,3.735018310546875,0,0.0013315794058144093,0.0003994738217443228
1772810868367899400,3.7448994140625,-0.0010652635246515274,0.001864211168140173,0.0009321055840700865
1772810868387661600,3.76466162109375,0.0005326317623257637,-0.0007989476434886456,-0.0006657897029072046
1772810868397542700,3.774542724609375,0,-0.001864211168140173,-0.0011984214652329683
1772810868407423700,3.784423828125,0,0.00026631588116288185,-0.0006657897029072046
1772810868417304800,3.794304931640625,-0.0010652635246515274,0.00026631588116288185,-0.0006657897029072046
1772810868427186000,3.80418603515625,-0.0010652635246515274,-0.00026631588116288185,0.0003994738217443228
1772810868437066800,3.814066650390625,0,0.0013315794058144093,-0.0006657897029072046
1772810868446947800,3.82394775390625,0,0.001864211168140173,-0.00013315794058144093
1772810868456829000,3.833828857421875,0.0005326317623257637,0.001864211168140173,-0.00013315794058144093
1772810868466710000,3.8437099609375,0.0005326317623257637,0.0023968429304659367,0.0003994738217443228
1772810868476591000,3.853591064453125,0,0.001864211168140173,-0.0006657897029072046
1772810868486472200,3.86347216796875,0.0005326317623257637,-0.00026631588116288185,-0.0006657897029072046
1772810868496353300,3.873353271484375,0.002130527049303055,0.0013315794058144093,-0.00013315794058144093
1772810868506234000,3.883234130859375,0.0026631588116288185,0.0013315794058144093,-0.0006657897029072046
1772810868516114700,3.89311474609375,0.0010652635246515274,0.0007989476434886456,0.0003994738217443228
1772810868525995500,3.90299560546875,-0.0005326317623257637,0.0007989476434886456,-0.00013315794058144093
1772810868535876000,3.9128759765625,0,0.0029294746927917004,-0.001731053227558732
1772810868545757000,3.9227568359375,0.0005326317623257637,0.0007989476434886456,-0.0006657897029072046
1772810868555637500,3.932637451171875,-0.0005326317623257637,0.0013315794058144093,-0.0006657897029072046
1772810868565518300,3.942518310546875,0.0005326317623257637,0.00026631588116288185,0.0003994738217443228
1772810868575399000,3.95239892578125,-0.0010652635246515274,-0.00026631588116288185,0.0003994738217443228
1772810868585279700,3.96227978515625,0,0.00026631588116288185,0.0025300008710473776
1772810868595160300,3.972160400390625,0.0005326317623257637,-0.00026631588116288185,-0.0006657897029072046
1772810868605041200,3.982041259765625,-0.0010652635246515274,0.0023968429304659367,0.0009321055840700865
1772810868614921700,3.991921630859375,0,-0.0007989476434886456,0.0014647373463958502
1772810868624802600,4.001802490234375,-0.0010652635246515274,-0.0007989476434886456,-0.00013315794058144093
1772810868634683100,4.01168310546875,-0.0005326317623257637,-0.00026631588116288185,0.0014647373463958502
1772810868644564000,4.02156396484375,-0.0010652635246515274,-0.00026631588116288185,-0.0006657897029072046
1772810868654444500,4.031444580078125,0.0010652635246515274,-0.00026631588116288185,-0.0011984214652329683
1772810868664325400,4.041325439453125,0.0005326317623257637,0.0013315794058144093,0.0014647373463958502
1772810868674206000,4.0512060546875,0,0.0013315794058144093,-0.0006657897029072046
1772810868684086800,4.061086669921875,-0.0005326317623257637,-0.0045273699797689915,0.0014647373463958502
1772810868693967400,4.07096728515625,0.0005326317623257637,-0.00026631588116288185,0.0003994738217443228
1772810868703848200,4.08084814453125,-0.0005326317623257637,-0.0007989476434886456,0.001997369108721614
1772810868713728800,4.090728759765625,0.0010652635246515274,-0.0007989476434886456,0.0003994738217443228
1772810868723609600,4.100609619140625,0.0005326317623257637,0.003462106455117464,-0.0006657897029072046
1772810868733490200,4.110490234375,-0.0005326317623257637,0.001864211168140173,-0.001731053227558732
1772810868743371000,4.12037109375,0,0.0007989476434886456,-0.0006657897029072046
1772810868753251600,4.13025146484375,-0.0026631588116288185,-0.0007989476434886456,0.0009321055840700865
1772810868763132400,4.14013232421875,-0.0005326317623257637,-0.0013315794058144093,0.0003994738217443228
1772810868773013000,4.150012939453125,0.001597895286977291,-0.00026631588116288185,-0.0006657897029072046
1772810868782893800,4.159893798828125,0.002130527049303055,0.0029294746927917004,-0.0011984214652329683
1772810868792774400,4.1697744140625,0,-0.0007989476434886456,-0.00013315794058144093
1772810868802655200,4.1796552734375,-0.001597895286977291,-0.00026631588116288185,-0.00013315794058144093
1772810868812535800,4.189535888671875,0.0005326317623257637,-0.0007989476434886456,0.0009321055840700865
1772810868822416600,4.199416748046875,0.0005326317623257637,0.0013315794058144093,-0.0006657897029072046
1772810868832297200,4.209297119140625,-0.0010652635246515274,-0.0013315794058144093,-0.0011984214652329683
1772810868842178000,4.219177978515625,-0.001597895286977291,0.0007989476434886456,0.0003994738217443228
1772810868852058600,4.22905859375,-0.0005326317623257637,-0.00026631588116288185,0.0014647373463958502
1772810868861939500,4.238939453125,0.0010652635246515274,0.001864211168140173,0.0003994738217443228
1772810868871820000,4.248820068359375,0,0.0007989476434886456,0.0003994738217443228
1772810868881700900,4.258700927734375,0,0.0007989476434886456,-0.0006657897029072046
1772810868891581400,4.26858154296875,-0.0010652635246515274,0.0007989476434886456,-0.0011984214652329683
1772810868901462300,4.278462158203125,0.0005326317623257637,-0.0007989476434886456,-0.0006657897029072046
1772810868911342800,4.2883427734375,0.0005326317623257637,0.00026631588116288185,0.0025300008710473776
1772810868921223700,4.2982236328125,0.0005326317623257637,-0.001864211168140173,-0.0006657897029072046
1772810868931104300,4.308104248046875,0,0.00026631588116288185,0.0014647373463958502
1772810868940985000,4.317985107421875,-0.0005326317623257637,-0.0013315794058144093,0.0003994738217443228
1772810868950865700,4.32786572265625,0.0005326317623257637,-0.001864211168140173,-0.0006657897029072046
1772810868960746500,4.33774658203125,-0.0005326317623257637,-0.00026631588116288185,-0.0006657897029072046
1772810868970627000,4.347626953125,0,-0.0013315794058144093,-0.0006657897029072046
1772810868980508000,4.3575078125,0,0.0007989476434886456,-0.0006657897029072046
1772810868990388500,4.367388427734375,0,-0.001864211168140173,-0.0006657897029072046
1772810869000269300,4.377269287109375,0.0010652635246515274,0.0007989476434886456,-0.0006657897029072046
1772810869010150400,4.387150390625,0.0005326317623257637,0.0013315794058144093,0.001997369108721614
1772810869020031500,4.397031494140625,-0.0005326317623257637,-0.00026631588116288185,0.0003994738217443228
1772810869029912600,4.40691259765625,-0.002130527049303055,-0.0029294746927917004,-0.00013315794058144093
1772810869039793700,4.416793701171875,0,-0.00026631588116288185,-0.0011984214652329683
1772810869049674500,4.426674560546875,-0.0005326317623257637,0.00026631588116288185,-0.0011984214652329683
1772810869059555600,4.4365556640625,0.0010652635246515274,0.0013315794058144093,-0.0011984214652329683
1772810869069436700,4.446436767578125,0,-0.0007989476434886456,0.0003994738217443228
1772810869079317800,4.45631787109375,-0.0010652635246515274,-0.0023968429304659367,0.0009321055840700865
1772810869089198800,4.46619873046875,0,0.0029294746927917004,-0.00013315794058144093
1772810869099080000,4.476079833984375,0.002130527049303055,0.00026631588116288185,0.0009321055840700865
1772810869108960800,4.485960693359375,-0.0005326317623257637,0.00026631588116288185,-0.00013315794058144093
1772810869118841900,4.495841796875,0,0.0023968429304659367,-0.00013315794058144093
1772810869128723000,4.505722900390625,-0.0005326317623257637,0.001864211168140173,-0.0011984214652329683
1772810869148485000,4.525485107421875,0,0.001864211168140173,-0.0006657897029072046
1772810869158366000,4.535365966796875,0.001597895286977291,0.0007989476434886456,0.0009321055840700865
1772810869168247000,4.5452470703125,-0.0005326317623257637,-0.001864211168140173,-0.0006657897029072046
1772810869178128100,4.555128173828125,-0.0005326317623257637,-0.0007989476434886456,-0.0006657897029072046
1772810869188009200,4.56500927734375,0,-0.0023968429304659367,-0.0011984214652329683
1772810869197890300,4.574890380859375,-0.0010652635246515274,0.00026631588116288185,-0.001731053227558732
1772810869207771400,4.584771484375,0.0005326317623257637,-0.00026631588116288185,-0.00013315794058144093
1772810869217652200,4.59465234375,0,-0.0013315794058144093,-0.00013315794058144093
1772810869227533300,4.604533203125,0,0.0007989476434886456,-0.00013315794058144093
1772810869237414400,4.614414306640625,0,-0.0013315794058144093,-0.00013315794058144093
1772810869257176600,4.634176513671875,-0.0010652635246515274,0.0013315794058144093,-0.00013315794058144093
1772810869267057400,4.644057373046875,0,0.003462106455117464,0.0003994738217443228
1772810869276938500,4.6539384765625,0,0.0007989476434886456,-0.00013315794058144093
1772810869286819600,4.663819580078125,-0.0005326317623257637,-0.0013315794058144093,-0.0006657897029072046
1772810869296700700,4.67370068359375,-0.0010652635246515274,-0.0013315794058144093,-0.00013315794058144093
1772810869306581800,4.683581787109375,0,-0.00026631588116288185,-0.0006657897029072046
1772810869316462800,4.693462890625,0.0005326317623257637,0.00026631588116288185,-0.00013315794058144093
1772810869326343700,4.70334375,0,-0.0013315794058144093,-0.0006657897029072046
1772810869336224800,4.713224853515625,0,0.00026631588116288185,-0.0006657897029072046
1772810869346105900,4.72310595703125,-0.0005326317623257637,-0.0007989476434886456,-0.0011984214652329683
1772810869355987000,4.732987060546875,-0.002130527049303055,-0.00026631588116288185,-0.00013315794058144093
1772810869365868000,4.742867919921875,-0.0005326317623257637,0.00026631588116288185,-0.0006657897029072046
1772810869375748900,4.752748779296875,0.0005326317623257637,0.0023968429304659367,-0.001731053227558732
1772810869395511000,4.772510986328125,-0.0005326317623257637,-0.0007989476434886456,0.0003994738217443228
1772810869405392100,4.78239208984375,0,0.0013315794058144093,-0.00013315794058144093
1772810869415273200,4.792273193359375,0,0.0007989476434886456,0.0003994738217443228
1772810869425154300,4.802154296875,-0.0005326317623257637,0.0007989476434886456,0.0003994738217443228
1772810869435035100,4.81203515625,-0.0026631588116288185,0.0023968429304659367,-0.00013315794058144093
1772810869444916200,4.821916259765625,0,-0.00026631588116288185,-0.00013315794058144093
1772810869454797300,4.83179736328125,-0.0005326317623257637,0.0007989476434886456,0.0009321055840700865
1772810869464678400,4.841678466796875,0.0005326317623257637,0.0007989476434886456,0.0009321055840700865
1772810869474559500,4.8515595703125,0,-0.00026631588116288185,0.0003994738217443228
1772810869484440600,4.861440673828125,0,0.0007989476434886456,0.0003994738217443228
1772810869494321400,4.8713212890625,0.0005326317623257637,-0.00026631588116288185,-0.00013315794058144093
1772810869504202500,4.881202392578125,0,-0.00026631588116288185,-0.00013315794058144093
1772810869523964200,4.900964111328125,0.001597895286977291,-0.0013315794058144093,0.0003994738217443228
1772810869533845000,4.910844970703125,0.0005326317623257637,0.0007989476434886456,-0.001731053227558732
1772810869543726000,4.92072607421875,-0.001597895286977291,-0.0013315794058144093,-0.0011984214652329683
1772810869553607000,4.93060693359375,-0.0005326317623257637,0.0013315794058144093,0.0009321055840700865
1772810869563487700,4.94048779296875,0,0.00026631588116288185,-0.0006657897029072046
1772810869573368600,4.95036865234375,0.0005326317623257637,-0.0007989476434886456,-0.00013315794058144093
1772810869583249700,4.960249755859375,-0.0005326317623257637,0.0013315794058144093,0.0003994738217443228
1772810869593130500,4.970130615234375,0,0.00026631588116288185,-0.00013315794058144093
1772810869603011300,4.98001123046875,-0.0005326317623257637,0.0013315794058144093,0.0003994738217443228
1772810869612892200,4.98989208984375,0.0010652635246515274,-0.0007989476434886456,-0.00013315794058144093
1772810869622773200,4.999773193359375,0,0.001864211168140173,-0.0022636849898844957
1772810869632654000,5.009654052734375,-0.0005326317623257637,0.0007989476434886456,0.0009321055840700865
1772810869642535000,5.019534912109375,0.0005326317623257637,0.0007989476434886456,-0.0006657897029072046
1772810869652415700,5.029415771484375,0,0.001864211168140173,0.0009321055840700865
1772810869662296800,5.039296875,-0.0005326317623257637,-0.0007989476434886456,0.0009321055840700865
1772810869672177700,5.049177734375,0.0005326317623257637,0.001864211168140173,-0.0011984214652329683
1772810869682058500,5.05905859375,-0.0005326317623257637,-0.00026631588116288185,-0.0006657897029072046
1772810869691939300,5.068939208984375,0,0.0007989476434886456,-0.00013315794058144093
1772810869701820400,5.0788203125,-0.0005326317623257637,-0.00026631588116288185,0.0003994738217443228
1772810869711701200,5.088701171875,0,0.00026631588116288185,-0.00013315794058144093
1772810869721582000,5.09858203125,-0.0005326317623257637,-0.001864211168140173,0.0014647373463958502
1772810869731463000,5.108462890625,-0.0010652635246515274,-0.0013315794058144093,-0.0006657897029072046
1772810869741344000,5.118343994140625,0.0005326317623257637,0.0007989476434886456,-0.0006657897029072046
1772810869751224800,5.128224853515625,-0.001597895286977291,-0.00026631588116288185,0.0003994738217443228
1772810869761105700,5.138105712890625,0.0005326317623257637,0.00026631588116288185,-0.0022636849898844957
1772810869770986500,5.147986572265625,0,-0.0007989476434886456,0.0003994738217443228
1772810869780867600,5.15786767578125,-0.0010652635246515274,-0.00026631588116288185,-0.00013315794058144093
1772810869790748400,5.16774853515625,0.0005326317623257637,-0.00026631588116288185,-0.00013315794058144093
1772810869800629200,5.177629150390625,0,-0.0023968429304659367,-0.0006657897029072046
1772810869810510000,5.187510009765625,0.0010652635246515274,0.0013315794058144093,0.0003994738217443228
1772810869820391200,5.19739111328125,0,0.0007989476434886456,-0.0011984214652329683
1772810869830272000,5.20727197265625,0.0005326317623257637,0.0029294746927917004,0.0014647373463958502
1772810869840152800,5.21715283203125,0.001597895286977291,-0.0013315794058144093,0.0003994738217443228
1772810869850033700,5.22703369140625,-0.0010652635246515274,0.00026631588116288185,0.0009321055840700865
1772810869859914800,5.236914794921875,-0.0005326317623257637,0.00026631588116288185,0.0009321055840700865
1772810869869795600,5.246795654296875,0,0.00026631588116288185,0.0003994738217443228
1772810869879676400,5.256676513671875,0.002130527049303055,0.00026631588116288185,-0.0011984214652329683
1772810869889557500,5.2665576171875,0.0005326317623257637,-0.00026631588116288185,0.0003994738217443228
1772810869899438300,5.276438232421875,-0.0010652635246515274,-0.0007989476434886456,-0.00013315794058144093
1772810869909319200,5.286319091796875,-0.0005326317623257637,-0.00026631588116288185,-0.00013315794058144093
1772810869919200000,5.296199951171875,0.0010652635246515274,0.0007989476434886456,-0.00013315794058144093
1772810869929081000,5.3060810546875,0,-0.0005326317623257637,0.0010652635246515274
1772810869938962000,5.3159619140625,0,0.0010652635246515274,0.0005326317623257637
1772810869948842800,5.3258427734375,0,-0.001597895286977291,0.0010652635246515274
1772810869958723600,5.3357236328125,-0.0010652635246515274,0,0
1772810869968604700,5.345604736328125,0.0005326317623257637,0.0005326317623257637,0
1772810869978485500,5.355485595703125,0.0005326317623257637,0.0005326317623257637,0
1772810869988366300,5.365366455078125,-0.0005326317623257637,-0.0005326317623257637,0
1772810869998247200,5.3752470703125,0.002130527049303055,-0.002130527049303055,0
1772810870008128300,5.385128173828125,0.0005326317623257637,0.001597895286977291,-0.0010652635246515274
1772810870018009300,5.39500927734375,-0.0005326317623257637,-0.0005326317623257637,0
1772810870027890400,5.404890380859375,0.0005326317623257637,-0.0026631588116288185,0.0005326317623257637
1772810870037771800,5.414771728515625,0.0010652635246515274,0,0.0005326317623257637
1772810870047652900,5.42465283203125,-0.0005326317623257637,0,0.0010652635246515274
1772810870057534000,5.434533935546875,0,0.001597895286977291,-0.001597895286977291
1772810870067415000,5.4444150390625,-0.001597895286977291,0.0005326317623257637,-0.001597895286977291
1772810870077296000,5.454296142578125,-0.0005326317623257637,0.0026631588116288185,0.0010652635246515274
1772810870087177200,5.46417724609375,0.0010652635246515274,-0.0005326317623257637,0
1772810870097058300,5.474058349609375,0,-0.0010652635246515274,-0.0010652635246515274
1772810870106939400,5.483939453125,0.002130527049303055,-0.0005326317623257637,0.0005326317623257637
1772810870116820500,5.493820556640625,0.0010652635246515274,0,0.0005326317623257637
1772810870126701600,5.50370166015625,0.002130527049303055,-0.0005326317623257637,0.001597895286977291
1772810870136582700,5.513582763671875,0,0.0005326317623257637,-0.0005326317623257637
1772810870146463700,5.523463623046875,-0.0005326317623257637,0.0010652635246515274,-0.0005326317623257637
1772810870156344800,5.5333447265625,0,0.0005326317623257637,0
1772810870166226000,5.543225830078125,0.0010652635246515274,-0.0010652635246515274,0
1772810870176107000,5.55310693359375,0.001597895286977291,0.0005326317623257637,0
1772810870185988000,5.562988037109375,-0.0010652635246515274,0.0005326317623257637,0.0010652635246515274
1772810870195869200,5.572869140625,-0.0005326317623257637,0.002130527049303055,-0.0010652635246515274
1772810870205750300,5.582750244140625,0.0005326317623257637,0,0
1772810870215631400,5.59263134765625,0,-0.0005326317623257637,0.0005326317623257637
1772810870225512400,5.602512451171875,-0.0010652635246515274,0.0005326317623257637,0
1772810870235393500,5.6123935546875,0,0.0010652635246515274,0.0005326317623257637
1772810870245274600,5.622274658203125,-0.001597895286977291,0.001597895286977291,0.0005326317623257637
1772810870255155700,5.63215576171875,0.0005326317623257637,-0.0005326317623257637,-0.0010652635246515274
1772810870265037000,5.642037109375,0.001597895286977291,0.0005326317623257637,0.0010652635246515274
1772810870274918100,5.651918212890625,0,-0.0005326317623257637,-0.0010652635246515274
1772810870284799200,5.66179931640625,-0.0005326317623257637,0.0026631588116288185,0
1772810870294680300,5.671680419921875,0,-0.0005326317623257637,0
1772810870304561400,5.6815615234375,0.0005326317623257637,-0.0010652635246515274,0
1772810870314442500,5.6914423828125,0.0005326317623257637,-0.0010652635246515274,0.0005326317623257637
1772810870324323600,5.701323486328125,0,0,0
1772810870334204700,5.71120458984375,-0.0010652635246515274,-0.0026631588116288185,0
1772810870344085800,5.721085693359375,-0.0010652635246515274,0.0005326317623257637,0
1772810870353966800,5.730966796875,0.0010652635246515274,0.001597895286977291,0.0005326317623257637
1772810870363848000,5.740847900390625,-0.0005326317623257637,0,-0.0005326317623257637
1772810870373729000,5.75072900390625,0,-0.003195790573954582,0.0005326317623257637
1772810870383610000,5.760610107421875,-0.0005326317623257637,0,0.0005326317623257637
1772810870393491200,5.7704912109375,0.0005326317623257637,0.001597895286977291,-0.001597895286977291
1772810870403372300,5.780372314453125,-0.0005326317623257637,-0.0005326317623257637,0.0005326317623257637
1772810870413253400,5.79025341796875,0,-0.0005326317623257637,-0.0005326317623257637
1772810870423134500,5.800134521484375,-0.0005326317623257637,-0.0005326317623257637,-0.0005326317623257637
1772810870433015600,5.810015625,-0.0005326317623257637,0.0005326317623257637,0.0005326317623257637
1772810870442896600,5.819896728515625,0,-0.0005326317623257637,-0.0005326317623257637
1772810870452777700,5.82977783203125,0,-0.0010652635246515274,0.0010652635246515274
1772810870462658800,5.839658935546875,0.0005326317623257637,-0.0005326317623257637,-0.0005326317623257637
1772810870472540200,5.8495400390625,0.0010652635246515274,-0.0005326317623257637,0
1772810870482421200,5.859421142578125,0.0005326317623257637,-0.003195790573954582,-0.0005326317623257637
1772810870492302300,5.86930224609375,-0.0005326317623257637,-0.001597895286977291,0.0005326317623257637
1772810870502183200,5.87918310546875,0.002130527049303055,-0.0005326317623257637,-0.0010652635246515274
1772810870512064300,5.889064208984375,-0.0005326317623257637,0.0010652635246515274,0.0005326317623257637
1772810870521945300,5.8989453125,0.0005326317623257637,-0.001597895286977291,0.0010652635246515274
1772810870531826400,5.908826416015625,-0.001597895286977291,-0.0005326317623257637,0.001597895286977291
1772810870541707500,5.91870751953125,0.0005326317623257637,0.002130527049303055,-0.0005326317623257637
1772810870551588600,5.928588623046875,0.0005326317623257637,0.0005326317623257637,0.0010652635246515274
1772810870561470000,5.938469970703125,0,0.0005326317623257637,0
1772810870571351000,5.94835107421875,0,0.001597895286977291,0
1772810870581232000,5.958232177734375,-0.0005326317623257637,-0.0005326317623257637,0
1772810870591113200,5.96811328125,-0.0010652635246515274,-0.0005326317623257637,-0.0010652635246515274
1772810870600994300,5.977994384765625,-0.0005326317623257637,0,0.0005326317623257637
1772810870610875400,5.98787548828125,0.001597895286977291,0.0005326317623257637,-0.0005326317623257637
1772810870620756500,5.997756591796875,0,0.0010652635246515274,0.0010652635246515274
1772810870630637600,6.007637451171875,0.001597895286977291,0.0010652635246515274,0
1772810870640518700,6.0175185546875,-0.0010652635246515274,0.0005326317623257637,0.0005326317623257637
1772810870650399700,6.027399658203125,0,0,-0.0005326317623257637
1772810870660280800,6.03728076171875,0,-0.0010652635246515274,0
1772810870670162000,6.047161865234375,-0.0005326317623257637,0,-0.0005326317623257637
1772810870680043000,6.05704296875,-0.0010652635246515274,0.0010652635246515274,0.0010652635246515274
1772810870689924000,6.066924072265625,-0.0005326317623257637,-0.001597895286977291,-0.0010652635246515274
1772810870699805200,6.07680517578125,0.0010652635246515274,0.001597895286977291,0
1772810870709686300,6.086686279296875,-0.0010652635246515274,0.001597895286977291,0
1772810870719567400,6.0965673828125,0.002130527049303055,-0.001597895286977291,-0.0010652635246515274
1772810870729448400,6.106448486328125,0,0,0
1772810870739329500,6.11632958984375,0,-0.002130527049303055,0.0010652635246515274
1772810870749210600,6.126210693359375,0.0010652635246515274,0.001597895286977291,0.002130527049303055
1772810870759091700,6.136091796875,0.001597895286977291,0,-0.0005326317623257637
1772810870768972800,6.145972900390625,0,0,0.0010652635246515274
1772810870778854000,6.15585400390625,0.0005326317623257637,0.001597895286977291,0
1772810870788735000,6.16573486328125,0,0.002130527049303055,0.0010652635246515274
1772810870798616000,6.175615966796875,0,-0.0005326317623257637,-0.0010652635246515274
1772810870808497200,6.1854970703125,-0.0005326317623257637,-0.002130527049303055,0.0005326317623257637
1772810870818378200,6.195378173828125,-0.0005326317623257637,-0.0010652635246515274,0
1772810870828259300,6.20525927734375,0.0005326317623257637,0,-0.0005326317623257637
1772810870838140400,6.215140380859375,0,-0.0005326317623257637,0.0005326317623257637
1772810870848021500,6.225021484375,0.002130527049303055,0.0005326317623257637,0.002130527049303055
1772810870857902600,6.234902587890625,0.0005326317623257637,-0.001597895286977291,-0.001597895286977291
1772810870867783700,6.24478369140625,-0.0005326317623257637,0.0005326317623257637,0.0005326317623257637
1772810870877664800,6.254664794921875,0.0005326317623257637,0.0005326317623257637,0.0005326317623257637
1772810870887545900,6.2645458984375,-0.0005326317623257637,0.0005326317623257637,0
1772810870897427000,6.274427001953125,-0.0005326317623257637,0.001597895286977291,0
1772810870917189400,6.294189453125,0.0010652635246515274,0.002130527049303055,-0.0005326317623257637
1772810870927070500,6.304070556640625,0,-0.0010652635246515274,0.0005326317623257637
1772810870936951600,6.31395166015625,-0.002130527049303055,-0.001597895286977291,0.0005326317623257637
1772810870946832600,6.32383251953125,-0.0010652635246515274,0,0
1772810870956713700,6.333713623046875,0.0010652635246515274,-0.0005326317623257637,0.0005326317623257637
1772810870966594800,6.3435947265625,0.0010652635246515274,-0.0005326317623257637,0.0010652635246515274
1772810870976476000,6.353475830078125,-0.0005326317623257637,0.0010652635246515274,0
1772810870986357000,6.36335693359375,0,0.001597895286977291,0
1772810870996237800,6.37323779296875,-0.0005326317623257637,-0.0010652635246515274,0.001597895286977291
1772810871006118700,6.38311865234375,0.0026631588116288185,-0.002130527049303055,0.0010652635246515274
1772810871015999200,6.392999267578125,0,-0.0005326317623257637,0.0010652635246515274
1772810871025880000,6.402880126953125,-0.002130527049303055,0.002130527049303055,0
1772810871035760600,6.4127607421875,0.002130527049303055,-0.001597895286977291,-0.0026631588116288185
1772810871045641500,6.422641357421875,-0.0010652635246515274,-0.001597895286977291,0.0010652635246515274
1772810871055522000,6.43252197265625,0.0005326317623257637,0,0
1772810871065402600,6.442402587890625,0,-0.0005326317623257637,0.0005326317623257637
1772810871075283500,6.452283447265625,-0.0010652635246515274,0.0005326317623257637,0.0005326317623257637
1772810871085164000,6.4621640625,-0.0005326317623257637,0.0010652635246515274,-0.0005326317623257637
1772810871095044900,6.472044921875,-0.001597895286977291,-0.001597895286977291,-0.0010652635246515274
1772810871104925400,6.481925537109375,-0.0005326317623257637,0.0005326317623257637,0.0005326317623257637
1772810871114806300,6.49180615234375,0.0005326317623257637,0,0.0005326317623257637
1772810871124686800,6.501686767578125,0.0010652635246515274,0.0010652635246515274,-0.001597895286977291
1772810871144448300,6.5214482421875,-0.0010652635246515274,0.002130527049303055,0.0010652635246515274
1772810871154328800,6.531328857421875,0,0.0005326317623257637,0
1772810871164209700,6.541209716796875,-0.001597895286977291,0,-0.0010652635246515274
1772810871174090200,6.55109033203125,-0.0005326317623257637,0.00426105409860611,-0.001597895286977291
1772810871183971000,6.56097119140625,0.0005326317623257637,0,-0.0005326317623257637
1772810871193851600,6.5708515625,0,0.002130527049303055,0.0005326317623257637
1772810871203732500,6.580732421875,0.0005326317623257637,0,0
1772810871213613000,6.590613037109375,0,0,0.0010652635246515274
1772810871223493600,6.60049365234375,-0.0010652635246515274,0,0.0010652635246515274
1772810871233374500,6.61037451171875,0.0005326317623257637,-0.0010652635246515274,-0.0005326317623257637
1772810871243255000,6.620255126953125,0,0.0010652635246515274,-0.0005326317623257637
1772810871253136000,6.630135986328125,0.001597895286977291,0,0.0005326317623257637
1772810871263016400,6.640016357421875,-0.0005326317623257637,-0.002130527049303055,0.0010652635246515274
1772810871272897300,6.649897216796875,-0.001597895286977291,0.0005326317623257637,0.0005326317623257637
1772810871292658400,6.669658447265625,0,-0.0010652635246515274,-0.0005326317623257637
1772810871302539300,6.679539306640625,-0.0005326317623257637,0.0026631588116288185,0
1772810871312419800,6.689419921875,-0.0005326317623257637,0,-0.0010652635246515274
1772810871322300700,6.69930078125,0.0005326317623257637,0,-0.0005326317623257637
1772810871332181200,6.70918115234375,0,0.0005326317623257637,-0.001597895286977291
1772810871342062000,6.71906201171875,-0.001597895286977291,0,0.0005326317623257637
1772810871351942700,6.728942626953125,0,-0.0005326317623257637,-0.001597895286977291
1772810871361823200,6.7388232421875,0.0010652635246515274,-0.0010652635246515274,0.0010652635246515274
1772810871371704000,6.7487041015625,0.0005326317623257637,0.0010652635246515274,0
1772810871381584600,6.758584716796875,-0.0010652635246515274,0.0005326317623257637,-0.0005326317623257637
1772810871391465500,6.768465576171875,0.001597895286977291,-0.0005326317623257637,0.0005326317623257637
1772810871401346000,6.778345947265625,0.0010652635246515274,-0.0010652635246515274,-0.0005326317623257637
1772810871411226600,6.7882265625,-0.0005326317623257637,0.0010652635246515274,0.0005326317623257637
1772810871421107500,6.798107421875,0.0010652635246515274,-0.0005326317623257637,0.0026631588116288185
1772810871430988000,6.807988037109375,0,0.0010652635246515274,0.0005326317623257637
1772810871440868900,6.817868896484375,-0.0010652635246515274,-0.0010652635246515274,-0.0010652635246515274
1772810871450749400,6.82774951171875,0.0010652635246515274,-0.0010652635246515274,0.0005326317623257637
1772810871460630300,6.83763037109375,-0.0005326317623257637,0,-0.0005326317623257637
1772810871470510800,6.8475107421875,0.001597895286977291,-0.0005326317623257637,0
1772810871480391400,6.857391357421875,-0.0005326317623257637,0.002130527049303055,0.0005326317623257637
1772810871490272300,6.867272216796875,0.001597895286977291,-0.001597895286977291,0.001597895286977291
1772810871500153000,6.877153076171875,0.0005326317623257637,-0.003195790573954582,0.001597895286977291
1772810871510034000,6.887033935546875,-0.0005326317623257637,0,0
1772810871519914800,6.896914794921875,0,0.002130527049303055,0.0005326317623257637
1772810871529795600,6.906795654296875,-0.0005326317623257637,-0.0005326317623257637,0.0010652635246515274
1772810871539676400,6.916676513671875,-0.001597895286977291,0.0010652635246515274,0.0005326317623257637
1772810871549557500,6.9265576171875,0,0,0.0005326317623257637
1772810871559438300,6.936438232421875,0,0.0005326317623257637,0.0005326317623257637
1772810871569319200,6.946319091796875,-0.001597895286977291,0.0005326317623257637,0.0005326317623257637
1772810871579200000,6.956199951171875,0.002130527049303055,0,0.0005326317623257637
1772810871589080800,6.966080810546875,0.0010652635246515274,0,-0.0005326317623257637
1772810871598961700,6.975961669921875,-0.003195790573954582,0.0010652635246515274,-0.0010652635246515274
1772810871608842800,6.9858427734375,-0.0010652635246515274,-0.0010652635246515274,-0.0010652635246515274
1772810871618723600,6.9957236328125,-0.0005326317623257637,0.002130527049303055,0.0010652635246515274
1772810871628604400,7.0056044921875,-0.0005326317623257637,0.002130527049303055,-0.0010652635246515274
1772810871638485200,7.0154853515625,-0.0010652635246515274,0,0
1772810871648366000,7.025365966796875,-0.0005326317623257637,0.0005326317623257637,0.002130527049303055
1772810871658247000,7.035246826171875,-0.0005326317623257637,0.0005326317623257637,0.0005326317623257637
1772810871668128000,7.0451279296875,0.0005326317623257637,-0.0010652635246515274,-0.0010652635246515274
1772810871678008800,7.0550087890625,0.0005326317623257637,0.0010652635246515274,0.0005326317623257637
1772810871687889700,7.0648896484375,-0.0005326317623257637,-0.0010652635246515274,-0.0010652635246515274
1772810871697770500,7.0747705078125,-0.0010652635246515274,-0.0005326317623257637,-0.0005326317623257637
1772810871707651300,7.0846513671875,0.0010652635246515274,0.0010652635246515274,-0.0006657897029072046
1772810871717532200,7.0945322265625,0.0005326317623257637,0.001597895286977291,0.0003994738217443228
1772810871727413200,7.104413330078125,0,0.001597895286977291,0.0014647373463958502
1772810871737294000,7.114294189453125,0.0005326317623257637,0,-0.001731053227558732
1772810871747175000,7.1241748046875,0,-0.001597895286977291,-0.0006657897029072046
1772810871757055700,7.1340556640625,0.0010652635246515274,0.003195790573954582,-0.0006657897029072046
1772810871766936600,7.1439365234375,0.002130527049303055,0,-0.0006657897029072046
1772810871776817400,7.1538173828125,0,0,-0.0006657897029072046
1772810871786698500,7.163698486328125,0.0005326317623257637,0,0.0003994738217443228
1772810871796579300,7.173579345703125,-0.0010652635246515274,0.0010652635246515274,0.0025300008710473776
1772810871806460200,7.183460205078125,-0.0005326317623257637,0.0005326317623257637,-0.00013315794058144093
1772810871816341000,7.193341064453125,-0.001597895286977291,0,0.0003994738217443228
1772810871826221800,7.203221923828125,0,-0.0005326317623257637,-0.00013315794058144093
1772810871836103000,7.21310302734375,-0.0005326317623257637,0.0010652635246515274,-0.0011984214652329683
1772810871845983700,7.222983642578125,0.0010652635246515274,-0.0005326317623257637,0.0003994738217443228
1772810871855864600,7.232864501953125,-0.0010652635246515274,0.0010652635246515274,-0.00013315794058144093
1772810871865745400,7.242745361328125,-0.0005326317623257637,0,0.0003994738217443228
1772810871875626200,7.252626220703125,-0.001597895286977291,-0.001597895286977291,-0.0011984214652329683
1772810871885507000,7.262507080078125,-0.0010652635246515274,-0.0005326317623257637,0.0009321055840700865
1772810871895388200,7.27238818359375,0.002130527049303055,-0.0005326317623257637,0.0003994738217443228
1772810871905269000,7.28226904296875,0.0005326317623257637,0.0010652635246515274,0.0009321055840700865
1772810871915149800,7.29214990234375,0.0005326317623257637,0.003728422336280346,-0.0006657897029072046
1772810871925030700,7.30203076171875,0,-0.001597895286977291,0.0003994738217443228
1772810871934911500,7.311911376953125,0.0005326317623257637,-0.002130527049303055,0.0003994738217443228
1772810871944792300,7.321792236328125,0.002130527049303055,0,0.0003994738217443228
1772810871954673400,7.33167333984375,-0.0010652635246515274,-0.002130527049303055,0.0003994738217443228
1772810871964554200,7.34155419921875,0,-0.001597895286977291,-0.00013315794058144093
1772810871974435000,7.35143505859375,0.0005326317623257637,-0.0010652635246515274,0.0003994738217443228
1772810871984316000,7.36131591796875,-0.0005326317623257637,0.001597895286977291,0.0009321055840700865
1772810871994196700,7.37119677734375,-0.0010652635246515274,-0.002130527049303055,-0.00013315794058144093
1772810872004077800,7.381077880859375,0,-0.0005326317623257637,0.0003994738217443228
1772810872013959000,7.390958984375,-0.001597895286977291,0.0005326317623257637,0.0003994738217443228
1772810872023840000,7.400840087890625,0.0005326317623257637,0.0005326317623257637,0.0003994738217443228
1772810872033721000,7.41072119140625,0,0.0010652635246515274,-0.00013315794058144093
1772810872043602200,7.420602294921875,0,-0.0005326317623257637,0.0003994738217443228
1772810872053483300,7.430483154296875,0.0010652635246515274,0,-0.00013315794058144093
1772810872063364000,7.440364013671875,0.0005326317623257637,0.001597895286977291,-0.00013315794058144093
1772810872073245200,7.4502451171875,-0.0010652635246515274,-0.0010652635246515274,-0.00013315794058144093
1772810872083126300,7.460126220703125,0.0005326317623257637,-0.0026631588116288185,0.0009321055840700865
1772810872093007400,7.47000732421875,0.0010652635246515274,-0.0005326317623257637,0.0003994738217443228
1772810872102888400,7.479888427734375,0.001597895286977291,0,-0.0011984214652329683
1772810872112769500,7.48976953125,0,0,-0.0006657897029072046
1772810872122650600,7.499650634765625,-0.0010652635246515274,-0.0005326317623257637,0.0003994738217443228
1772810872132531700,7.50953173828125,0.0005326317623257637,0.0010652635246515274,0.0009321055840700865
1772810872142412800,7.519412841796875,0.0005326317623257637,-0.0005326317623257637,0.0014647373463958502
1772810872152293600,7.529293701171875,0,0,-0.0006657897029072046
1772810872162174700,7.5391748046875,0,-0.001597895286977291,0.0009321055840700865
1772810872172055800,7.549055908203125,-0.0005326317623257637,-0.002130527049303055,-0.0011984214652329683
1772810872181937000,7.55893701171875,0,0.0005326317623257637,-0.00013315794058144093
1772810872191818000,7.56881787109375,0.0010652635246515274,-0.002130527049303055,-0.0006657897029072046
1772810872201699000,7.578698974609375,-0.0005326317623257637,-0.001597895286977291,-0.0006657897029072046
1772810872211580200,7.588580078125,0.0005326317623257637,0,-0.0006657897029072046
1772810872221461200,7.598461181640625,-0.0010652635246515274,0.0010652635246515274,0.0009321055840700865
1772810872231342300,7.60834228515625,-0.0005326317623257637,-0.0005326317623257637,0.0014647373463958502
1772810872241223200,7.61822314453125,-0.001597895286977291,0,-0.001731053227558732
1772810872251104300,7.628104248046875,0.0010652635246515274,0,-0.00013315794058144093
1772810872260985300,7.6379853515625,-0.001597895286977291,-0.0010652635246515274,-0.0011984214652329683
1772810872270866400,7.647866455078125,-0.0010652635246515274,-0.0005326317623257637,0.0003994738217443228
1772810872280747500,7.65774755859375,0.0005326317623257637,-0.0026631588116288185,0.0003994738217443228
1772810872290628600,7.667628662109375,-0.001597895286977291,-0.0010652635246515274,-0.0006657897029072046
1772810872300509700,7.677509765625,-0.0010652635246515274,0,0.0009321055840700865
1772810872310390800,7.687390869140625,0.0010652635246515274,-0.0005326317623257637,-0.0011984214652329683
1772810872320271600,7.697271728515625,0.0005326317623257637,-0.002130527049303055,-0.00013315794058144093
1772810872330152700,7.707152587890625,0.0010652635246515274,-0.0010652635246515274,0.0009321055840700865
1772810872340033800,7.71703369140625,-0.0005326317623257637,-0.001597895286977291,0.0009321055840700865
1772810872349915000,7.726914794921875,0.0010652635246515274,0.001597895286977291,0.0009321055840700865
1772810872359796000,7.7367958984375,0.0005326317623257637,0,-0.0006657897029072046
1772810872369677000,7.746677001953125,0.0010652635246515274,-0.0005326317623257637,0.0003994738217443228
1772810872379558100,7.75655810546875,0.001597895286977291,0,0.0003994738217443228
1772810872389439200,7.766439208984375,0,-0.002130527049303055,-0.001731053227558732
1772810872399320000,7.776320068359375,0.0010652635246515274,0,-0.00013315794058144093
1772810872409201200,7.786201171875,0.0005326317623257637,-0.0010652635246515274,0.0003994738217443228
1772810872419082200,7.796082275390625,0.0005326317623257637,0.0005326317623257637,0.0014647373463958502
1772810872428963300,7.80596337890625,0.001597895286977291,-0.0010652635246515274,0.001997369108721614
1772810872438844400,7.815844482421875,-0.0010652635246515274,-0.001597895286977291,0.0003994738217443228
1772810872448725500,7.8257255859375,-0.0010652635246515274,0.001597895286977291,-0.0006657897029072046
1772810872458606600,7.835606689453125,0.0005326317623257637,-0.001597895286977291,0.0003994738217443228
1772810872468487700,7.84548779296875,-0.0005326317623257637,0,0.0009321055840700865
1772810872478368800,7.85536865234375,0.001597895286977291,-0.002130527049303055,-0.0006657897029072046
1772810872488249600,7.86524951171875,0.0005326317623257637,-0.0010652635246515274,-0.00013315794058144093
1772810872498130700,7.875130615234375,-0.0010652635246515274,-0.0005326317623257637,-0.001731053227558732
1772810872508012300,7.88501220703125,-0.0005326317623257637,-0.002130527049303055,-0.00013315794058144093
1772810872517893600,7.8948935546875,0.002130527049303055,-0.0026631588116288185,-0.0006657897029072046
1772810872527775000,7.90477490234375,0,-0.001597895286977291,0.0009321055840700865
1772810872537656300,7.91465625,-0.0005326317623257637,0.0005326317623257637,-0.00013315794058144093
1772810872547537700,7.92453759765625,-0.0010652635246515274,0,0.0003994738217443228
1772810872557419000,7.9344189453125,-0.0010652635246515274,-0.001597895286977291,0.0009321055840700865
1772810872567300600,7.944300537109375,0.0005326317623257637,0.0005326317623257637,0.0009321055840700865
1772810872577182000,7.954181884765625,0,-0.002130527049303055,0.0003994738217443228
1772810872587063300,7.964063232421875,0,0,-0.00013315794058144093
1772810872596944600,7.973944580078125,0,-0.0005326317623257637,-0.00013315794058144093
1772810872606826000,7.983825927734375,0.0026631588116288185,-0.0005326317623257637,-0.0006657897029072046
1772810872616707300,7.993707275390625,-0.0005326317623257637,0.001597895286977291,0.0003994738217443228
1772810872626588700,8.003588623046875,-0.0010652635246515274,0.0005326317623257637,-0.00013315794058144093
1772810872636470000,8.013469970703126,0.0005326317623257637,0.0010652635246515274,-0.0006657897029072046
1772810872646351600,8.0233515625,0.0005326317623257637,-0.0010652635246515274,-0.0006657897029072046
1772810872656233000,8.03323291015625,0.0005326317623257637,-0.001597895286977291,-0.0011984214652329683
1772810872666114300,8.0431142578125,-0.0010652635246515274,0.0005326317623257637,-0.0006657897029072046
1772810872675995600,8.05299560546875,-0.0010652635246515274,0.0010652635246515274,0.0009321055840700865
1772810872685877000,8.062876953125,-0.0005326317623257637,-0.001597895286977291,-0.0011984214652329683
1772810872695758300,8.07275830078125,0,-0.0010652635246515274,-0.0006657897029072046
1772810872705639700,8.0826396484375,-0.0005326317623257637,0,-0.0027963167522102594
1772810872715521300,8.092521240234374,0,0.0005326317623257637,0.0009321055840700865
1772810872725402600,8.102402587890625,0,0.001597895286977291,-0.0006657897029072046
1772810872735284000,8.112283935546875,0,-0.0010652635246515274,0.0009321055840700865
1772810872745165300,8.122165283203126,-0.0010652635246515274,-0.002130527049303055,-0.00013315794058144093
1772810872755046700,8.132046630859374,0.0010652635246515274,0.0005326317623257637,-0.0006657897029072046
1772810872764928000,8.141927978515625,-0.001597895286977291,0.0005326317623257637,-0.00013315794058144093
1772810872774809300,8.151809326171875,0,0.001597895286977291,-0.0011984214652329683
1772810872784690700,8.161690673828126,0,0,0.0003994738217443228
1772810872794572300,8.171572265625,-0.0010652635246515274,-0.0005326317623257637,0.0003994738217443228
1772810872804453600,8.18145361328125,0,0,-0.00013315794058144093
1772810872814335000,8.1913349609375,-0.0005326317623257637,0.0010652635246515274,0.0003994738217443228
1772810872824216300,8.20121630859375,0,0.0005326317623257637,0.0003994738217443228
1772810872834097700,8.21109765625,-0.0005326317623257637,-0.0010652635246515274,-0.00013315794058144093
1772810872843979000,8.22097900390625,0,-0.0010652635246515274,-0.0022636849898844957
1772810872853860400,8.2308603515625,-0.0005326317623257637,-0.0005326317623257637,0.0009321055840700865
1772810872863742000,8.240741943359374,0.001597895286977291,0.0005326317623257637,0.0003994738217443228
1772810872873623300,8.250623291015625,0.0010652635246515274,-0.001597895286977291,0.0014647373463958502
1772810872883504600,8.260504638671875,0.0005326317623257637,0.0005326317623257637,-0.00013315794058144093
1772810872893386000,8.270385986328124,0,0.0010652635246515274,0.0003994738217443228
1772810872903267300,8.280267333984375,0.0005326317623257637,-0.002130527049303055,0.0003994738217443228
1772810872913148700,8.290148681640625,0.0005326317623257637,0,-0.0006657897029072046
1772810872923030000,8.300030029296876,0,-0.0010652635246515274,-0.00013315794058144093
1772810872932911600,8.30991162109375,0.001597895286977291,0,-0.00013315794058144093
1772810872942793000,8.31979296875,0.0005326317623257637,-0.0005326317623257637,0.0014647373463958502
1772810872952674300,8.32967431640625,0.0010652635246515274,0.0010652635246515274,-0.00013315794058144093
1772810872962555600,8.3395556640625,0.0010652635246515274,0.001597895286977291,0.0009321055840700865
1772810872972437000,8.34943701171875,0.0005326317623257637,0.0005326317623257637,0.0003994738217443228
1772810872982318300,8.359318359375,-0.0010652635246515274,-0.0005326317623257637,-0.00013315794058144093
1772810872992199700,8.36919970703125,0,0.0010652635246515274,0.0003994738217443228
1772810873002080500,8.37908056640625,-0.0005326317623257637,-0.003195790573954582,0.0009321055840700865
1772810873011961300,8.38896142578125,-0.001597895286977291,0.001597895286977291,0.0014647373463958502
1772810873021842000,8.398842041015625,0,0.001597895286977291,0.0009321055840700865
1772810873031722800,8.40872265625,0,0.0005326317623257637,-0.001731053227558732
1772810873041603300,8.418603271484375,0.0005326317623257637,-0.0005326317623257637,-0.0006657897029072046
1772810873051484200,8.428484130859376,-0.0005326317623257637,0,-0.0006657897029072046
1772810873061364700,8.43836474609375,0.0005326317623257637,-0.0005326317623257637,0.0003994738217443228
1772810873071245600,8.44824560546875,0.0010652635246515274,0.001597895286977291,0.0003994738217443228
1772810873081126100,8.458126220703125,-0.0010652635246515274,-0.0010652635246515274,-0.0006657897029072046
1772810873091007000,8.468007080078126,0.0010652635246515274,-0.0010652635246515274,-0.00013315794058144093
1772810873100887600,8.477887451171876,0.0010652635246515274,-0.0005326317623257637,0.0009321055840700865
1772810873110768400,8.487768310546874,0.002130527049303055,-0.0005326317623257637,-0.00013315794058144093
1772810873120649000,8.49764892578125,0.0010652635246515274,-0.001597895286977291,0.0009321055840700865
1772810873130529500,8.507529541015625,-0.0005326317623257637,0.001597895286977291,0.0014647373463958502
1772810873140410400,8.517410400390625,0.0010652635246515274,-0.002130527049303055,-0.0011984214652329683
1772810873150291000,8.527291015625,0.001597895286977291,0,-0.00013315794058144093
1772810873160171800,8.537171875,-0.0010652635246515274,-0.0005326317623257637,0.0003994738217443228
1772810873170052400,8.54705224609375,0.0010652635246515274,0.0010652635246515274,-0.00013315794058144093
1772810873189813800,8.566813720703125,0.001597895286977291,0,0.0003994738217443228
1772810873199694600,8.576694580078126,-0.0010652635246515274,-0.0005326317623257637,-0.0011984214652329683
1772810873209575200,8.5865751953125,-0.0010652635246515274,-0.0005326317623257637,0.0014647373463958502
1772810873219455700,8.596455810546875,0.0005326317623257637,0.0005326317623257637,-0.0011984214652329683
1772810873229336600,8.606336669921875,0.0005326317623257637,0.0010652635246515274,-0.0006657897029072046
1772810873239217200,8.616217041015625,-0.0005326317623257637,0,-0.00013315794058144093
1772810873249098000,8.626097900390626,-0.0010652635246515274,0.0005326317623257637,-0.0006657897029072046
1772810873258978600,8.635978515625,0,0.001597895286977291,-0.00013315794058144093
1772810873268859400,8.645859375,-0.0010652635246515274,0.001597895286977291,-0.0011984214652329683
1772810873278740000,8.655739990234375,0.0005326317623257637,0,0.0003994738217443228
1772810873288620800,8.665620849609375,-0.0005326317623257637,-0.0005326317623257637,0.0009321055840700865
1772810873298501400,8.67550146484375,0.0010652635246515274,0,-0.0006657897029072046
1772810873308382200,8.68538232421875,-0.0010652635246515274,0,0.0003994738217443228
1772810873318262800,8.6952626953125,-0.0010652635246515274,0,0.0014647373463958502
1772810873328143600,8.7051435546875,0.0005326317623257637,0.0005326317623257637,0.0009321055840700865
1772810873338024200,8.715024169921875,0.0005326317623257637,0,0.0009321055840700865
1772810873347904800,8.72490478515625,-0.0005326317623257637,0.001597895286977291,0.0003994738217443228
1772810873357785600,8.73478564453125,0.0010652635246515274,0.0026631588116288185,-0.0006657897029072046
1772810873367666200,8.744666259765625,-0.002130527049303055,-0.0005326317623257637,-0.00013315794058144093
1772810873377547000,8.754547119140625,-0.0010652635246515274,0.0005326317623257637,0.0003994738217443228
1772810873387427600,8.764427490234375,-0.0005326317623257637,-0.001597895286977291,0.0014647373463958502
1772810873397308400,8.774308349609376,-0.0010652635246515274,0,-0.0006657897029072046
1772810873407189000,8.78418896484375,0.0005326317623257637,-0.003195790573954582,0.001997369108721614
1772810873417069800,8.79406982421875,-0.001597895286977291,-0.0005326317623257637,-0.00013315794058144093
1772810873426950400,8.803950439453125,-0.0005326317623257637,0,-0.0006657897029072046
1772810873436831200,8.813831298828125,0.0005326317623257637,0,0.0003994738217443228
1772810873446711800,8.8237119140625,-0.0005326317623257637,-0.003195790573954582,-0.0006657897029072046
1772810873456592600,8.833592529296874,-0.0010652635246515274,0.002130527049303055,0.0003994738217443228
1772810873466473200,8.84347314453125,-0.001597895286977291,-0.002130527049303055,-0.0006657897029072046
1772810873476354000,8.85335400390625,0,0.0010652635246515274,-0.00013315794058144093
1772810873486234600,8.863234619140625,-0.0005326317623257637,0.0013315794058144093,0.0009321055840700865
1772810873496115200,8.873115234375,0,-0.0013315794058144093,0.0009321055840700865
1772810873505996000,8.88299609375,-0.0005326317623257637,-0.0007989476434886456,0.0003994738217443228
1772810873515876900,8.892876953125,-0.0026631588116288185,0.0007989476434886456,0.0009321055840700865
1772810873525757700,8.9027578125,-0.0010652635246515274,0.0007989476434886456,-0.0006657897029072046
1772810873535638500,8.912638427734375,-0.0005326317623257637,0.0007989476434886456,-0.0006657897029072046
1772810873545519000,8.92251904296875,-0.0010652635246515274,0.0007989476434886456,-0.0006657897029072046
1772810873555400000,8.93239990234375,-0.0010652635246515274,0.0023968429304659367,0.0014647373463958502
1772810873565280800,8.94228076171875,0.0005326317623257637,0.00026631588116288185,0.0014647373463958502
1772810873575161600,8.95216162109375,0,0.0013315794058144093,0.0009321055840700865
1772810873585042200,8.962042236328125,0.0005326317623257637,0.00026631588116288185,-0.0011984214652329683
1772810873594923000,8.971923095703126,-0.0005326317623257637,0.0013315794058144093,0.0009321055840700865
1772810873604803800,8.981803955078124,0.0010652635246515274,-0.0007989476434886456,-0.0011984214652329683
1772810873614684700,8.9916845703125,-0.001597895286977291,-0.0007989476434886456,0.0009321055840700865
1772810873624565500,9.0015654296875,0,0.0007989476434886456,0.0003994738217443228
1772810873634446000,9.011446044921875,-0.0026631588116288185,0.0007989476434886456,0.0003994738217443228
1772810873644327000,9.021326904296876,0.001597895286977291,0.0013315794058144093,0.0014647373463958502
1772810873654207700,9.031207763671874,0.0010652635246515274,0.0007989476434886456,0.0003994738217443228
1772810873664088600,9.041088623046875,0,-0.0007989476434886456,-0.00013315794058144093
1772810873673969200,9.05096923828125,0.0010652635246515274,0.0007989476434886456,0.001997369108721614
1772810873683850000,9.06085009765625,0,-0.00026631588116288185,0.0009321055840700865
1772810873693730800,9.070730712890626,0.0005326317623257637,-0.00026631588116288185,-0.0006657897029072046
1772810873703611600,9.080611572265624,0.0005326317623257637,0.00026631588116288185,0.0014647373463958502
1772810873713492500,9.090492431640625,-0.0005326317623257637,0.00026631588116288185,-0.0006657897029072046
1772810873723373000,9.100373046875,0,0.0007989476434886456,0.0003994738217443228
1772810873733254000,9.11025390625,0,0.0013315794058144093,0.0003994738217443228
1772810873743134700,9.120134765625,-0.0005326317623257637,0.001864211168140173,0.0003994738217443228
1772810873753015600,9.130015625,-0.001597895286977291,0.00026631588116288185,0.0009321055840700865
1772810873762896100,9.139896240234375,0.0005326317623257637,-0.00026631588116288185,-0.0006657897029072046
1772810873772777000,9.14977685546875,-0.0005326317623257637,0.0023968429304659367,-0.0011984214652329683
1772810873782657800,9.15965771484375,-0.0005326317623257637,0.001864211168140173,0.0003994738217443228
1772810873792538600,9.16953857421875,0.0010652635246515274,0.0013315794058144093,0.0009321055840700865
1772810873802419500,9.17941943359375,-0.0005326317623257637,0.0007989476434886456,-0.00013315794058144093
1772810873812300000,9.189300048828125,0,0.0007989476434886456,0.0003994738217443228
1772810873822180900,9.199180908203125,-0.0005326317623257637,0.0007989476434886456,0.0003994738217443228
1772810873832061700,9.209061767578126,0,0.0007989476434886456,0.0003994738217443228
1772810873841942500,9.218942626953124,-0.0005326317623257637,-0.00026631588116288185,0.0014647373463958502
1772810873851823000,9.228822998046875,-0.0010652635246515274,0.0013315794058144093,-0.00013315794058144093
1772810873861704000,9.238703857421875,0.002130527049303055,0.00026631588116288185,-0.00013315794058144093
1772810873871584800,9.248584716796875,0,-0.00026631588116288185,0.0003994738217443228
1772810873881465600,9.258465576171876,-0.002130527049303055,0.0013315794058144093,-0.00013315794058144093
1772810873891346400,9.268346435546874,-0.0005326317623257637,0.00026631588116288185,-0.0006657897029072046
1772810873901227000,9.27822705078125,0.002130527049303055,-0.003462106455117464,0.001997369108721614
1772810873911107800,9.28810791015625,-0.001597895286977291,0.001864211168140173,-0.0006657897029072046
1772810873920988700,9.29798876953125,0.0005326317623257637,-0.0007989476434886456,0.0003994738217443228
1772810873930869500,9.307869384765626,0.001597895286977291,0.00026631588116288185,-0.001731053227558732
1772810873940750000,9.31775,0.0005326317623257637,-0.00026631588116288185,0.0014647373463958502
1772810873950631000,9.327630859375,-0.0010652635246515274,0.00026631588116288185,-0.001731053227558732
1772810873960511700,9.33751171875,-0.001597895286977291,-0.0007989476434886456,0.0025300008710473776
1772810873970392600,9.347392578125,0.0005326317623257637,0.0007989476434886456,-0.0022636849898844957
1772810873980273200,9.357273193359376,0,-0.00026631588116288185,0.0025300008710473776
1772810873990154000,9.367154052734374,-0.0010652635246515274,0.00026631588116288185,-0.0011984214652329683
1772810874000034800,9.377034912109375,0.0005326317623257637,-0.001864211168140173,0.0009321055840700865
1772810874009916000,9.386916015625,-0.0005326317623257637,0.0045273699797689915,-0.0027963167522102594
1772810874019797000,9.396796875,-0.001597895286977291,-0.00026631588116288185,0.001997369108721614
1772810874029678000,9.406677978515624,-0.002130527049303055,0.00026631588116288185,-0.003861580276861787
1772810874039559200,9.41655908203125,0.0005326317623257637,-0.0013315794058144093,0.004127896390855312
1772810874049440300,9.426440185546875,-0.0026631588116288185,0.0013315794058144093,-0.003328948514536023
1772810874059321000,9.436321044921876,0,-0.001864211168140173,0.001997369108721614
1772810874069202200,9.4462021484375,-0.0010652635246515274,0.0023968429304659367,-0.0027963167522102594
1772810874079083300,9.456083251953125,0,-0.0023968429304659367,0.0014647373463958502
1772810874088964400,9.46596435546875,0,0.001864211168140173,-0.0006657897029072046
1772810874098845200,9.47584521484375,0.0010652635246515274,-0.0013315794058144093,0.0014647373463958502
1772810874108726300,9.485726318359376,0,0.0013315794058144093,-0.0006657897029072046
1772810874118607400,9.495607421875,0,-0.0029294746927917004,-0.0006657897029072046
1772810874128488400,9.505488525390625,0,0.003462106455117464,-0.0011984214652329683
1772810874138369500,9.51536962890625,0.0005326317623257637,-0.001864211168140173,0.0003994738217443228
1772810874148250600,9.525250732421876,0.0010652635246515274,0.0007989476434886456,-0.0006657897029072046
1772810874158131500,9.53513134765625,0.0005326317623257637,-0.0007989476434886456,0.0025300008710473776
1772810874168012500,9.545012451171875,0,0.0023968429304659367,-0.001731053227558732
1772810874177893600,9.5548935546875,-0.002130527049303055,-0.0023968429304659367,0.0003994738217443228
1772810874187774700,9.564774658203126,0,0.0029294746927917004,-0.0022636849898844957
1772810874197655800,9.57465576171875,-0.0005326317623257637,-0.0007989476434886456,0.0014647373463958502
1772810874207536600,9.58453662109375,0.0005326317623257637,-0.00026631588116288185,-0.0022636849898844957
1772810874217417700,9.594417724609375,0,-0.0013315794058144093,0.0014647373463958502
1772810874227298800,9.604298828125,0.0005326317623257637,0.003462106455117464,-0.001731053227558732
1772810874237180000,9.614179931640624,0,-0.0029294746927917004,0.0003994738217443228
1772810874247061000,9.62406103515625,-0.0010652635246515274,-0.001864211168140173,-0.00013315794058144093
1772810874256941800,9.63394189453125,0.0005326317623257637,0.0013315794058144093,0.0003994738217443228
1772810874266823000,9.643822998046875,-0.0010652635246515274,0.0007989476434886456,0.0003994738217443228
1772810874276704000,9.6537041015625,0.0005326317623257637,0.00026631588116288185,0.0003994738217443228
1772810874286585000,9.663585205078125,0.0010652635246515274,0.0023968429304659367,0.0003994738217443228
1772810874296466200,9.673466064453125,0.0005326317623257637,0.001864211168140173,-0.00013315794058144093
1772810874306347000,9.683346923828125,0.0005326317623257637,0.0007989476434886456,0.0003994738217443228
1772810874316228000,9.69322802734375,0,0.00026631588116288185,-0.0006657897029072046
1772810874326109200,9.703109130859374,-0.0010652635246515274,0.0013315794058144093,-0.0011984214652329683
1772810874335990300,9.712990234375,0.0010652635246515274,-0.0007989476434886456,0.0009321055840700865
1772810874345871400,9.722871337890625,0,0.0013315794058144093,-0.0006657897029072046
1772810874355752400,9.73275244140625,0.0005326317623257637,0.001864211168140173,-0.00013315794058144093
1772810874365633300,9.74263330078125,0.0005326317623257637,0.0007989476434886456,-0.0006657897029072046
1772810874375514400,9.752514404296875,0.0005326317623257637,0.0013315794058144093,0.0009321055840700865
1772810874385395500,9.7623955078125,0.0026631588116288185,-0.00026631588116288185,-0.0006657897029072046
1772810874395276500,9.772276611328126,-0.0005326317623257637,0.0013315794058144093,-0.0006657897029072046
1772810874405157400,9.782157470703124,-0.0005326317623257637,0.0007989476434886456,-0.0006657897029072046
1772810874415038500,9.79203857421875,0,-0.0013315794058144093,-0.00013315794058144093
1772810874424919600,9.80191943359375,-0.0005326317623257637,-0.00026631588116288185,-0.00013315794058144093
1772810874434800600,9.811800537109375,-0.0010652635246515274,0.0007989476434886456,0.0003994738217443228
1772810874444681700,9.821681640625,0,0.00026631588116288185,-0.00013315794058144093
1772810874454562800,9.831562744140625,-0.0010652635246515274,-0.0007989476434886456,0.001997369108721614
1772810874464443600,9.841443603515625,0.0010652635246515274,0.0013315794058144093,-0.0006657897029072046
1772810874474324700,9.85132470703125,-0.0005326317623257637,0.0007989476434886456,0.0003994738217443228
1772810874484205800,9.861205810546876,-0.0005326317623257637,0.0007989476434886456,-0.0006657897029072046
1772810874494087000,9.8710869140625,0,-0.0007989476434886456,0.0009321055840700865
1772810874503968300,9.88096826171875,-0.001597895286977291,0.001864211168140173,-0.0011984214652329683
1772810874513849900,9.890849853515626,0.002130527049303055,0.00026631588116288185,0.0009321055840700865
1772810874523731200,9.900731201171874,0,-0.0007989476434886456,-0.001731053227558732
1772810874533612800,9.91061279296875,0.0005326317623257637,0.00026631588116288185,0.0009321055840700865
1772810874543494400,9.920494384765625,0.0005326317623257637,0.0013315794058144093,-0.0006657897029072046
1772810874553375700,9.930375732421876,0.0005326317623257637,-0.001864211168140173,-0.00013315794058144093
1772810874563257300,9.94025732421875,0.001597895286977291,0.001864211168140173,-0.0011984214652329683
1772810874573139000,9.950138916015625,0,-0.0013315794058144093,0.001997369108721614
1772810874583020300,9.960020263671876,-0.002130527049303055,-0.00026631588116288185,-0.0011984214652329683
1772810874592902000,9.96990185546875,0,-0.0013315794058144093,0.0030626326333731413
1772810874602783500,9.979783447265625,-0.001597895286977291,0.00026631588116288185,-0.0027963167522102594
1772810874612664800,9.989664794921875,0.002130527049303055,-0.0013315794058144093,0.0009321055840700865
1772810874622546400,9.99954638671875,-0.0005326317623257637,0.00026631588116288185,-0.0022636849898844957
1772810874632428000,10.009427978515625,-0.0010652635246515274,-0.001864211168140173,0.0025300008710473776
1772810874642309400,10.019309326171875,0.0010652635246515274,-0.0007989476434886456,-0.0027963167522102594
1772810874652191000,10.02919091796875,0,-0.0007989476434886456,0.001997369108721614
1772810874662072600,10.039072509765624,0.0005326317623257637,0.0007989476434886456,-0.003328948514536023
1772810874671954000,10.048953857421875,-0.0005326317623257637,-0.0007989476434886456,0.001997369108721614
1772810874681835500,10.05883544921875,0.002130527049303055,-0.00026631588116288185,-0.0027963167522102594
1772810874691717000,10.068717041015624,0.0005326317623257637,-0.0013315794058144093,0.0030626326333731413
1772810874701598500,10.078598388671875,0.001597895286977291,-0.0007989476434886456,-0.003328948514536023
1772810874711480000,10.08847998046875,0.0005326317623257637,-0.00026631588116288185,0.001997369108721614
1772810874721361700,10.098361572265626,-0.0005326317623257637,0.003994738217443228,-0.003328948514536023
1772810874731243000,10.108242919921874,-0.0005326317623257637,-0.0013315794058144093,0.0025300008710473776
1772810874741124600,10.11812451171875,-0.0005326317623257637,0.0023968429304659367,-0.0006657897029072046
1772810874751006200,10.128006103515625,0.0005326317623257637,-0.0007989476434886456,-0.00013315794058144093
1772810874760887600,10.137887451171874,-0.0010652635246515274,0.0029294746927917004,-0.0022636849898844957
1772810874770769200,10.14776904296875,0.0005326317623257637,-0.0013315794058144093,0.0025300008710473776
1772810874780650800,10.157650634765625,0.0005326317623257637,0.001864211168140173,-0.001731053227558732
1772810874790532000,10.167531982421876,0.0005326317623257637,-0.0029294746927917004,0.0009321055840700865
1772810874800413700,10.17741357421875,0.0005326317623257637,0.0007989476434886456,-0.001731053227558732
1772810874810295300,10.18729541015625,0.002130527049303055,-0.0013315794058144093,0.0003994738217443228
1772810874820176600,10.1971767578125,0,0.00026631588116288185,-0.003861580276861787
1772810874830058200,10.207058349609374,0.0005326317623257637,-0.001864211168140173,0.0014647373463958502
1772810874839939800,10.21693994140625,0.0010652635246515274,0.0013315794058144093,-0.0006657897029072046
1772810874849821200,10.2268212890625,0.0005326317623257637,-0.00026631588116288185,0.0003994738217443228
1772810874859702800,10.236702880859376,-0.0005326317623257637,-0.0007989476434886456,0.0003994738217443228
1772810874869584400,10.24658447265625,0.0005326317623257637,-0.0013315794058144093,0.0003994738217443228
1772810874879465700,10.2564658203125,0.0005326317623257637,0.0007989476434886456,0.0003994738217443228
1772810874889347300,10.266347412109376,-0.0010652635246515274,0.0013315794058144093,0.0009321055840700865
1772810874899229000,10.27622900390625,0,-0.0007989476434886456,-0.0006657897029072046
1772810874909110300,10.2861103515625,-0.0010652635246515274,0.0007989476434886456,-0.00013315794058144093
1772810874918992000,10.295991943359375,0,-0.0013315794058144093,-0.0011984214652329683
1772810874928873500,10.30587353515625,0,-0.0013315794058144093,0.0009321055840700865
1772810874938754800,10.3157548828125,0.001597895286977291,0.00026631588116288185,-0.00013315794058144093
1772810874948636400,10.325636474609375,0.0010652635246515274,0.00026631588116288185,-0.00013315794058144093
1772810874958518000,10.33551806640625,-0.002130527049303055,-0.0013315794058144093,-0.0006657897029072046
1772810874968399400,10.3453994140625,0,-0.0007989476434886456,-0.0011984214652329683
1772810874978281000,10.355281005859375,0,-0.0013315794058144093,-0.0006657897029072046
1772810874988162600,10.36516259765625,0.0005326317623257637,-0.0013315794058144093,-0.0006657897029072046
1772810874998044000,10.3750439453125,-0.001597895286977291,-0.00026631588116288185,-0.0006657897029072046
1772810875007925200,10.38492529296875,-0.001597895286977291,0.00026631588116288185,-0.0006657897029072046
1772810875017806300,10.394806396484375,0.0010652635246515274,0.0007989476434886456,0.0003994738217443228
1772810875027687700,10.404687744140626,0,0.0007989476434886456,0.0003994738217443228
1772810875037569000,10.414569091796874,0.0005326317623257637,0.0007989476434886456,0.0009321055840700865
1772810875047450000,10.4244501953125,0.0010652635246515274,0.0007989476434886456,-0.0011984214652329683
1772810875057331500,10.43433154296875,0,-0.001864211168140173,-0.0011984214652329683
1772810875067212800,10.444212890625,-0.0005326317623257637,0.0007989476434886456,-0.0011984214652329683
1772810875077094000,10.454093994140624,0.0010652635246515274,-0.0007989476434886456,-0.001731053227558732
1772810875086975200,10.463975341796875,0.0010652635246515274,-0.001864211168140173,-0.0011984214652329683
1772810875096856600,10.473856689453125,0.001597895286977291,0.0013315794058144093,-0.0006657897029072046
1772810875106737700,10.483737548828126,-0.0010652635246515274,0.0007989476434886456,-0.00013315794058144093
1772810875116619000,10.493618896484374,-0.0010652635246515274,0.00026631588116288185,0.0003994738217443228
1772810875126500400,10.503500244140625,-0.001597895286977291,0.0007989476434886456,-0.0006657897029072046
1772810875136381400,10.51338134765625,-0.0010652635246515274,0.00026631588116288185,0.0014647373463958502
1772810875146262800,10.5232626953125,0,-0.0007989476434886456,0.0003994738217443228
1772810875156144000,10.53314404296875,-0.0005326317623257637,-0.0007989476434886456,0.0003994738217443228
1772810875166025200,10.543025146484375,0.002130527049303055,0.0013315794058144093,-0.00013315794058144093
1772810875175906600,10.552906494140625,-0.0005326317623257637,-0.00026631588116288185,-0.0006657897029072046
1772810875185788000,10.562787841796874,-0.0005326317623257637,-0.001864211168140173,-0.00013315794058144093
1772810875195669000,10.5726689453125,-0.0010652635246515274,-0.00026631588116288185,0.0003994738217443228
1772810875205550300,10.58255029296875,0,-0.0013315794058144093,-0.0006657897029072046
1772810875215431400,10.592431396484375,0,0.0007989476434886456,0.0014647373463958502
1772810875225312800,10.602312744140624,0.002130527049303055,0.00026631588116288185,0.0003994738217443228
1772810875235194000,10.612194091796875,-0.0005326317623257637,0.0007989476434886456,0.0009321055840700865
1772810875245075500,10.622075439453125,0,0.00026631588116288185,-0.0022636849898844957
1772810875254956500,10.63195654296875,-0.0005326317623257637,0.0007989476434886456,-0.00013315794058144093
1772810875264838000,10.641837890625,0.0010652635246515274,-0.0014647373463958502,-0.00013315794058144093
1772810875274719000,10.651718994140625,-0.0005326317623257637,-0.0003994738217443228,-0.0011984214652329683
1772810875284600300,10.661600341796875,0.0005326317623257637,-0.0009321055840700865,-0.00013315794058144093
1772810875294481700,10.671481689453126,0.0010652635246515274,-0.0009321055840700865,-0.00013315794058144093
1772810875304363000,10.681363037109374,0,-0.0003994738217443228,0.0009321055840700865
1772810875314244000,10.691244140625,0.0005326317623257637,-0.0003994738217443228,0.0025300008710473776
1772810875324125400,10.70112548828125,-0.0005326317623257637,0.0006657897029072046,0.0009321055840700865
1772810875334006500,10.711006591796876,0.0005326317623257637,0.007590002380311489,0.003595264395698905
1772810875343888000,10.720887939453124,0.0010652635246515274,-0.0003994738217443228,0.0009321055840700865
1772810875353769200,10.730769287109375,-0.002130527049303055,0.004394211806356907,0.004660528153181076
1772810875363650600,10.740650634765625,-0.0010652635246515274,0.003861580276861787,0.004660528153181076
1772810875373531600,10.75053173828125,-0.0005326317623257637,0.0022636849898844957,0.001997369108721614
1772810875383413000,10.7604130859375,0.0005326317623257637,-0.0003994738217443228,-0.00013315794058144093
1772810875393294000,10.770294189453125,-0.0005326317623257637,-0.001997369108721614,-0.0006657897029072046
1772810875403175400,10.780175537109375,-0.0010652635246515274,-0.001997369108721614,-0.00013315794058144093
1772810875413056800,10.790056884765624,-0.001597895286977291,-0.00519315991550684,-0.0027963167522102594
1772810875422938000,10.799938232421875,0.0005326317623257637,-0.00945421401411295,-0.0022636849898844957
1772810875432819200,10.809819091796875,0.0005326317623257637,-0.0025300008710473776,0.0009321055840700865
1772810875442700500,10.819700439453126,-0.0005326317623257637,-0.0009321055840700865,0.0003994738217443228
