time,seconds_elapsed,z,y,x
1772810851990076000,0.185075927734375,0.0005326317623257637,-0.0003994738217443228,-0.003195790573954582
1772810852009837600,0.204837646484375,0,-0.0003994738217443228,-0.0005326317623257637
1772810852019718700,0.21471875,0.0005326317623257637,-0.003595264395698905,-0.0005326317623257637
1772810852029599500,0.224599609375,0,-0.003595264395698905,-0.001597895286977291
1772810852039480300,0.234480224609375,0.0010652635246515274,-0.0014647373463958502,-0.0005326317623257637
1772810852049361400,0.244361328125,0.0005326317623257637,-0.004127896390855312,-0.002130527049303055
1772810852059242200,0.2542421875,0.001597895286977291,-0.00519315991550684,-0.001597895286977291
1772810852069123000,0.264123046875,0,-0.006258423440158367,-0.003195790573954582
1772810852079004000,0.27400390625,0.0005326317623257637,0.018775269389152527,0.005858949385583401
1772810852088885000,0.283885009765625,0,-0.0014647373463958502,-0.0005326317623257637
1772810852098765800,0.293765869140625,0.0010652635246515274,0.004394211806356907,0
1772810852108646700,0.303646728515625,0.0010652635246515274,0.0022636849898844957,0.001597895286977291
1772810852118527500,0.313527587890625,0,0.0011984214652329683,-0.001597895286977291
1772810852128408600,0.32340869140625,0,-0.0003994738217443228,0
1772810852138289400,0.333289306640625,0,-0.0003994738217443228,0
1772810852148170200,0.343170166015625,-0.0005326317623257637,-0.0009321055840700865,-0.0005326317623257637
1772810852158051000,0.353051025390625,0.0010652635246515274,0.00013315794058144093,-0.0010652635246515274
1772810852167932200,0.36293212890625,0,-0.0014647373463958502,0
1772810852177813000,0.37281298828125,0.0005326317623257637,-0.0003994738217443228,0
1772810852187693800,0.38269384765625,-0.0005326317623257637,-0.0014647373463958502,-0.0005326317623257637
1772810852197574700,0.39257470703125,0,0.00013315794058144093,0.0005326317623257637
1772810852207455700,0.402455810546875,0,0.00013315794058144093,-0.0010652635246515274
1772810852217336600,0.412336669921875,0.001597895286977291,0.0011984214652329683,-0.001597895286977291
1772810852227217400,0.422217529296875,-0.0005326317623257637,0.0006657897029072046,-0.0010652635246515274
1772810852237098200,0.43209814453125,-0.0005326317623257637,-0.0003994738217443228,0.0005326317623257637
1772810852246979300,0.441979248046875,-0.0005326317623257637,0.00013315794058144093,0
1772810852256860200,0.451860107421875,-0.002130527049303055,-0.0025300008710473776,0.002130527049303055
1772810852266741000,0.461740966796875,0,-0.0009321055840700865,0.0005326317623257637
1772810852276622000,0.4716220703125,-0.0005326317623257637,-0.0009321055840700865,0
1772810852286503000,0.4815029296875,0,-0.0009321055840700865,-0.0005326317623257637
1772810852296383700,0.4913837890625,-0.0010652635246515274,-0.0009321055840700865,-0.0005326317623257637
1772810852306264600,0.5012646484375,0.0005326317623257637,0.0006657897029072046,0
1772810852316145400,0.5111455078125,0.0005326317623257637,0.0006657897029072046,0.0005326317623257637
1772810852326026500,0.521026611328125,0.0005326317623257637,0.0022636849898844957,-0.0010652635246515274
1772810852335907300,0.5309072265625,-0.0010652635246515274,0.00013315794058144093,-0.0010652635246515274
1772810852345788200,0.5407880859375,0.0005326317623257637,-0.0003994738217443228,0
1772810852355669000,0.5506689453125,0.0005326317623257637,-0.001997369108721614,0.0010652635246515274
1772810852365550000,0.560550048828125,-0.0005326317623257637,0.0006657897029072046,-0.0010652635246515274
1772810852375431000,0.570430908203125,-0.0005326317623257637,-0.0014647373463958502,-0.0005326317623257637
1772810852385311700,0.580311767578125,-0.0010652635246515274,-0.0003994738217443228,0.0005326317623257637
1772810852395192600,0.590192626953125,0,0.00013315794058144093,0.0010652635246515274
1772810852405073700,0.60007373046875,0.0005326317623257637,0.0022636849898844957,0
1772810852414954500,0.60995458984375,0.0010652635246515274,-0.0003994738217443228,0.0005326317623257637
1772810852424835300,0.61983544921875,0.0005326317623257637,0.00013315794058144093,0.0010652635246515274
1772810852434716200,0.629716064453125,0,0.0006657897029072046,0
1772810852444597200,0.63959716796875,0.0005326317623257637,-0.0009321055840700865,-0.0010652635246515274
1772810852454478000,0.64947802734375,0.0005326317623257637,0.0006657897029072046,-0.001597895286977291
1772810852464359000,0.65935888671875,0.0005326317623257637,-0.0003994738217443228,0.0005326317623257637
1772810852474240000,0.669239990234375,0.0005326317623257637,-0.0003994738217443228,0.0010652635246515274
1772810852484120800,0.679120849609375,0.0005326317623257637,0.00013315794058144093,0.0010652635246515274
1772810852494001700,0.689001708984375,0,0.00013315794058144093,-0.0010652635246515274
1772810852503882800,0.6988828125,0.0010652635246515274,0.00013315794058144093,-0.001597895286977291
1772810852513764000,0.70876416015625,0.0005326317623257637,0.00013315794058144093,-0.0005326317623257637
1772810852523645200,0.718645263671875,0.0005326317623257637,-0.0009321055840700865,0
1772810852533526500,0.728526611328125,-0.0005326317623257637,-0.001997369108721614,-0.0005326317623257637
1772810852543407600,0.73840771484375,-0.0005326317623257637,-0.0014647373463958502,0.0010652635246515274
1772810852553289000,0.7482890625,-0.0010652635246515274,-0.001997369108721614,-0.0005326317623257637
1772810852563170000,0.758170166015625,0.0010652635246515274,0.00013315794058144093,0.0005326317623257637
1772810852573051400,0.768051513671875,0,-0.0009321055840700865,-0.0005326317623257637
1772810852582932500,0.777932373046875,0,-0.0014647373463958502,0.002130527049303055
1772810852592813800,0.787813720703125,-0.0010652635246515274,0.0006657897029072046,-0.0005326317623257637
1772810852602695000,0.79769482421875,-0.0005326317623257637,-0.001997369108721614,0
1772810852612576300,0.807576171875,0,0.00013315794058144093,0.002130527049303055
1772810852622457600,0.81745751953125,0.002130527049303055,-0.0009321055840700865,0
1772810852632338700,0.827338623046875,0,0.001731053227558732,-0.0010652635246515274
1772810852642220000,0.837219970703125,-0.0010652635246515274,-0.0003994738217443228,0
1772810852652101000,0.84710107421875,-0.0005326317623257637,0.0022636849898844957,0.0005326317623257637
1772810852661982500,0.856982421875,0.001597895286977291,0.0011984214652329683,0
1772810852671863600,0.866863525390625,0.001597895286977291,0.00013315794058144093,0.0005326317623257637
1772810852681745000,0.876744873046875,0,0.00013315794058144093,0.0005326317623257637
1772810852691626000,0.8866259765625,-0.0005326317623257637,0.001731053227558732,-0.001597895286977291
1772810852701507300,0.89650732421875,0,0.0011984214652329683,0.0010652635246515274
1772810852711388400,0.906388427734375,0.0005326317623257637,0.0011984214652329683,0
1772810852721269800,0.916269775390625,-0.0005326317623257637,0.0011984214652329683,0
1772810852731150800,0.92615087890625,0,-0.0014647373463958502,0
1772810852741032200,0.9360322265625,0,-0.0003994738217443228,-0.0005326317623257637
1772810852750913300,0.945913330078125,0,-0.0009321055840700865,0.0005326317623257637
1772810852760794600,0.955794677734375,0.0010652635246515274,-0.0003994738217443228,-0.002130527049303055
1772810852770675700,0.96567578125,0.0010652635246515274,0.0006657897029072046,-0.0010652635246515274
1772810852780557000,0.97555712890625,0.0010652635246515274,-0.0003994738217443228,-0.0005326317623257637
1772810852790438100,0.985438232421875,-0.0005326317623257637,0.0011984214652329683,-0.0010652635246515274
1772810852800319500,0.995319580078125,0.001597895286977291,0.0006657897029072046,-0.0005326317623257637
1772810852810200800,1.005200927734375,0.0010652635246515274,0.0011984214652329683,0
1772810852820082000,1.01508203125,0,0.0006657897029072046,0.0005326317623257637
1772810852829963300,1.02496337890625,-0.002130527049303055,0.00013315794058144093,0.0010652635246515274
1772810852839844400,1.03484423828125,0.001597895286977291,-0.0014647373463958502,-0.0005326317623257637
1772810852849725700,1.0447255859375,-0.0010652635246515274,0.0011984214652329683,-0.0005326317623257637
1772810852859606800,1.054606689453125,0.0010652635246515274,-0.0014647373463958502,0.0010652635246515274
1772810852869488000,1.064488037109375,-0.001597895286977291,0.0011984214652329683,0
1772810852879369200,1.074369140625,0,0.00013315794058144093,0.0005326317623257637
1772810852889250600,1.08425048828125,0.0005326317623257637,-0.0003994738217443228,-0.001597895286977291
1772810852899131600,1.094131591796875,0.0005326317623257637,-0.0014647373463958502,-0.0010652635246515274
1772810852909013000,1.104012939453125,0,0.0006657897029072046,-0.001597895286977291
1772810852918894000,1.11389404296875,0,0.00013315794058144093,-0.0010652635246515274
1772810852928775400,1.123775390625,-0.0010652635246515274,0.00013315794058144093,0.0005326317623257637
1772810852938656500,1.133656494140625,0.0005326317623257637,-0.0003994738217443228,0.0005326317623257637
1772810852948537900,1.143537841796875,0.0005326317623257637,-0.0003994738217443228,0.0010652635246515274
1772810852958419000,1.1534189453125,0.0010652635246515274,0.00013315794058144093,0.0010652635246515274
1772810852968300300,1.16330029296875,-0.0005326317623257637,-0.001997369108721614,0.002130527049303055
1772810852978181400,1.173181396484375,0,-0.0009321055840700865,0
1772810852988062700,1.183062744140625,-0.0005326317623257637,-0.0009321055840700865,0.0005326317623257637
1772810852997943800,1.19294384765625,0,-0.0014647373463958502,0.0010652635246515274
1772810853007825000,1.202824951171875,-0.0005326317623257637,-0.0003994738217443228,-0.0010652635246515274
1772810853017706000,1.2127060546875,-0.0010652635246515274,0.00013315794058144093,0.002130527049303055
1772810853027587000,1.222587158203125,-0.001597895286977291,0.001731053227558732,-0.0005326317623257637
1772810853037468000,1.232468017578125,-0.0005326317623257637,0.0022636849898844957,-0.0005326317623257637
1772810853047349000,1.242348876953125,0,0.00013315794058144093,-0.0005326317623257637
1772810853057230000,1.25222998046875,0.001597895286977291,0.001731053227558732,0
1772810853067111200,1.262111083984375,-0.0005326317623257637,0.0011984214652329683,0.001597895286977291
1772810853076992300,1.2719921875,-0.0005326317623257637,-0.0009321055840700865,-0.0005326317623257637
1772810853086873000,1.281873046875,-0.0005326317623257637,0.0011984214652329683,-0.0005326317623257637
1772810853096754200,1.291754150390625,0.0005326317623257637,0.0006657897029072046,0.001597895286977291
1772810853106635300,1.30163525390625,0.0010652635246515274,-0.0009321055840700865,0
1772810853116516400,1.311516357421875,-0.0005326317623257637,-0.0003994738217443228,-0.0005326317623257637
1772810853126397400,1.3213974609375,-0.0005326317623257637,-0.0014647373463958502,-0.0010652635246515274
1772810853136278500,1.331278564453125,-0.0005326317623257637,-0.0009321055840700865,-0.001597895286977291
1772810853146159400,1.341159423828125,-0.0010652635246515274,-0.0014647373463958502,-0.0010652635246515274
1772810853156040400,1.35104052734375,0.0005326317623257637,0.001731053227558732,-0.0005326317623257637
1772810853165921500,1.360921630859375,-0.0010652635246515274,0.0006657897029072046,0.001597895286977291
1772810853175802600,1.370802734375,0,0.0011984214652329683,0.0010652635246515274
1772810853185683700,1.38068359375,0.002130527049303055,-0.0009321055840700865,-0.0010652635246515274
1772810853195564500,1.390564453125,-0.001597895286977291,0.001731053227558732,0.0026631588116288185
1772810853205445600,1.400445556640625,0.0005326317623257637,-0.0014647373463958502,0.0010652635246515274
1772810853215326700,1.41032666015625,0,0.00013315794058144093,0.001597895286977291
1772810853225207800,1.420207763671875,0,0.00013315794058144093,0.0005326317623257637
1772810853235089000,1.4300888671875,-0.0005326317623257637,0.0006657897029072046,0.0005326317623257637
1772810853244969700,1.4399697265625,-0.0005326317623257637,0.001731053227558732,-0.002130527049303055
1772810853254850800,1.449850830078125,0.0005326317623257637,-0.0003994738217443228,-0.0010652635246515274
1772810853264732000,1.45973193359375,0.0005326317623257637,0.00013315794058144093,-0.002130527049303055
1772810853274613000,1.469613037109375,0.002130527049303055,-0.0014647373463958502,0
1772810853284494000,1.479494140625,0,-0.0003994738217443228,0.001597895286977291
1772810853294375000,1.489375,0,0.0011984214652329683,0.0005326317623257637
1772810853304256000,1.499256103515625,-0.0005326317623257637,0.00013315794058144093,0.0005326317623257637
1772810853314137000,1.50913720703125,0,0.0006657897029072046,0.001597895286977291
1772810853324018200,1.51901806640625,-0.0005326317623257637,-0.0003994738217443228,-0.0005326317623257637
1772810853333899300,1.528899169921875,-0.001597895286977291,-0.0009321055840700865,-0.0005326317623257637
1772810853343780400,1.5387802734375,0.0005326317623257637,-0.0014647373463958502,-0.0010652635246515274
1772810853353661200,1.5486611328125,0.0010652635246515274,0.0011984214652329683,0.001597895286977291
1772810853363542300,1.558542236328125,-0.0010652635246515274,0.001731053227558732,0.001597895286977291
1772810853373423400,1.56842333984375,0,0.00013315794058144093,-0.0005326317623257637
1772810853383304400,1.578304443359375,0.0005326317623257637,-0.0009321055840700865,0
1772810853393185300,1.588185302734375,0,-0.0003994738217443228,0
1772810853403066400,1.59806640625,-0.002130527049303055,-0.0003994738217443228,0.0005326317623257637
1772810853412947500,1.607947509765625,0,0.00013315794058144093,0.001597895286977291
1772810853422828500,1.61782861328125,0.0005326317623257637,-0.0030626326333731413,-0.0005326317623257637
1772810853432709600,1.627709716796875,0,-0.0009321055840700865,0.0010652635246515274
1772810853442590700,1.6375908203125,0.001597895286977291,-0.0003994738217443228,0.0010652635246515274
1772810853452471600,1.647471435546875,0.0005326317623257637,-0.0003994738217443228,0
1772810853462352600,1.6573525390625,0,0.00013315794058144093,0.0005326317623257637
1772810853472233700,1.667233642578125,0,0.00013315794058144093,-0.0010652635246515274
1772810853482114800,1.67711474609375,0.0005326317623257637,-0.0003994738217443228,-0.002130527049303055
1772810853491996000,1.686995849609375,0.0005326317623257637,0.0006657897029072046,0.0010652635246515274
1772810853501876500,1.69687646484375,0.0010652635246515274,-0.0009321055840700865,0.0005326317623257637
1772810853511757300,1.70675732421875,-0.0005326317623257637,0.0006657897029072046,0.0005326317623257637
1772810853521638000,1.716637939453125,-0.0005326317623257637,-0.0003994738217443228,0
1772810853531518700,1.726518798828125,-0.002130527049303055,-0.0003994738217443228,-0.0010652635246515274
1772810853541399300,1.7363994140625,0,0.00013315794058144093,0
1772810853551280000,1.746280029296875,-0.0005326317623257637,-0.001997369108721614,0.0005326317623257637
1772810853561160700,1.75616064453125,0.0005326317623257637,-0.0014647373463958502,-0.0010652635246515274
1772810853571041500,1.76604150390625,-0.001597895286977291,-0.0014647373463958502,-0.0005326317623257637
1772810853580922000,1.775922119140625,-0.0010652635246515274,0.0011984214652329683,-0.0010652635246515274
1772810853590803000,1.785802978515625,-0.0005326317623257637,0.001731053227558732,-0.0005326317623257637
1772810853600683500,1.79568359375,-0.0005326317623257637,-0.0014647373463958502,-0.0010652635246515274
1772810853610564400,1.805564453125,-0.0005326317623257637,0.0011984214652329683,0.0010652635246515274
1772810853620445000,1.81544482421875,0.0010652635246515274,0.0011984214652329683,0.0005326317623257637
1772810853630325800,1.82532568359375,-0.0005326317623257637,-0.0014647373463958502,-0.0010652635246515274
1772810853640206300,1.835206298828125,0,-0.0014647373463958502,0.0010652635246515274
1772810853650087200,1.845087158203125,0.0010652635246515274,0.0011984214652329683,0
1772810853659967700,1.8549677734375,0.002130527049303055,-0.0003994738217443228,0
1772810853669848600,1.8648486328125,0,-0.0009321055840700865,0.002130527049303055
1772810853679729200,1.874729248046875,0.0005326317623257637,0.00013315794058144093,0.0010652635246515274
1772810853689610000,1.88460986328125,0.001597895286977291,0.001731053227558732,-0.0010652635246515274
1772810853699490600,1.894490478515625,0.0010652635246515274,0.00013315794058144093,0.002130527049303055
1772810853709371400,1.904371337890625,0.0005326317623257637,-0.0003994738217443228,0.001597895286977291
1772810853719252000,1.914251953125,-0.0005326317623257637,0.001731053227558732,0.0005326317623257637
1772810853729132800,1.9241328125,0.0010652635246515274,0.001731053227558732,-0.0005326317623257637
1772810853739013400,1.934013427734375,-0.0010652635246515274,0.0006657897029072046,0
1772810853748894000,1.94389404296875,0.0010652635246515274,-0.0003994738217443228,0
1772810853758774800,1.95377490234375,-0.0005326317623257637,0.0011984214652329683,0
1772810853768655400,1.9636552734375,0.0005326317623257637,-0.0009321055840700865,-0.0005326317623257637
1772810853778536200,1.9735361328125,-0.0005326317623257637,0.003861580276861787,0
1772810853788416800,1.983416748046875,0.0005326317623257637,0.0011984214652329683,-0.0010652635246515274
1772810853798297600,1.993297607421875,0,0.00013315794058144093,0.001597895286977291
1772810853808178200,2.00317822265625,0.0005326317623257637,-0.0009321055840700865,0
1772810853818059000,2.01305908203125,0,0.0011984214652329683,0
1772810853827939600,2.022939697265625,-0.001597895286977291,0.00013315794058144093,0.0010652635246515274
1772810853837820400,2.0328203125,0.0005326317623257637,0.001731053227558732,-0.0005326317623257637
1772810853847701000,2.042700927734375,0.0005326317623257637,-0.0009321055840700865,-0.0005326317623257637
1772810853857581800,2.052581787109375,0.001597895286977291,0.0011984214652329683,0
1772810853867462400,2.06246240234375,0.001597895286977291,-0.0014647373463958502,-0.0010652635246515274
1772810853877343200,2.07234326171875,0.0010652635246515274,0.00013315794058144093,0.0010652635246515274
1772810853887223800,2.082223876953125,0.0026631588116288185,0.0006657897029072046,0.0010652635246515274
1772810853897104600,2.092104736328125,0,-0.001997369108721614,0.0005326317623257637
1772810853906985200,2.101985107421875,-0.0010652635246515274,0.00013315794058144093,-0.001597895286977291
1772810853916866000,2.111865966796875,-0.0006657897029072046,0.0006657897029072046,0
1772810853926746600,2.12174658203125,0.0003994738217443228,-0.0003994738217443228,0
1772810853936627200,2.131627197265625,0.0009321055840700865,0.0011984214652329683,-0.0010652635246515274
1772810853946508000,2.141508056640625,-0.00013315794058144093,0.001731053227558732,-0.0010652635246515274
1772810853956388600,2.151388671875,-0.0006657897029072046,0.0022636849898844957,-0.0005326317623257637
1772810853966269400,2.16126953125,-0.0006657897029072046,-0.0014647373463958502,-0.0005326317623257637
1772810853976150000,2.17114990234375,0.0014647373463958502,0.0006657897029072046,-0.001597895286977291
1772810853986030800,2.18103076171875,-0.0011984214652329683,0.001731053227558732,0.0005326317623257637
1772810853995911400,2.190911376953125,-0.0011984214652329683,-0.0003994738217443228,-0.0005326317623257637
1772810854005792500,2.20079248046875,-0.0006657897029072046,-0.0003994738217443228,-0.001597895286977291
1772810854015673300,2.21067333984375,-0.00013315794058144093,0.001731053227558732,0.0005326317623257637
1772810854025554400,2.220554443359375,-0.0011984214652329683,0.0011984214652329683,-0.0010652635246515274
1772810854035435300,2.230435302734375,0.0003994738217443228,0.0027963167522102594,0.0005326317623257637
1772810854045316400,2.24031640625,0.0009321055840700865,0.0006657897029072046,-0.001597895286977291
1772810854055197200,2.250197265625,-0.00013315794058144093,0.00013315794058144093,-0.0005326317623257637
1772810854065078000,2.260078125,-0.00013315794058144093,0.00013315794058144093,0
1772810854074959000,2.269958984375,-0.00013315794058144093,0.0006657897029072046,-0.0010652635246515274
1772810854084840000,2.27983984375,0.0009321055840700865,0.0011984214652329683,-0.0010652635246515274
1772810854094721000,2.289720947265625,0.0003994738217443228,-0.0014647373463958502,-0.0005326317623257637
1772810854104601900,2.299601806640625,-0.0022636849898844957,0.0011984214652329683,-0.0005326317623257637
1772810854114482700,2.309482666015625,-0.0006657897029072046,0.0006657897029072046,-0.0005326317623257637
1772810854124363800,2.31936376953125,0.0009321055840700865,-0.0003994738217443228,-0.0010652635246515274
1772810854134244600,2.32924462890625,-0.00013315794058144093,0.0006657897029072046,0
1772810854144125700,2.339125732421875,-0.0011984214652329683,0.0006657897029072046,-0.0005326317623257637
1772810854154006500,2.349006591796875,0.0009321055840700865,0.0006657897029072046,0
1772810854163887400,2.358887451171875,-0.00013315794058144093,0.0011984214652329683,-0.0005326317623257637
1772810854173768400,2.3687685546875,0.001997369108721614,-0.0009321055840700865,0
1772810854183649300,2.378649169921875,-0.0011984214652329683,-0.0009321055840700865,0
1772810854193530400,2.3885302734375,-0.0006657897029072046,0.001731053227558732,0.001597895286977291
1772810854203411200,2.3984111328125,-0.0006657897029072046,0.00013315794058144093,0
1772810854213292300,2.408292236328125,-0.00013315794058144093,0.0011984214652329683,-0.0010652635246515274
1772810854223173000,2.418173095703125,-0.001731053227558732,0.0006657897029072046,0.0010652635246515274
1772810854233054000,2.428053955078125,-0.0006657897029072046,-0.0014647373463958502,-0.0005326317623257637
1772810854242935000,2.43793505859375,-0.0006657897029072046,-0.0003994738217443228,0.0005326317623257637
1772810854252816000,2.44781591796875,-0.00013315794058144093,0.001731053227558732,-0.0005326317623257637
1772810854262696700,2.45769677734375,-0.0006657897029072046,-0.0003994738217443228,0
1772810854272577800,2.467577880859375,0.0003994738217443228,0.0006657897029072046,0.001597895286977291
1772810854282458600,2.477458740234375,-0.00013315794058144093,0.0006657897029072046,0.0005326317623257637
1772810854292339700,2.487339599609375,-0.0006657897029072046,0.00013315794058144093,0
1772810854302220500,2.497220458984375,-0.0006657897029072046,0.0006657897029072046,-0.001597895286977291
1772810854312101400,2.507101318359375,-0.00013315794058144093,0.00013315794058144093,0
1772810854321982500,2.516982421875,-0.0006657897029072046,-0.0014647373463958502,0.0005326317623257637
1772810854331863300,2.52686328125,-0.0011984214652329683,0.0006657897029072046,0.0005326317623257637
1772810854341744400,2.536744384765625,0.0003994738217443228,0.00013315794058144093,-0.0005326317623257637
1772810854351625200,2.546625244140625,-0.0006657897029072046,0.0011984214652329683,0.0010652635246515274
1772810854361506300,2.55650634765625,0.0003994738217443228,0.0011984214652329683,0
1772810854371387100,2.56638720703125,-0.00013315794058144093,-0.0003994738217443228,0.0005326317623257637
1772810854381268000,2.57626806640625,-0.00013315794058144093,-0.0009321055840700865,-0.0010652635246515274
1772810854391149000,2.586149169921875,0.0009321055840700865,-0.0014647373463958502,0.001597895286977291
1772810854401030000,2.59602978515625,-0.0006657897029072046,-0.0003994738217443228,0
1772810854410911000,2.605910888671875,-0.00013315794058144093,-0.0014647373463958502,0.001597895286977291
1772810854420791800,2.615791748046875,-0.0022636849898844957,0.0011984214652329683,0.0005326317623257637
1772810854430672600,2.625672607421875,-0.0006657897029072046,0.0006657897029072046,-0.0005326317623257637
1772810854440553700,2.6355537109375,-0.00013315794058144093,0.00013315794058144093,-0.001597895286977291
1772810854450434600,2.6454345703125,-0.0006657897029072046,0.00013315794058144093,0
1772810854460315600,2.655315673828125,-0.0011984214652329683,-0.0003994738217443228,0.0005326317623257637
1772810854470196500,2.665196533203125,0.0009321055840700865,-0.0009321055840700865,-0.0005326317623257637
1772810854480077300,2.675077392578125,-0.00013315794058144093,0.0022636849898844957,0
1772810854489958400,2.68495849609375,-0.0006657897029072046,0.00013315794058144093,-0.001597895286977291
1772810854499839500,2.694839599609375,-0.0006657897029072046,-0.0003994738217443228,-0.001597895286977291
1772810854509720600,2.704720458984375,-0.0011984214652329683,0.0006657897029072046,0.0005326317623257637
1772810854519601700,2.7146015625,0.0003994738217443228,-0.0003994738217443228,0
1772810854529482800,2.724482666015625,-0.00013315794058144093,0.00013315794058144093,0.0005326317623257637
1772810854539364000,2.734364013671875,-0.00013315794058144093,-0.0009321055840700865,0.0010652635246515274
1772810854549245200,2.7442451171875,0.0009321055840700865,-0.0003994738217443228,-0.0010652635246515274
1772810854559126300,2.754126220703125,-0.00013315794058144093,-0.001997369108721614,-0.0005326317623257637
1772810854569007400,2.76400732421875,-0.0006657897029072046,-0.0009321055840700865,-0.001597895286977291
1772810854578888400,2.773888427734375,0.0014647373463958502,-0.0009321055840700865,-0.0010652635246515274
1772810854588769800,2.783769775390625,-0.0011984214652329683,-0.0003994738217443228,0
1772810854598651000,2.79365087890625,-0.00013315794058144093,0.00013315794058144093,0
1772810854608532000,2.803531982421875,-0.00013315794058144093,0.0011984214652329683,-0.0010652635246515274
1772810854618413000,2.8134130859375,0.0014647373463958502,-0.0014647373463958502,-0.001597895286977291
1772810854628294400,2.82329443359375,-0.001731053227558732,-0.001997369108721614,0
1772810854638175500,2.833175537109375,-0.00013315794058144093,-0.0003994738217443228,0.0010652635246515274
1772810854648056600,2.843056640625,-0.00013315794058144093,0.0006657897029072046,0
1772810854657937700,2.852937744140625,0.0009321055840700865,-0.0009321055840700865,0
1772810854667819000,2.862819091796875,-0.00013315794058144093,0.00013315794058144093,-0.002130527049303055
1772810854677700000,2.8727001953125,-0.00013315794058144093,0.0011984214652329683,0.0005326317623257637
1772810854687581200,2.882581298828125,-0.00013315794058144093,0.0011984214652329683,-0.0010652635246515274
1772810854697462300,2.892462158203125,-0.00013315794058144093,0.0011984214652329683,0
1772810854707343400,2.90234326171875,-0.001731053227558732,0.0011984214652329683,0
1772810854717224400,2.912224365234375,0.0009321055840700865,-0.0003994738217443228,-0.0010652635246515274
1772810854727105800,2.922105712890625,0.0009321055840700865,0.00013315794058144093,0
1772810854736987000,2.93198681640625,-0.0011984214652329683,0.0011984214652329683,0.0005326317623257637
1772810854746868000,2.941867919921875,-0.00013315794058144093,-0.0003994738217443228,0
1772810854756749000,2.9517490234375,-0.0006657897029072046,-0.001997369108721614,0
1772810854766630400,2.96163037109375,-0.0006657897029072046,0.0006657897029072046,-0.0005326317623257637
1772810854776511500,2.971511474609375,-0.00013315794058144093,-0.001997369108721614,0.0005326317623257637
1772810854786392600,2.981392578125,-0.00013315794058144093,0.0022636849898844957,0
1772810854796273700,2.991273681640625,0.0003994738217443228,0.00013315794058144093,-0.0005326317623257637
1772810854806154800,3.00115478515625,-0.0011984214652329683,0.001731053227558732,0
1772810854816036000,3.0110361328125,-0.0006657897029072046,-0.0009321055840700865,-0.0010652635246515274
1772810854825917200,3.020917236328125,-0.003328948514536023,0.0022636849898844957,-0.0005326317623257637
1772810854835798300,3.03079833984375,-0.00013315794058144093,0.0011984214652329683,-0.0005326317623257637
1772810854845679400,3.040679443359375,-0.0011984214652329683,0.0011984214652329683,0.0005326317623257637
1772810854855560700,3.050560791015625,0.0003994738217443228,0.0011984214652329683,0.0005326317623257637
1772810854865441800,3.06044189453125,0.001997369108721614,-0.0009321055840700865,0
1772810854875323000,3.070322998046875,0.0009321055840700865,-0.0003994738217443228,0
1772810854885204000,3.080203857421875,0.0003994738217443228,0.0006657897029072046,-0.001597895286977291
1772810854895085300,3.090085205078125,-0.00013315794058144093,-0.0003994738217443228,0.0005326317623257637
1772810854904966400,3.09996630859375,-0.00013315794058144093,0.0006657897029072046,-0.0010652635246515274
1772810854914847500,3.109847412109375,-0.0027963167522102594,-0.0009321055840700865,-0.0010652635246515274
1772810854924728600,3.119728515625,0.0009321055840700865,0.0011984214652329683,0.0005326317623257637
1772810854934609700,3.129609619140625,-0.00013315794058144093,-0.0003994738217443228,-0.0010652635246515274
1772810854944491000,3.139490966796875,-0.0011984214652329683,-0.0014647373463958502,0.0005326317623257637
1772810854954372000,3.1493720703125,-0.0006657897029072046,0.0006657897029072046,-0.0010652635246515274
1772810854964253200,3.159253173828125,-0.0011984214652329683,0.0011984214652329683,0
1772810854974134300,3.16913427734375,-0.00013315794058144093,0.00013315794058144093,-0.0005326317623257637
1772810854984015600,3.179015625,-0.00013315794058144093,0.00013315794058144093,-0.002130527049303055
1772810854993896700,3.188896728515625,0.0003994738217443228,-0.0009321055840700865,0
1772810855003778000,3.198778076171875,0.0009321055840700865,0.0011984214652329683,-0.0010652635246515274
1772810855013659600,3.20865966796875,-0.00013315794058144093,-0.0014647373463958502,0.0005326317623257637
1772810855023541200,3.218541259765625,-0.00013315794058144093,-0.001997369108721614,-0.0005326317623257637
1772810855033422800,3.2284228515625,-0.0006657897029072046,-0.0009321055840700865,-0.0010652635246515274
1772810855043304400,3.238304443359375,-0.0006657897029072046,0.0011984214652329683,0
1772810855053186000,3.24818603515625,0.0014647373463958502,0.0006657897029072046,-0.002130527049303055
1772810855063067600,3.258067626953125,-0.0006657897029072046,-0.0003994738217443228,0.001597895286977291
1772810855072949000,3.267948974609375,-0.00013315794058144093,0.00013315794058144093,0.001597895286977291
1772810855082830600,3.27783056640625,0.0009321055840700865,-0.0009321055840700865,-0.0010652635246515274
1772810855092712200,3.287712158203125,-0.0006657897029072046,-0.0009321055840700865,0.0010652635246515274
1772810855102593800,3.29759375,-0.0006657897029072046,-0.0014647373463958502,0.0005326317623257637
1772810855112475400,3.307475341796875,0.0009321055840700865,-0.0014647373463958502,-0.0005326317623257637
1772810855122357000,3.31735693359375,0.0003994738217443228,-0.0009321055840700865,0.0005326317623257637
1772810855132238600,3.327238525390625,-0.0006657897029072046,-0.0003994738217443228,0.0010652635246515274
1772810855142120000,3.337119873046875,-0.0006657897029072046,0.00013315794058144093,0
1772810855152001500,3.34700146484375,-0.00013315794058144093,0.0006657897029072046,0
1772810855161883100,3.356883056640625,-0.00013315794058144093,0.0011984214652329683,-0.0005326317623257637
1772810855171764700,3.3667646484375,-0.001731053227558732,0.00013315794058144093,0
1772810855181646300,3.376646240234375,0.0009321055840700865,0.0006657897029072046,0.003195790573954582
1772810855191527700,3.386527587890625,0.0009321055840700865,0.0027963167522102594,-0.001597895286977291
1772810855201409300,3.3964091796875,-0.0006657897029072046,0.0006657897029072046,0.0005326317623257637
1772810855211291000,3.406290771484375,-0.0006657897029072046,0.0006657897029072046,-0.0005326317623257637
1772810855221172500,3.41617236328125,-0.001731053227558732,-0.0009321055840700865,0
1772810855231054000,3.42605419921875,0.0003994738217443228,0.0011984214652329683,0.002130527049303055
1772810855240935700,3.435935791015625,-0.00013315794058144093,0.0006657897029072046,-0.0005326317623257637
1772810855250817300,3.4458173828125,-0.0011984214652329683,0.0011984214652329683,-0.0010652635246515274
1772810855260698600,3.45569873046875,-0.0006657897029072046,-0.0009321055840700865,0.0010652635246515274
1772810855270580200,3.465580322265625,0.0009321055840700865,0.00013315794058144093,0
1772810855280461800,3.4754619140625,-0.00013315794058144093,0.00013315794058144093,-0.0026631588116288185
1772810855290343400,3.485343505859375,0.0009321055840700865,0.0011984214652329683,-0.0005326317623257637
1772810855300225000,3.49522509765625,0.0003994738217443228,-0.0014647373463958502,0.0005326317623257637
1772810855310106600,3.505106689453125,-0.0006657897029072046,0.001731053227558732,0
1772810855319988200,3.51498828125,-0.00013315794058144093,0.0022636849898844957,0
1772810855329869600,3.52486962890625,-0.00013315794058144093,-0.0009321055840700865,0
1772810855339751200,3.534751220703125,-0.0011984214652329683,0.00013315794058144093,0.0005326317623257637
1772810855349632800,3.5446328125,-0.0006657897029072046,0.0006657897029072046,0.0005326317623257637
1772810855359514400,3.554514404296875,-0.00013315794058144093,0.001731053227558732,-0.0005326317623257637
1772810855369396000,3.56439599609375,-0.00013315794058144093,-0.0003994738217443228,-0.0010652635246515274
1772810855379277600,3.574277587890625,-0.00013315794058144093,0.0006657897029072046,0.0010652635246515274
1772810855389159200,3.5841591796875,-0.00013315794058144093,0.0006657897029072046,-0.0005326317623257637
1772810855399040500,3.59404052734375,-0.0006657897029072046,0.00013315794058144093,0
1772810855408922000,3.603922119140625,-0.00013315794058144093,0.00013315794058144093,0.0010652635246515274
1772810855418803700,3.6138037109375,0.0014647373463958502,0.001731053227558732,-0.0005326317623257637
1772810855428685300,3.623685302734375,0.0003994738217443228,0.0011984214652329683,0.0010652635246515274
1772810855438567000,3.63356689453125,-0.00013315794058144093,0.00013315794058144093,0
1772810855448448500,3.643448486328125,-0.0006657897029072046,0.0006657897029072046,0
1772810855458329900,3.653329833984375,0.0003994738217443228,-0.0009321055840700865,0.0005326317623257637
1772810855468211500,3.66321142578125,-0.00013315794058144093,0.0006657897029072046,-0.0010652635246515274
1772810855478093000,3.673093017578125,0.0003994738217443228,-0.0014647373463958502,0
1772810855487974700,3.682974609375,-0.0011984214652329683,0.0006657897029072046,-0.0010652635246515274
1772810855497856300,3.692856201171875,0.0003994738217443228,0.00013315794058144093,-0.0005326317623257637
1772810855507737600,3.702737548828125,0.0003994738217443228,0.0022636849898844957,-0.0005326317623257637
1772810855517619200,3.712619140625,-0.0006657897029072046,0.00013315794058144093,0
1772810855527500500,3.72250048828125,-0.00013315794058144093,0.00013315794058144093,0.0010652635246515274
1772810855537382100,3.732382080078125,0.0014647373463958502,0.001731053227558732,0.0010652635246515274
1772810855547263500,3.742263427734375,0.0003994738217443228,0.0006657897029072046,-0.001597895286977291
1772810855557145000,3.75214501953125,-0.00013315794058144093,-0.0003994738217443228,0.001597895286977291
1772810855567026400,3.7620263671875,-0.0011984214652329683,0.00013315794058144093,0.0010652635246515274
1772810855576908000,3.771907958984375,0.0003994738217443228,-0.0003994738217443228,-0.0005326317623257637
1772810855586789600,3.78178955078125,0.0003994738217443228,0.0011984214652329683,0.0005326317623257637
1772810855596671000,3.7916708984375,0.0009321055840700865,0.0006657897029072046,-0.0005326317623257637
1772810855606552600,3.801552490234375,0.001997369108721614,0.0011984214652329683,0
1772810855616434000,3.811433837890625,0.0009321055840700865,-0.0003994738217443228,0.0005326317623257637
1772810855626315500,3.8213154296875,-0.00013315794058144093,0.00013315794058144093,-0.0005326317623257637
1772810855636196900,3.83119677734375,-0.00013315794058144093,-0.0003994738217443228,0.0005326317623257637
1772810855646078500,3.841078369140625,0.0009321055840700865,0.0011984214652329683,-0.0010652635246515274
1772810855655959800,3.850959716796875,-0.0006657897029072046,0.00013315794058144093,-0.0005326317623257637
1772810855665841400,3.86084130859375,-0.00013315794058144093,-0.0009321055840700865,-0.001597895286977291
1772810855675722800,3.87072265625,0.0003994738217443228,0.00013315794058144093,0.0005326317623257637
1772810855685604400,3.880604248046875,0.0009321055840700865,0.001731053227558732,-0.0005326317623257637
1772810855695485700,3.890485595703125,-0.0005326317623257637,-0.001731053227558732,-0.0003994738217443228
1772810855705367300,3.9003671875,0,0.0003994738217443228,0.00013315794058144093
1772810855715249000,3.910248779296875,0.0010652635246515274,-0.0011984214652329683,-0.0003994738217443228
1772810855725130200,3.920130126953125,0,0.0003994738217443228,-0.0009321055840700865
1772810855735011800,3.93001171875,0,-0.00013315794058144093,0.00013315794058144093
1772810855744893200,3.93989306640625,0.0010652635246515274,-0.001731053227558732,-0.0003994738217443228
1772810855754774800,3.94977490234375,-0.0005326317623257637,0.0003994738217443228,0.00013315794058144093
1772810855764656000,3.95965625,0.0010652635246515274,-0.0011984214652329683,-0.0014647373463958502
1772810855774537700,3.969537841796875,0.0010652635246515274,-0.00013315794058144093,0.00013315794058144093
1772810855784419300,3.97941943359375,-0.0005326317623257637,0.0009321055840700865,0.0006657897029072046
1772810855794300700,3.98930078125,-0.001597895286977291,0.0009321055840700865,0.00013315794058144093
1772810855804182300,3.999182373046875,-0.0010652635246515274,-0.001731053227558732,0.00013315794058144093
1772810855814063600,4.009063720703125,0.0010652635246515274,0.0003994738217443228,0.001731053227558732
1772810855823945000,4.018945068359375,-0.0005326317623257637,0.0030626326333731413,0.00013315794058144093
1772810855833826600,4.02882666015625,0.001597895286977291,-0.0006657897029072046,0.0022636849898844957
1772810855843708200,4.038708251953125,-0.0010652635246515274,-0.0006657897029072046,-0.0014647373463958502
1772810855853589500,4.048589599609375,0.0010652635246515274,0.0014647373463958502,0.0006657897029072046
1772810855863471000,4.05847119140625,0.0005326317623257637,-0.0006657897029072046,0.0006657897029072046
1772810855873352400,4.0683525390625,-0.001597895286977291,-0.0006657897029072046,0.0011984214652329683
1772810855883234000,4.078234130859375,-0.0010652635246515274,-0.0011984214652329683,0.001731053227558732
1772810855893115400,4.088115478515625,0,-0.00013315794058144093,0.0011984214652329683
1772810855902997000,4.0979970703125,0.0010652635246515274,-0.00013315794058144093,-0.0003994738217443228
1772810855912878600,4.107878662109375,-0.0010652635246515274,-0.0011984214652329683,-0.0003994738217443228
1772810855922760000,4.117760009765625,0.002130527049303055,0.0003994738217443228,-0.0009321055840700865
1772810855932641500,4.1276416015625,0,0.0009321055840700865,0.00013315794058144093
1772810855942523000,4.13752294921875,0.0005326317623257637,0.0003994738217443228,0.00013315794058144093
1772810855952404500,4.147404541015625,-0.0005326317623257637,0.0014647373463958502,0.0006657897029072046
1772810855962285800,4.157285888671875,0.0026631588116288185,-0.00013315794058144093,0.0006657897029072046
1772810855972167400,4.16716748046875,0.0010652635246515274,-0.0022636849898844957,0.00013315794058144093
1772810855982048800,4.177048828125,-0.0005326317623257637,0.0003994738217443228,-0.0009321055840700865
1772810855991930400,4.186930419921875,0,0.0009321055840700865,-0.0003994738217443228
1772810856001811200,4.196811279296875,-0.0005326317623257637,0.0003994738217443228,-0.0003994738217443228
1772810856011691800,4.20669189453125,0,-0.00013315794058144093,0.00013315794058144093
1772810856021572600,4.216572509765625,-0.0010652635246515274,0.0009321055840700865,0.00013315794058144093
1772810856031453200,4.226453125,-0.0010652635246515274,-0.00013315794058144093,-0.0003994738217443228
1772810856041333800,4.236333740234375,0.0005326317623257637,0.0009321055840700865,0.0006657897029072046
1772810856051214300,4.24621435546875,0.0005326317623257637,0.0003994738217443228,0.00013315794058144093
1772810856061095200,4.25609521484375,0.0010652635246515274,-0.0011984214652329683,-0.0003994738217443228
1772810856070975700,4.265975830078125,-0.0005326317623257637,-0.0006657897029072046,0.0006657897029072046
1772810856080856300,4.275856201171875,0,-0.001731053227558732,0.0006657897029072046
1772810856090737200,4.285737060546875,-0.0010652635246515274,0.0014647373463958502,0.0006657897029072046
1772810856100617700,4.29561767578125,0.0010652635246515274,0.0003994738217443228,0.0006657897029072046
1772810856110498300,4.305498291015625,0,-0.00013315794058144093,0.001731053227558732
1772810856120379100,4.315379150390625,-0.001597895286977291,-0.0027963167522102594,-0.0014647373463958502
1772810856130259700,4.325259765625,-0.002130527049303055,-0.0006657897029072046,0.00013315794058144093
1772810856140140300,4.335140380859375,0.001597895286977291,-0.00013315794058144093,0.00013315794058144093
1772810856150021000,4.345021240234375,-0.0005326317623257637,-0.0006657897029072046,-0.0003994738217443228
1772810856159901700,4.354901611328125,0.0005326317623257637,-0.0011984214652329683,-0.0014647373463958502
1772810856169782300,4.3647822265625,0.0005326317623257637,-0.0011984214652329683,0.0006657897029072046
1772810856179663000,4.3746630859375,0.0010652635246515274,0.0003994738217443228,-0.0003994738217443228
1772810856189543700,4.384543701171875,-0.0005326317623257637,0.0003994738217443228,-0.0003994738217443228
1772810856199424300,4.39442431640625,-0.0010652635246515274,-0.00013315794058144093,0.0006657897029072046
1772810856209305000,4.40430517578125,0.0005326317623257637,-0.00013315794058144093,0.00013315794058144093
1772810856219185700,4.414185546875,-0.0010652635246515274,0.0009321055840700865,-0.0009321055840700865
1772810856229066200,4.424066162109375,-0.0005326317623257637,0.0003994738217443228,0.00013315794058144093
1772810856238947000,4.433947021484375,0,-0.0011984214652329683,0.00013315794058144093
1772810856248827600,4.44382763671875,0,-0.0027963167522102594,-0.0009321055840700865
1772810856258708200,4.453708251953125,-0.0010652635246515274,-0.0006657897029072046,0.00013315794058144093
1772810856268589000,4.463589111328125,-0.0005326317623257637,0.0003994738217443228,0.00013315794058144093
1772810856278469600,4.4734697265625,0,-0.00013315794058144093,-0.0009321055840700865
1772810856288350200,4.48335009765625,0.001597895286977291,0.0003994738217443228,-0.0003994738217443228
1772810856298231000,4.49323095703125,-0.001597895286977291,-0.00013315794058144093,-0.001997369108721614
1772810856308111600,4.503111572265625,0.001597895286977291,0.0003994738217443228,-0.0009321055840700865
1772810856317992200,4.5129921875,-0.0005326317623257637,0.0014647373463958502,0.0006657897029072046
1772810856327873000,4.522873046875,0.0005326317623257637,-0.0011984214652329683,0.00013315794058144093
1772810856347634200,4.54263427734375,0.0005326317623257637,-0.0011984214652329683,-0.0003994738217443228
1772810856357514800,4.5525146484375,0.0005326317623257637,-0.0011984214652329683,0.0006657897029072046
1772810856367395600,4.5623955078125,0.0010652635246515274,0.0009321055840700865,0.0011984214652329683
1772810856377276200,4.572276123046875,-0.003195790573954582,-0.00013315794058144093,0.00013315794058144093
1772810856387156700,4.58215673828125,0.0010652635246515274,-0.00013315794058144093,0.00013315794058144093
1772810856397037600,4.59203759765625,0,0.0009321055840700865,0.0011984214652329683
1772810856406918100,4.601918212890625,0.0010652635246515274,-0.0006657897029072046,-0.0003994738217443228
1772810856416798700,4.611798828125,0,0.0009321055840700865,0.00013315794058144093
1772810856426679600,4.621679443359375,0.0005326317623257637,-0.00013315794058144093,-0.0003994738217443228
1772810856436560100,4.63156005859375,-0.0005326317623257637,-0.0011984214652329683,-0.0003994738217443228
1772810856446440700,4.641440673828125,0.0005326317623257637,-0.0006657897029072046,-0.0009321055840700865
1772810856456321500,4.651321533203125,0.0005326317623257637,-0.0011984214652329683,-0.0003994738217443228
1772810856466202000,4.6612021484375,-0.0005326317623257637,0.0009321055840700865,-0.0003994738217443228
1772810856476082700,4.671082763671875,0,0.0009321055840700865,0.0006657897029072046
1772810856485963500,4.680963623046875,-0.0010652635246515274,0.0014647373463958502,-0.0014647373463958502
1772810856495844000,4.690843994140625,-0.0005326317623257637,-0.0011984214652329683,0.0006657897029072046
1772810856505725000,4.700724853515625,-0.001597895286977291,0.0009321055840700865,0.0006657897029072046
1772810856515605800,4.710605712890625,0.0010652635246515274,-0.0006657897029072046,0.0011984214652329683
1772810856525486300,4.720486328125,0.0005326317623257637,0.0009321055840700865,0.0011984214652329683
1772810856535367200,4.7303671875,0.0010652635246515274,-0.0027963167522102594,0.00013315794058144093
1772810856545248000,4.740248046875,-0.0005326317623257637,0.0003994738217443228,-0.0009321055840700865
1772810856555128800,4.75012890625,-0.0005326317623257637,-0.0022636849898844957,0.0006657897029072046
1772810856565009700,4.760009765625,-0.0010652635246515274,-0.0006657897029072046,0.0011984214652329683
1772810856574890200,4.76989013671875,0.0010652635246515274,-0.0011984214652329683,0.0006657897029072046
1772810856584771000,4.77977099609375,0.0010652635246515274,-0.001731053227558732,-0.0003994738217443228
1772810856594652000,4.78965185546875,0,-0.0011984214652329683,0.0006657897029072046
1772810856604532700,4.79953271484375,0.0005326317623257637,0.001997369108721614,-0.0003994738217443228
1772810856614413600,4.80941357421875,-0.0005326317623257637,-0.00013315794058144093,0.00013315794058144093
1772810856624294100,4.819294189453125,-0.0005326317623257637,-0.0011984214652329683,0.0006657897029072046
1772810856634175000,4.829175048828125,0.0005326317623257637,-0.0011984214652329683,0.00013315794058144093
1772810856644055800,4.839055908203125,-0.0010652635246515274,-0.0011984214652329683,0.0006657897029072046
1772810856653936600,4.8489365234375,0.0005326317623257637,0.0003994738217443228,-0.0003994738217443228
1772810856663817500,4.8588173828125,0,-0.0006657897029072046,0.00013315794058144093
1772810856673698000,4.868697998046875,0.0010652635246515274,0.0003994738217443228,0.0011984214652329683
1772810856683579000,4.878578857421875,0.0010652635246515274,0.0025300008710473776,0.001731053227558732
1772810856693459700,4.888459716796875,-0.0010652635246515274,-0.0027963167522102594,0.00013315794058144093
1772810856703340500,4.898340576171875,0,-0.0011984214652329683,0.0006657897029072046
1772810856713221400,4.908221435546875,-0.0010652635246515274,-0.00013315794058144093,-0.0003994738217443228
1772810856723102000,4.91810205078125,0,0.0014647373463958502,0.00013315794058144093
1772810856732982800,4.927982666015625,0.0010652635246515274,-0.001731053227558732,-0.0009321055840700865
1772810856742863600,4.937863525390625,0.0005326317623257637,-0.00013315794058144093,0.00013315794058144093
1772810856752744400,4.947744384765625,0.002130527049303055,-0.0011984214652329683,-0.0009321055840700865
1772810856762625300,4.957625244140625,0.0010652635246515274,-0.0006657897029072046,-0.0003994738217443228
1772810856772505900,4.967505859375,-0.0005326317623257637,-0.0011984214652329683,0.00013315794058144093
1772810856782386700,4.97738671875,0.0010652635246515274,-0.00013315794058144093,-0.0014647373463958502
1772810856792267500,4.987267578125,0.001597895286977291,-0.0006657897029072046,0.00013315794058144093
1772810856802148400,4.9971484375,0.0005326317623257637,0.0003994738217443228,0.0006657897029072046
1772810856812029200,5.007029296875,0.0010652635246515274,-0.0006657897029072046,-0.0009321055840700865
1772810856821909800,5.01690966796875,0.0005326317623257637,0.0003994738217443228,0.0006657897029072046
1772810856831790600,5.02679052734375,-0.0005326317623257637,-0.00013315794058144093,-0.0003994738217443228
1772810856841671400,5.03667138671875,-0.0005326317623257637,0.0003994738217443228,-0.0009321055840700865
1772810856851552300,5.04655224609375,-0.0005326317623257637,-0.00013315794058144093,0.001731053227558732
1772810856861433000,5.05643310546875,0,0.0009321055840700865,0.00013315794058144093
1772810856871313700,5.066313720703125,-0.0005326317623257637,0.0003994738217443228,0.0006657897029072046
1772810856881194500,5.076194580078125,-0.0010652635246515274,-0.0011984214652329683,-0.0003994738217443228
1772810856891075300,5.086075439453125,-0.0005326317623257637,-0.0006657897029072046,-0.0003994738217443228
1772810856900956200,5.0959560546875,-0.0005326317623257637,0.0003994738217443228,0.00013315794058144093
1772810856910837000,5.1058369140625,-0.0005326317623257637,0.0025300008710473776,-0.0003994738217443228
1772810856920717600,5.115717529296875,-0.0005326317623257637,0.0003994738217443228,-0.0003994738217443228
1772810856930598400,5.125598388671875,-0.0005326317623257637,0.0003994738217443228,-0.0003994738217443228
1772810856940479200,5.135479248046875,0.001597895286977291,0.0009321055840700865,0.0006657897029072046
1772810856950360000,5.145360107421875,0,0.0014647373463958502,-0.0003994738217443228
1772810856960241000,5.155240966796875,0,-0.00013315794058144093,-0.0003994738217443228
1772810856970121500,5.16512158203125,-0.0005326317623257637,-0.001731053227558732,-0.0014647373463958502
1772810856980002300,5.175002197265625,-0.0005326317623257637,-0.0006657897029072046,0.00013315794058144093
1772810856989883100,5.184883056640625,0.0005326317623257637,0.0014647373463958502,0.001731053227558732
1772810856999764000,5.194763916015625,0.001597895286977291,-0.0011984214652329683,-0.0003994738217443228
1772810857009645000,5.20464501953125,0.0005326317623257637,-0.0022636849898844957,-0.0003994738217443228
1772810857019526000,5.21452587890625,-0.0005326317623257637,-0.0011984214652329683,-0.0003994738217443228
1772810857029407000,5.224406982421875,-0.001597895286977291,0.0014647373463958502,0.0011984214652329683
1772810857039287800,5.234287841796875,0,0.0014647373463958502,-0.0009321055840700865
1772810857049169000,5.2441689453125,0.0005326317623257637,-0.0006657897029072046,0.0011984214652329683
1772810857059049700,5.2540498046875,0.0010652635246515274,0.0003994738217443228,-0.0003994738217443228
1772810857068930800,5.263930908203125,-0.0010652635246515274,0.0014647373463958502,0.0006657897029072046
1772810857078811600,5.273811767578125,0,0.001997369108721614,0.001731053227558732
1772810857088692700,5.283692626953125,0,0.0009321055840700865,-0.0003994738217443228
1772810857098573600,5.293573486328125,0,0.0009321055840700865,0.0011984214652329683
1772810857108454700,5.30345458984375,-0.0010652635246515274,0.0009321055840700865,0.00013315794058144093
1772810857118335500,5.31333544921875,-0.001597895286977291,0.0003994738217443228,-0.0003994738217443228
1772810857128216600,5.323216552734375,-0.0010652635246515274,0.0009321055840700865,0.0006657897029072046
1772810857138097400,5.333097412109375,-0.0005326317623257637,0.0003994738217443228,-0.0009321055840700865
1772810857147978500,5.342978515625,-0.0005326317623257637,-0.00013315794058144093,0.0006657897029072046
1772810857157859600,5.352859619140625,0.0005326317623257637,-0.0006657897029072046,-0.0003994738217443228
1772810857167740400,5.362740478515625,0.0005326317623257637,-0.0006657897029072046,-0.0003994738217443228
1772810857177621500,5.37262158203125,-0.0005326317623257637,-0.0006657897029072046,0.00013315794058144093
1772810857187502300,5.38250244140625,-0.0010652635246515274,-0.0006657897029072046,-0.0003994738217443228
1772810857197383400,5.392383544921875,0.0005326317623257637,0.0003994738217443228,0.0011984214652329683
1772810857207264300,5.40226416015625,0,-0.0011984214652329683,0.00013315794058144093
1772810857217145300,5.412145263671875,0.0010652635246515274,0.0003994738217443228,0.001731053227558732
1772810857227026200,5.422026123046875,0,-0.00013315794058144093,0.0006657897029072046
1772810857236907300,5.4319072265625,0,-0.001731053227558732,0.0006657897029072046
1772810857246788000,5.4417880859375,0.0005326317623257637,-0.0011984214652329683,-0.0009321055840700865
1772810857256669200,5.451669189453125,0.0005326317623257637,-0.0011984214652329683,0.00013315794058144093
1772810857266550000,5.461550048828125,-0.0010652635246515274,0.0014647373463958502,0.0006657897029072046
1772810857276431000,5.47143115234375,0,0.0003994738217443228,0.00013315794058144093
1772810857286312200,5.481312255859375,0,0.0003994738217443228,0.0011984214652329683
1772810857296193000,5.491193115234375,-0.0005326317623257637,0.0009321055840700865,0.0011984214652329683
1772810857306074000,5.50107421875,-0.0005326317623257637,0.001997369108721614,-0.0003994738217443228
1772810857315955000,5.510954833984375,-0.0010652635246515274,0.0014647373463958502,0.00013315794058144093
1772810857325836000,5.5208359375,-0.0005326317623257637,-0.0006657897029072046,0.001731053227558732
1772810857335716900,5.530716796875,-0.0010652635246515274,-0.00013315794058144093,-0.0003994738217443228
1772810857345598000,5.540597900390625,-0.0005326317623257637,0.0003994738217443228,-0.0003994738217443228
1772810857355478800,5.550478759765625,0.0005326317623257637,-0.00013315794058144093,0.001731053227558732
1772810857365359900,5.56035986328125,0.0010652635246515274,0.0014647373463958502,-0.0003994738217443228
1772810857375240700,5.57024072265625,0,-0.0006657897029072046,0.0006657897029072046
1772810857385121800,5.580121826171875,0,-0.0011984214652329683,-0.0009321055840700865
1772810857395002600,5.590002685546875,0,-0.00013315794058144093,0.0006657897029072046
1772810857404883700,5.5998837890625,0.002130527049303055,0.001997369108721614,-0.0009321055840700865
1772810857414764800,5.609764892578125,-0.0005326317623257637,0.0003994738217443228,-0.0003994738217443228
1772810857424645600,5.619645751953125,-0.0005326317623257637,0.0003994738217443228,0.00013315794058144093
1772810857434526700,5.629526611328125,0.0005326317623257637,-0.0011984214652329683,0.0006657897029072046
1772810857444407600,5.639407470703125,0.0005326317623257637,-0.001731053227558732,-0.0009321055840700865
1772810857454288600,5.64928857421875,0.0010652635246515274,-0.0011984214652329683,-0.0009321055840700865
1772810857464169500,5.65916943359375,0.0005326317623257637,-0.00013315794058144093,-0.0009321055840700865
1772810857474050600,5.669050537109375,0.0010652635246515274,-0.001597895286977291,0.001597895286977291
1772810857483931400,5.678931396484375,0.001597895286977291,-0.002130527049303055,0
1772810857493812500,5.6888125,0.0005326317623257637,-0.00426105409860611,0.0005326317623257637
1772810857503693600,5.698693603515625,0,0,0.0010652635246515274
1772810857513574400,5.708574462890625,0,0,0
1772810857523455500,5.71845556640625,-0.0005326317623257637,-0.001597895286977291,0.0005326317623257637
1772810857533336600,5.728336669921875,0.0010652635246515274,0.0026631588116288185,0.0010652635246515274
1772810857543217700,5.7382177734375,-0.0010652635246515274,-0.0005326317623257637,-0.0010652635246515274
1772810857553098500,5.748098388671875,0,0,-0.0005326317623257637
1772810857562979600,5.7579794921875,-0.001597895286977291,0.001597895286977291,0
1772810857572860700,5.767860595703125,0,-0.0010652635246515274,-0.0010652635246515274
1772810857582741800,5.77774169921875,-0.0005326317623257637,-0.0005326317623257637,0
1772810857592622600,5.78762255859375,0.0005326317623257637,-0.0026631588116288185,0.0010652635246515274
1772810857602503700,5.797503662109375,0.0005326317623257637,0.0010652635246515274,-0.0005326317623257637
1772810857612384800,5.807384765625,0,0.001597895286977291,0
1772810857622265900,5.817265869140625,0.0005326317623257637,-0.0005326317623257637,0
1772810857632146700,5.827146728515625,0,-0.0005326317623257637,-0.0005326317623257637
1772810857642027800,5.83702783203125,0,0,0
1772810857651908900,5.846908935546875,0.0010652635246515274,-0.0005326317623257637,0
1772810857661790000,5.8567900390625,0.0005326317623257637,0.0005326317623257637,-0.0010652635246515274
1772810857671671000,5.866671142578125,0,-0.0010652635246515274,0
1772810857681552000,5.8765517578125,-0.0005326317623257637,-0.0005326317623257637,0.001597895286977291
1772810857691433000,5.886432861328125,0,0.0005326317623257637,-0.0005326317623257637
1772810857701314000,5.89631396484375,-0.0010652635246515274,-0.0005326317623257637,0
1772810857711195100,5.906195068359375,0.001597895286977291,-0.001597895286977291,-0.001597895286977291
1772810857721076000,5.916075927734375,0.0005326317623257637,0.0005326317623257637,-0.0010652635246515274
1772810857730957000,5.92595703125,0.0005326317623257637,-0.0005326317623257637,-0.0005326317623257637
1772810857740838100,5.935838134765625,0.0005326317623257637,-0.0026631588116288185,0
1772810857750719200,5.94571923828125,0.0010652635246515274,0.0005326317623257637,0.0005326317623257637
1772810857760600000,5.95560009765625,-0.0010652635246515274,-0.0005326317623257637,0.0005326317623257637
1772810857770481200,5.965481201171875,0.0010652635246515274,-0.0005326317623257637,0
1772810857780362200,5.9753623046875,-0.0010652635246515274,-0.001597895286977291,0.0005326317623257637
1772810857790243300,5.985243408203125,0.0010652635246515274,-0.0005326317623257637,-0.0005326317623257637
1772810857800124200,5.995124267578125,-0.0005326317623257637,-0.0005326317623257637,0.0005326317623257637
1772810857810005200,6.005005126953125,0,-0.0005326317623257637,0.001597895286977291
1772810857819886300,6.01488623046875,0.002130527049303055,0,-0.0010652635246515274
1772810857829767400,6.024767333984375,0.0005326317623257637,0.0005326317623257637,-0.0005326317623257637
1772810857839648300,6.034648193359375,-0.001597895286977291,-0.0005326317623257637,-0.0005326317623257637
1772810857849529300,6.044529296875,-0.0010652635246515274,0.0005326317623257637,-0.0005326317623257637
1772810857859410400,6.054410400390625,-0.001597895286977291,0,0
1772810857869291500,6.06429150390625,-0.0010652635246515274,0.0005326317623257637,0
1772810857879172600,6.074172607421875,-0.001597895286977291,0.002130527049303055,0.0005326317623257637
1772810857889053400,6.084053466796875,-0.0005326317623257637,0.0010652635246515274,-0.0010652635246515274
1772810857898934500,6.0939345703125,0.001597895286977291,0.0005326317623257637,-0.0005326317623257637
1772810857908815600,6.103815673828125,0.0010652635246515274,0,0.0005326317623257637
1772810857918696700,6.11369677734375,0.0005326317623257637,-0.0005326317623257637,-0.0010652635246515274
1772810857928577500,6.12357763671875,0.001597895286977291,0,0
1772810857938458600,6.133458740234375,-0.0005326317623257637,-0.002130527049303055,0
1772810857948339700,6.143339599609375,0.0010652635246515274,0,-0.0005326317623257637
1772810857958220800,6.153220703125,0.0010652635246515274,0.0010652635246515274,0.0005326317623257637
1772810857968101600,6.1631015625,-0.0010652635246515274,0.0010652635246515274,0.0010652635246515274
1772810857977982700,6.172982666015625,0.0005326317623257637,0,-0.0010652635246515274
1772810857987863800,6.18286376953125,0.0005326317623257637,-0.0005326317623257637,-0.0005326317623257637
1772810857997745000,6.192744873046875,-0.0005326317623257637,-0.0010652635246515274,0.0010652635246515274
1772810858007626200,6.202626220703125,-0.001597895286977291,-0.0005326317623257637,0.0010652635246515274
1772810858017507800,6.2125078125,-0.0010652635246515274,0.0010652635246515274,0.001597895286977291
1772810858027389200,6.22238916015625,-0.002130527049303055,0.001597895286977291,-0.0026631588116288185
1772810858037270800,6.232270751953125,0.0005326317623257637,-0.0010652635246515274,0
1772810858047152000,6.242152099609375,0.0010652635246515274,0,0
1772810858057033500,6.252033447265625,0,0.001597895286977291,-0.0005326317623257637
1772810858066915000,6.2619150390625,0.0005326317623257637,-0.0005326317623257637,0.002130527049303055
1772810858076796400,6.27179638671875,0.0010652635246515274,-0.0010652635246515274,0
1772810858086678000,6.281677978515625,-0.0005326317623257637,0,0.0005326317623257637
1772810858096559400,6.291559326171875,-0.0005326317623257637,-0.0010652635246515274,-0.001597895286977291
1772810858106440700,6.301440673828125,0,0.001597895286977291,-0.0005326317623257637
1772810858116322300,6.311322265625,0.0005326317623257637,-0.0005326317623257637,0.002130527049303055
1772810858126203600,6.32120361328125,0,0.0005326317623257637,0.0005326317623257637
1772810858136085200,6.331085205078125,0.0010652635246515274,0,0
1772810858145966600,6.340966552734375,0,-0.0005326317623257637,0.0005326317623257637
1772810858155848200,6.35084814453125,-0.0005326317623257637,0,-0.0005326317623257637
1772810858165729500,6.3607294921875,0,-0.0005326317623257637,0.0010652635246515274
1772810858175611000,6.37061083984375,0,0.001597895286977291,0
1772810858185492500,6.380492431640625,0.0010652635246515274,-0.0005326317623257637,0
1772810858195373800,6.390373779296875,0.0010652635246515274,-0.0005326317623257637,0
1772810858205255400,6.40025537109375,-0.0010652635246515274,0.0010652635246515274,-0.0005326317623257637
1772810858215136800,6.41013671875,-0.0005326317623257637,0,0.002130527049303055
1772810858225018000,6.42001806640625,0,-0.0005326317623257637,0.0010652635246515274
1772810858234899700,6.429899658203125,0.0005326317623257637,-0.001597895286977291,0
1772810858244781000,6.439781005859375,0.0010652635246515274,-0.0010652635246515274,0.0005326317623257637
1772810858254662700,6.44966259765625,0.001597895286977291,-0.0005326317623257637,-0.0005326317623257637
1772810858264544000,6.4595439453125,0.002130527049303055,0,-0.0005326317623257637
1772810858274425300,6.46942529296875,0.001597895286977291,0.0005326317623257637,0.0010652635246515274
1772810858284307000,6.479306884765625,0,-0.0005326317623257637,0.0005326317623257637
1772810858294188300,6.489188232421875,-0.0010652635246515274,0,-0.001597895286977291
1772810858304070000,6.49906982421875,0.0005326317623257637,-0.0005326317623257637,0.0005326317623257637
1772810858313951200,6.508951171875,-0.001597895286977291,-0.0010652635246515274,-0.0005326317623257637
1772810858323832600,6.51883251953125,-0.0005326317623257637,0.0005326317623257637,0.0010652635246515274
1772810858333714200,6.528714111328125,-0.0010652635246515274,0.001597895286977291,0
1772810858343595500,6.538595458984375,0,-0.001597895286977291,0
1772810858353477000,6.54847705078125,0,-0.0005326317623257637,0.0005326317623257637
1772810858363358500,6.5583583984375,0.0010652635246515274,0.0010652635246515274,0
1772810858373239800,6.56823974609375,0.0005326317623257637,-0.0026631588116288185,-0.0005326317623257637
1772810858383121400,6.578121337890625,-0.0005326317623257637,0.0005326317623257637,0
1772810858393002800,6.588002685546875,0.0026631588116288185,-0.0005326317623257637,0
1772810858402884400,6.59788427734375,-0.0005326317623257637,0,-0.0005326317623257637
1772810858412765700,6.607765625,0.0026631588116288185,-0.0010652635246515274,0.0010652635246515274
1772810858422647300,6.617647216796875,0,0.001597895286977291,-0.0005326317623257637
1772810858432528600,6.627528564453125,0.0010652635246515274,-0.0005326317623257637,0
1772810858442410000,6.637409912109375,0.001597895286977291,0.0005326317623257637,0.0005326317623257637
1772810858452291600,6.64729150390625,-0.0005326317623257637,-0.0005326317623257637,-0.001597895286977291
1772810858462173000,6.6571728515625,-0.0005326317623257637,0.0010652635246515274,-0.0005326317623257637
1772810858472054500,6.667054443359375,0,0.0005326317623257637,-0.0005326317623257637
1772810858481936000,6.676935791015625,0.0010652635246515274,-0.0010652635246515274,0
1772810858491817200,6.686817138671875,0.0005326317623257637,-0.0010652635246515274,0.0010652635246515274
1772810858501698600,6.696698486328125,-0.0010652635246515274,-0.001597895286977291,-0.001597895286977291
1772810858511580000,6.706579833984375,0.0010652635246515274,-0.001597895286977291,-0.0005326317623257637
1772810858521461200,6.716461181640625,0,0.0005326317623257637,-0.0005326317623257637
1772810858531342600,6.726342529296875,0.0010652635246515274,0.001597895286977291,0.001597895286977291
1772810858541224000,6.736223876953125,-0.001597895286977291,-0.001597895286977291,-0.0005326317623257637
1772810858551105300,6.746105224609375,-0.0005326317623257637,0,0.0010652635246515274
1772810858560986600,6.755986572265625,-0.0010652635246515274,0,0
1772810858570868000,6.765867919921875,0.0010652635246515274,-0.002130527049303055,-0.0005326317623257637
1772810858580749300,6.775749267578125,0,0.0010652635246515274,0.0010652635246515274
1772810858590630700,6.785630615234375,0.0010652635246515274,0.0010652635246515274,0
1772810858600512000,6.795511962890625,-0.0010652635246515274,-0.0010652635246515274,0
1772810858610393300,6.805393310546875,0,-0.0010652635246515274,0.0010652635246515274
1772810858620274700,6.815274658203125,-0.0010652635246515274,0.0005326317623257637,0
1772810858630155800,6.82515576171875,-0.0005326317623257637,-0.0005326317623257637,0
1772810858640037000,6.835037109375,0,-0.0005326317623257637,0
1772810858649918500,6.84491845703125,0,0.0005326317623257637,0.0005326317623257637
1772810858659799800,6.8547998046875,-0.0005326317623257637,-0.0010652635246515274,0.0005326317623257637
1772810858669681200,6.86468115234375,0,0.0005326317623257637,0
1772810858679562500,6.8745625,0.002130527049303055,-0.0005326317623257637,-0.0005326317623257637
1772810858689443800,6.88444384765625,-0.0005326317623257637,-0.0026631588116288185,0.0010652635246515274
1772810858699325200,6.8943251953125,0.0005326317623257637,0.0005326317623257637,0
1772810858709206500,6.90420654296875,0.0005326317623257637,-0.0010652635246515274,-0.0010652635246515274
1772810858719087900,6.914087890625,-0.0005326317623257637,0.0005326317623257637,0.0010652635246515274
1772810858728969200,6.92396923828125,-0.0005326317623257637,0,0.0010652635246515274
1772810858738850600,6.9338505859375,0.0005326317623257637,-0.001597895286977291,-0.0005326317623257637
1772810858748731600,6.943731689453125,-0.001597895286977291,-0.0010652635246515274,-0.0005326317623257637
1772810858758613000,6.953613037109375,0,-0.0005326317623257637,0.001597895286977291
1772810858768494300,6.963494384765625,0,-0.001597895286977291,-0.0005326317623257637
1772810858778375700,6.973375732421875,0,-0.0010652635246515274,0
1772810858788257000,6.983257080078125,-0.0005326317623257637,0.0010652635246515274,-0.0010652635246515274
1772810858798138400,6.993138427734375,-0.0005326317623257637,0,-0.0005326317623257637
1772810858808019700,7.003019775390625,0.0010652635246515274,-0.002130527049303055,0.0005326317623257637
1772810858817901000,7.012901123046875,0.001597895286977291,-0.0010652635246515274,0.0005326317623257637
1772810858827782400,7.022782470703125,0,0.0005326317623257637,0
1772810858837663700,7.032663818359375,0.0005326317623257637,0,-0.0010652635246515274
1772810858847545000,7.042545166015625,0.001597895286977291,0,-0.0010652635246515274
1772810858857426400,7.052426513671875,0.0005326317623257637,-0.001597895286977291,0
1772810858867307500,7.0623076171875,0,0.0010652635246515274,0.0010652635246515274
1772810858877188900,7.07218896484375,0,0,0.0010652635246515274
1772810858887070200,7.0820703125,0.0005326317623257637,0.0005326317623257637,0.0005326317623257637
1772810858896951600,7.09195166015625,0.0010652635246515274,0.0005326317623257637,-0.0010652635246515274
1772810858906833000,7.1018330078125,0.0005326317623257637,0.002130527049303055,-0.0005326317623257637
1772810858916714200,7.11171435546875,0.0005326317623257637,0,-0.0005326317623257637
1772810858926595600,7.121595703125,-0.0010652635246515274,-0.0005326317623257637,-0.0010652635246515274
1772810858936477000,7.131476806640625,-0.001597895286977291,-0.0005326317623257637,0
1772810858946358300,7.141358154296875,-0.0010652635246515274,-0.0010652635246515274,0.001597895286977291
1772810858956239600,7.151239501953125,0,0.0005326317623257637,0.0005326317623257637
1772810858966121000,7.161120849609375,0.002130527049303055,-0.0010652635246515274,-0.0010652635246515274
1772810858976002300,7.171002197265625,0,-0.0005326317623257637,0.001597895286977291
1772810858985883600,7.180883544921875,0.0005326317623257637,0.0005326317623257637,-0.0005326317623257637
1772810858995764700,7.1907646484375,0.0005326317623257637,-0.0010652635246515274,0.0005326317623257637
1772810859005645800,7.200645751953125,-0.002130527049303055,0.0005326317623257637,-0.0010652635246515274
1772810859015527000,7.21052685546875,-0.001597895286977291,-0.0005326317623257637,0.0005326317623257637
1772810859025408000,7.220407958984375,0.0010652635246515274,0,0
1772810859035289000,7.2302890625,-0.0005326317623257637,0,-0.001597895286977291
1772810859045170000,7.240169921875,-0.0005326317623257637,-0.0010652635246515274,-0.0005326317623257637
1772810859055051000,7.250051025390625,0.001597895286977291,-0.0005326317623257637,0
1772810859064932000,7.25993212890625,-0.0005326317623257637,0,-0.0005326317623257637
1772810859074813200,7.269813232421875,-0.0010652635246515274,0,0.0005326317623257637
1772810859084694300,7.2796943359375,0.0010652635246515274,-0.0005326317623257637,-0.0005326317623257637
1772810859094575400,7.289575439453125,0.0005326317623257637,0.0010652635246515274,0
1772810859104456200,7.299456298828125,-0.001597895286977291,-0.001597895286977291,0.0010652635246515274
1772810859114337300,7.309337158203125,0.0005326317623257637,-0.0026631588116288185,0.0005326317623257637
1772810859124218400,7.31921826171875,-0.0010652635246515274,-0.002130527049303055,0.001597895286977291
1772810859134099500,7.329099365234375,0.0005326317623257637,0,-0.0010652635246515274
1772810859143980500,7.33898046875,0.0005326317623257637,-0.0005326317623257637,0.0010652635246515274
1772810859153861400,7.348861328125,-0.002130527049303055,0.001597895286977291,-0.0005326317623257637
1772810859163742500,7.358742431640625,-0.0005326317623257637,-0.0005326317623257637,0.0005326317623257637
1772810859173623600,7.36862353515625,0.0010652635246515274,0,0.0010652635246515274
1772810859183504600,7.378504638671875,0.0005326317623257637,-0.0005326317623257637,-0.0010652635246515274
1772810859193385700,7.3883857421875,0.0005326317623257637,0.001597895286977291,0
1772810859203266800,7.398266845703125,-0.0005326317623257637,0.0005326317623257637,-0.0005326317623257637
1772810859213147600,7.408147705078125,0.001597895286977291,-0.001597895286977291,-0.0010652635246515274
1772810859223028700,7.41802880859375,0.0010652635246515274,0.001597895286977291,0
1772810859232909800,7.427909912109375,0,0,0
1772810859242791000,7.437791015625,0.0005326317623257637,-0.002130527049303055,-0.001597895286977291
1772810859252672000,7.447672119140625,-0.00013315794058144093,0.0013315794058144093,0
1772810859262552800,7.457552734375,0.0009321055840700865,0.0007989476434886456,-0.0005326317623257637
1772810859272434000,7.467433837890625,0.001997369108721614,-0.0013315794058144093,0
1772810859282315000,7.47731494140625,-0.0011984214652329683,-0.0007989476434886456,0
1772810859292196000,7.487196044921875,-0.00013315794058144093,-0.00026631588116288185,0.0010652635246515274
1772810859302077200,7.4970771484375,0.0009321055840700865,-0.001864211168140173,0.0005326317623257637
1772810859311958300,7.506958251953125,-0.00013315794058144093,-0.0007989476434886456,0
1772810859321839000,7.516839111328125,-0.0006657897029072046,-0.00026631588116288185,0.0005326317623257637
1772810859331720200,7.52672021484375,-0.0011984214652329683,0.001864211168140173,-0.0005326317623257637
1772810859341601300,7.536601318359375,-0.00013315794058144093,0.0007989476434886456,-0.0005326317623257637
1772810859351482400,7.546482421875,-0.00013315794058144093,0.00026631588116288185,0
1772810859361363500,7.556363525390625,-0.00013315794058144093,0.00026631588116288185,0.0005326317623257637
1772810859371244300,7.566244384765625,-0.0006657897029072046,0.0013315794058144093,0
1772810859381125400,7.57612548828125,0.0009321055840700865,0.0007989476434886456,-0.0005326317623257637
1772810859391006500,7.58600634765625,-0.0006657897029072046,-0.00026631588116288185,0.0010652635246515274
1772810859400887600,7.595887451171875,-0.00013315794058144093,0.0013315794058144093,0.0005326317623257637
1772810859410768600,7.6057685546875,0.0014647373463958502,0.001864211168140173,0
1772810859420649500,7.6156494140625,-0.00013315794058144093,0.0013315794058144093,-0.0010652635246515274
1772810859430530600,7.625530517578125,0.0003994738217443228,-0.0007989476434886456,0.0005326317623257637
1772810859440411600,7.63541162109375,-0.00013315794058144093,-0.0007989476434886456,0.001597895286977291
1772810859450292700,7.645292724609375,0.0003994738217443228,-0.001864211168140173,0.0010652635246515274
1772810859460173800,7.655173828125,-0.0006657897029072046,0.001864211168140173,-0.0005326317623257637
1772810859470054700,7.6650546875,0.0014647373463958502,0.00026631588116288185,0.0010652635246515274
1772810859479935700,7.674935791015625,-0.0006657897029072046,0.00026631588116288185,0.0005326317623257637
1772810859489816800,7.68481689453125,-0.00013315794058144093,0.00026631588116288185,0.0010652635246515274
1772810859499697700,7.69469775390625,0.0009321055840700865,-0.00026631588116288185,0
1772810859509578200,7.704578125,-0.00013315794058144093,-0.001864211168140173,0
1772810859519459000,7.714458984375,-0.001731053227558732,-0.0007989476434886456,0
1772810859529339600,7.724339599609375,-0.00013315794058144093,-0.0007989476434886456,0
1772810859539220200,7.73422021484375,-0.0006657897029072046,0.0007989476434886456,0.0005326317623257637
1772810859549100800,7.744100830078125,0.0009321055840700865,-0.0023968429304659367,0.0010652635246515274
1772810859558981600,7.753981689453125,0.0003994738217443228,0.0013315794058144093,0.0010652635246515274
1772810859568862200,7.7638623046875,-0.00013315794058144093,0.00026631588116288185,-0.0005326317623257637
1772810859578742800,7.77374267578125,-0.00013315794058144093,-0.0013315794058144093,-0.0010652635246515274
1772810859588623400,7.783623291015625,0.0003994738217443228,-0.0007989476434886456,0.0010652635246515274
1772810859598504200,7.793504150390625,-0.00013315794058144093,-0.0007989476434886456,-0.001597895286977291
1772810859608384800,7.803384765625,0.0009321055840700865,0.0013315794058144093,0.0005326317623257637
1772810859618265300,7.813265380859375,0.0009321055840700865,-0.0007989476434886456,0.0005326317623257637
1772810859628146000,7.82314599609375,-0.0006657897029072046,-0.00026631588116288185,0.0010652635246515274
1772810859638026500,7.833026611328125,-0.0022636849898844957,0.0007989476434886456,0.002130527049303055
1772810859647907300,7.8429072265625,-0.0006657897029072046,-0.0013315794058144093,0.0005326317623257637
1772810859657788000,7.852787841796875,0.0003994738217443228,-0.00026631588116288185,0.001597895286977291
1772810859667668500,7.86266845703125,-0.00013315794058144093,-0.0007989476434886456,0.0005326317623257637
1772810859677549000,7.872549072265625,0.0009321055840700865,-0.0013315794058144093,0.002130527049303055
1772810859687430000,7.882429931640625,0.001997369108721614,0.00026631588116288185,0.0005326317623257637
1772810859697310500,7.892310546875,-0.0006657897029072046,0.0007989476434886456,0.0005326317623257637
1772810859707191000,7.90219091796875,0.0009321055840700865,-0.0007989476434886456,0.0005326317623257637
1772810859717071600,7.912071533203125,-0.001731053227558732,0.00026631588116288185,0.0005326317623257637
1772810859726952400,7.921952392578125,-0.0006657897029072046,-0.0013315794058144093,0.0005326317623257637
1772810859736833000,7.9318330078125,-0.00013315794058144093,-0.00026631588116288185,-0.0005326317623257637
1772810859746713600,7.941713623046875,-0.0011984214652329683,-0.0007989476434886456,0.0010652635246515274
1772810859756594200,7.95159423828125,-0.0011984214652329683,0.00026631588116288185,0
1772810859766474800,7.961474853515625,0.0003994738217443228,-0.0007989476434886456,-0.0005326317623257637
1772810859776355600,7.97135546875,0.0014647373463958502,-0.00026631588116288185,-0.0010652635246515274
1772810859786236200,7.981236083984375,0.0003994738217443228,0.00026631588116288185,0.0005326317623257637
1772810859796116700,7.99111669921875,0.0003994738217443228,0.00026631588116288185,0.0005326317623257637
1772810859805997300,8.000997314453125,-0.0006657897029072046,-0.0007989476434886456,0.0005326317623257637
1772810859815878100,8.010878173828125,-0.0006657897029072046,0.0013315794058144093,0.0010652635246515274
1772810859825758700,8.0207587890625,-0.001731053227558732,0.0013315794058144093,-0.0005326317623257637
1772810859835639300,8.030639404296876,-0.00013315794058144093,0.0013315794058144093,-0.0010652635246515274
1772810859845520000,8.040519775390624,-0.00013315794058144093,0.00026631588116288185,-0.0005326317623257637
1772810859855400700,8.050400634765625,-0.0011984214652329683,-0.0023968429304659367,0.002130527049303055
1772810859865281300,8.06028125,-0.00013315794058144093,-0.00026631588116288185,0.0005326317623257637
1772810859875161900,8.070161865234375,-0.0011984214652329683,-0.00026631588116288185,0
1772810859885042400,8.08004248046875,0.0009321055840700865,0.001864211168140173,0
1772810859894923300,8.08992333984375,-0.00013315794058144093,0.001864211168140173,0.0010652635246515274
1772810859904803800,8.099803955078125,-0.00013315794058144093,-0.00026631588116288185,0.0010652635246515274
1772810859914684400,8.109684326171875,-0.0006657897029072046,0.0013315794058144093,0.0010652635246515274
1772810859924565000,8.11956494140625,-0.0006657897029072046,0.0007989476434886456,0.0010652635246515274
1772810859934445800,8.12944580078125,0.0003994738217443228,-0.0013315794058144093,0.0010652635246515274
1772810859944326400,8.139326416015624,0.0003994738217443228,0.00026631588116288185,0
1772810859954207000,8.14920703125,-0.0011984214652329683,0.001864211168140173,0.001597895286977291
1772810859964087600,8.159087646484375,0.0009321055840700865,0.0013315794058144093,0.001597895286977291
1772810859973968400,8.168968505859375,0.0003994738217443228,0.0013315794058144093,0.0005326317623257637
1772810859983849000,8.178848876953126,-0.00013315794058144093,0.001864211168140173,0.0005326317623257637
1772810859993729500,8.1887294921875,-0.0006657897029072046,0.0013315794058144093,0.0005326317623257637
1772810860003610600,8.198610595703125,-0.001731053227558732,0.00026631588116288185,0.0005326317623257637
1772810860013491700,8.20849169921875,0.0003994738217443228,0.0007989476434886456,-0.0010652635246515274
1772810860023372800,8.218372802734375,-0.00013315794058144093,0.0023968429304659367,0.0010652635246515274
1772810860033254100,8.228254150390624,0.0003994738217443228,-0.0013315794058144093,0.0005326317623257637
1772810860053016300,8.248016357421875,0.0003994738217443228,0.0013315794058144093,-0.0010652635246515274
1772810860062897400,8.2578974609375,0.0003994738217443228,0.0007989476434886456,0
1772810860072778800,8.26777880859375,-0.0006657897029072046,0.0013315794058144093,-0.0005326317623257637
1772810860082659800,8.277659912109375,-0.0006657897029072046,0.0013315794058144093,0.0005326317623257637
1772810860092541000,8.287541015625,0.001997369108721614,0.00026631588116288185,-0.0010652635246515274
1772810860102422000,8.297422119140625,-0.00013315794058144093,0.0029294746927917004,0.0010652635246515274
1772810860112303400,8.307303466796874,-0.00013315794058144093,0.00026631588116288185,0.0005326317623257637
1772810860122184400,8.317184326171875,0.0003994738217443228,0.0013315794058144093,-0.0005326317623257637
1772810860132065500,8.3270654296875,-0.0011984214652329683,0.00026631588116288185,0.0010652635246515274
1772810860141946600,8.336946533203125,-0.001731053227558732,-0.00026631588116288185,0.001597895286977291
1772810860151828000,8.346827880859376,-0.0006657897029072046,-0.001864211168140173,-0.0005326317623257637
1772810860161709000,8.356708984375,-0.0011984214652329683,-0.0023968429304659367,0.0005326317623257637
1772810860171590100,8.366590087890625,-0.00013315794058144093,-0.001864211168140173,-0.0005326317623257637
1772810860181471200,8.37647119140625,0.0014647373463958502,0.00026631588116288185,0.0005326317623257637
1772810860191352300,8.386352294921876,0.0009321055840700865,-0.00026631588116288185,0
1772810860201233700,8.396233642578125,-0.0006657897029072046,-0.00026631588116288185,-0.0010652635246515274
1772810860211114800,8.40611474609375,0.0009321055840700865,0.0007989476434886456,-0.0010652635246515274
1772810860220995800,8.415995849609375,0.0009321055840700865,-0.0007989476434886456,0.0005326317623257637
1772810860230877200,8.425877197265624,0.0009321055840700865,0.00026631588116288185,-0.0005326317623257637
1772810860240758300,8.43575830078125,-0.00013315794058144093,-0.00026631588116288185,0
1772810860250639400,8.445639404296875,-0.0006657897029072046,-0.0013315794058144093,-0.0010652635246515274
1772810860260520400,8.4555205078125,0.0003994738217443228,0.0013315794058144093,0.0005326317623257637
1772810860270401500,8.465401611328126,0.0009321055840700865,0.00026631588116288185,-0.0010652635246515274
1772810860280283000,8.475282958984375,-0.00013315794058144093,-0.00026631588116288185,0
1772810860290164000,8.4851640625,0.0014647373463958502,-0.00026631588116288185,-0.0005326317623257637
1772810860300045000,8.495045166015625,-0.0006657897029072046,-0.0029294746927917004,0.0010652635246515274
1772810860309926100,8.504926025390626,0.0003994738217443228,0.00026631588116288185,0
1772810860319807500,8.514807373046875,0.0014647373463958502,-0.00026631588116288185,0.0005326317623257637
1772810860329688600,8.5246884765625,-0.00013315794058144093,0.0013315794058144093,0.001597895286977291
1772810860339569700,8.534569580078125,-0.00013315794058144093,0.0013315794058144093,-0.002130527049303055
1772810860349450800,8.54445068359375,-0.0022636849898844957,-0.00026631588116288185,0
1772810860359332000,8.55433203125,0.0014647373463958502,0.0013315794058144093,0.0005326317623257637
1772810860369213200,8.564213134765625,0.0003994738217443228,0.0013315794058144093,0.0005326317623257637
1772810860379094300,8.57409423828125,-0.0011984214652329683,0.001864211168140173,0.0005326317623257637
1772810860388975400,8.583975341796876,0.0003994738217443228,-0.0007989476434886456,-0.001597895286977291
1772810860398856700,8.593856689453125,0.0003994738217443228,0.0007989476434886456,0.0005326317623257637
1772810860408737800,8.60373779296875,-0.0011984214652329683,0.0007989476434886456,-0.0010652635246515274
1772810860418619000,8.613618896484375,0.0003994738217443228,-0.00026631588116288185,-0.0010652635246515274
1772810860428500000,8.6235,-0.00013315794058144093,-0.001864211168140173,0
1772810860438381000,8.633381103515624,-0.00013315794058144093,-0.00026631588116288185,0.0010652635246515274
1772810860448262400,8.643262451171875,-0.0006657897029072046,0.0007989476434886456,-0.0010652635246515274
1772810860458143500,8.6531435546875,-0.00013315794058144093,0.0007989476434886456,0
1772810860468024600,8.663024658203126,0.0003994738217443228,-0.00026631588116288185,0.0010652635246515274
1772810860477905700,8.67290576171875,-0.0006657897029072046,0.00026631588116288185,0.002130527049303055
1772810860487787000,8.682787109375,-0.0011984214652329683,0.0007989476434886456,0.0005326317623257637
1772810860497668000,8.692668212890625,0.0009321055840700865,0.00026631588116288185,-0.0010652635246515274
1772810860507549000,8.702548828125,0.0014647373463958502,0.00026631588116288185,0
1772810860517430000,8.712429931640624,0.0003994738217443228,0.0007989476434886456,0.0005326317623257637
1772810860527310800,8.722310791015625,0.0003994738217443228,-0.00026631588116288185,0
1772810860537192000,8.73219189453125,-0.001731053227558732,-0.0007989476434886456,0.001597895286977291
1772810860547073000,8.742072998046876,-0.0006657897029072046,0.0013315794058144093,0.0005326317623257637
1772810860556953900,8.751953857421874,-0.00013315794058144093,0.00026631588116288185,-0.0010652635246515274
1772810860566835000,8.7618349609375,-0.0022636849898844957,0.00026631588116288185,0.0010652635246515274
1772810860576715800,8.7717158203125,0.0014647373463958502,0.00026631588116288185,-0.0005326317623257637
1772810860586596900,8.781596923828126,0.0009321055840700865,-0.0013315794058144093,-0.0005326317623257637
1772810860596477700,8.791477783203124,-0.001731053227558732,0.0013315794058144093,-0.0005326317623257637
1772810860606358800,8.80135888671875,-0.00013315794058144093,-0.00026631588116288185,0
1772810860616239900,8.811239990234375,-0.0011984214652329683,0.00026631588116288185,0.0010652635246515274
1772810860626120700,8.82112060546875,-0.00013315794058144093,0.0007989476434886456,0.001597895286977291
1772810860636001800,8.831001708984376,-0.0006657897029072046,-0.0007989476434886456,-0.0010652635246515274
1772810860645882600,8.840882568359374,-0.0006657897029072046,0.0007989476434886456,-0.0005326317623257637
1772810860655763700,8.850763671875,0.0009321055840700865,0.0007989476434886456,-0.0005326317623257637
1772810860665644500,8.86064453125,-0.0006657897029072046,-0.00026631588116288185,0
1772810860675525600,8.870525634765626,-0.00013315794058144093,-0.00026631588116288185,0
1772810860685406700,8.88040673828125,-0.0006657897029072046,0.00026631588116288185,0
1772810860695287600,8.89028759765625,-0.00013315794058144093,0.0007989476434886456,-0.0005326317623257637
1772810860705168600,8.900168701171875,-0.0011984214652329683,-0.0007989476434886456,0.0005326317623257637
1772810860715049500,8.910049560546875,-0.00013315794058144093,0.00026631588116288185,-0.0010652635246515274
1772810860724930600,8.9199306640625,-0.0011984214652329683,-0.001864211168140173,0
1772810860734811600,8.929811767578125,-0.00013315794058144093,-0.0007989476434886456,-0.001597895286977291
1772810860744692500,8.9396923828125,-0.0006657897029072046,0.00026631588116288185,0.0005326317623257637
1772810860754573600,8.949573486328125,-0.0006657897029072046,-0.0007989476434886456,0
1772810860764454400,8.959454345703126,0.0003994738217443228,-0.0007989476434886456,-0.0005326317623257637
1772810860774335500,8.96933544921875,0.0003994738217443228,-0.0007989476434886456,0.0005326317623257637
1772810860784216300,8.97921630859375,-0.00013315794058144093,-0.00026631588116288185,0.0005326317623257637
1772810860794097400,8.989097412109375,0.0003994738217443228,-0.00026631588116288185,0.0010652635246515274
1772810860803978500,8.998978515625,-0.0006657897029072046,0.0007989476434886456,-0.002130527049303055
1772810860813859300,9.008859375,-0.0022636849898844957,0.0013315794058144093,-0.0010652635246515274
1772810860823740400,9.018740478515625,-0.00013315794058144093,-0.001864211168140173,-0.001597895286977291
1772810860833621500,9.02862158203125,0.0003994738217443228,-0.0013315794058144093,0.0005326317623257637
1772810860843502300,9.03850244140625,-0.00013315794058144093,-0.001864211168140173,0
1772810860853383400,9.048383544921874,-0.001731053227558732,-0.0007989476434886456,-0.0010652635246515274
1772810860863264300,9.05826416015625,-0.0006657897029072046,0.0007989476434886456,0
1772810860873145300,9.068145263671875,-0.00013315794058144093,-0.0007989476434886456,-0.0010652635246515274
1772810860883026200,9.078026123046875,-0.00013315794058144093,-0.00026631588116288185,0.0010652635246515274
1772810860892907300,9.0879072265625,-0.001731053227558732,-0.001864211168140173,0.0005326317623257637
1772810860912669200,9.107669189453125,0.0003994738217443228,-0.0013315794058144093,0
1772810860922550300,9.11755029296875,0.0009321055840700865,0.001864211168140173,-0.0010652635246515274
1772810860932431000,9.12743115234375,-0.0006657897029072046,-0.0007989476434886456,0
1772810860942312200,9.137312255859374,0.0003994738217443228,-0.00026631588116288185,0
1772810860952193300,9.147193359375,-0.00013315794058144093,-0.00026631588116288185,0.0005326317623257637
1772810860962074000,9.15707421875,0.0003994738217443228,-0.0007989476434886456,-0.0005326317623257637
1772810860971955200,9.166955078125,0.0014647373463958502,0.0023968429304659367,0
1772810860981836000,9.1768359375,0.0003994738217443228,-0.00026631588116288185,0.0010652635246515274
1772810860991717000,9.186717041015624,-0.001731053227558732,0.00026631588116288185,-0.0010652635246515274
1772810861001597700,9.19659765625,-0.00013315794058144093,-0.00026631588116288185,0
1772810861011478500,9.206478515625,-0.0006657897029072046,-0.0007989476434886456,-0.001597895286977291
1772810861021359000,9.216359130859376,-0.0006657897029072046,0.0007989476434886456,0.0005326317623257637
1772810861031240000,9.226239990234374,-0.0005326317623257637,0.00026631588116288185,0.0009321055840700865
1772810861041120500,9.23612060546875,-0.0010652635246515274,-0.0013315794058144093,-0.00013315794058144093
1772810861051001000,9.2460009765625,-0.0010652635246515274,0.0007989476434886456,-0.00013315794058144093
1772810861060882000,9.2558818359375,0.0005326317623257637,0.0007989476434886456,0.0003994738217443228
1772810861070762500,9.265762451171875,0.0005326317623257637,0.001864211168140173,-0.00013315794058144093
1772810861090524000,9.28552392578125,0,0.0007989476434886456,-0.0011984214652329683
1772810861100404500,9.295404541015625,0,-0.001864211168140173,-0.00013315794058144093
1772810861110285300,9.305285400390625,0,0.00026631588116288185,-0.001731053227558732
1772810861120166000,9.315165771484375,0.001597895286977291,0.00026631588116288185,0.0009321055840700865
1772810861130046700,9.325046630859376,0.0010652635246515274,0.0013315794058144093,-0.0011984214652329683
1772810861139927300,9.33492724609375,-0.0005326317623257637,0.0007989476434886456,0.0009321055840700865
1772810861149807900,9.344807861328125,-0.0010652635246515274,-0.0007989476434886456,-0.0011984214652329683
1772810861159688700,9.354688720703125,-0.001597895286977291,-0.0013315794058144093,-0.0006657897029072046
1772810861169569300,9.3645693359375,0,-0.00026631588116288185,0.0003994738217443228
1772810861179449900,9.374449951171876,0.0010652635246515274,-0.0013315794058144093,-0.00013315794058144093
1772810861189330700,9.38433056640625,-0.0005326317623257637,0.0007989476434886456,-0.0006657897029072046
1772810861199211300,9.394211181640625,0,0.0007989476434886456,-0.0006657897029072046
1772810861209092000,9.404092041015625,0,0.0013315794058144093,0.0003994738217443228
1772810861218972700,9.41397265625,0.0005326317623257637,0.00026631588116288185,0.0003994738217443228
1772810861228853200,9.423853271484376,-0.0005326317623257637,0.0023968429304659367,-0.00013315794058144093
1772810861238734000,9.433734130859374,0.0010652635246515274,0.0023968429304659367,0.0009321055840700865
1772810861248614700,9.44361474609375,0,-0.0013315794058144093,-0.00013315794058144093
1772810861258495200,9.4534951171875,0.0005326317623257637,-0.0007989476434886456,-0.00013315794058144093
1772810861268376000,9.4633759765625,0.001597895286977291,-0.0013315794058144093,-0.0011984214652329683
1772810861278256600,9.473256591796876,0.0005326317623257637,0.0013315794058144093,-0.0006657897029072046
1772810861288137500,9.483137451171874,0,0.0007989476434886456,-0.00013315794058144093
1772810861298018000,9.49301806640625,-0.0010652635246515274,-0.0013315794058144093,0.0009321055840700865
1772810861307898600,9.502898681640625,0.0010652635246515274,0.0007989476434886456,0.0009321055840700865
1772810861317779500,9.512779541015625,0.0010652635246515274,-0.0007989476434886456,0.0014647373463958502
1772810861327660000,9.522659912109376,0.002130527049303055,-0.0007989476434886456,0.0009321055840700865
1772810861337540900,9.532540771484374,-0.0005326317623257637,-0.0007989476434886456,-0.00013315794058144093
1772810861347421400,9.54242138671875,0.0005326317623257637,0.00026631588116288185,0.0009321055840700865
1772810861357302000,9.552302001953125,-0.0005326317623257637,-0.00026631588116288185,-0.0006657897029072046
1772810861367182800,9.562182861328125,-0.0005326317623257637,-0.001864211168140173,-0.00013315794058144093
1772810861377063400,9.5720634765625,0.001597895286977291,-0.0013315794058144093,-0.00013315794058144093
1772810861386944300,9.5819443359375,0.0005326317623257637,-0.0013315794058144093,0.0003994738217443228
1772810861396824800,9.591824951171875,-0.0010652635246515274,-0.00026631588116288185,0.0003994738217443228
1772810861406705400,9.601705322265625,-0.002130527049303055,-0.001864211168140173,-0.00013315794058144093
1772810861416586200,9.611586181640625,0.0005326317623257637,-0.0013315794058144093,-0.00013315794058144093
1772810861426466800,9.621466796875,-0.0005326317623257637,0.0007989476434886456,-0.0011984214652329683
1772810861436347600,9.63134765625,0,-0.00026631588116288185,-0.00013315794058144093
1772810861446228200,9.641228271484374,-0.0005326317623257637,0.00026631588116288185,0.0014647373463958502
1772810861456108800,9.65110888671875,0.0010652635246515274,-0.0007989476434886456,-0.00013315794058144093
1772810861465989600,9.66098974609375,-0.0005326317623257637,-0.00026631588116288185,-0.00013315794058144093
1772810861475870200,9.6708701171875,0,0.0013315794058144093,0.0009321055840700865
1772810861485751000,9.6807509765625,-0.0005326317623257637,0.0007989476434886456,-0.00013315794058144093
1772810861495631600,9.690631591796874,0,0.00026631588116288185,-0.0011984214652329683
1772810861505513000,9.700512939453125,0,-0.00026631588116288185,-0.0006657897029072046
1772810861515394300,9.710394287109375,-0.0010652635246515274,0.00026631588116288185,-0.0006657897029072046
1772810861525275600,9.720275634765626,-0.001597895286977291,0.00026631588116288185,-0.00013315794058144093
1772810861535157000,9.730156982421875,-0.0010652635246515274,0.00026631588116288185,0.0003994738217443228
1772810861545038600,9.74003857421875,-0.0005326317623257637,0.003462106455117464,-0.001731053227558732
1772810861554920000,9.749919921875,-0.0010652635246515274,-0.00026631588116288185,0.0003994738217443228
1772810861564801300,9.75980126953125,0.001597895286977291,0.00026631588116288185,-0.0011984214652329683
1772810861574682600,9.7696826171875,0,-0.0007989476434886456,-0.00013315794058144093
1772810861584564000,9.77956396484375,-0.0005326317623257637,0.0007989476434886456,0.0003994738217443228
1772810861594445300,9.7894453125,-0.0010652635246515274,-0.0029294746927917004,0.0003994738217443228
1772810861604327000,9.799326904296874,0.0010652635246515274,0.0013315794058144093,-0.00013315794058144093
1772810861614208300,9.809208251953125,0.0005326317623257637,0.00026631588116288185,-0.00013315794058144093
1772810861624089600,9.819089599609375,-0.0005326317623257637,-0.001864211168140173,-0.00013315794058144093
1772810861633971000,9.828970947265624,0.0005326317623257637,-0.001864211168140173,-0.0006657897029072046
1772810861643852300,9.838852294921875,-0.0005326317623257637,0.0023968429304659367,-0.001731053227558732
1772810861653733600,9.848733642578125,0,0.00026631588116288185,-0.0006657897029072046
1772810861663615000,9.858614990234376,0,0.0013315794058144093,0.0003994738217443228
1772810861673496300,9.868496337890624,0.0005326317623257637,-0.0007989476434886456,0.0003994738217443228
1772810861683378000,9.8783779296875,0.0005326317623257637,0.00026631588116288185,0.0003994738217443228
1772810861693259300,9.88825927734375,0,-0.003462106455117464,-0.00013315794058144093
1772810861703140600,9.898140625,0.0010652635246515274,-0.00026631588116288185,-0.0011984214652329683
1772810861713022000,9.90802197265625,-0.0010652635246515274,-0.00026631588116288185,-0.0006657897029072046
1772810861722903300,9.9179033203125,-0.0005326317623257637,-0.0013315794058144093,-0.00013315794058144093
1772810861732784600,9.92778466796875,0,0.00026631588116288185,0.0009321055840700865
1772810861742666000,9.937666015625,-0.0005326317623257637,-0.0007989476434886456,-0.0011984214652329683
1772810861752547300,9.94754736328125,-0.0005326317623257637,-0.0013315794058144093,-0.00013315794058144093
1772810861762429000,9.957428955078125,-0.0005326317623257637,-0.0007989476434886456,0.0003994738217443228
1772810861772310300,9.967310302734376,0,-0.0007989476434886456,0.0014647373463958502
1772810861782191600,9.977191650390624,-0.0010652635246515274,0.0007989476434886456,0.0003994738217443228
1772810861792073000,9.987072998046875,0.0005326317623257637,0.00026631588116288185,0.0003994738217443228
1772810861801954300,9.996954345703125,0,0.0007989476434886456,-0.001731053227558732
1772810861811835600,10.006835693359376,0,-0.0007989476434886456,0.0009321055840700865
1772810861821717000,10.016717041015625,-0.0010652635246515274,0.00026631588116288185,0.0009321055840700865
1772810861831598600,10.0265986328125,0,-0.00026631588116288185,-0.0011984214652329683
1772810861841480000,10.03647998046875,-0.0010652635246515274,-0.0007989476434886456,-0.00013315794058144093
1772810861851361300,10.046361328125,0.0005326317623257637,0.0013315794058144093,0.0003994738217443228
1772810861861242600,10.05624267578125,0.0010652635246515274,-0.00026631588116288185,0.0009321055840700865
1772810861871124000,10.0661240234375,0.0005326317623257637,-0.00026631588116288185,0.0003994738217443228
1772810861881005300,10.07600537109375,-0.0010652635246515274,-0.001864211168140173,0.0014647373463958502
1772810861890886700,10.08588671875,0.0010652635246515274,-0.0013315794058144093,0.0009321055840700865
1772810861900768000,10.09576806640625,0.0005326317623257637,-0.0029294746927917004,-0.0011984214652329683
1772810861910649600,10.105649658203125,-0.0010652635246515274,-0.0023968429304659367,-0.0006657897029072046
1772810861920531000,10.115531005859374,0,-0.0007989476434886456,-0.00013315794058144093
1772810861930412300,10.125412353515625,0,0.0007989476434886456,0.0009321055840700865
1772810861940293600,10.135293701171875,0.0010652635246515274,0.00026631588116288185,-0.0011984214652329683
1772810861950175000,10.145175048828126,0.0010652635246515274,-0.0007989476434886456,-0.00013315794058144093
1772810861960056300,10.155056396484374,0.0010652635246515274,0.0007989476434886456,-0.001731053227558732
1772810861969938000,10.16493798828125,0,-0.0007989476434886456,-0.00013315794058144093
1772810861979819300,10.1748193359375,0.0005326317623257637,-0.0007989476434886456,-0.001731053227558732
1772810861989700600,10.18470068359375,0.0005326317623257637,-0.00026631588116288185,-0.00013315794058144093
1772810861999581700,10.194581787109374,0.0010652635246515274,0.00026631588116288185,0.0003994738217443228
1772810862009462300,10.204462158203125,0.001597895286977291,-0.0029294746927917004,0.0014647373463958502
1772810862019343000,10.214343017578125,-0.0005326317623257637,-0.00026631588116288185,-0.0006657897029072046
1772810862029224000,10.224223876953126,0.0010652635246515274,-0.00026631588116288185,0.0014647373463958502
1772810862039104800,10.234104736328124,0.0005326317623257637,-0.0013315794058144093,0.0003994738217443228
1772810862048985600,10.243985595703125,0,0.001864211168140173,0.0003994738217443228
1772810862058866400,10.253866455078125,0.0005326317623257637,-0.00026631588116288185,-0.00013315794058144093
1772810862068747300,10.263747314453125,0.0010652635246515274,-0.00026631588116288185,-0.00013315794058144093
1772810862078628000,10.273628173828126,0,-0.00026631588116288185,0.0003994738217443228
1772810862088509000,10.283509033203124,-0.0010652635246515274,0.0013315794058144093,0.0003994738217443228
1772810862098389500,10.293389404296875,0.0005326317623257637,-0.00026631588116288185,0.0003994738217443228
1772810862108270300,10.303270263671875,0.0005326317623257637,0.00026631588116288185,-0.0006657897029072046
1772810862118151200,10.313151123046875,0.0005326317623257637,-0.0013315794058144093,-0.0006657897029072046
1772810862128032000,10.323031982421876,-0.0005326317623257637,0.0007989476434886456,-0.00013315794058144093
1772810862137912800,10.332912841796874,0,-0.00026631588116288185,-0.00013315794058144093
1772810862147793700,10.342793701171875,-0.0005326317623257637,0.0013315794058144093,-0.00013315794058144093
1772810862157674500,10.352674560546875,0.0010652635246515274,0.0013315794058144093,-0.0006657897029072046
1772810862167555300,10.362555419921875,0.0005326317623257637,-0.00026631588116288185,-0.001731053227558732
1772810862177436200,10.372436279296876,0.0005326317623257637,-0.0007989476434886456,0.0003994738217443228
1772810862187317000,10.38231689453125,0.0005326317623257637,0.0013315794058144093,-0.0006657897029072046
1772810862197197600,10.392197509765625,0.0005326317623257637,0.0013315794058144093,-0.0006657897029072046
1772810862207078400,10.402078369140625,0,0.00026631588116288185,-0.00013315794058144093
1772810862216959200,10.411959228515625,-0.0005326317623257637,-0.0007989476434886456,-0.0006657897029072046
1772810862226840000,10.421840087890626,0.0010652635246515274,0.001864211168140173,-0.001731053227558732
1772810862236721000,10.431720947265624,0.001597895286977291,-0.00026631588116288185,0.001997369108721614
1772810862246601700,10.441601806640625,0.0005326317623257637,-0.00026631588116288185,0.0003994738217443228
1772810862256482600,10.451482666015625,-0.0010652635246515274,0.00026631588116288185,-0.0006657897029072046
1772810862266363400,10.46136328125,-0.0005326317623257637,-0.0007989476434886456,-0.00013315794058144093
1772810862276244200,10.471244140625,-0.0005326317623257637,0.0007989476434886456,-0.0006657897029072046
1772810862286125000,10.481125,0.0010652635246515274,0.00026631588116288185,0.0003994738217443228
1772810862296006000,10.491005859375,-0.0005326317623257637,-0.00026631588116288185,-0.0006657897029072046
1772810862305886500,10.500886474609375,0.002130527049303055,-0.001864211168140173,-0.0011984214652329683
1772810862315767300,10.510767333984376,0,0.0013315794058144093,-0.0011984214652329683
1772810862325648100,10.520648193359374,-0.0005326317623257637,0.00026631588116288185,0.0009321055840700865
1772810862335529000,10.530529052734375,-0.0005326317623257637,-0.00026631588116288185,-0.00013315794058144093
1772810862345409800,10.540409912109375,0,-0.00026631588116288185,0.0014647373463958502
1772810862355290600,10.55029052734375,0.0005326317623257637,0.0013315794058144093,0.0003994738217443228
1772810862365171500,10.56017138671875,0,-0.00026631588116288185,-0.00013315794058144093
1772810862375052300,10.57005224609375,0.0005326317623257637,0.00026631588116288185,-0.001731053227558732
1772810862384933000,10.57993310546875,-0.0005326317623257637,0.0007989476434886456,-0.00013315794058144093
1772810862394813700,10.589813720703125,0.0010652635246515274,0.0013315794058144093,-0.001731053227558732
1772810862404694500,10.599694580078125,0,-0.00026631588116288185,-0.0006657897029072046
1772810862414575400,10.609575439453126,0.0005326317623257637,0.00026631588116288185,0.0014647373463958502
1772810862424456200,10.619456298828124,0.0005326317623257637,0.0013315794058144093,-0.00013315794058144093
1772810862434337000,10.6293369140625,-0.0005326317623257637,0.0007989476434886456,0.0003994738217443228
1772810862444217900,10.6392177734375,0.0005326317623257637,0.00026631588116288185,0.0009321055840700865
1772810862454098700,10.6490986328125,-0.0005326317623257637,0.0007989476434886456,-0.00013315794058144093
1772810862463979500,10.6589794921875,-0.0010652635246515274,-0.0007989476434886456,-0.0006657897029072046
1772810862473860400,10.6688603515625,-0.0005326317623257637,-0.00026631588116288185,-0.00013315794058144093
1772810862483741000,10.678740966796875,-0.0010652635246515274,-0.00026631588116288185,-0.00013315794058144093
1772810862493621800,10.688621826171875,-0.0005326317623257637,-0.0023968429304659367,0.0009321055840700865
1772810862503502600,10.698502685546876,0.0005326317623257637,0.0007989476434886456,0.0025300008710473776
1772810862513383400,10.708383544921874,0,-0.0013315794058144093,-0.00013315794058144093
1772810862523264000,10.718263916015625,0,0.0007989476434886456,-0.0006657897029072046
1772810862533144800,10.728144775390625,0,-0.001864211168140173,-0.0006657897029072046
1772810862543025700,10.738025634765625,0.0005326317623257637,-0.00026631588116288185,0.0009321055840700865
1772810862552906500,10.747906494140626,0.0005326317623257637,-0.001864211168140173,0.0003994738217443228
1772810862562787000,10.757787109375,-0.0005326317623257637,0.0013315794058144093,0.0009321055840700865
1772810862572668000,10.76766796875,-0.001597895286977291,0.0007989476434886456,-0.00013315794058144093
1772810862582548700,10.777548828125,0.0005326317623257637,0.0007989476434886456,-0.00013315794058144093
1772810862592429300,10.78742919921875,0,0.00026631588116288185,0.0003994738217443228
1772810862602310100,10.79731005859375,0.001597895286977291,-0.00026631588116288185,0.0003994738217443228
1772810862612191000,10.80719091796875,-0.0005326317623257637,0.001864211168140173,0.001997369108721614
1772810862622071800,10.81707177734375,0.0005326317623257637,0.005592633504420519,0.004127896390855312
1772810862631952400,10.826952392578125,-0.0010652635246515274,0.00026631588116288185,-0.0006657897029072046
1772810862641833200,10.836833251953125,-0.0005326317623257637,0.0045273699797689915,0.0014647373463958502
1772810862651714000,10.846714111328126,-0.0005326317623257637,0.00026631588116288185,0.0003994738217443228
1772810862661594600,10.8565947265625,-0.0010652635246515274,0.0007989476434886456,-0.001731053227558732
1772810862671475500,10.866475341796875,0.0005326317623257637,0.001864211168140173,-0.0006657897029072046
1772810862681356300,10.876356201171875,0.0005326317623257637,-0.0013315794058144093,-0.0006657897029072046
1772810862691237000,10.886237060546875,0,-0.0029294746927917004,-0.0011984214652329683
1772810862701117700,10.89611767578125,0.0005326317623257637,-0.005060001742094755,-0.0027963167522102594
1772810862710998500,10.90599853515625,0.0010652635246515274,-0.0023968429304659367,-0.00013315794058144093
1772810862720879400,10.91587939453125,-0.0010652635246515274,-0.00026631588116288185,0.0009321055840700865
