time,seconds_elapsed,z,y,x
1772810441269895400,0.3238955078125,-0.08600521087646484,-0.0011852309107780457,-0.00000832974910736084
1772810441289654800,0.34365478515625,-0.08450698852539062,-0.004928410053253174,0.006361134350299835
1772810441309414100,0.3634140625,-0.0848073959350586,-0.008628413081169128,0.005891300737857819
1772810441329173500,0.383173583984375,-0.08540821075439453,0.004448205232620239,0.010110288858413696
1772810441348932900,0.402932861328125,-0.0881032943725586,0.007891766726970673,0.01182999461889267
1772810441368692200,0.422692138671875,-0.07642555236816406,-0.015692129731178284,-0.013423129916191101
1772810441388451600,0.44245166015625,-0.07402706146240234,-0.018015317618846893,-0.004097506403923035
1772810441408211000,0.4622109375,-0.07851982116699219,-0.008557125926017761,-0.013677306473255157
1772810441427970300,0.48197021484375,-0.09019947052001953,0.0008500143885612488,-0.0016477853059768677
1772810441447730000,0.50172998046875,-0.06923675537109375,-0.006066091358661652,-0.004146158695220947
1772810441467489300,0.5214892578125,-0.07642745971679688,-0.030051447451114655,-0.0014384016394615173
1772810441487248600,0.54124853515625,-0.08092021942138672,0.010394006967544556,0.010640934109687805
1772810441507007500,0.561007568359375,-0.08361625671386719,0.005567759275436401,-0.020391501486301422
1772810441526766300,0.580766357421875,-0.10457515716552734,-0.0017008185386657715,-0.008515618741512299
1772810441546525200,0.600525146484375,-0.0764312744140625,0.019925907254219055,-0.003463432192802429
1772810441566284000,0.620283935546875,-0.07643413543701172,-0.01043882966041565,0.011662177741527557
1772810441586043100,0.640043212890625,-0.0695486068725586,-0.01760215312242508,-0.007345013320446014
1772810441605802000,0.659802001953125,-0.09320735931396484,-0.0053433701395988464,-0.00015892088413238525
1772810441625560800,0.679560791015625,-0.06685447692871094,-0.019640862941741943,0.014006242156028748
1772810441645319700,0.699319580078125,-0.09559822082519531,-0.0006608515977859497,0.01939268410205841
1772810441665078500,0.71907861328125,-0.06685447692871094,-0.0054804980754852295,0.00996406376361847
1772810441684837400,0.73883740234375,-0.08362483978271484,-0.02467270940542221,0.002882331609725952
1772810441704596200,0.75859619140625,-0.09560108184814453,0.0015948936343193054,-0.013779617846012115
1772810441724355000,0.77835498046875,-0.05997276306152344,-0.007707223296165466,-0.0063843876123428345
1772810441744114000,0.798114013671875,-0.07404899597167969,-0.007737062871456146,-0.008622236549854279
1772810441763872800,0.817872802734375,-0.08572673797607422,-0.03640591353178024,0.01463029533624649
1772810441783631600,0.837631591796875,-0.05728435516357422,-0.012427650392055511,-0.004170581698417664
1772810441803390500,0.857390380859375,-0.07405471801757812,-0.014696493744850159,-0.004065349698066711
1772810441823149600,0.877149658203125,-0.07405376434326172,-0.01457144320011139,-0.006611868739128113
1772810441842908400,0.896908447265625,-0.06926155090332031,-0.0052147433161735535,0.002814874053001404
1772810441862667300,0.916667236328125,-0.08812427520751953,-0.004998229444026947,0.002764463424682617
1772810441882426000,0.936426025390625,-0.08333492279052734,0.0016103386878967285,-0.0025212466716766357
1772810441902185000,0.95618505859375,-0.07165718078613281,-0.0029089227318763733,-0.004864715039730072
1772810441921943800,0.97594384765625,-0.09501266479492188,0.006390370428562164,0.007113002240657806
1772810441941702700,0.99570263671875,-0.07644939422607422,-0.02407420426607132,-0.01204606145620346
1772810441961461500,1.01546142578125,-0.09052371978759766,-0.0055368319153785706,0.01205965131521225
1772810441981220400,1.035220458984375,-0.08813190460205078,-0.01244024932384491,0.00018572062253952026
1772810442000979700,1.054979736328125,-0.08574104309082031,-0.01699952781200409,0.0004447177052497864
1772810442020739300,1.0747392578125,-0.08334827423095703,0.014155946671962738,0.0030995234847068787
1772810442040499200,1.094499267578125,-0.08095645904541016,-0.00009170174598693848,-0.006325677037239075
1772810442060258800,1.1142587890625,-0.07646656036376953,-0.0239681676030159,-0.0038239359855651855
1772810442080018700,1.134018798828125,-0.07616901397705078,-0.0022846609354019165,-0.003718435764312744
1772810442099778600,1.153778564453125,-0.0878458023071289,-0.01892327517271042,0.0008667260408401489
1772810442119538200,1.1735380859375,-0.05490684509277344,-0.002132795751094818,-0.0015795081853866577
1772810442139298000,1.193298095703125,-0.0878448486328125,-0.0021640360355377197,-0.015945397317409515
1772810442159057700,1.2130576171875,-0.08814716339111328,0.007891245186328888,-0.005958832800388336
1772810442178817500,1.232817626953125,-0.07646942138671875,-0.010896794497966766,-0.005656778812408447
1772810442198577200,1.2525771484375,-0.0977315902709961,-0.013266630470752716,-0.0030531734228134155
1772810442218337000,1.2723369140625,-0.07647228240966797,-0.003716416656970978,-0.0006036534905433655
1772810442238097000,1.292096923828125,-0.0905466079711914,-0.0013490915298461914,0.013917684555053711
1772810442257856500,1.3118564453125,-0.0788717269897461,-0.006119146943092346,0.002148061990737915
1772810442277616400,1.331616455078125,-0.07887458801269531,-0.005836851894855499,-0.00014435499906539917
1772810442297376000,1.3513759765625,-0.07887649536132812,-0.010344088077545166,-0.0025902092456817627
1772810442317136000,1.371135986328125,-0.10013294219970703,0.003894023597240448,-0.0003497004508972168
1772810442336895500,1.3908955078125,-0.081268310546875,-0.005716942250728607,-0.007387526333332062
1772810442356655400,1.4106552734375,-0.06719398498535156,0.013212420046329498,0.01860542595386505
1772810442376415000,1.4304150390625,-0.08336448669433594,-0.003832980990409851,-0.005893498659133911
1772810442396174800,1.4501748046875,-0.08096981048583984,-0.018124759197235107,-0.0034447237849235535
1772810442415934700,1.469934814453125,-0.07408428192138672,-0.006071694195270538,-0.015363261103630066
1772810442435694300,1.4896943359375,-0.08785629272460938,-0.003602840006351471,0.001198895275592804
1772810442455454000,1.509453857421875,-0.08336353302001953,-0.0011344850063323975,-0.003796227276325226
1772810442475213800,1.5292138671875,-0.07857227325439453,0.01091001182794571,-0.008634127676486969
1772810442494973700,1.5489736328125,-0.07617473602294922,-0.005885861814022064,-0.0039443448185920715
1772810442514734600,1.568734619140625,-0.0761728286743164,0.005957223474979401,-0.004046976566314697
1772810442534495200,1.5884951171875,-0.07616996765136719,-0.008546598255634308,-0.0043016523122787476
1772810442554256100,1.608256103515625,-0.06449127197265625,-0.00841890275478363,0.005278438329696655
1772810442574016800,1.628016845703125,-0.08785057067871094,0.006073504686355591,0.012614406645298004
1772810442593777400,1.64777734375,-0.08545303344726562,-0.010929346084594727,-0.004200965166091919
1772810442613538300,1.667538330078125,-0.0809621810913086,-0.008561916649341583,-0.006539694964885712
1772810442633299000,1.687298828125,-0.07856559753417969,-0.0014555975794792175,0.0029366835951805115
1772810442653059800,1.707059814453125,-0.08784675598144531,-0.006017833948135376,0.0051243603229522705
1772810442672820500,1.726820556640625,-0.07168006896972656,-0.027643710374832153,-0.00893370807170868
1772810442692581400,1.746581298828125,-0.09982490539550781,-0.0012710392475128174,-0.01387205719947815
1772810442712342000,1.766342041015625,-0.08335494995117188,-0.0012491345405578613,-0.002100035548210144
1772810442732102700,1.7861025390625,-0.07377338409423828,-0.025219053030014038,-0.00439000129699707
1772810442751863600,1.805863525390625,-0.0809621810913086,-0.005980074405670166,0.0005046948790550232
1772810442771624200,1.825624267578125,-0.10012531280517578,-0.0006725713610649109,-0.006027385592460632
1772810442791385000,1.845385009765625,-0.0671854019165039,-0.012724839150905609,-0.008520446717739105
1772810442811145700,1.865145751953125,-0.07646656036376953,-0.010353989899158478,0.010482534766197205
1772810442830906600,1.88490673828125,-0.08605098724365234,-0.012827612459659576,-0.013203397393226624
1772810442850667300,1.904667236328125,-0.07407093048095703,0.0015637949109077454,0.01048789918422699
1772810442870428200,1.92442822265625,-0.0836477279663086,-0.022353947162628174,-0.006339550018310547
1772810442890188800,1.944188720703125,-0.10221481323242188,0.0016836002469062805,-0.003606639802455902
1772810442909949400,1.963949462890625,-0.06238746643066406,0.004005596041679382,-0.006168723106384277
1772810442929710300,1.98371044921875,-0.059691429138183594,0.008616812527179718,-0.018149949610233307
1772810442949471000,2.003470947265625,-0.1049032211303711,0.0059931352734565735,-0.001449398696422577
1772810442969232000,2.02323193359375,-0.09292411804199219,0.0034204721450805664,-0.006953336298465729
1772810442988992500,2.042992431640625,-0.06926918029785156,-0.015907227993011475,0.0004239380359649658
1772810443008753000,2.0627529296875,-0.0881338119506836,-0.011282756924629211,-0.016194380819797516
1772810443028512800,2.0825126953125,-0.09052753448486328,-0.011246711015701294,-0.006775811314582825
1772810443048273000,2.10227294921875,-0.07645416259765625,-0.02551720291376114,-0.002102874219417572
1772810443068033000,2.122032958984375,-0.08124732971191406,-0.004129759967327118,0.002980180084705353
1772810443087793200,2.141793212890625,-0.07884979248046875,-0.001701347529888153,-0.006818830966949463
1772810443107553300,2.16155322265625,-0.08843135833740234,0.012590743601322174,0.007584594190120697
1772810443127313400,2.1813134765625,-0.055194854736328125,-0.0017484873533248901,0.019583560526371002
1772810443147073500,2.201073486328125,-0.08363723754882812,-0.0018204525113105774,0.00528533011674881
1772810443166833700,2.220833740234375,-0.05728435516357422,-0.006779871881008148,-0.00471186637878418
1772810443186593800,2.24059375,-0.07644844055175781,-0.018711388111114502,0.011980362236499786
1772810443206353700,2.260353759765625,-0.08093547821044922,0.00023607909679412842,0.011543042957782745
1772810443226113800,2.28011376953125,-0.08123493194580078,0.0002159401774406433,0.00852656364440918
1772810443245874000,2.2998740234375,-0.07404613494873047,-0.014167122542858124,0.003666326403617859
1772810443265634000,2.319634033203125,-0.07883453369140625,-0.009894229471683502,0.005835250020027161
1772810443285394200,2.339394287109375,-0.07404327392578125,0.006899714469909668,0.001131489872932434
1772810443305154300,2.359154296875,-0.08571910858154297,-0.0075393542647361755,0.010534897446632385
1772810443324914400,2.37891455078125,-0.0926046371459961,-0.009997278451919556,-0.006244882941246033
1772810443344674600,2.398674560546875,-0.08541679382324219,-0.0028801634907722473,0.0032155513763427734
1772810443364434700,2.4184345703125,-0.06206512451171875,-0.023785926401615143,-0.0150967538356781
1772810443384194800,2.43819482421875,-0.08841705322265625,-0.014160126447677612,-0.012552052736282349
1772810443403954700,2.45795458984375,-0.07164859771728516,0.00014047324657440186,-0.00233285129070282
1772810443423714800,2.47771484375,-0.06925392150878906,-0.011846303939819336,-0.00942404568195343
1772810443443475000,2.497474853515625,-0.08122920989990234,0.021497778594493866,-0.002354845404624939
1772810443463235000,2.517235107421875,-0.07883167266845703,-0.00018289685249328613,-0.0024727582931518555
1772810443482995200,2.5369951171875,-0.09080696105957031,0.00458168238401413,0.002250462770462036
1772810443502755600,2.556755615234375,-0.07164382934570312,-0.01692957431077957,0.0022317618131637573
1772810443522516700,2.576516845703125,-0.069244384765625,-0.007570333778858185,-0.0026736482977867126
1772810443542277600,2.596277587890625,-0.07882881164550781,-0.009872041642665863,0.006988488137722015
1772810443562038500,2.61603857421875,-0.0812234878540039,-0.007838420569896698,-0.0008649230003356934
1772810443581799700,2.635799560546875,-0.08781147003173828,0.008548781275749207,0.001122981309890747
1772810443601560600,2.655560546875,-0.09499549865722656,-0.005891188979148865,-0.0017406418919563293
1772810443621321500,2.675321533203125,-0.06923961639404297,-0.022916115820407867,-0.011885225772857666
1772810443641082600,2.69508251953125,-0.07373046875,-0.0014780908823013306,0.012145675718784332
1772810443660843500,2.714843505859375,-0.06894397735595703,-0.013307727873325348,-0.013949550688266754
1772810443680604400,2.7346044921875,-0.07373619079589844,-0.0060330405831336975,0.012425519526004791
1772810443700365300,2.754365234375,-0.07822704315185547,-0.006149418652057648,-0.006800010800361633
1772810443720126500,2.77412646484375,-0.08301258087158203,0.0004561319947242737,-0.002175629138946533
1772810443739887400,2.793887451171875,-0.08301353454589844,-0.009282186627388,-0.007625117897987366
1772810443759648300,2.813648193359375,-0.09259319305419922,-0.01607120782136917,-0.009685948491096497
1772810443779409400,2.833409423828125,-0.08091449737548828,-0.008804559707641602,-0.004255332052707672
1772810443799170300,2.85317041015625,-0.08809947967529297,-0.003924369812011719,0.0123802050948143
1772810443818931200,2.87293115234375,-0.08570289611816406,-0.008726313710212708,-0.004554726183414459
1772810443838692400,2.8926923828125,-0.06204795837402344,-0.011130712926387787,-0.021214351058006287
1772810443858453200,2.912453369140625,-0.08809757232666016,-0.02250690758228302,-0.011791341006755829
1772810443878214100,2.932214111328125,-0.08091163635253906,0.0031700730323791504,-0.006957925856113434
1772810443897975300,2.951975341796875,-0.07163047790527344,-0.0015349388122558594,-0.011598758399486542
1772810443917736200,2.971736083984375,-0.07851886749267578,-0.0038433969020843506,0.002755559980869293
1772810443937497000,2.9914970703125,-0.08121395111083984,-0.012883804738521576,-0.01151885837316513
1772810443957258000,3.011258056640625,-0.1045684814453125,0.01262877881526947,-0.013813674449920654
1772810443977019100,3.03101904296875,-0.08330917358398438,-0.008889228105545044,-0.0066880956292152405
1772810443996780000,3.050780029296875,-0.0973825454711914,-0.004112511873245239,0.0030282437801361084
1772810444016540200,3.0705400390625,-0.08121585845947266,-0.013700149953365326,-0.006407812237739563
1772810444036300500,3.090300537109375,-0.07402706146240234,-0.009021803736686707,0.010229885578155518
1772810444056061000,3.11006103515625,-0.07881546020507812,-0.0066944509744644165,-0.004306666553020477
1772810444075821300,3.1298212890625,-0.07162952423095703,0.0006770715117454529,0.0004168674349784851
1772810444095581700,3.149581787109375,-0.07641792297363281,-0.00657287985086441,-0.004540607333183289
1772810444115342000,3.169342041015625,-0.0901947021484375,-0.004190169274806976,-0.004295773804187775
1772810444135102500,3.1891025390625,-0.07402324676513672,0.014938347041606903,0.009894847869873047
1772810444154862800,3.20886279296875,-0.08330535888671875,0.01021796464920044,-0.006984129548072815
1772810444174623200,3.228623291015625,-0.08300590515136719,-0.011401087045669556,-0.006888717412948608
1772810444194383600,3.248383544921875,-0.09019660949707031,-0.008963711559772491,-0.0018024146556854248
1772810444214143700,3.268143798828125,-0.087799072265625,-0.006734661757946014,0.010249905288219452
1772810444233904000,3.287904052734375,-0.0901956558227539,-0.009140640497207642,-0.006423532962799072
1772810444253664500,3.30766455078125,-0.0737295150756836,0.0029692277312278748,0.01759793609380722
1772810444273425000,3.3274248046875,-0.06923580169677734,-0.013855613768100739,-0.002229258418083191
1772810444293185300,3.347185302734375,-0.07372570037841797,-0.0018961504101753235,-0.016753502190113068
1772810444312945700,3.366945556640625,-0.06653499603271484,-0.011586301028728485,-0.007489591836929321
1772810444332706000,3.3867060546875,-0.0830068588256836,0.007653377950191498,0.021317467093467712
1772810444352466400,3.406466552734375,-0.07132625579833984,-0.02353275567293167,0.004476815462112427
1772810444372226800,3.426226806640625,-0.08570289611816406,-0.006022699177265167,-0.0014237463474273682
1772810444391987200,3.4459873046875,-0.08091068267822266,-0.018050014972686768,-0.006223753094673157
1772810444411747600,3.46574755859375,-0.08091163635253906,0.0059800297021865845,-0.006180323660373688
1772810444431507700,3.4855078125,-0.09049320220947266,-0.006009340286254883,-0.00858239084482193
1772810444451268000,3.50526806640625,-0.062048912048339844,-0.0034749433398246765,-0.0036994442343711853
1772810444471028500,3.525028564453125,-0.07881641387939453,-0.020135894417762756,-0.0014213994145393372
1772810444490788900,3.544788818359375,-0.08091163635253906,-0.008166000247001648,0.003244370222091675
1772810444510549000,3.564549072265625,-0.08120918273925781,-0.0033899396657943726,-0.004057101905345917
1772810444530309000,3.58430908203125,-0.07641792297363281,-0.013077519834041595,-0.0016766414046287537
1772810444550069200,3.6040693359375,-0.08839893341064453,-0.006008416414260864,0.0011666640639305115
1772810444569829000,3.6238291015625,-0.07612037658691406,0.007631510496139526,-0.00189208984375
1772810444589589200,3.64358935546875,-0.07821273803710938,0.007601752877235413,-0.004855066537857056
1772810444609349400,3.663349365234375,-0.07611560821533203,-0.004285573959350586,-0.0005863755941390991
1772810444629109500,3.683109619140625,-0.08060932159423828,0.000538356602191925,-0.007574357092380524
1772810444648869600,3.70286962890625,-0.0832986831665039,-0.006815828382968903,-0.007889330387115479
1772810444668629800,3.722629638671875,-0.09018325805664062,0.009948678314685822,-0.01520664244890213
1772810444688390000,3.742389892578125,-0.07132339477539062,-0.011525735259056091,-0.0029554590582847595
1772810444708150000,3.76214990234375,-0.07581615447998047,-0.011389374732971191,0.004185900092124939
1772810444727910000,3.781909912109375,-0.08539485931396484,-0.02342139184474945,0.0015420913696289062
1772810444747670000,3.801669921875,-0.08060455322265625,-0.006677582859992981,-0.012750864028930664
1772810444767430100,3.82143017578125,-0.09018516540527344,-0.006495341658592224,-0.005102492868900299
1772810444787190300,3.841190185546875,-0.08299732208251953,-0.0018893331289291382,0.006825745105743408
1772810444806950400,3.860950439453125,-0.08299827575683594,-0.00415540486574173,-0.012466378509998322
1772810444826710500,3.88071044921875,-0.06682586669921875,0.0006022676825523376,-0.010200664401054382
1772810444846470700,3.900470703125,-0.0925760269165039,0.007794879376888275,-0.012618198990821838
1772810444866230500,3.92023046875,-0.07371330261230469,-0.0187196284532547,0.0019195899367332458
1772810444885990700,3.93999072265625,-0.09018230438232422,0.010030366480350494,0.0043213143944740295
1772810444905750800,3.959750732421875,-0.09736824035644531,-0.009310930967330933,-0.007529959082603455
1772810444925511000,3.979510986328125,-0.06922245025634766,0.0003927871584892273,-0.00038304924964904785
1772810444945271000,3.99927099609375,-0.08299827575683594,-0.00936562567949295,-0.00011236965656280518
1772810444965031200,4.01903125,-0.09527587890625,-0.0017662718892097473,-0.008916802704334259
1772810444984791000,4.038791015625,-0.100067138671875,0.005378171801567078,0.005563907325267792
1772810445004550400,4.05855029296875,-0.08359718322753906,-0.011456876993179321,-0.0017133280634880066
1772810445024308700,4.078308837890625,-0.07880783081054688,0.003135278820991516,-0.013710848987102509
1772810445044067300,4.0980673828125,-0.07880973815917969,0.005643956363201141,-0.013628125190734863
1772810445063825700,4.11782568359375,-0.09767723083496094,-0.013379164040088654,-0.008659161627292633
1772810445083584300,4.137584228515625,-0.0812082290649414,-0.0013797655701637268,0.0008804053068161011
1772810445103342600,4.157342529296875,-0.0812082290649414,-0.015815243124961853,-0.00867760181427002
1772810445123101200,4.17710107421875,-0.0883932113647461,-0.010888457298278809,-0.0016312971711158752
1772810445142859500,4.196859619140625,-0.07880783081054688,-0.020683035254478455,0.015520676970481873
1772810445162618000,4.2166181640625,-0.06443214416503906,-0.01136700063943863,-0.0022847801446914673
1772810445182376400,4.23637646484375,-0.08569145202636719,-0.011476866900920868,0.0013594478368759155
1772810445202135000,4.256135009765625,-0.09497261047363281,-0.00910116732120514,-0.01313837617635727
1772810445221893600,4.2758935546875,-0.07820415496826172,-0.009171612560749054,-0.013108529150485992
1772810445241652000,4.29565185546875,-0.08299541473388672,0.007553078234195709,-0.008294254541397095
1772810445261410600,4.31541064453125,-0.09018230438232422,-0.011522375047206879,0.015647970139980316
1772810445281169000,4.3351689453125,-0.0665273666381836,0.005204610526561737,0.006172500550746918
1772810445300927500,4.354927490234375,-0.0641317367553711,-0.016415394842624664,-0.005732923746109009
1772810445320685800,4.374685791015625,-0.08060455322265625,-0.013983868062496185,-0.010288611054420471
1772810445340444400,4.3944443359375,-0.09737205505371094,-0.009758591651916504,-0.0010967999696731567
1772810445360203000,4.414203125,-0.09258174896240234,-0.004641994833946228,-0.017477422952651978
1772810445379961300,4.43396142578125,-0.090484619140625,-0.013793855905532837,0.002345554530620575
1772810445399720000,4.453719970703125,-0.07401466369628906,0.002833738923072815,-0.012049145996570587
1772810445419478300,4.473478271484375,-0.0761098861694336,-0.004079245030879974,0.010001704096794128
1772810445439236900,4.49323681640625,-0.09736824035644531,0.002668134868144989,-0.006745986640453339
1772810445458995200,4.5129951171875,-0.08359622955322266,-0.011420190334320068,-0.004281647503376007
1772810445478753800,4.53275390625,-0.07161808013916016,-0.006499491631984711,-0.0019218772649765015
1772810445498513000,4.552512939453125,-0.07641029357910156,-0.006626494228839874,0.0005364343523979187
1772810445518273300,4.572273193359375,-0.08808231353759766,-0.004463456571102142,0.0073613375425338745
1772810445538033700,4.59203369140625,-0.08597946166992188,-0.0071904584765434265,0.019113823771476746
1772810445557793800,4.611793701171875,-0.09256839752197266,-0.00511942058801651,-0.009801946580410004
1772810445577554200,4.63155419921875,-0.08328533172607422,-0.007834479212760925,0.0017290860414505005
1772810445597314600,4.651314453125,-0.09016799926757812,0.006445668637752533,0.0014269128441810608
1772810445617075000,4.671074951171875,-0.08327674865722656,0.018360987305641174,-0.0012647807598114014
1772810445636835300,4.69083544921875,-0.06171607971191406,0.0015042796730995178,-0.022827357053756714
1772810445656595700,4.710595703125,-0.07129669189453125,-0.005708187818527222,-0.008634470403194427
1772810445676355800,4.73035595703125,-0.07848739624023438,-0.0007968470454216003,-0.008350037038326263
1772810445696116200,4.7501162109375,-0.07399463653564453,-0.012890361249446869,-0.0035418346524238586
1772810445715876600,4.769876708984375,-0.09016227722167969,-0.01768619567155838,-0.003628365695476532
1772810445735637000,4.789636962890625,-0.10214424133300781,-0.022372394800186157,-0.01536320149898529
1772810445755397400,4.8093974609375,-0.07609272003173828,-0.005433127284049988,-0.015027791261672974
1772810445775157800,4.82915771484375,-0.08357810974121094,-0.0054578110575675964,0.0020997077226638794
1772810445794918100,4.848918212890625,-0.1021432876586914,0.0066712647676467896,-0.005015864968299866
1772810445814678300,4.86867822265625,-0.09734821319580078,-0.017342425882816315,0.018611431121826172
1772810445834438700,4.888438720703125,-0.06680488586425781,-0.005337975919246674,0.006583601236343384
1772810445854199000,4.908198974609375,-0.09285640716552734,-0.015082016587257385,-0.005323484539985657
1772810445873959400,4.92795947265625,-0.0691976547241211,-0.022318139672279358,-0.010343208909034729
1772810445893719800,4.9477197265625,-0.08326911926269531,0.003992050886154175,-0.005789443850517273
1772810445913480200,4.967480224609375,-0.1141061782836914,-0.008110247552394867,0.008323267102241516
1772810445933240300,4.987240234375,-0.08565998077392578,-0.003192126750946045,-0.008574895560741425
1772810445953000700,5.007000732421875,-0.07397937774658203,0.0014616847038269043,0.005695730447769165
1772810445972761000,5.026760986328125,-0.05691242218017578,-0.008583217859268188,-0.0020742788910865784
1772810445992521500,5.046521484375,-0.08805179595947266,-0.010890886187553406,-0.009790666401386261
1772810446012280800,5.06628076171875,-0.06888484954833984,-0.027801617980003357,-0.007824353873729706
1772810446032040200,5.086040283203125,-0.08056354522705078,-0.013387568295001984,-0.007903382182121277
1772810446051799600,5.105799560546875,-0.09253883361816406,-0.018335655331611633,-0.003044918179512024
1772810446071559200,5.12555908203125,-0.09014415740966797,0.0055768489837646484,-0.01971757411956787
1772810446091318500,5.145318603515625,-0.06409645080566406,-0.015937283635139465,-0.009952306747436523
1772810446111078000,5.165077880859375,-0.0925436019897461,-0.011006399989128113,-0.0003585740923881531
1772810446130837200,5.184837158203125,-0.06888961791992188,-0.020483627915382385,-0.007520653307437897
1772810446150596600,5.2045966796875,-0.0829620361328125,-0.02297726273536682,-0.007650725543498993
1772810446170356200,5.224356201171875,-0.08565425872802734,-0.003294140100479126,-0.006533756852149963
1772810446190115600,5.244115478515625,-0.06918144226074219,0.010973885655403137,-0.006767824292182922
1772810446209875000,5.263875,-0.0763692855834961,-0.0010879337787628174,-0.0043010413646698
1772810446229634300,5.28363427734375,-0.08594989776611328,-0.005748197436332703,-0.009167768061161041
1772810446249393700,5.3033935546875,-0.0811605453491211,0.0037426725029945374,-0.0018639042973518372
1772810446269153000,5.323153076171875,-0.09044170379638672,-0.013191811740398407,0.0005421936511993408
1772810446288912600,5.34291259765625,-0.09074211120605469,-0.006029054522514343,-0.018474683165550232
1772810446308672000,5.362672119140625,-0.08355522155761719,0.005954757332801819,-0.010813221335411072
1772810446328431400,5.382431396484375,-0.09792709350585938,0.0058603063225746155,-0.013123929500579834
1772810446348190700,5.402190673828125,-0.0739755630493164,-0.003748975694179535,-0.005760595202445984
1772810446367950000,5.4219501953125,-0.07846641540527344,-0.0020326972007751465,-0.0021529868245124817
1772810446387709400,5.44170947265625,-0.07846546173095703,0.00032632797956466675,-0.00930999219417572
1772810446407469000,5.461468994140625,-0.08535385131835938,-0.0307939350605011,-0.004448339343070984
1772810446427228400,5.481228515625,-0.08295822143554688,0.002706177532672882,-0.01648961752653122
1772810446446987800,5.50098779296875,-0.07128047943115234,-0.026053279638290405,-0.016376003623008728
1772810446466747100,5.5207470703125,-0.0829620361328125,0.005286037921905518,-0.007289417088031769
1772810446486506500,5.540506591796875,-0.07607173919677734,-0.011665716767311096,0.002223566174507141
1772810446506266600,5.5602666015625,-0.08056449890136719,-0.01164320856332779,0.002309635281562805
1772810446526027300,5.58002734375,-0.0781707763671875,-0.0018984228372573853,-0.00966537743806839
1772810446545787600,5.59978759765625,-0.09733104705810547,-0.0019972622394561768,-0.005084767937660217
1772810446565548300,5.61954833984375,-0.07127952575683594,-0.016491703689098358,-0.009274154901504517
1772810446585308700,5.63930859375,-0.08804988861083984,-0.004455462098121643,-0.004383549094200134
1772810446605069300,5.6590693359375,-0.09493637084960938,-0.021287500858306885,-0.00911923497915268
1772810446624829700,5.67882958984375,-0.08086395263671875,-0.004408679902553558,0.002790018916130066
1772810446644590300,5.69859033203125,-0.08565521240234375,-0.001957118511199951,0.007657468318939209
1772810446664350700,5.718350830078125,-0.09493732452392578,-0.013804547488689423,0.00991811603307724
1772810446684111400,5.738111328125,-0.08086395263671875,0.005351640284061432,-0.014075882732868195
1772810446703871700,5.757871826171875,-0.07637500762939453,-0.0016231387853622437,-0.006787121295928955
1772810446723632400,5.77763232421875,-0.07637405395507812,-0.013624750077724457,-0.0021089166402816772
1772810446743392800,5.797392822265625,-0.07398223876953125,-0.023059740662574768,-0.00425092875957489
1772810446763153400,5.8171533203125,-0.08326530456542969,-0.015441656112670898,-0.0039564818143844604
1772810446782913800,5.836913818359375,-0.07398414611816406,-0.00544525682926178,0.0011703819036483765
1772810446802674400,5.85667431640625,-0.07159137725830078,-0.009905204176902771,0.010718658566474915
1772810446822434800,5.876434814453125,-0.0811758041381836,-0.014460436999797821,-0.010483548045158386
1772810446842195500,5.896195556640625,-0.08836174011230469,-0.004970386624336243,-0.007736146450042725
1772810446861955800,5.915955810546875,-0.1024322509765625,0.004499860107898712,0.004065953195095062
1772810446881716500,5.935716552734375,-0.06709861755371094,-0.014532826840877533,0.0015523210167884827
1772810446901476900,5.955476806640625,-0.06440448760986328,-0.0049930959939956665,-0.005583561956882477
1772810446921237500,5.975237548828125,-0.07877731323242188,-0.007475532591342926,-0.0055349767208099365
1772810446940998000,5.994997802734375,-0.07667827606201172,-0.0027276799082756042,-0.008187294006347656
1772810446960758500,6.014758544921875,-0.07398223876953125,-0.017173059284687042,-0.013561911880970001
1772810446980519000,6.034518798828125,-0.0760793685913086,-0.0273008793592453,0.007423326373100281
1772810447000279300,6.054279296875,-0.08057403564453125,-0.005624860525131226,-0.009186580777168274
1772810447020039700,6.074039794921875,-0.0644073486328125,-0.015074141323566437,-0.00000899285078048706
1772810447039799800,6.0937998046875,-0.07608795166015625,0.004135005176067352,-0.011770449578762054
1772810447059560200,6.113560302734375,-0.08776473999023438,0.006518267095088959,-0.0022998228669166565
1772810447079320300,6.1333203125,-0.07129764556884766,-0.005445793271064758,-0.014109000563621521
1772810447099080400,6.15308056640625,-0.07608890533447266,-0.00787258893251419,0.00029949843883514404
1772810447118840800,6.1728408203125,-0.07129669189453125,-0.0006825104355812073,-0.009329363703727722
1772810447138601000,6.19260107421875,-0.0853719711303711,-0.026877127587795258,-0.004542134702205658
1772810447158361000,6.212361083984375,-0.09495162963867188,0.004361949861049652,-0.004104800522327423
1772810447178121500,6.23212158203125,-0.08327579498291016,-0.01167888194322586,-0.008294813334941864
1772810447197881600,6.251881591796875,-0.08117866516113281,0.004824049770832062,-0.02019479125738144
1772810447217642000,6.27164208984375,-0.06920337677001953,-0.002253614366054535,-0.017622582614421844
1772810447237402000,6.291402099609375,-0.08806800842285156,-0.0068748220801353455,-0.0033596456050872803
1772810447257162500,6.31116259765625,-0.07639217376708984,0.00260036438703537,0.006454646587371826
1772810447276922600,6.330922607421875,-0.06681060791015625,-0.004525043070316315,0.0016998201608657837
1772810447296682800,6.350682861328125,-0.07160186767578125,-0.02374422550201416,0.006517037749290466
1772810447316443100,6.370443115234375,-0.07639408111572266,-0.01194925606250763,-0.014870397746562958
1772810447336203300,6.390203369140625,-0.06680965423583984,-0.014209359884262085,-0.0007171034812927246
1772810447355963600,6.409963623046875,-0.0832815170288086,-0.011879980564117432,0.0014132410287857056
1772810447375723800,6.429723876953125,-0.07849407196044922,0.004840098321437836,-0.0011900588870048523
1772810447395484000,6.44948388671875,-0.08088970184326172,-0.004729129374027252,-0.01076488196849823
1772810447415244300,6.469244384765625,-0.07819652557373047,-0.016514860093593597,-0.013148926198482513
1772810447435004400,6.48900439453125,-0.0829925537109375,-0.011802561581134796,-0.003109075129032135
1772810447454764800,6.508764892578125,-0.07610321044921875,-0.011722944676876068,0.003951080143451691
1772810447474525000,6.52852490234375,-0.09976387023925781,-0.004317201673984528,-0.007716670632362366
1772810447494285000,6.54828515625,-0.08060169219970703,0.0006300285458564758,-0.01075504720211029
1772810447514045000,6.568044921875,-0.07820510864257812,-0.006489582359790802,-0.013240642845630646
1772810447533804300,6.58780419921875,-0.08300018310546875,-0.025394104421138763,0.0012197494506835938
1772810447553564000,6.60756396484375,-0.08539676666259766,-0.003771767020225525,0.001604221761226654
1772810447573323800,6.62732373046875,-0.09258556365966797,-0.006101943552494049,-0.007367081940174103
1772810447593083400,6.64708349609375,-0.09018993377685547,-0.0035412460565567017,-0.00746975839138031
1772810447612843000,6.666843017578125,-0.09258842468261719,-0.008209139108657837,-0.014538012444972992
1772810447632602600,6.6866025390625,-0.09019279479980469,-0.007983841001987457,0.009331800043582916
1772810447652362200,6.7063623046875,-0.07133007049560547,0.006377704441547394,-0.012112542986869812
1772810447672121900,6.726121826171875,-0.07612419128417969,-0.0102648064494133,0.011959441006183624
1772810447691881500,6.745881591796875,-0.08091354370117188,-0.015021741390228271,-0.007358543574810028
1772810447711641000,6.76564111328125,-0.0809173583984375,-0.010051362216472626,0.00241001695394516
1772810447731400700,6.785400634765625,-0.09019660949707031,0.0018227249383926392,0.007171213626861572
1772810447751160300,6.805160400390625,-0.06684303283691406,0.0019243285059928894,-0.002316012978553772
1772810447770920000,6.824919921875,-0.08361434936523438,0.00023189187049865723,0.010277338325977325
1772810447790679600,6.844679443359375,-0.059661865234375,-0.011717632412910461,-0.003843463957309723
1772810447810439200,6.864439208984375,-0.0836172103881836,0.00021088868379592896,0.01303815096616745
1772810447830198800,6.88419873046875,-0.08092498779296875,-0.009194992482662201,-0.006126634776592255
1772810447849958400,6.90395849609375,-0.09290122985839844,-0.011668063700199127,0.010709129273891449
1772810447869718000,6.923718017578125,-0.0812234878540039,-0.011691495776176453,0.001058526337146759
1772810447889477600,6.9434775390625,-0.0716400146484375,-0.004440821707248688,-0.006232433021068573
1772810447909237200,6.9632373046875,-0.0884084701538086,-0.009054265916347504,-0.008727870881557465
1772810447928996900,6.982996826171875,-0.08122062683105469,0.007544331252574921,-0.011164441704750061
1772810447948756500,7.002756591796875,-0.07403755187988281,-0.011286206543445587,0.010515645146369934
1772810447968516000,7.02251611328125,-0.09050559997558594,-0.004388667643070221,0.002711065113544464
1772810447988276000,7.04227587890625,-0.08332061767578125,0.00015507638454437256,-0.009311214089393616
1772810448008035300,7.062035400390625,-0.06924724578857422,-0.004223845899105072,-0.006913438439369202
1772810448027794700,7.081794677734375,-0.08092880249023438,-0.0019672811031341553,-0.016319282352924347
1772810448047554000,7.101553955078125,-0.0785360336303711,-0.011173523962497711,-0.0041395798325538635
1772810448067313400,7.1213134765625,-0.07644176483154297,0.010067172348499298,0.00796220451593399
1772810448087072800,7.14107275390625,-0.07883834838867188,0.005472548305988312,0.012764357030391693
1772810448106832100,7.16083203125,-0.06207084655761719,0.005566917359828949,-0.00878985971212387
1772810448126591700,7.180591796875,-0.09291362762451172,-0.010723508894443512,-0.01351359486579895
1772810448146351000,7.20035107421875,-0.08333396911621094,-0.013090208172798157,-0.01105596125125885
1772810448166110500,7.2201103515625,-0.066864013671875,-0.003540933132171631,-0.0016894936561584473
1772810448185869800,7.239869873046875,-0.08812427520751953,0.013202264904975891,-0.00164901465177536
1772810448205629200,7.259629150390625,-0.06925678253173828,-0.0012173578143119812,-0.009035974740982056
1772810448225388500,7.279388427734375,-0.08812332153320312,-0.014843299984931946,-0.0018238499760627747
1772810448245148000,7.29914794921875,-0.08572769165039062,-0.010585404932498932,-0.011263303458690643
1772810448264907300,7.3189072265625,-0.08093738555908203,-0.001249171793460846,-0.00883212685585022
1772810448284667000,7.3386669921875,-0.0740509033203125,-0.0037883296608924866,0.015259072184562683
1772810448304426200,7.35842626953125,-0.06206989288330078,0.0032366514205932617,-0.0064244866371154785
1772810448324185600,7.378185546875,-0.07854366302490234,-0.01554301381111145,-0.01330731064081192
1772810448343945000,7.397945068359375,-0.07854747772216797,0.0035735219717025757,0.00596194714307785
1772810448363704300,7.417704345703125,-0.07135868072509766,-0.003652438521385193,-0.008533425629138947
1772810448383463700,7.437463623046875,-0.08543205261230469,0.0011383816599845886,0.0008135288953781128
1772810448403223000,7.45722314453125,-0.07405281066894531,-0.008526355028152466,0.012428075075149536
1772810448422982400,7.476982421875,-0.0878305435180664,-0.008454665541648865,-0.008787468075752258
1772810448442742000,7.496741943359375,-0.08544063568115234,0.006009362637996674,-0.010834194719791412
1772810448462501400,7.51650146484375,-0.06687641143798828,-0.008186452090740204,0.00837690383195877
1772810448482260700,7.5362607421875,-0.08783817291259766,0.006225399672985077,-0.005967527627944946
1772810448502020400,7.556020263671875,-0.10460281372070312,-0.0034513920545578003,-0.0062486231327056885
1772810448521780200,7.5757802734375,-0.07106208801269531,0.015524260699748993,0.00069427490234375
1772810448541540400,7.595540283203125,-0.08333873748779297,-0.006123103201389313,-0.011294908821582794
1772810448561300200,7.61530029296875,-0.06926536560058594,-0.008496768772602081,0.008319534361362457
1772810448581060400,7.635060302734375,-0.08094406127929688,0.0009808987379074097,-0.003387138247489929
1772810448600820200,7.6548203125,-0.07166290283203125,0.0010842010378837585,-0.008042126893997192
1772810448620580400,7.674580322265625,-0.07645702362060547,0.012984178960323334,-0.007700912654399872
1772810448640340200,7.69434033203125,-0.07855606079101562,-0.0015389546751976013,0.0021497830748558044
1772810448660100400,7.714100341796875,-0.08095359802246094,-0.00571780651807785,-0.007245302200317383
1772810448679860200,7.733860107421875,-0.08334541320800781,0.001115649938583374,0.007467523217201233
1772810448699620400,7.753620361328125,-0.09053325653076172,0.003856867551803589,0.005177401006221771
1772810448719380200,7.773380126953125,-0.08813858032226562,-0.010442294180393219,-0.0019877851009368896
1772810448739140400,7.793140380859375,-0.07645988464355469,0.015925265848636627,0.0027094557881355286
1772810448758900200,7.812900146484375,-0.07615947723388672,-0.005815446376800537,0.007045544683933258
1772810448778660000,7.83266015625,-0.09023189544677734,-0.0037090107798576355,-0.01481713354587555
1772810448798420200,7.852420166015625,-0.0881338119506836,0.0010302215814590454,0.004093766212463379
1772810448818180000,7.87218017578125,-0.07854843139648438,-0.010922670364379883,0.0038433223962783813
1772810448837940200,7.891940185546875,-0.0830373764038086,0.034463994204998016,-0.0059167444705963135
1772810448857700000,7.9117001953125,-0.07615184783935547,0.0033188238739967346,0.010346710681915283
1772810448877460200,7.931460205078125,-0.092620849609375,-0.0015703290700912476,0.005712464451789856
1772810448897220000,7.95122021484375,-0.09980964660644531,0.0010272711515426636,-0.006182454526424408
1772810448916980200,7.970980224609375,-0.06447792053222656,0.012978479266166687,-0.0037123411893844604
1772810448936740000,7.990739990234375,-0.08543777465820312,-0.018225960433483124,0.005873143672943115
1772810448956500200,8.010500244140625,-0.08543777465820312,-0.015740446746349335,0.008511282503604889
1772810448976260000,8.030260009765625,-0.07645797729492188,-0.013261541724205017,-0.0005483254790306091
1772810448996020200,8.050020263671875,-0.08544635772705078,-0.0012303590774536133,-0.00001563131809234619
1772810449015780400,8.0697802734375,-0.09982013702392578,0.005994245409965515,0.007169738411903381
1772810449035540500,8.08954052734375,-0.08784008026123047,0.0011999234557151794,0.018914006650447845
1772810449055300900,8.10930078125,-0.08544158935546875,-0.013245008885860443,-0.00761009007692337
1772810449075061000,8.12906103515625,-0.07645893096923828,0.0010224059224128723,0.0019320324063301086
1772810449094821400,8.1488212890625,-0.07376384735107422,0.005851082503795624,-0.00044567883014678955
1772810449114581500,8.16858154296875,-0.08095169067382812,-0.0035672560334205627,0.013962604105472565
1772810449134341600,8.188341552734375,-0.08574390411376953,0.0036119669675827026,0.0141519233584404
1772810449154101800,8.208101806640625,-0.07646369934082031,-0.013073638081550598,0.0046780407428741455
1772810449173862100,8.227862060546874,-0.07856082916259766,0.006282277405261993,0.0046319738030433655
1772810449193622300,8.247622314453125,-0.09263324737548828,0.0014894530177116394,0.021365925669670105
1772810449213382700,8.267382568359375,-0.08544921875,0.015775375068187714,0.004808209836483002
1772810449233142800,8.287142822265626,-0.08574962615966797,-0.005869187414646149,0.004913114011287689
1772810449252903200,8.306903076171874,-0.07167720794677734,-0.015113838016986847,-0.002150624990463257
1772810449272663800,8.326663818359375,-0.0833587646484375,-0.0081564262509346,0.002959318459033966
1772810449292424200,8.346424072265625,-0.080963134765625,-0.007984258234500885,0.005153290927410126
1772810449312184800,8.366184814453124,-0.08335590362548828,0.011154823005199432,-0.007101990282535553
1772810449331945200,8.3859453125,-0.07167720794677734,0.006401859223842621,-0.009511485695838928
1772810449351705900,8.405705810546875,-0.08814334869384766,-0.0033250749111175537,-0.00962955504655838
1772810449371466200,8.42546630859375,-0.057300567626953125,-0.0032117441296577454,-0.009798116981983185
1772810449391226600,8.4452265625,-0.07646846771240234,0.023239456117153168,-0.011943064630031586
1772810449410987300,8.4649873046875,-0.07646656036376953,-0.014997676014900208,-0.01699061691761017
1772810449430747600,8.48474755859375,-0.07167625427246094,-0.017348624765872955,-0.014496028423309326
1772810449450508300,8.50450830078125,-0.08066272735595703,0.001760043203830719,0.009163923561573029
1772810449470268700,8.5242685546875,-0.08305644989013672,-0.014969803392887115,-0.01025431603193283
1772810449490029000,8.544029052734375,-0.10191917419433594,-0.005322664976119995,0.006392739713191986
1772810449509790200,8.563790283203126,-0.07587146759033203,0.004303134977817535,0.008988402783870697
1772810449529551000,8.583551025390625,-0.07616806030273438,-0.005266793072223663,-0.0032053887844085693
1772810449549312300,8.603312255859375,-0.06658554077148438,-0.005355179309844971,0.006410591304302216
1772810449569073200,8.6230732421875,-0.0926361083984375,0.006557926535606384,-0.0054708123207092285
1772810449588834300,8.642834228515625,-0.07826709747314453,-0.007845990359783173,0.011525675654411316
1772810449608595200,8.66259521484375,-0.054907798767089844,-0.00822649896144867,-0.010234944522380829
1772810449628356400,8.6823564453125,-0.06628704071044922,-0.005713142454624176,0.004177965223789215
1772810449648117200,8.7021171875,-0.09263896942138672,-0.017205946147441864,-0.021334797143936157
1772810449667878400,8.72187841796875,-0.0857534408569336,-0.002579525113105774,0.009833253920078278
1772810449687639300,8.741639404296874,-0.08814811706542969,0.004349716007709503,-0.011188820004463196
1772810449707400400,8.761400390625,-0.09054088592529297,0.014095373451709747,-0.001742534339427948
1772810449727161300,8.781161376953126,-0.07886314392089844,-0.007600754499435425,0.01749929040670395
1772810449746922500,8.800922607421874,-0.06928157806396484,-0.0074276551604270935,0.0007452145218849182
1772810449766683600,8.82068359375,-0.08604717254638672,-0.0027307718992233276,0.0005514621734619141
1772810449786444500,8.840444580078126,-0.07856369018554688,0.006938479840755463,0.003058686852455139
1772810449806205700,8.860205810546875,-0.08365440368652344,-0.007468193769454956,0.0030333921313285828
1772810449825966600,8.879966552734375,-0.06688499450683594,-0.00989118218421936,-0.00653444230556488
1772810449845727700,8.899727783203126,-0.06928157806396484,-0.008125968277454376,0.00018947571516036987
1772810449865488600,8.919488525390625,-0.059700965881347656,-0.00815863162279129,-0.0020983219146728516
1772810449885249800,8.939249755859375,-0.09264087677001953,-0.008237719535827637,-0.018533892929553986
1772810449905010700,8.9590107421875,-0.0689849853515625,0.003886885941028595,0.0004201531410217285
1772810449924771800,8.978771728515625,-0.06449127197265625,-0.0010030120611190796,-0.00683777779340744
1772810449944533000,8.998532958984375,-0.08335685729980469,0.006220586597919464,0.014650404453277588
1772810449964294000,9.0182939453125,-0.054909706115722656,-0.008029423654079437,0.009852699935436249
1772810449984054800,9.0380546875,-0.0926370620727539,-0.0035400614142417908,0.004364907741546631
1772810450003816000,9.05781591796875,-0.0902395248413086,0.02286291867494583,0.0019599497318267822
1772810450023576800,9.077576904296874,-0.07826519012451172,-0.010593831539154053,-0.007549472153186798
1772810450043337700,9.097337646484375,-0.07137775421142578,0.006109841167926788,-0.01203194260597229
1772810450063098600,9.1170986328125,-0.07886314392089844,-0.00859677791595459,-0.016380690038204193
1772810450082859800,9.13685986328125,-0.07407474517822266,-0.008469842374324799,-0.020935840904712677
1772810450102620700,9.15662060546875,-0.07167720794677734,-0.022483699023723602,-0.0068152472376823425
1772810450122381600,9.176381591796876,-0.08125877380371094,-0.008386403322219849,-0.016521871089935303
1772810450142142500,9.196142578125,-0.07406902313232422,-0.0033347755670547485,0.014470800757408142
1772810450161903600,9.215903564453125,-0.08335304260253906,-0.0009735971689224243,0.0023224055767059326
1772810450181664500,9.23566455078125,-0.08784008026123047,-0.005601242184638977,0.01409970223903656
1772810450201425400,9.25542529296875,-0.08095169067382812,0.005808055400848389,-0.005061529576778412
1772810450221186300,9.275186279296875,-0.07167243957519531,-0.006109468638896942,-0.016646668314933777
1772810450240947200,9.294947265625,-0.088134765625,-0.01311548799276352,-0.0023918524384498596
1772810450260708400,9.314708251953125,-0.07406139373779297,0.002948969602584839,-0.005033597350120544
1772810450280469200,9.33446923828125,-0.06207752227783203,0.005429789423942566,0.006607629358768463
1772810450300230100,9.354230224609376,-0.07645130157470703,0.010252274572849274,0.004191547632217407
1772810450319991000,9.373990966796875,-0.08333873748779297,-0.0180942565202713,-0.014451615512371063
1772810450339752000,9.393751953125,-0.08333969116210938,-0.010926604270935059,-0.004806101322174072
1772810450359513000,9.41351318359375,-0.06447792053222656,-0.008611634373664856,-0.006791755557060242
1772810450379274000,9.43327392578125,-0.06448173522949219,-0.0061950236558914185,-0.009021155536174774
1772810450399035000,9.453034912109375,-0.0905294418334961,0.0010449513792991638,0.0004456564784049988
1772810450418795800,9.472795654296876,-0.08334636688232422,-0.006017729640007019,-0.018632322549819946
1772810450438556700,9.492556640625,-0.08095169067382812,0.0008226111531257629,0.0027120783925056458
1772810450458317800,9.51231787109375,-0.09532356262207031,0.0005778223276138306,-0.000045239925384521484
1772810450478078700,9.53207861328125,-0.08334732055664062,-0.008976317942142487,0.007163867354393005
1772810450497839000,9.551839111328125,-0.09023475646972656,-0.008898898959159851,0.00001866370439529419
1772810450517598200,9.57159814453125,-0.09263038635253906,-0.008924111723899841,-0.002278827130794525
1772810450537357300,9.591357421875,-0.07616138458251953,0.010013982653617859,-0.016570061445236206
1772810450557116400,9.611116455078125,-0.09023380279541016,-0.006784282624721527,0.0070051997900009155
1772810450576875500,9.63087548828125,-0.07136821746826172,-0.01637432724237442,-0.0006430074572563171
1772810450596634600,9.650634521484376,-0.08783435821533203,-0.009264916181564331,0.006414465606212616
1772810450616393700,9.670393798828124,-0.09023094177246094,-0.02118510752916336,0.0017232969403266907
1772810450636152800,9.69015283203125,-0.0716705322265625,0.002767123281955719,-0.011969208717346191
1772810450655912000,9.709911865234375,-0.0716705322265625,0.00977998971939087,0.00045077502727508545
1772810450675671000,9.729671142578125,-0.08095550537109375,-0.016319766640663147,0.00042798370122909546
1772810450695430100,9.74943017578125,-0.07616710662841797,0.012709900736808777,0.0053098127245903015
1772810450715189200,9.769189208984375,-0.07407188415527344,-0.01594211906194687,0.005275987088680267
1772810450734948400,9.7889482421875,-0.08544921875,0.010336101055145264,-0.0018652081489562988
1772810450754707500,9.80870751953125,-0.07406902313232422,-0.011397846043109894,0.005247026681900024
1772810450774466600,9.828466552734374,-0.07616424560546875,-0.009181275963783264,0.00039315223693847656
1772810450794225700,9.8482255859375,-0.07855796813964844,0.01474589854478836,0.00028764456510543823
1772810450813984800,9.86798486328125,-0.08574485778808594,-0.006641224026679993,0.002605050802230835
1772810450833744000,9.887743896484375,-0.08095359802246094,-0.01378767192363739,0.0001978054642677307
1772810450853503000,9.9075029296875,-0.07406902313232422,-0.008813552558422089,0.0003522634506225586
1772810450873262000,9.927261962890626,-0.07646465301513672,0.015260130167007446,-0.0046025291085243225
1772810450893021200,9.947021240234376,-0.08335113525390625,0.008057095110416412,-0.006990380585193634
1772810450912780300,9.9667802734375,-0.07616519927978516,-0.0010642707347869873,-0.016695164144039154
1772810450932539400,9.986539306640625,-0.08783817291259766,0.010489724576473236,-0.004963003098964691
1772810450952298500,10.006298583984375,-0.07645893096923828,-0.008153751492500305,-0.005024082958698273
1772810450972057600,10.0260576171875,-0.08095073699951172,-0.0013598799705505371,0.00932534784078598
1772810450991816700,10.045816650390625,-0.0809488296508789,-0.015391677618026733,0.01211317628622055
1772810451011575800,10.065575927734375,-0.06447601318359375,-0.0014103129506111145,-0.002357088029384613
1772810451031335200,10.085335205078126,-0.09262371063232422,0.010442227125167847,0.00006698817014694214
1772810451051094300,10.10509423828125,-0.07855415344238281,-0.006006978452205658,0.0004167705774307251
1772810451070853400,10.124853271484374,-0.08125019073486328,-0.0011573731899261475,0.007625475525856018
1772810451090612700,10.14461279296875,-0.08843803405761719,-0.0036419034004211426,-0.01370411366224289
1772810451110371800,10.164371826171875,-0.078857421875,-0.027522273361682892,0.0006562992930412292
1772810451130131200,10.184131103515625,-0.07885551452636719,-0.01072172075510025,-0.009068556129932404
1772810451149890300,10.203890380859375,-0.0692758560180664,-0.010638512670993805,0.007927700877189636
1772810451169649700,10.223649658203126,-0.0716705322265625,0.0012378990650177002,0.0006773024797439575
1772810451189408800,10.24340869140625,-0.0788564682006836,-0.0035389140248298645,-0.0017762407660484314
1772810451209168000,10.26316796875,-0.0716695785522461,0.008574254810810089,0.005336344242095947
1772810451228927200,10.28292724609375,-0.0764608383178711,-0.0009992271661758423,0.0005328953266143799
1772810451248686300,10.302686279296875,-0.08574199676513672,-0.003682054579257965,0.007587350904941559
1772810451268445700,10.32244580078125,-0.09023284912109375,-0.003369063138961792,-0.00270109623670578
1772810451288204800,10.342204833984376,-0.0596923828125,0.01048453152179718,0.0023336485028266907
1772810451307964200,10.361964111328126,-0.10461044311523438,-0.012730024755001068,-0.004749879240989685
1772810451327723300,10.38172314453125,-0.0716705322265625,-0.0035398826003074646,-0.007341638207435608
1772810451347482600,10.401482666015625,-0.06687545776367188,-0.008564040064811707,-0.012265481054782867
1772810451367241700,10.42124169921875,-0.09981250762939453,-0.013020001351833344,-0.01712615042924881
1772810451387000800,10.441000732421875,-0.04561042785644531,-0.00870988517999649,0.006545908749103546
1772810451406760200,10.46076025390625,-0.07406044006347656,-0.008528657257556915,-0.014831259846687317
1772810451426519300,10.480519287109376,-0.06926536560058594,0.010159410536289215,-0.0006730705499649048
1772810451446278700,10.500278564453126,-0.07884693145751953,-0.0042485445737838745,0.011161401867866516
1772810451466037800,10.520037841796874,-0.08333778381347656,-0.011206798255443573,-0.005551092326641083
1772810451485797000,10.539797119140625,-0.07166004180908203,-0.008783593773841858,0.004009842872619629
1772810451505556700,10.559556640625,-0.08782482147216797,-0.013792507350444794,-0.005774959921836853
1772810451525316600,10.579316650390625,-0.076446533203125,-0.011517256498336792,-0.005771160125732422
1772810451545076500,10.599076416015626,-0.08573150634765625,-0.00217311829328537,-0.022235438227653503
1772810451564836400,10.61883642578125,-0.09051895141601562,-0.004810027778148651,-0.005618520081043243
1772810451584596200,10.63859619140625,-0.055184364318847656,-0.004897423088550568,-0.0009371265769004822
1772810451604356000,10.658356201171875,-0.06446552276611328,0.002390541136264801,-0.0011504217982292175
1772810451624116000,10.678115966796875,-0.10459423065185547,-0.011947594583034515,0.001642473042011261
1772810451643875800,10.697875732421876,-0.11178016662597656,-0.007444404065608978,0.011390939354896545
1772810451663635700,10.7176357421875,-0.04291820526123047,-0.010532081127166748,-0.004187822341918945
1772810451683395600,10.7373955078125,-0.0785665512084961,-0.009141594171524048,-0.00441405177116394
1772810451703155500,10.757155517578125,-0.05252552032470703,0.0020607784390449524,0.004249140620231628
1772810451722915300,10.776915283203126,-0.0713949203491211,-0.005003258585929871,-0.007308043539524078
1772810451742675200,10.79667529296875,-0.06689167022705078,0.0008222535252571106,-0.013931415975093842
1772810451762435000,10.81643505859375,-0.10219287872314453,-0.007960736751556396,0.0232621431350708
1772810451782195000,10.83619482421875,-0.08571815490722656,-0.0054950714111328125,-0.003708787262439728
