time,seconds_elapsed,z,y,x
1772811366326151700,0.208151611328125,0.4619249105453491,-0.9010797739028931,0.7309039235115051
1772811366336033000,0.218032958984375,0.2035984843969345,-1.2052124738693237,1.0025461912155151
1772811366345914400,0.227914306640625,-0.18628795444965363,-1.6733958721160889,1.3785841464996338
1772811366355795700,0.237795654296875,-0.6012080907821655,-2.2544970512390137,1.7237294912338257
1772811366365677000,0.247677001953125,-0.9655282497406006,-2.86755633354187,2.0347864627838135
1772811366375558400,0.257558349609375,-1.3101409673690796,-3.251051187515259,2.304298162460327
1772811366385439700,0.267439697265625,-1.5956315994262695,-3.4502553939819336,2.488056182861328
1772811366395321000,0.277321044921875,-1.731985330581665,-3.700059652328491,2.5812666416168213
1772811366405202400,0.287202392578125,-1.8278590440750122,-3.80924916267395,2.592452049255371
1772811366415083800,0.297083740234375,-1.9184064865112305,-3.6483943462371826,2.5493087768554688
1772811366424965000,0.306965087890625,-1.9977686405181885,-3.5354764461517334,2.379399299621582
1772811366434846200,0.31684619140625,-2.010019063949585,-3.4651691913604736,2.157291889190674
1772811366444727800,0.326727783203125,-1.9738001823425293,-3.3176300525665283,1.9687401056289673
1772811366454609200,0.336609130859375,-1.9535601139068604,-3.3815457820892334,1.7354474067687988
1772811366464490500,0.346490478515625,-1.9738001823425293,-3.6542532444000244,1.432379961013794
1772811366474371600,0.35637158203125,-2.0286612510681152,-3.6792869567871094,1.0238513946533203
1772811366484253000,0.3662529296875,-2.119741201400757,-3.4747564792633057,0.500806987285614
1772811366494134500,0.376134521484375,-2.261953830718994,-3.3170974254608154,-0.025433165952563286
1772811366504015000,0.38601513671875,-2.480332851409912,-3.161036252975464,-0.5149217844009399
1772811366513895400,0.3958955078125,-2.8212172985076904,-2.8110973834991455,-1.139166235923767
1772811366523776000,0.40577587890625,-3.185004711151123,-2.7072341442108154,-1.8012274503707886
1772811366533656600,0.415656494140625,-3.4896700382232666,-3.061434268951416,-2.476071834564209
1772811366543537200,0.425537109375,-3.740007162094116,-3.640937566757202,-3.19938588142395
1772811366553417700,0.435417724609375,-3.9216344356536865,-4.352001190185547,-3.9083187580108643
1772811366563298300,0.44529833984375,-3.9759628772735596,-5.058270454406738,-4.591152667999268
1772811366573179000,0.455178955078125,-3.884882926940918,-5.427384376525879,-5.258540153503418
1772811366583059500,0.4650595703125,-3.4710280895233154,-4.418580055236816,-5.1722540855407715
1772811366592940000,0.47493994140625,-2.8270761966705322,-4.17250394821167,-4.913394927978516
1772811366602820600,0.484820556640625,-1.8129453659057617,-3.7277565002441406,-4.106990337371826
1772811366612701200,0.494701171875,-0.5767070651054382,-3.1328067779541016,-2.7855310440063477
1772811366622581800,0.504581787109375,0.3490069508552551,-2.6566340923309326,-1.4150694608688354
1772811366632462000,0.514462158203125,0.7447523474693298,-3.0337374210357666,-0.510660707950592
1772811366642342700,0.5243427734375,0.8310387134552002,-3.563173294067383,0.02569948323071003
1772811366652223200,0.53422314453125,0.7799060344696045,-4.152796745300293,0.24461114406585693
1772811366662103800,0.544103759765625,0.5791038870811462,-4.346141815185547,0.20945744216442108
1772811366671984400,0.553984375,0.30959221720695496,-4.277432441711426,-0.007856318727135658
1772811366681865000,0.563864990234375,0.07523423433303833,-4.257725238800049,-0.25553008913993835
1772811366691745500,0.57374560546875,-0.0696416050195694,-4.200733661651611,-0.4323638379573822
1772811366701626000,0.583626220703125,-0.03502053767442703,-4.175699710845947,-0.6070670485496521
1772811366711506700,0.593506591796875,0.27124273777008057,-4.2241692543029785,-0.8621976375579834
1772811366721387000,0.603386962890625,0.677108108997345,-3.9115145206451416,-1.1982883214950562
1772811366731267600,0.613267578125,0.9104008674621582,-3.3123037815093994,-1.6760590076446533
1772811366741148200,0.623148193359375,1.0403629541397095,-2.6917877197265625,-2.119208574295044
1772811366751028700,0.63302880859375,1.1495524644851685,-2.030259132385254,-2.3642191886901855
1772811366760909300,0.642909423828125,1.2773841619491577,-1.5695326328277588,-2.3897855281829834
1772811366770790000,0.652789794921875,1.372192621231079,-1.4832463264465332,-2.207625389099121
1772811366780670500,0.66267041015625,1.4041504859924316,-1.7064189910888672,-1.8667411804199219
1772811366790551000,0.672551025390625,1.4121400117874146,-1.9956380128860474,-1.455016851425171
1772811366800431600,0.682431640625,1.4424999952316284,-2.073935031890869,-0.9500818848609924
1772811366810312000,0.69231201171875,1.4760557413101196,-2.5937836170196533,-0.5772396922111511
1772811366820192500,0.702192626953125,1.3743231296539307,-3.125349998474121,-0.28322693705558777
1772811366830073000,0.712072998046875,1.2917652130126953,-3.4662344455718994,-0.10586056113243103
1772811366839953700,0.72195361328125,1.315200924873352,-3.72029972076416,-0.013715268112719059
1772811366849834200,0.731834228515625,1.3642030954360962,-3.8129775524139404,-0.013715268112719059
1772811366859714800,0.74171484375,1.5128073692321777,-3.586609125137329,-0.21451744437217712
1772811366869595400,0.751595458984375,1.7753947973251343,-3.2063100337982178,-0.6816354990005493
1772811366879476000,0.76147607421875,2.0337212085723877,-2.8462510108947754,-1.2622041702270508
1772811366889356500,0.7713564453125,2.2776665687561035,-2.5831308364868164,-1.7005600929260254
1772811366899237000,0.781237060546875,2.503502368927002,-2.38179612159729,-2.0318570137023926
1772811366909117700,0.79111767578125,2.6808688640594482,-2.2955098152160645,-2.362621307373047
1772811366918998000,0.800998046875,2.850778341293335,-2.3684802055358887,-2.601240396499634
1772811366928878600,0.810878662109375,3.0425257682800293,-2.5586297512054443,-2.708299398422241
1772811366938759200,0.82075927734375,3.216696262359619,-2.7024405002593994,-2.720017194747925
1772811366948639700,0.8306396484375,3.337071180343628,-2.7402572631835938,-2.7280068397521973
1772811366958520300,0.840520263671875,3.401519536972046,-2.658764600753784,-2.799379348754883
1772811366968401000,0.85040087890625,3.3940627574920654,-2.5128235816955566,-2.9250805377960205
1772811366978281500,0.860281494140625,3.2933952808380127,-2.3487730026245117,-2.995920419692993
1772811366988162000,0.870162109375,3.1405301094055176,-2.286987543106079,-2.9650278091430664
1772811366998042400,0.88004248046875,2.91096568107605,-2.2566275596618652,-2.8606319427490234
1772811367007923200,0.889923095703125,2.6190836429595947,-2.168210744857788,-2.7471814155578613
1772811367017803800,0.8998037109375,2.3218750953674316,-2.133057117462158,-2.6731457710266113
1772811367027684400,0.909684326171875,1.9991002082824707,-2.4148192405700684,-2.382861375808716
1772811367037565000,0.91956494140625,1.662476897239685,-2.8664910793304443,-1.8347833156585693
1772811367047445500,0.929445556640625,1.3801820278167725,-3.200451135635376,-1.1471556425094604
1772811367057326300,0.939326416015625,1.1623356342315674,-3.3426637649536133,-0.49574699997901917
1772811367067207000,0.94920703125,1.0068072080612183,-3.3724911212921143,0.051798440515995026
1772811367077087500,0.95908740234375,0.9130640029907227,-3.3948616981506348,0.49335017800331116
1772811367086968000,0.968968017578125,0.8848345279693604,-3.2633016109466553,0.835832417011261
1772811367096848600,0.9788486328125,0.899215579032898,-2.9559731483459473,1.0323735475540161
1772811367106729500,0.9887294921875,0.9205208420753479,-2.6118929386138916,1.0957566499710083
1772811367116610000,0.998610107421875,0.9370324015617371,-2.2885854244232178,1.049950361251831
1772811367126490600,1.00849072265625,0.9471524357795715,-2.035585403442383,0.9711208343505859
1772811367136371200,1.01837109375,0.9364997744560242,-1.8763285875320435,0.9327713847160339
1772811367146251800,1.028251708984375,0.8965524435043335,-1.8097496032714844,0.9556745290756226
1772811367156132400,1.03813232421875,0.8086681962013245,-1.8651432991027832,1.042493462562561
1772811367166013200,1.04801318359375,0.7133271098136902,-2.043574810028076,1.1783145666122437
1772811367175893800,1.057893798828125,0.6398239135742188,-2.2315938472747803,1.3844431638717651
1772811367185774300,1.0677744140625,0.6030722856521606,-2.3780677318573,1.642769455909729
1772811367195655000,1.077655029296875,0.6073333621025085,-2.461690902709961,1.9048243761062622
1772811367205535500,1.087535400390625,0.6408891677856445,-2.4537012577056885,2.106691837310791
1772811367215416300,1.097416259765625,0.6824344396591187,-2.2742044925689697,2.225468635559082
1772811367225297000,1.107296875,0.7372955083847046,-1.9540927410125732,2.236654043197632
1772811367235177500,1.117177490234375,0.790026068687439,-1.56047785282135,2.107757091522217
1772811367245058000,1.12705810546875,0.8550071120262146,-1.0992188453674316,1.9138790369033813
1772811367254938600,1.136938720703125,0.8944218754768372,-0.6166543960571289,1.7620790004730225
1772811367264819500,1.1468193359375,0.8965524435043335,-0.23529008030891418,1.6832494735717773
1772811367274700000,1.156699951171875,0.8816387057304382,0.0294279046356678,1.6603463888168335
1772811367284580600,1.16658056640625,0.8486155271530151,0.2137184888124466,1.650226354598999
1772811367294461200,1.176461181640625,0.790026068687439,0.4294343590736389,1.6683357954025269
1772811367304342000,1.186342041015625,0.714392364025116,0.668586015701294,1.7359800338745117
1772811367314222600,1.19622265625,0.6739123463630676,0.877910315990448,1.7940369844436646
1772811367324103200,1.206103271484375,0.647280752658844,0.9940240383148193,1.7935043573379517
1772811367333983700,1.215983642578125,0.6360954642295837,1.0861693620681763,1.746632695198059
1772811367343864300,1.2258642578125,0.6787060499191284,1.15913987159729,1.6912389993667603
1772811367353745200,1.2357451171875,0.7655249834060669,1.1974893808364868,1.6283884048461914
1772811367363625700,1.245625732421875,0.8289082050323486,1.1213229894638062,1.492034673690796
1772811367373506300,1.25550634765625,0.8954871296882629,0.9902955889701843,1.3034831285476685
1772811367383387000,1.265386962890625,0.9583377242088318,0.9008134603500366,1.141563057899475
1772811367393267500,1.275267333984375,0.9881650805473328,0.7783081531524658,1.0259819030761719
1772811367403148000,1.28514794921875,0.9641966223716736,0.5721796751022339,0.9295755624771118
1772811367413028900,1.29502880859375,0.8912261128425598,0.33356064558029175,0.8400934338569641
1772811367422909400,1.304909423828125,0.7873628735542297,0.11038793623447418,0.747948169708252
1772811367432790000,1.3147900390625,0.6531397104263306,-0.0834900289773941,0.6451502442359924
1772811367442670600,1.324670654296875,0.500806987285614,-0.257127970457077,0.5146554112434387
1772811367452551200,1.33455126953125,0.3559311628341675,-0.3844269812107086,0.36285537481307983
1772811367462432000,1.344431884765625,0.2568616569042206,-0.489888072013855,0.18868480622768402
1772811367472312600,1.3543125,0.265383780002594,-0.6368944048881531,0.004394211806356907
1772811367482193200,1.364193115234375,0.21584902703762054,-0.6688523292541504,-0.14154689013957977
1772811367492073700,1.37407373046875,0.0864195004105568,-0.6017407178878784,-0.24168166518211365
1772811367501954300,1.383954345703125,-0.0930773988366127,-0.5804354548454285,-0.334892213344574
1772811367511835000,1.3938349609375,-0.26937851309776306,-0.5772396922111511,-0.370045930147171
1772811367521715500,1.403715576171875,-0.44887542724609375,-0.5799028277397156,-0.3908185660839081
1772811367531595800,1.413595703125,-0.6432859897613525,-0.5633912682533264,-0.38229644298553467
1772811367541476400,1.423476318359375,-0.8408923745155334,-0.5149217844009399,-0.313586950302124
1772811367551357000,1.43335693359375,-1.0214545726776123,-0.4664522707462311,-0.2390184998512268
1772811367561237500,1.443237548828125,-1.1732546091079712,-0.40679749846458435,-0.18575532734394073
1772811367571117800,1.453117919921875,-1.3042820692062378,-0.37803539633750916,-0.1543300598859787
1772811367580998400,1.462998291015625,-1.429450511932373,-0.38229644298553467,-0.13355740904808044
1772811367590879000,1.47287890625,-1.585511565208435,-0.42490699887275696,-0.10426266491413116
1772811367600759600,1.482759521484375,-1.7138758897781372,-0.5218459963798523,-0.08029423654079437
1772811367610640100,1.49264013671875,-1.8054884672164917,-0.5836312770843506,-0.04673843830823898
1772811367620520700,1.502520751953125,-1.9216022491455078,-0.6443513035774231,-0.012650004588067532
1772811367630401000,1.512401123046875,-2.055292844772339,-0.72903972864151,0.03688475117087364
1772811367640281600,1.522281494140625,-2.2001686096191406,-0.8472839593887329,0.1045289859175682
1772811367650162200,1.532162109375,-2.367947578430176,-1.015595555305481,0.1940111219882965
1772811367660042800,1.542042724609375,-2.5522382259368896,-1.2398335933685303,0.27710166573524475
1772811367669923300,1.55192333984375,-2.7354636192321777,-1.4986926317214966,0.31971222162246704
1772811367679803600,1.5618037109375,-2.8899266719818115,-1.774063229560852,0.30959221720695496
1772811367689684200,1.571684326171875,-2.997518301010132,-2.023867607116699,0.2515353560447693
1772811367699564800,1.581564697265625,-3.050781488418579,-2.1767327785491943,0.18442374467849731
1772811367709445400,1.5914453125,-3.031074285507202,-2.19271183013916,0.15992268919944763
1772811367719325700,1.60132568359375,-2.9154930114746094,-2.0925769805908203,0.16524900496006012
1772811367729206300,1.611206298828125,-2.7258760929107666,-1.883252739906311,0.14074794948101044
1772811367739086800,1.6210869140625,-2.5096278190612793,-1.5652716159820557,0.04647212103009224
1772811367748967400,1.630967529296875,-2.292314052581787,-1.1684609651565552,-0.11331740766763687
1772811367758848000,1.640847900390625,-2.064347505569458,-0.7215828895568848,-0.3114564120769501
1772811367768728600,1.650728515625,-1.84596848487854,-0.2757700979709625,-0.5181175470352173
1772811367778609000,1.66060888671875,-1.6595474481582642,0.14181320369243622,-0.7034733891487122
1772811367788489500,1.670489501953125,-1.5125410556793213,0.49867647886276245,-0.84675133228302
1772811367798370000,1.6803701171875,-1.4022862911224365,0.747948169708252,-0.9319724440574646
1772811367808250600,1.690250732421875,-1.3175978660583496,0.8816387057304382,-0.9564734697341919
1772811367818131000,1.700130859375,-1.2542146444320679,0.8944218754768372,-0.9404945373535156
1772811367828011500,1.710011474609375,-1.2073431015014648,0.7894934415817261,-0.8904271721839905
1772811367837892000,1.71989208984375,-1.162069320678711,0.5833649635314941,-0.8115976452827454
1772811367847772700,1.729772705078125,-1.1034798622131348,0.30160272121429443,-0.6965491771697998
1772811367857653200,1.7396533203125,-1.0321072340011597,-0.03555316850543022,-0.5548691153526306
1772811367867533800,1.749533935546875,-0.9548755884170532,-0.3993406593799591,-0.4046669900417328
1772811367877414100,1.7594140625,-0.8792418837547302,-0.7482144832611084,-0.257127970457077
1772811367887294700,1.769294677734375,-0.8105323910713196,-1.0507493019104004,-0.11864372342824936
1772811367897175300,1.77917529296875,-0.7327681183815002,-1.2744545936584473,-0.001997369108721614
1772811367907055900,1.789055908203125,-0.644883930683136,-1.4182652235031128,0.07736476510763168
1772811367916936400,1.7989365234375,-0.5575323104858398,-1.496562123298645,0.10932266712188721
1772811367926816800,1.808816650390625,-0.44834280014038086,-1.50668203830719,0.09014792740345001
1772811367936697300,1.818697265625,-0.34128379821777344,-1.441701054573059,0.027297377586364746
1772811367946578000,1.828577880859375,-0.24754060804843903,-1.3362399339675903,-0.07017423212528229
1772811367956458500,1.83845849609375,-0.16711321473121643,-1.204147219657898,-0.1830921620130539
1772811367966338800,1.8483388671875,-0.09840371459722519,-1.04329252243042,-0.29867327213287354
1772811367976219400,1.858219482421875,-0.01904158480465412,-0.8712524175643921,-0.4126564562320709
1772811367986100000,1.868099853515625,0.06777739524841309,-0.6768417954444885,-0.5127912163734436
1772811367995980500,1.87798046875,0.14873741567134857,-0.48189857602119446,-0.5926859974861145
1772811368015742500,1.897742431640625,0.330364853143692,-0.15646058320999146,-0.7109302282333374
1772811368035504400,1.91750439453125,0.529569149017334,0.07896266132593155,-0.7791070938110352
1772811368045385200,1.92738525390625,0.6510091423988342,0.1806953251361847,-0.7870965600013733
1772811368055266300,1.937266357421875,0.7745797634124756,0.2744385302066803,-0.7737807631492615
1772811368065147400,1.9471474609375,0.8981503248214722,0.35220274329185486,-0.7444860339164734
1772811368075028200,1.9570283203125,1.0275797843933105,0.4123901426792145,-0.7024081349372864
1772811368084909300,1.966909423828125,1.1463567018508911,0.4246406853199005,-0.7050712704658508
1772811368094790100,1.9767900390625,1.2454261779785156,0.39001959562301636,-0.7716502547264099
1772811368104671200,1.986671142578125,1.360474705696106,0.3362238109111786,-0.8558061122894287
1772811368114552000,1.996552001953125,1.4840452671051025,0.28615641593933105,-0.8898945450782776
1772811368124433200,2.00643310546875,1.608148455619812,0.2233058661222458,-0.8472839593887329
1772811368134314000,2.01631396484375,1.7258601188659668,0.15992268919944763,-0.741290271282196
1772811368144195000,2.026195068359375,1.8419737815856934,0.11038793623447418,-0.5687175393104553
1772811368154076000,2.036075927734375,1.9490327835083008,0.09387634694576263,-0.32104378938674927
1772811368163957000,2.04595703125,2.091245412826538,0.09920266270637512,-0.0318247489631176
1772811368173837800,2.055837890625,2.2931129932403564,0.032091062515974045,0.231827974319458
1772811368183719000,2.065718994140625,2.502969741821289,0.043808963149785995,0.5162533521652222
1772811368193599700,2.075599853515625,2.751176118850708,0.17270584404468536,0.8731166124343872
1772811368203480800,2.085480712890625,2.994588851928711,0.45073962211608887,1.2965588569641113
1772811368213362000,2.09536181640625,3.02974271774292,0.9002808332443237,1.7194684743881226
1772811368223242800,2.10524267578125,3.035068988800049,1.1820430755615234,1.9879149198532104
1772811368233123800,2.115123779296875,3.143725872039795,1.2912325859069824,2.1098875999450684
1772811368243004700,2.125004638671875,3.1202900409698486,1.545830488204956,2.2686119079589844
1772811368252885800,2.1348857421875,2.980740547180176,1.897900104522705,2.3527677059173584
1772811368262766600,2.1447666015625,2.871018409729004,2.2291970252990723,2.4363908767700195
1772811368272647700,2.154647705078125,2.770350933074951,2.3533003330230713,2.572211980819702
1772811368282528500,2.164528564453125,2.5498414039611816,2.329864501953125,2.647313117980957
1772811368292409600,2.17440966796875,2.2536981105804443,2.249969720840454,2.617485523223877
1772811368302290400,2.18429052734375,1.9069548845291138,2.1642160415649414,2.504034996032715
1772811368312171500,2.194171630859375,1.5697989463806152,2.048102378845215,2.3266687393188477
1772811368322052400,2.20405224609375,1.25554621219635,1.9085527658462524,2.066211700439453
1772811368331933400,2.213933349609375,0.9732514023780823,1.7998958826065063,1.688043236732483
1772811368341814500,2.223814453125,0.7080007791519165,1.7530243396759033,1.1910977363586426
1772811368351695400,2.2336953125,0.4534027874469757,1.7482305765151978,0.6201165318489075
1772811368361576400,2.243576416015625,0.20200060307979584,1.7338495254516602,0.027297377586364746
1772811368371457300,2.253457275390625,-0.054727911949157715,1.7237294912338257,-0.531965970993042
1772811368381338400,2.26333837890625,-0.33968591690063477,1.7130769491195679,-1.052879810333252
1772811368391219200,2.27321923828125,-0.6576670408248901,1.679521083831787,-1.538640022277832
1772811368401100300,2.283100341796875,-1.0006818771362305,1.613474726676941,-1.9743328094482422
1772811368410981000,2.292981201171875,-1.3277177810668945,1.5692663192749023,-2.367414951324463
1772811368420862200,2.3028623046875,-1.6084147691726685,1.5644726753234863,-2.744518280029297
1772811368430743000,2.312742919921875,-1.8294569253921509,1.590571641921997,-3.121621608734131
1772811368440624000,2.3226240234375,-1.9823222160339355,1.6896411180496216,-3.4742238521575928
1772811368450505000,2.3325048828125,-2.068608522415161,1.8595505952835083,-3.8033902645111084
1772811368460386000,2.342385986328125,-2.1016318798065186,2.0651464462280273,-4.095272541046143
1772811368470267000,2.352266845703125,-2.0963053703308105,2.3186793327331543,-4.35253381729126
1772811368480148000,2.36214794921875,-2.069141149520874,2.5748751163482666,-4.540552616119385
1772811368490029000,2.372029052734375,-1.9759306907653809,2.830005645751953,-4.658796787261963
1772811368499910000,2.381909912109375,-1.8379790782928467,3.0606353282928467,-4.713125228881836
1772811368509791000,2.391791015625,-1.6680694818496704,3.2449257373809814,-4.703537940979004
1772811368519672300,2.40167236328125,-1.4496904611587524,3.4047152996063232,-4.623110771179199
1772811368529553400,2.411553466796875,-1.1849725246429443,3.5133721828460693,-4.493148326873779
1772811368539434500,2.4214345703125,-0.871785044670105,3.564504861831665,-4.307260036468506
1772811368549315600,2.431315673828125,-0.5170522928237915,3.579951286315918,-4.058520793914795
1772811368559196700,2.44119677734375,-0.1687111109495163,3.5016543865203857,-3.7735629081726074
1772811368569077800,2.451077880859375,0.16844479739665985,3.3498542308807373,-3.458244800567627
1772811368578958800,2.460958740234375,0.4970785975456238,3.1421279907226562,-3.1040446758270264
1772811368588840000,2.47083984375,0.8123965859413147,2.856104612350464,-2.719484567642212
1772811368598721000,2.480720947265625,1.0893651247024536,2.5221445560455322,-2.3205435276031494
1772811368608602000,2.49060205078125,1.3136030435562134,2.161552906036377,-1.9221348762512207
1772811368618483200,2.500483154296875,1.4936326742172241,1.7903084754943848,-1.543966293334961
1772811368628364300,2.5103642578125,1.655019998550415,1.4179989099502563,-1.1796462535858154
1772811368638245400,2.520245361328125,1.8057547807693481,1.0771145820617676,-0.8366313576698303
1772811368648126700,2.530126708984375,1.9383801221847534,0.7783081531524658,-0.5154544115066528
1772811368658007800,2.5400078125,2.0603528022766113,0.504535436630249,-0.2017342746257782
1772811368667889000,2.549888916015625,2.200434923171997,0.2749711573123932,0.13435636460781097
1772811368677770000,2.55977001953125,2.34371280670166,0.11145319789648056,0.4763059616088867
1772811368687651000,2.569651123046875,2.4454455375671387,-0.011584741063416004,0.7921565771102905
1772811368697532200,2.5795322265625,2.5056328773498535,-0.10532793402671814,1.075516700744629
1772811368707413200,2.589413330078125,2.5221445560455322,-0.15166689455509186,1.3221251964569092
1772811368717294300,2.59929443359375,2.498176097869873,-0.16072162985801697,1.5303841829299927
1772811368737056500,2.619056396484375,2.3682138919830322,-0.14634057879447937,1.7801885604858398
1772811368746937900,2.628937744140625,2.309091806411743,-0.10426266491413116,1.825994849205017
1772811368766700000,2.648699951171875,2.236654043197632,0.020373165607452393,1.7365126609802246
1772811368776581000,2.6585810546875,2.1929781436920166,0.06617949903011322,1.578853726387024
1772811368786462200,2.668462158203125,2.0992348194122314,0.08002792298793793,1.2912325859069824
1772811368796343300,2.67834326171875,1.9921759366989136,0.06298370659351349,0.928510308265686
1772811368806224400,2.688224365234375,1.897900104522705,0.014514215290546417,0.5913544297218323
1772811368816105500,2.69810546875,1.8238643407821655,-0.03555316850543022,0.3356911540031433
1772811368825986600,2.707986572265625,1.7578179836273193,-0.09840371459722519,0.15033531188964844
1772811368835867600,2.71786767578125,1.6837821006774902,-0.1735047996044159,0.026764746755361557
1772811368845748700,2.727748779296875,1.5937674045562744,-0.2395511418581009,-0.04780369997024536
1772811368855629800,2.7376298828125,1.4765883684158325,-0.2858901023864746,-0.1074584573507309
1772811368865511000,2.747510986328125,1.3077441453933716,-0.31731536984443665,-0.182559534907341
1772811368875392000,2.75739208984375,1.0653966665267944,-0.324239581823349,-0.28961852192878723
1772811368885273300,2.7672734375,0.7309039235115051,-0.29334694147109985,-0.40253645181655884
1772811368895154400,2.777154541015625,0.3026680052280426,-0.21877849102020264,-0.4936164915561676
1772811368905035500,2.787035400390625,-0.18469005823135376,-0.11278477311134338,-0.5516733527183533
1772811368914916600,2.79691650390625,-0.6981470584869385,0.003861580276861787,-0.5804354548454285
1772811368924797700,2.806797607421875,-1.1588735580444336,0.13062794506549835,-0.58256596326828
1772811368934678800,2.8166787109375,-1.5455641746520996,0.27656903862953186,-0.5820333361625671
1772811368944559900,2.826559814453125,-1.85342538356781,0.4384891092777252,-0.586294412612915
1772811368954441000,2.83644091796875,-2.058488607406616,0.6163880825042725,-0.616121768951416
1772811368964322000,2.846322021484375,-2.1660802364349365,0.7644597291946411,-0.6613954901695251
1772811368974203100,2.856203125,-2.189516067504883,0.8731166124343872,-0.6976144313812256
1772811368984084200,2.866084228515625,-2.138916015625,0.941293478012085,-0.7013428807258606
1772811368993965600,2.875965576171875,-2.055292844772339,0.9338366389274597,-0.6480796933174133
1772811369003846100,2.88584619140625,-1.9567559957504272,0.8246471285820007,-0.531965970993042
1772811369013727000,2.89572705078125,-1.8640780448913574,0.6201165318489075,-0.3673827648162842
1772811369023607600,2.905607666015625,-1.7857811450958252,0.3362238109111786,-0.19747322797775269
1772811369033488400,2.91548828125,-1.7208000421524048,-0.018508953973650932,-0.041944749653339386
1772811369043369000,2.925368896484375,-1.6675368547439575,-0.40573224425315857,0.09760477393865585
1772811369053249500,2.93524951171875,-1.6100126504898071,-0.8025429248809814,0.2222405970096588
1772811369063130400,2.94513037109375,-1.569000005722046,-1.1924293041229248,0.35220274329185486
1772811369073011000,2.955010986328125,-1.5471620559692383,-1.5626084804534912,0.49814385175704956
1772811369082891800,2.964891845703125,-1.5402379035949707,-1.8805896043777466,0.65953129529953
1772811369092772400,2.9747724609375,-1.569000005722046,-2.149568557739258,0.7969502806663513
1772811369102653200,2.984653076171875,-1.635578989982605,-2.357827663421631,0.8688555359840393
1772811369112533800,2.99453369140625,-1.694701075553894,-2.4792675971984863,0.8672576546669006
1772811369122414600,3.00441455078125,-1.7309200763702393,-2.50589919090271,0.8416913151741028
1772811369132295200,3.014295166015625,-1.7548885345458984,-2.4542338848114014,0.8347671031951904
1772811369142175700,3.02417578125,-1.811347484588623,-2.377535104751587,0.844354510307312
1772811369152056600,3.034056640625,-1.9343854188919067,-2.3141517639160156,0.844354510307312
1772811369161937200,3.043937255859375,-2.109621286392212,-2.267280340194702,0.8145270943641663
1772811369171818000,3.05381787109375,-2.298172950744629,-2.214017152786255,0.7399587035179138
1772811369181698600,3.063698486328125,-2.447309732437134,-2.144774913787842,0.6355628371238708
1772811369191579400,3.073579345703125,-2.5043013095855713,-2.030791759490967,0.508263885974884
1772811369201460000,3.0834599609375,-2.4941813945770264,-1.8475663661956787,0.37670382857322693
1772811369211340800,3.0933408203125,-2.451038122177124,-1.6030884981155396,0.2462090253829956
1772811369221221400,3.103221435546875,-2.411623477935791,-1.3069452047348022,0.1279647797346115
1772811369231102200,3.113102294921875,-2.3929812908172607,-0.9873661398887634,0.04540685936808586
1772811369240982800,3.122982666015625,-2.381263494491577,-0.6842986345291138,0.008122634142637253
1772811369250863400,3.13286328125,-2.371675968170166,-0.43555963039398193,0.004394211806356907
1772811369260744200,3.142744140625,-2.3434464931488037,-0.259258508682251,0.0294279046356678
1772811369270624800,3.152624755859375,-2.293911933898926,-0.16711321473121643,0.06458160281181335
1772811369280505600,3.162505615234375,-2.212419271469116,-0.15326479077339172,0.09440898150205612
1772811369290386200,3.17238623046875,-2.1069581508636475,-0.19587533175945282,0.11145319789648056
1772811369300267000,3.18226708984375,-1.9983012676239014,-0.3087932765483856,0.10612688213586807
1772811369310147600,3.192147705078125,-1.866208553314209,-0.4611259400844574,0.08748476952314377
1772811369320028400,3.2020283203125,-1.7255938053131104,-0.6352965235710144,0.09281108528375626
1772811369329909000,3.211908935546875,-1.585511565208435,-0.8254460692405701,0.11624687910079956
1772811369339789800,3.221789794921875,-1.4496904611587524,-1.0262482166290283,0.13648688793182373
1772811369349670400,3.23167041015625,-1.3266525268554688,-1.2329093217849731,0.16418373584747314
1772811369359551200,3.24155126953125,-1.1998862028121948,-1.4140042066574097,0.20999006927013397
1772811369369431800,3.251431884765625,-1.0736525058746338,-1.5455641746520996,0.27337324619293213
1772811369379312400,3.2613125,-0.9420924186706543,-1.6169369220733643,0.3420827388763428
1772811369389193200,3.271193115234375,-0.8089345097541809,-1.6456990242004395,0.39587855339050293
1772811369399073800,3.28107373046875,-0.6768417954444885,-1.6345137357711792,0.42410802841186523
1772811369408954600,3.29095458984375,-0.5452817678451538,-1.588707447052002,0.41398802399635315
1772811369418835200,3.300835205078125,-0.422776460647583,-1.518399953842163,0.3697795867919922
1772811369428716000,3.310716064453125,-0.31625011563301086,-1.4337115287780762,0.2925480008125305
1772811369438596600,3.3205966796875,-0.2209090292453766,-1.3351746797561646,0.18229322135448456
1772811369448477400,3.3304775390625,-0.12503530085086823,-1.2147998809814453,0.043808963149785995
1772811369458358000,3.34035791015625,-0.041944749653339386,-1.0763156414031982,-0.1170458272099495
1772811369468238800,3.35023876953125,0.03049316816031933,-0.9357008337974548,-0.2922816872596741
1772811369478119400,3.360119384765625,0.09227845072746277,-0.7785744667053223,-0.4691154360771179
1772811369488000000,3.37,0.13701951503753662,-0.6150565147399902,-0.6454165577888489
1772811369497880800,3.379880859375,0.1524658352136612,-0.4552670121192932,-0.834500789642334
1772811369507762000,3.389761962890625,0.1620532125234604,-0.3050648272037506,-1.0704567432403564
1772811369517643000,3.39964306640625,0.1940111219882965,-0.14154689013957977,-1.362338900566101
1772811369527524000,3.409524169921875,0.22863218188285828,0.052331071346998215,-1.647829532623291
1772811369537405200,3.4194052734375,0.26325324177742004,0.2515353560447693,-1.8763285875320435
1772811369547286300,3.429286376953125,0.3032006323337555,0.4411522448062897,-2.0126821994781494
1772811369557167400,3.43916748046875,0.36285537481307983,0.6142575740814209,-2.034520149230957
1772811369567048200,3.449048095703125,0.4347606897354126,0.77724289894104,-1.955690622329712
1772811369576929300,3.45892919921875,0.5215796828269958,0.9157271385192871,-1.8086843490600586
1772811369586810400,3.468810302734375,0.622247040271759,1.0323735475540161,-1.6036211252212524
1772811369596691500,3.47869140625,0.7452849745750427,1.0914956331253052,-1.3516862392425537
1772811369606572500,3.488572509765625,0.8800408244132996,1.0653966665267944,-1.0752503871917725
1772811369616453600,3.49845361328125,1.015861988067627,0.949815571308136,-0.7775092124938965
1772811369626334700,3.508334716796875,1.147421956062317,0.7474155426025391,-0.49148595333099365
1772811369636215800,3.5182158203125,1.1325082778930664,0.5428849458694458,-0.30240169167518616
1772811369646097000,3.528096923828125,0.9679250717163086,0.2371542900800705,-0.17723321914672852
1772811369655978000,3.53797802734375,0.6094638705253601,0.09867003560066223,0.11677951365709305
1772811369665859000,3.547859130859375,0.1940111219882965,0.2227732390165329,0.7032070755958557
1772811369675740000,3.557739990234375,0.18335849046707153,0.6696512699127197,1.4717947244644165
1772811369685621200,3.567621337890625,0.7042723298072815,0.9929587841033936,2.107757091522217
1772811369695502000,3.577502197265625,1.3658009767532349,0.9530113935470581,2.5051002502441406
1772811369705383200,3.587383056640625,1.8180053234100342,0.9471524357795715,2.661161422729492
1772811369715264300,3.59726416015625,2.0337212085723877,0.8938892483711243,2.5652878284454346
1772811369725145300,3.607145263671875,2.0981695652008057,0.7463502287864685,2.2638182640075684
1772811369735026400,3.6170263671875,2.00815486907959,0.571647047996521,1.8718011379241943
1772811369744907500,3.626907470703125,1.8590179681777954,0.3687143325805664,1.4531526565551758
1772811369754788600,3.63678857421875,1.7114790678024292,0.2643185257911682,1.013198733329773
1772811369764669700,3.646669677734375,1.5921695232391357,0.2131858617067337,0.5844302177429199
1772811369774550500,3.656550537109375,1.5026873350143433,0.23076270520687103,0.19081532955169678
1772811369784431900,3.666431884765625,1.4334452152252197,0.3021353781223297,-0.14580795168876648
1772811369794312700,3.676312744140625,1.372725248336792,0.4454133212566376,-0.41585224866867065
1772811369804193800,3.68619384765625,1.3391693830490112,0.5759080648422241,-0.6294375658035278
1772811369814075000,3.696074951171875,1.3242557048797607,0.6733797192573547,-0.7759113311767578
1772811369823956000,3.7059560546875,1.3210599422454834,0.7458176016807556,-0.8435555696487427
1772811369833837000,3.715837158203125,1.352485179901123,0.8038744926452637,-0.859534502029419
1772811369843718100,3.72571826171875,1.4004220962524414,0.8592681884765625,-0.863262951374054
1772811369853599200,3.73559912109375,1.4355757236480713,0.9109334945678711,-0.8723176717758179
1772811369863480300,3.745480224609375,1.4600768089294434,0.9524787664413452,-0.8701871633529663
1772811369873361400,3.755361328125,1.4733926057815552,0.9886977076530457,-0.8291745185852051
1772811369883242500,3.765242431640625,1.4707294702529907,1.0355693101882935,-0.7333008050918579
1772811369893123600,3.77512353515625,1.449424147605896,1.0914956331253052,-0.5815007090568542
1772811369903004400,3.78500439453125,1.4041504859924316,1.1532809734344482,-0.3956122398376465
1772811369912885500,3.794885498046875,1.3210599422454834,1.2219904661178589,-0.19374480843544006
1772811369922766600,3.8047666015625,1.2145335674285889,1.2997546195983887,0.008122634142637253
1772811369932647700,3.814647705078125,1.096821904182434,1.382845163345337,0.1849563866853714
1772811369942528800,3.82452880859375,0.9503481984138489,1.4606094360351562,0.3255711793899536
1772811369952409900,3.834409912109375,0.7884281873703003,1.5218621492385864,0.4161185622215271
1772811369962291000,3.844291015625,0.6366280913352966,1.5820494890213013,0.4550006687641144
1772811369972172000,3.854172119140625,0.5151880979537964,1.6491611003875732,0.4635227918624878
1772811369982053000,3.86405322265625,0.4257059395313263,1.7104136943817139,0.4587291181087494
1772811369991934200,3.873934326171875,0.3644532859325409,1.7615463733673096,0.4358259439468384
1772811370001814800,3.883814697265625,0.32929959893226624,1.7919063568115234,0.38522592186927795
1772811370011695400,3.8936953125,0.29680904746055603,1.7924389839172363,0.2984069585800171
1772811370021575700,3.90357568359375,0.24993745982646942,1.7679380178451538,0.19188059866428375
1772811370031456300,3.913456298828125,0.20200060307979584,1.7274580001831055,0.07523423433303833
1772811370041336800,3.9233369140625,0.17323848605155945,1.6651400327682495,-0.042477384209632874
1772811370051217400,3.933217529296875,0.165781632065773,1.5921695232391357,-0.1442100554704666
1772811370061098000,3.943097900390625,0.16897742450237274,1.511742115020752,-0.2395511418581009
1772811370070978600,3.952978515625,0.17963005602359772,1.4307820796966553,-0.3343595862388611
1772811370080859000,3.96285888671875,0.19241322576999664,1.347691535949707,-0.4467448890209198
1772811370090739500,3.972739501953125,0.23129534721374512,1.263535737991333,-0.5681849122047424
1772811370100620000,3.9826201171875,0.3079943060874939,1.1831083297729492,-0.699212372303009
1772811370110500600,3.99250048828125,0.4107922613620758,1.096821904182434,-0.8201197385787964
1772811370120381200,4.002381103515625,0.5412870049476624,0.9982850551605225,-0.9165260791778564
1772811370130261500,4.012261474609375,0.7053375840187073,0.8880302906036377,-0.9751155972480774
1772811370140142000,4.02214208984375,0.8858997821807861,0.7623292207717896,-0.9873661398887634
1772811370150022700,4.032022705078125,1.0691250562667847,0.6360954642295837,-0.9378314018249512
1772811370159903200,4.0419033203125,1.2411651611328125,0.49920910596847534,-0.8446208238601685
1772811370169783800,4.05178369140625,1.382845163345337,0.3506048619747162,-0.7391597032546997
1772811370179664100,4.0616640625,1.504285216331482,0.19347849488258362,-0.6587323546409607
1772811370189544700,4.071544677734375,1.6219968795776367,0.022503692656755447,-0.6123933792114258
1772811370199425300,4.08142529296875,1.771666407585144,-0.13675320148468018,-0.5612607002258301
1772811370209305900,4.091305908203125,1.9490327835083008,-0.2763027250766754,-0.5000080466270447
1772811370219186400,4.1011865234375,2.1338560581207275,-0.41531962156295776,-0.42650488018989563
1772811370229067000,4.11106689453125,2.309624433517456,-0.5644565224647522,-0.3428817093372345
1772811370238947300,4.120947265625,2.4608919620513916,-0.7135934233665466,-0.25499746203422546
1772811370248828000,4.130827880859375,2.5695488452911377,-0.859001874923706,-0.15805847942829132
1772811370258708500,4.14070849609375,2.6196162700653076,-0.9873661398887634,-0.05259738489985466
1772811370268589000,4.150589111328125,2.5844624042510986,-1.0757830142974854,0.06777739524841309
1772811370278469600,4.1604697265625,2.492849826812744,-1.156743049621582,0.1998700648546219
1772811370288350000,4.170349853515625,2.2925803661346436,-1.1887009143829346,0.36232274770736694
1772811370298230500,4.18023046875,1.9138790369033813,-1.191364049911499,0.5657880902290344
1772811370308111000,4.190111083984375,1.4132052659988403,-1.2046798467636108,0.7921565771102905
1772811370317991700,4.19999169921875,0.8752471208572388,-1.2962925434112549,1.0190577507019043
1772811370327872300,4.209872314453125,0.3415501117706299,-1.4480925798416138,1.2464914321899414
1772811370337752600,4.219752685546875,-0.16764584183692932,-1.6270568370819092,1.4638051986694336
1772811370347633200,4.229633056640625,-0.6123933792114258,-1.8028253316879272,1.6246600151062012
1772811370357513700,4.239513671875,-0.9777787327766418,-1.9823222160339355,1.7205337285995483
1772811370367394300,4.249394287109375,-1.2733893394470215,-2.167678117752075,1.766872763633728
1772811370377275000,4.25927490234375,-1.4981600046157837,-2.3407833576202393,1.7780579328536987
1772811370387155500,4.269155517578125,-1.6510252952575684,-2.496844530105591,1.7567527294158936
1772811370397035800,4.279035888671875,-1.7405074834823608,-2.630002498626709,1.7040221691131592
1772811370406916400,4.288916259765625,-1.7719327211380005,-2.7317352294921875,1.6198663711547852
1772811370416797000,4.298796875,-1.7634105682373047,-2.828141450881958,1.4968284368515015
1772811370426677500,4.308677490234375,-1.7293221950531006,-2.9059057235717773,1.3391693830490112
1772811370436558000,4.31855810546875,-1.6925705671310425,-2.982604742050171,1.1436935663223267
1772811370446438400,4.3284384765625,-1.6664716005325317,-3.036933183670044,0.9253145456314087
1772811370456319000,4.338319091796875,-1.6419705152511597,-3.0683584213256836,0.7138597369194031
1772811370466199600,4.348199462890625,-1.6004252433776855,-3.056640625,0.5263733267784119
1772811370476080000,4.358080078125,-1.518932580947876,-3.0092363357543945,0.3735080361366272
1772811370485960700,4.367960693359375,-1.4805831909179688,-2.961832046508789,0.2925480008125305
1772811370495841300,4.37784130859375,-1.4986926317214966,-2.9293415546417236,0.24567639827728271
1772811370505722000,4.38772216796875,-1.563141107559204,-2.892057418823242,0.19560901820659637
1772811370515603000,4.39760302734375,-1.622795820236206,-2.8355982303619385,0.11784477531909943
1772811370525484000,4.407484130859375,-1.664873719215393,-2.7370615005493164,0.004926843568682671
1772811370535364900,4.41736474609375,-1.7000274658203125,-2.60976243019104,-0.12716583907604218
1772811370545246000,4.427245849609375,-1.7426379919052124,-2.4542338848114014,-0.26991114020347595
1772811370555126800,4.437126708984375,-1.8108148574829102,-2.2949771881103516,-0.4328964650630951
1772811370565007600,4.447007568359375,-1.900829553604126,-2.1314592361450195,-0.6129260063171387
1772811370574888700,4.456888671875,-2.0030949115753174,-1.9594191312789917,-0.8126628994941711
1772811370584769500,4.46676953125,-2.1058928966522217,-1.7650084495544434,-1.0145303010940552
1772811370594650600,4.476650634765625,-2.1969728469848633,-1.5429010391235352,-1.2121367454528809
1772811370604531500,4.486531494140625,-2.2566275596618652,-1.3064125776290894,-1.404416799545288
1772811370614412500,4.49641259765625,-2.293379306793213,-1.064597725868225,-1.575924277305603
1772811370624293400,4.50629345703125,-2.307760238647461,-0.8281092047691345,-1.7341158390045166
1772811370634174500,4.516174560546875,-2.303499221801758,-0.5996102094650269,-1.8688716888427734
1772811370644055300,4.52605517578125,-2.278465509414673,-0.39241644740104675,-1.980191707611084
1772811370653936000,4.53593603515625,-2.2363877296447754,-0.21345217525959015,-2.060086488723755
1772811370663817200,4.545817138671875,-2.1756675243377686,-0.06804370880126953,-2.110153913497925
1772811370673698000,4.555697998046875,-2.1021645069122314,0.04647212103009224,-2.128263473510742
1772811370683579100,4.5655791015625,-2.0078885555267334,0.13915005326271057,-2.1117517948150635
1772811370693460000,4.5754599609375,-1.8821874856948853,0.2041311264038086,-2.0659453868865967
1772811370703340800,4.5853408203125,-1.736778974533081,0.24887219071388245,-1.9860507249832153
1772811370713222000,4.595221923828125,-1.5817831754684448,0.25366586446762085,-1.8694043159484863
1772811370723102700,4.605102783203125,-1.4086778163909912,0.2557964026927948,-1.727724313735962
1772811370732983800,4.61498388671875,-1.2419641017913818,0.2323606014251709,-1.5679347515106201
1772811370742864600,4.62486474609375,-1.0928272008895874,0.18868480622768402,-1.4070799350738525
1772811370752745500,4.634745361328125,-0.9660608768463135,0.14980268478393555,-1.2478231191635132
1772811370762626600,4.64462646484375,-0.8542081713676453,0.0906805545091629,-1.082707166671753
1772811370772507400,4.65450732421875,-0.737561821937561,0.00918789766728878,-0.9202545285224915
1772811370782388500,4.664388427734375,-0.6028059720993042,-0.0366184338927269,-0.7609976530075073
1772811370792269300,4.674269287109375,-0.4605933129787445,-0.0014647373463958502,-0.6368944048881531
1772811370802150400,4.684150390625,-0.35939326882362366,0.10719214379787445,-0.5713807344436646
1772811370812031200,4.69403125,-0.3151848316192627,0.2131858617067337,-0.5362270474433899
1772811370821912300,4.703912353515625,-0.2779006361961365,0.24407850205898285,-0.5010733008384705
1772811370831793200,4.713793212890625,-0.20386481285095215,0.22490376234054565,-0.4520712196826935
1772811370841674000,4.723674072265625,-0.08988160640001297,0.22863218188285828,-0.389220654964447
1772811370851555000,4.73355517578125,0.05925528332591057,0.3032006323337555,-0.36898064613342285
1772811370861436000,4.743435791015625,0.23928481340408325,0.40812909603118896,-0.44408172369003296
1772811370871317000,4.75331689453125,0.4550006687641144,0.5194491147994995,-0.6214480996131897
1772811370881197800,4.76319775390625,0.6834996938705444,0.6440849304199219,-0.8339681625366211
1772811370891078700,4.77307861328125,0.9072050452232361,0.807070255279541,-1.005475640296936
1772811370900959700,4.782959716796875,1.1197251081466675,0.9801756143569946,-1.0976208448410034
1772811370910840600,4.792840576171875,1.3173315525054932,1.129845142364502,-1.107208251953125
1772811370920721700,4.8027216796875,1.456881046295166,1.2235883474349976,-0.9996166825294495
1772811370930602500,4.8126025390625,1.5399715900421143,1.2257188558578491,-0.7636607885360718
1772811370940483600,4.822483642578125,1.5948326587677002,1.1388999223709106,-0.3988080322742462
1772811370950364400,4.832364501953125,1.6310516595840454,1.0100029706954956,0.0954742431640625
1772811370960245200,4.842245361328125,1.6390410661697388,0.8512787222862244,0.6765754818916321
1772811370970126300,4.852126220703125,1.5873757600784302,0.6275733709335327,1.2992219924926758
1772811370980007200,4.862007080078125,1.4643378257751465,0.39960697293281555,1.9042917490005493
1772811370989888300,4.87188818359375,1.2896347045898438,0.15992268919944763,2.4465107917785645
1772811370999768800,4.881768798828125,1.0840388536453247,-0.09361003339290619,2.958902597427368
1772811371009649200,4.891649169921875,0.8869650363922119,-0.38815540075302124,3.421759605407715
1772811371019529200,4.901529296875,0.7000113129615784,-0.7056038975715637,3.8015260696411133
1772811371029409500,4.911409423828125,0.5306344032287598,-0.9463534951210022,4.076364040374756
1772811371039289900,4.921289794921875,0.3825627565383911,-1.0661956071853638,4.226566314697266
1772811371049170000,4.931169921875,0.2749711573123932,-1.0518145561218262,4.221240043640137
1772811371059050200,4.94105029296875,0.2179795503616333,-0.9575387239456177,4.032688140869141
1772811371068930600,4.9509306640625,0.20306585729122162,-0.8371639847755432,3.668900728225708
1772811371078811000,4.960810791015625,0.20306585729122162,-0.7114628553390503,3.162900447845459
1772811371088691000,4.97069091796875,0.21691428124904633,-0.5772396922111511,2.5466456413269043
1772811371098571300,4.9805712890625,0.2376869171857834,-0.4089280366897583,1.8499633073806763
1772811371108451600,4.99045166015625,0.25899219512939453,-0.2155826985836029,1.1229208707809448
1772811371118332000,5.000331787109375,0.27603641152381897,-0.0025300008710473776,0.41345539689064026
1772811371128212200,5.010212158203125,0.2696448266506195,0.20785954594612122,-0.21718059480190277
1772811371138092300,5.02009228515625,0.2233058661222458,0.42783647775650024,-0.7285071015357971
1772811371147972600,5.02997265625,0.14873741567134857,0.6355628371238708,-1.119991421699524
1772811371157853000,5.03985302734375,0.06831002235412598,0.8113313317298889,-1.4102756977081299
1772811371167733200,5.049733154296875,-0.018508953973650932,0.9519461393356323,-1.61054527759552
1772811371177613300,5.05961328125,-0.10532793402671814,1.0856367349624634,-1.731985330581665
1772811371187493600,5.06949365234375,-0.17563532292842865,1.2049461603164673,-1.7841832637786865
1772811371197374000,5.0793740234375,-0.19907112419605255,1.3008198738098145,-1.781520128250122
1772811371207254000,5.08925390625,-0.1639174222946167,1.372725248336792,-1.732517957687378
1772811371217134300,5.09913427734375,-0.07816371321678162,1.415335774421692,-1.639840006828308
1772811371236895000,5.11889501953125,0.17164058983325958,1.3961609601974487,-1.3436968326568604
1772811371256655400,5.1386552734375,0.45606595277786255,1.1681946516036987,-0.9218524098396301
1772811371276416000,5.158416015625,0.6973481178283691,0.8352997899055481,-0.45899543166160583
1772811371286296300,5.16829638671875,0.7937544584274292,0.6504765152931213,-0.25180166959762573
1772811371296176400,5.17817626953125,0.8768450617790222,0.4544680416584015,-0.0600542314350605
1772811371306056700,5.188056640625,0.9610008597373962,0.307461678981781,0.11997530609369278
1772811371315937000,5.19793701171875,1.038232445716858,0.1945437490940094,0.2781669497489929
1772811371325817300,5.2078173828125,1.1085398197174072,0.0864195004105568,0.41345539689064026
1772811371335697400,5.217697509765625,1.1788471937179565,-0.014780531637370586,0.5279712080955505
1772811371345577700,5.22757763671875,1.2677967548370361,-0.10159950703382492,0.6110618114471436
1772811371355458000,5.2374580078125,1.3689967393875122,-0.15060162544250488,0.6574007272720337
1772811371365338400,5.24733837890625,1.4659358263015747,-0.17616795003414154,0.6866955161094666
1772811371375218400,5.257218505859375,1.5436999797821045,-0.1964079588651657,0.7202513217926025
1772811371385098800,5.2670986328125,1.5927021503448486,-0.21291954815387726,0.7697860598564148
1772811371404859400,5.286859375,1.6342474222183228,-0.21238692104816437,0.9183903336524963
1772811371414739500,5.296739501953125,1.6464979648590088,-0.21664796769618988,0.9897629618644714
1772811371424619800,5.306619873046875,1.6603463888168335,-0.23315955698490143,1.0494177341461182
1772811371434500000,5.3165,1.6587485074996948,-0.2113216519355774,1.1085398197174072
1772811371444380400,5.32638037109375,1.6443674564361572,-0.15646058320999146,1.1564767360687256
1772811371454260500,5.336260498046875,1.6475632190704346,-0.1543300598859787,1.1937609910964966
1772811371464140800,5.346140869140625,1.6789884567260742,-0.1926795393228531,1.2161314487457275
1772811371474021000,5.356021240234375,1.7215989828109741,-0.2203763872385025,1.2273167371749878
1772811371483901400,5.3659013671875,1.7620790004730225,-0.23209428787231445,1.2257188558578491
1772811371493781800,5.37578173828125,1.7679380178451538,-0.2390184998512268,1.1756514310836792
1772811371503662300,5.385662353515625,1.7088158130645752,-0.27523747086524963,1.0494177341461182
1772811371513543000,5.39554296875,1.5969631671905518,-0.36471959948539734,0.835832417011261
1772811371523423700,5.405423828125,1.4701968431472778,-0.5207806825637817,0.5588638782501221
1772811371533304600,5.4153046875,1.3503546714782715,-0.6933534145355225,0.27337324619293213
1772811371543185200,5.42518505859375,1.2475566864013672,-0.8217176795005798,0.040080539882183075
1772811371553066000,5.43506591796875,1.1602051258087158,-0.9202545285224915,-0.11331740766763687
1772811371562946800,5.44494677734375,1.0813755989074707,-1.0214545726776123,-0.20546270906925201
1772811371572827400,5.454827392578125,0.999350368976593,-1.1167956590652466,-0.2629869282245636
1772811371582708200,5.464708251953125,0.8874976634979248,-1.2089409828186035,-0.3008037805557251
1772811371592589000,5.474589111328125,0.7255775928497314,-1.2941620349884033,-0.32637012004852295
1772811371602469600,5.4844697265625,0.49867647886276245,-1.362338900566101,-0.35087117552757263
1772811371612350500,5.4943505859375,0.22011007368564606,-1.4028189182281494,-0.36844801902770996
1772811371622231300,5.504231201171875,-0.0786963403224945,-1.421993613243103,-0.37430697679519653
1772811371632111900,5.51411181640625,-0.36471959948539734,-1.4230588674545288,-0.3609911799430847
1772811371641992700,5.52399267578125,-0.6107954978942871,-1.412406325340271,-0.3332943320274353
1772811371651873500,5.53387353515625,-0.8036081790924072,-1.3942967653274536,-0.3050648272037506
1772811371661754000,5.543754150390625,-0.947418749332428,-1.3761873245239258,-0.28429219126701355
1772811371671635000,5.553635009765625,-1.0566082000732422,-1.374589443206787,-0.2613890469074249
1772811371681515800,5.563515869140625,-1.1381008625030518,-1.3884378671646118,-0.23369218409061432
1772811371691396400,5.573396240234375,-1.2084083557128906,-1.4033515453338623,-0.20812585949897766
1772811371701277200,5.583277099609375,-1.2696609497070312,-1.4337115287780762,-0.17403742671012878
1772811371711158000,5.593157958984375,-1.3149346113204956,-1.5152041912078857,-0.1303616166114807
1772811371721038600,5.60303857421875,-1.3474252223968506,-1.647829532623291,-0.06538055092096329
1772811371730919400,5.61291943359375,-1.3729915618896484,-1.7959011793136597,0.005459475331008434
1772811371740800300,5.62280029296875,-1.3884378671646118,-1.9391790628433228,0.06511422991752625
1772811371750680800,5.632680908203125,-1.396959900856018,-2.074467658996582,0.10399635136127472
1772811371760561700,5.642561767578125,-1.4054820537567139,-2.1905813217163086,0.11944267153739929
1772811371770442500,5.6524423828125,-1.4076125621795654,-2.264084577560425,0.1237037256360054
1772811371780323000,5.662322998046875,-1.4038841724395752,-2.286454916000366,0.11518161743879318
1772811371790204000,5.672203857421875,-1.4060146808624268,-2.2704761028289795,0.10133319348096848
1772811371800084700,5.682084716796875,-1.4246567487716675,-2.2166802883148193,0.08215844631195068
1772811371809965300,5.69196533203125,-1.464604139328003,-2.133589744567871,0.06351634114980698
1772811371819846100,5.70184619140625,-1.51413893699646,-2.010551691055298,0.05073317512869835
1772811371829727000,5.71172705078125,-1.581250548362732,-1.848631739616394,0.05712475627660751
1772811371839607600,5.721607666015625,-1.6664716005325317,-1.6499600410461426,0.08908266574144363
1772811371849488400,5.73148828125,-1.7644758224487305,-1.4038841724395752,0.13116057217121124
1772811371859369200,5.741369140625,-1.8560885190963745,-1.1402314901351929,0.15885742008686066
1772811371869249800,5.751249755859375,-1.9226675033569336,-0.8696545362472534,0.14820478856563568
1772811371879130600,5.761130615234375,-1.9690064191818237,-0.6044039130210876,0.07097318023443222
1772811371889011500,5.771011474609375,-2.0121495723724365,-0.3487406373023987,-0.06271739304065704
1772811371898892000,5.78089208984375,-2.060086488723755,-0.1122521460056305,-0.23102903366088867
1772811371908772900,5.79077294921875,-2.098968505859375,0.09653950482606888,-0.40679749846458435
1772811371918653400,5.8006533203125,-2.1202738285064697,0.2898848354816437,-0.5601954460144043
1772811371928534300,5.8105341796875,-2.122936964035034,0.47524067759513855,-0.674711287021637
1772811371938415000,5.8204150390625,-2.114414930343628,0.6339649558067322,-0.7498123645782471
1772811371948295700,5.830295654296875,-2.10376238822937,0.7570028901100159,-0.7881618738174438
1772811371958176500,5.840176513671875,-2.088315963745117,0.8480829000473022,-0.7934881448745728
1772811371968057300,5.850057373046875,-2.064880132675171,0.8970850706100464,-0.7705850005149841
1772811371977938000,5.85993798828125,-2.0286612510681152,0.8970850706100464,-0.7258439064025879
1772811371987818800,5.86981884765625,-1.992974877357483,0.8555397391319275,-0.6757765412330627
1772811371997699600,5.879699462890625,-1.9588865041732788,0.7815039753913879,-0.6241112947463989
1772811372007581000,5.889580810546875,-1.920536994934082,0.6701838970184326,-0.5751091241836548
1772811372017462000,5.8994619140625,-1.8773938417434692,0.5322322845458984,-0.5351617336273193
1772811372027343400,5.90934326171875,-1.828391671180725,0.3910848796367645,-0.49681228399276733
1772811372037224400,5.919224365234375,-1.7628779411315918,0.24461114406585693,-0.45366910099983215
1772811372047105800,5.929105712890625,-1.6611453294754028,0.10719214379787445,-0.40200382471084595
1772811372056987100,5.938987060546875,-1.531183123588562,0.005992107093334198,-0.34501221776008606
1772811372066868200,5.9488681640625,-1.3831114768981934,-0.06165212765336037,-0.29867327213287354
1772811372076749600,5.95874951171875,-1.2446272373199463,-0.08615318685770035,-0.2683132588863373
1772811372086630700,5.968630615234375,-1.1157304048538208,-0.07337002456188202,-0.24274691939353943
1772811372096512000,5.978511962890625,-1.0044103860855103,-0.03289001062512398,-0.21238692104816437
1772811372106393300,5.988393310546875,-0.9181240200996399,0.02197105996310711,-0.17243953049182892
1772811372116274400,5.9982744140625,-0.8659260869026184,0.08855003118515015,-0.1639174222946167
1772811372126155800,6.00815576171875,-0.8270439505577087,0.17749953269958496,-0.22889849543571472
1772811372136036900,6.018036865234375,-0.7535408139228821,0.3079943060874939,-0.36418697237968445
1772811372145918200,6.027918212890625,-0.6294375658035278,0.462457537651062,-0.5346291065216064
1772811372155799600,6.037799560546875,-0.46378910541534424,0.6328997015953064,-0.6693849563598633
1772811372165680600,6.0476806640625,-0.27949851751327515,0.8246471285820007,-0.7114628553390503
1772811372175562000,6.05756201171875,-0.07550055533647537,1.007872462272644,-0.6384923458099365
1772811372185443000,6.067443115234375,0.1567268967628479,1.1383671760559082,-0.4659196436405182
1772811372195324400,6.077324462890625,0.42197751998901367,1.2076094150543213,-0.19800585508346558
1772811372205205800,6.087205810546875,0.7021418213844299,1.2283819913864136,0.15353110432624817
1772811372215086800,6.0970869140625,0.9663271903991699,1.188967227935791,0.5540701746940613
1772811372224968200,6.10696826171875,1.2054787874221802,1.0941587686538696,0.9673924446105957
1772811372234849300,6.116849365234375,1.4137378931045532,0.941293478012085,1.3743231296539307
1772811372244730600,6.126730712890625,1.5927021503448486,0.7559376358985901,1.7503610849380493
1772811372254612000,6.136612060546875,1.741839051246643,0.5615270137786865,2.086451768875122
1772811372264493000,6.1464931640625,1.873931646347046,0.3506048619747162,2.3778014183044434
1772811372274374400,6.15637451171875,1.9879149198532104,0.14554162323474884,2.6286709308624268
1772811372284255500,6.16625537109375,2.0555591583251953,0.035819485783576965,2.7975151538848877
1772811372294136800,6.17613671875,2.071537971496582,-0.016911057755351067,2.859300374984741
1772811372304018000,6.186017822265625,2.037982225418091,-0.03608580306172371,2.821483612060547
1772811372313899300,6.195899169921875,1.9687401056289673,-0.03981422260403633,2.68672776222229
1772811372323780600,6.205780517578125,1.9149442911148071,-0.01584579423069954,2.45876145362854
1772811372333661700,6.21566162109375,1.927727460861206,0.07470160722732544,2.1327908039093018
1772811372343543000,6.22554296875,2.007089614868164,0.18761953711509705,1.6896411180496216
1772811372353424100,6.235424072265625,2.060885429382324,0.3601922392845154,1.1277146339416504
1772811372363305500,6.245305419921875,2.011350631713867,0.5519396662712097,0.4587291181087494
1772811372373186800,6.255186767578125,1.8382453918457031,0.7122617959976196,-0.2629869282245636
1772811372383068000,6.26506787109375,1.5271884202957153,0.8651271462440491,-0.9484840035438538
1772811372392949200,6.27494921875,1.1112029552459717,0.9961545467376709,-1.5024210214614868
1772811372402830300,6.284830322265625,0.6584660410881042,1.0856367349624634,-1.8811222314834595
1772811372412711700,6.294711669921875,0.23449113965034485,1.146889328956604,-2.098435878753662
1772811372422592800,6.3045927734375,-0.13355740904808044,1.1974893808364868,-2.184722423553467
1772811372432474000,6.31447412109375,-0.41531962156295776,1.2448935508728027,-2.187918186187744
1772811372442355500,6.32435546875,-0.5772396922111511,1.2773841619491577,-2.1559603214263916
1772811372452236500,6.334236572265625,-0.6097301840782166,1.2965588569641113,-2.118675947189331
1772811372462118000,6.344117919921875,-0.5143890976905823,1.3024178743362427,-2.0659453868865967
1772811372471999000,6.3539990234375,-0.3370227515697479,1.3008198738098145,-2.0020296573638916
1772811372481880300,6.36388037109375,-0.12929636240005493,1.2704598903656006,-1.9061559438705444
1772811372491761700,6.37376171875,0.060853179544210434,1.2411651611328125,-1.7959011793136597
1772811372501642200,6.383642333984375,0.20785954594612122,1.183640956878662,-1.690440058708191
1772811372511522800,6.393522705078125,0.31385326385498047,1.0696576833724976,-1.592968463897705
1772811372521403400,6.4034033203125,0.4017375111579895,0.9135966300964355,-1.4832463264465332
1772811372531283700,6.41328369140625,0.48855647444725037,0.7447523474693298,-1.3522188663482666
1772811372541164300,6.423164306640625,0.5892238616943359,0.5780386328697205,-1.1977556943893433
1772811372551044900,6.433044921875,0.7277081608772278,0.4262385666370392,-1.0502166748046875
1772811372560925400,6.442925537109375,0.9141292572021484,0.30533117055892944,-0.913862943649292
1772811372570806000,6.452805908203125,1.1261167526245117,0.19667427241802216,-0.8057386875152588
1772811372580686300,6.462686279296875,1.310407280921936,0.08748476952314377,-0.7157239317893982
1772811372590567000,6.47256689453125,1.439304232597351,-0.004660528153181076,-0.6187849640846252
1772811372600447500,6.482447509765625,1.5351779460906982,-0.07763107866048813,-0.498410165309906
1772811372610328000,6.492328125,1.6113442182540894,-0.1356879472732544,-0.3514038026332855
1772811372620208600,6.502208740234375,1.6731295585632324,-0.21824586391448975,-0.1777658462524414
1772811372630089000,6.5120888671875,1.741839051246643,-0.32583749294281006,0.024101587012410164
1772811372639969500,6.521969482421875,1.8409085273742676,-0.4233090877532959,0.2419479787349701
1772811372649850000,6.53185009765625,1.9703381061553955,-0.48669227957725525,0.4725775420665741
1772811372659730700,6.541730712890625,2.1290624141693115,-0.5591301918029785,0.7053375840187073
1772811372669611000,6.551611083984375,2.2915151119232178,-0.6816354990005493,0.9263797998428345
1772811372679491600,6.56149169921875,2.443315029144287,-0.8291745185852051,1.121855616569519
1772811372689372200,6.5713720703125,2.569016218185425,-0.9713871479034424,1.2965588569641113
1772811372699252700,6.581252685546875,2.64784574508667,-1.0986862182617188,1.4584789276123047
1772811372709133300,6.59113330078125,2.6441171169281006,-1.2494210004806519,1.5921695232391357
1772811372719013600,6.601013671875,2.53279709815979,-1.4028189182281494,1.655019998550415
1772811372728894200,6.610894287109375,2.3618223667144775,-1.5796526670455933,1.6358453035354614
1772811372738774800,6.62077490234375,2.2238707542419434,-1.7772589921951294,1.5548852682113647
1772811372748655400,6.6306552734375,2.1493022441864014,-1.9642127752304077,1.486175775527954
1772811372758535700,6.64053564453125,2.1194748878479004,-2.079261302947998,1.4712620973587036
1772811372768416300,6.650416259765625,2.0837886333465576,-2.147970676422119,1.5000241994857788
1772811372778296800,6.660296875,2.0086874961853027,-2.2161476612091064,1.5303841829299927
1772811372788177400,6.670177490234375,1.8973674774169922,-2.3146843910217285,1.5500916242599487
1772811372798058000,6.68005810546875,1.7386432886123657,-2.353034019470215,1.5474283695220947
1772811372807938300,6.689938232421875,1.523460030555725,-2.337054967880249,1.5138726234436035
1772811372817819000,6.69981884765625,1.2305124998092651,-2.31681489944458,1.4701968431472778
1772811372827699500,6.709699462890625,0.8805734515190125,-2.2907159328460693,1.4281189441680908
1772811372837580000,6.719580078125,0.4917522668838501,-2.253964424133301,1.390302062034607
1772811372847460600,6.729460693359375,0.0864195004105568,-2.2049622535705566,1.3338431119918823
1772811372857341000,6.7393408203125,-0.30666273832321167,-2.179395914077759,1.2598072290420532
1772811372867221500,6.749221435546875,-0.6459491848945618,-2.1804611682891846,1.1697925329208374
1772811372877102000,6.75910205078125,-0.9058734774589539,-2.1873855590820312,1.0851041078567505
1772811372886982400,6.768982421875,-1.0864356756210327,-2.1959075927734375,1.0062745809555054
1772811372896863000,6.778863037109375,-1.2121367454528809,-2.22786545753479,0.9295755624771118
1772811372906743600,6.78874365234375,-1.3234567642211914,-2.288052797317505,0.8496808409690857
1772811372916624100,6.7986240234375,-1.4358420372009277,-2.365817070007324,0.7554050087928772
1772811372926504700,6.808504638671875,-1.5679347515106201,-2.4579625129699707,0.6478133797645569
1772811372936385000,6.818385009765625,-1.7261264324188232,-2.5527708530426025,0.5263733267784119
1772811372946265600,6.828265625,-1.8981664180755615,-2.619882583618164,0.3916175067424774
1772811372956146200,6.838146240234375,-2.0813918113708496,-2.635328769683838,0.2467416673898697
1772811372966026800,6.84802685546875,-2.2566275596618652,-2.6076319217681885,0.0906805545091629
1772811372975907300,6.8579072265625,-2.4142866134643555,-2.535193920135498,-0.06538055092096329
1772811372985787600,6.86778759765625,-2.5490424633026123,-2.4185476303100586,-0.22410480678081512
1772811372995668200,6.877668212890625,-2.6608951091766357,-2.2662150859832764,-0.3865574896335602
1772811373005548800,6.887548828125,-2.729072093963623,-2.1074907779693604,-0.5399554371833801
1772811373015429000,6.89742919921875,-2.7722151279449463,-1.9274611473083496,-0.665656566619873
1772811373025309400,6.907309326171875,-2.807368755340576,-1.7106800079345703,-0.7828355431556702
1772811373035189800,6.917189697265625,-2.832402467727661,-1.4773873090744019,-0.8755134344100952
1772811373045070300,6.9270703125,-2.85264253616333,-1.2440946102142334,-0.943690299987793
1772811373054950700,6.93695068359375,-2.8664910793304443,-1.0001492500305176,-0.9964208602905273
1772811373064831200,6.946831298828125,-2.8707520961761475,-0.7615302801132202,-1.0443577766418457
1772811373074711600,6.956711669921875,-2.8611645698547363,-0.5223786234855652,-1.0986862182617188
1772811373084591900,6.966591796875,-2.844120502471924,-0.3093259036540985,-1.1631345748901367
1772811373094472200,6.97647216796875,-2.8270761966705322,-0.13462267816066742,-1.2424967288970947
1772811373104352800,6.986352783203125,-2.804172992706299,0.003328948514536023,-1.3309136629104614
1772811373114233000,6.996233154296875,-2.7748782634735107,0.11837740987539291,-1.42518949508667
1772811373124113700,7.00611376953125,-2.7269413471221924,0.20572902262210846,-1.518399953842163
1772811373133994000,7.015993896484375,-2.6529057025909424,0.2611227333545685,-1.5966968536376953
1772811373143874300,7.025874267578125,-2.5527708530426025,0.28562378883361816,-1.6494274139404297
1772811373153755000,7.0357548828125,-2.4345266819000244,0.2877542972564697,-1.6749937534332275
1772811373163635200,7.04563525390625,-2.3237392902374268,0.25792694091796875,-1.6787221431732178
1772811373173515500,7.055515625,-2.2363877296447754,0.20626164972782135,-1.6664716005325317
1772811373183396000,7.06539599609375,-2.1746022701263428,0.14128057658672333,-1.643568515777588
1772811373193276400,7.0752763671875,-2.128796100616455,0.06617949903011322,-1.61800217628479
1772811373203156700,7.08515673828125,-2.089913845062256,-0.00519315991550684,-1.5940337181091309
1772811373213037300,7.095037353515625,-2.0382485389709473,-0.062184758484363556,-1.5652716159820557
1772811373222917600,7.104917724609375,-1.967941164970398,-0.11438266932964325,-1.531715750694275
1772811373232798000,7.1147978515625,-1.8805896043777466,-0.150068998336792,-1.489637851715088
1772811373242678500,7.124678466796875,-1.7767263650894165,-0.17030900716781616,-1.4315810203552246
1772811373252558800,7.134558837890625,-1.6446337699890137,-0.1681784838438034,-1.3564798831939697
1772811373262439200,7.144439208984375,-1.4875073432922363,-0.14687320590019226,-1.265932559967041
1772811373272319700,7.15431982421875,-1.303216814994812,-0.10319740325212479,-1.1562104225158691
1772811373282200000,7.164199951171875,-1.1008167266845703,-0.016378426924347878,-1.0395640134811401
1772811373292080400,7.174080322265625,-0.9127976894378662,0.0906805545091629,-0.9314398169517517
1772811373301961000,7.1839609375,-0.7364965677261353,0.1897500604391098,-0.8675239682197571
1772811373311841300,7.19384130859375,-0.5399554371833801,0.28668904304504395,-0.8659260869026184
1772811373321721600,7.2037216796875,-0.28908589482307434,0.4118575155735016,-0.9000145196914673
1772811373331602200,7.213602294921875,0.012916320003569126,0.5711144208908081,-0.9335703253746033
1772811373341482500,7.223482421875,0.33728906512260437,0.7356976270675659,-0.9378314018249512
1772811373351362800,7.23336279296875,0.6574007272720337,0.8491482138633728,-0.9048082232475281
1772811373361243400,7.243243408203125,0.9604682326316833,0.8912261128425598,-0.800944983959198
1772811373371123700,7.253123779296875,1.234241008758545,0.8874976634979248,-0.6060017943382263
1772811373381004000,7.263004150390625,1.4760557413101196,0.835832417011261,-0.31198906898498535
1772811373390884600,7.272884521484375,1.6853801012039185,0.7042723298072815,0.05925528332591057
1772811373400765000,7.282764892578125,1.8430390357971191,0.5018723011016846,0.48855647444725037
1772811373410645500,7.2926455078125,1.9437065124511719,0.2792322039604187,0.9476850628852844
1772811373420525800,7.30252587890625,1.9815232753753662,0.048602648079395294,1.4094767570495605
1772811373430406100,7.31240625,1.960218071937561,-0.1964079588651657,1.8371801376342773
1772811373440286500,7.322286376953125,1.873399019241333,-0.4691154360771179,2.2025654315948486
1772811373450167000,7.3321669921875,1.7077505588531494,-0.6880270838737488,2.474207639694214
1772811373460047400,7.34204736328125,1.4893715381622314,-0.8403597474098206,2.6462478637695312
1772811373469928000,7.351927978515625,1.2651336193084717,-0.9735177159309387,2.7490456104278564
1772811373479808300,7.361808349609375,1.0792450904846191,-1.065130352973938,2.7692856788635254
1772811373489688600,7.3716884765625,0.9327713847160339,-1.085370421409607,2.6893908977508545
1772811373499569400,7.3815693359375,0.8161250352859497,-0.9857682585716248,2.47900128364563
1772811373509450800,7.39145068359375,0.7218492031097412,-0.7817702889442444,2.125866413116455
1772811373519331800,7.401331787109375,0.6462154984474182,-0.5138564705848694,1.6662052869796753
1772811373529213200,7.411213134765625,0.5908218026161194,-0.21291954815387726,1.1266493797302246
1772811373539094500,7.421094482421875,0.5551354289054871,0.11092056334018707,0.5524722933769226
1772811373548975900,7.430975830078125,0.5370259881019592,0.4629901647567749,0.0011984214652329683
1772811373558857200,7.440857177734375,0.5476785898208618,0.840626060962677,-0.45313647389411926
1772811373568738300,7.45073828125,0.6046702265739441,1.196956753730774,-0.7775092124938965
1772811373578619600,7.46061962890625,0.7117291688919067,1.5010894536972046,-0.9916271567344666
1772811373588501000,7.4705009765625,0.8400934338569641,1.7365126609802246,-1.1231871843338013
1772811373598382300,7.48038232421875,0.9743166565895081,1.893639087677002,-1.2062777280807495
1772811373608263700,7.490263671875,1.0984199047088623,1.9804580211639404,-1.2611387968063354
1772811373618144800,7.500144775390625,1.220925211906433,1.9943064451217651,-1.288303017616272
1772811373628026000,7.510026123046875,1.3391693830490112,1.9378474950790405,-1.287770390510559
1772811373637907500,7.519907470703125,1.4536852836608887,1.821733832359314,-1.253682017326355
1772811373647788800,7.529788818359375,1.5735273361206055,1.650758981704712,-1.1902987957000732
1772811373657670100,7.539670166015625,1.6960326433181763,1.4169336557388306,-1.0875009298324585
1772811373667551200,7.54955126953125,1.8227990865707397,1.1458240747451782,-0.9383640289306641
1772811373677432600,7.5594326171875,1.9516959190368652,0.8432892560958862,-0.7343660593032837
1772811373687314000,7.56931396484375,2.0843212604522705,0.5279712080955505,-0.48669227957725525
1772811373697195300,7.5791953125,2.2196097373962402,0.21212059259414673,-0.2113216519355774
1772811373707076600,7.58907666015625,2.3469088077545166,-0.08775108307600021,0.07416897267103195
1772811373716957700,7.598957763671875,2.448108673095703,-0.3657848536968231,0.3500722348690033
1772811373726839000,7.608839111328125,2.523209810256958,-0.6209154725074768,0.605202853679657
1772811373736720400,7.618720458984375,2.573809862136841,-0.8403597474098206,0.8326365947723389
1772811373746601700,7.628601806640625,2.6009740829467773,-1.0209219455718994,1.0233187675476074
1772811373756483000,7.638483154296875,2.593517303466797,-1.1551451683044434,1.16659677028656
1772811373766364400,7.648364501953125,2.562624454498291,-1.2265177965164185,1.264068365097046
1772811373776245500,7.65824560546875,2.5413193702697754,-1.2265177965164185,1.3290493488311768
1772811373786126800,7.668126953125,2.5455803871154785,-1.1551451683044434,1.3748557567596436
1772811373796008200,7.67800830078125,2.573277235031128,-1.0113345384597778,1.415335774421692
1772811373805889500,7.6878896484375,2.5903213024139404,-0.8126628994941711,1.4563484191894531
1772811373815771000,7.69777099609375,2.567950963973999,-0.5942838788032532,1.4872410297393799
1772811373825652000,7.70765185546875,2.489121437072754,-0.39294907450675964,1.4909694194793701
1772811373835533300,7.717533203125,2.3229403495788574,-0.2203763872385025,1.4409021139144897
1772811373845414700,7.72741455078125,2.0757992267608643,-0.10639319568872452,1.3146682977676392
1772811373855296000,7.7372958984375,1.8153421878814697,-0.08881634473800659,1.134106159210205
1772811373865177000,7.747177001953125,1.6118768453598022,-0.14687320590019226,0.9578050374984741
1772811373875058400,7.757058349609375,1.4659358263015747,-0.21291954815387726,0.8502134680747986
1772811373884939800,7.766939697265625,1.3546156883239746,-0.2779006361961365,0.832103967666626
1772811373894821000,7.776821044921875,1.238502025604248,-0.36525222659111023,0.8550071120262146
1772811373904702500,7.786702392578125,1.0819082260131836,-0.4749743640422821,0.8534092307090759
1772811373914583600,7.79658349609375,0.869388222694397,-0.5868270397186279,0.8150597810745239
1772811373924465000,7.80646484375,0.6073333621025085,-0.6789723634719849,0.7681881785392761
1772811373934346200,7.81634619140625,0.31065747141838074,-0.7396923303604126,0.7319691777229309
1772811373944227600,7.8262275390625,-0.0025300008710473776,-0.7897597551345825,0.701609194278717
1772811373954109000,7.83610888671875,-0.31625011563301086,-0.8478165864944458,0.6547375917434692
1772811373963990300,7.845990234375,-0.6150565147399902,-0.9042755961418152,0.5700491666793823
1772811373973871400,7.855871337890625,-0.8882966041564941,-0.9468861222267151,0.44754382967948914
1772811373983752700,7.865752685546875,-1.1104040145874023,-1.0017471313476562,0.3165164291858673
1772811373993634000,7.875634033203125,-1.2701935768127441,-1.0795114040374756,0.2089248150587082
1772811374003515100,7.88551513671875,-1.3783178329467773,-1.1780482530593872,0.14021530747413635
1772811374013396200,7.895396240234375,-1.4496904611587524,-1.2962925434112549,0.10133319348096848
1772811374023277000,7.905277099609375,-1.50668203830719,-1.455016851425171,0.08056055754423141
1772811374033158100,7.915158203125,-1.5647389888763428,-1.6563515663146973,0.06404896825551987
1772811374043039200,7.925039306640625,-1.635578989982605,-1.8859158754348755,0.03741738200187683
1772811374052920000,7.934920166015625,-1.7266590595245361,-2.1154801845550537,-0.0003994738217443228
1772811374062801200,7.94480126953125,-1.8310548067092896,-2.3295981884002686,-0.04354264587163925
1772811374072682200,7.95468212890625,-1.9263958930969238,-2.5043013095855713,-0.08082687109708786
1772811374082563300,7.964563232421875,-2.019606590270996,-2.6236109733581543,-0.10053424537181854
1772811374092444200,7.974444091796875,-2.119741201400757,-2.6763415336608887,-0.11385004222393036
1772811374102325200,7.9843251953125,-2.2150824069976807,-2.6465141773223877,-0.12503530085086823
1772811374112206300,7.994206298828125,-2.2955098152160645,-2.545314073562622,-0.14154689013957977
1772811374122087200,8.004087158203125,-2.362621307373047,-2.381263494491577,-0.15699321031570435
1772811374131968300,8.01396826171875,-2.42067813873291,-2.1772654056549072,-0.1729721575975418
1772811374141849300,8.023849365234375,-2.456364631652832,-1.9492990970611572,-0.20066902041435242
1772811374151730200,8.033730224609375,-2.4776697158813477,-1.6915053129196167,-0.23582270741462708
1772811374161611300,8.043611328125,-2.4792675971984863,-1.4187978506088257,-0.2768353521823883
1772811374171492400,8.053492431640626,-2.4499728679656982,-1.1540799140930176,-0.32690274715423584
1772811374181373200,8.063373291015624,-2.3881876468658447,-0.9149281978607178,-0.3849596083164215
1772811374191254300,8.073254150390625,-2.2960424423217773,-0.7034733891487122,-0.44834280014038086
1772811374201135400,8.08313525390625,-2.17779803276062,-0.5261070132255554,-0.5122585892677307
1772811374211016400,8.093016357421876,-2.03505277633667,-0.3961448669433594,-0.5751091241836548
1772811374220897300,8.102897216796874,-1.883785367012024,-0.30719536542892456,-0.644883930683136
1772811374230778400,8.1127783203125,-1.7415727376937866,-0.2576606273651123,-0.7157239317893982
1772811374240659500,8.122659423828125,-1.6164042949676514,-0.2342248111963272,-0.7908250093460083
1772811374250540300,8.132540283203125,-1.50668203830719,-0.23688797652721405,-0.8637955784797668
1772811374260421400,8.14242138671875,-1.3980252742767334,-0.27417218685150146,-0.9378314018249512
1772811374270302500,8.152302490234375,-1.3064125776290894,-0.3087932765483856,-1.0363682508468628
1772811374280183300,8.162183349609375,-1.2627367973327637,-0.30826061964035034,-1.1668630838394165
1772811374290064400,8.172064453125,-1.2558125257492065,-0.2858901023864746,-1.3325115442276
1772811374299945500,8.181945556640626,-1.2606061697006226,-0.2304963916540146,-1.5354442596435547
1772811374309826600,8.19182666015625,-1.2638020515441895,-0.13675320148468018,-1.7463663816452026
1772811374319707400,8.201707275390625,-1.2547472715377808,0.004394211806356907,-1.955157995223999
1772811374329588500,8.21158837890625,-1.2350399494171143,0.1609879434108734,-2.159688711166382
1772811374339469600,8.221469482421876,-1.2089409828186035,0.3277016878128052,-2.367414951324463
1772811374349350400,8.231350341796874,-1.1753851175308228,0.4901543855667114,-2.57088041305542
1772811374359231500,8.2412314453125,-1.1434272527694702,0.6291712522506714,-2.7525076866149902
1772811374369112600,8.251112548828125,-1.1279809474945068,0.7399587035179138,-2.888328790664673
1772811374378993400,8.260993408203126,-1.1263830661773682,0.807070255279541,-3.0033774375915527
1772811374388874500,8.27087451171875,-1.1050777435302734,0.8688555359840393,-3.1274805068969727
1772811374398755600,8.280755615234375,-1.0587388277053833,0.9615334868431091,-3.2318763732910156
1772811374408636700,8.29063671875,-0.9889640212059021,1.0978872776031494,-3.270225763320923
1772811374418517500,8.300517578125,-0.8952208161354065,1.2646009922027588,-3.229745864868164
1772811374428398600,8.310398681640624,-0.7828355431556702,1.4451631307601929,-3.0875332355499268
1772811374438279700,8.32027978515625,-0.6470144391059875,1.650226354598999,-2.822815179824829
1772811374448160500,8.330160400390625,-0.4749743640422821,1.821733832359314,-2.427602529525757
1772811374458041600,8.34004150390625,-0.24754060804843903,1.9245316982269287,-1.9168086051940918
1772811374467922700,8.349922607421876,0.007590002380311489,1.9421085119247437,-1.3170652389526367
1772811374477803800,8.3598037109375,0.23502376675605774,1.8947043418884277,-0.6555365324020386
1772811374487684600,8.3696845703125,0.3926827609539032,1.7919063568115234,0.031558431684970856
1772811374497565400,8.3795654296875,0.4869585931301117,1.6092137098312378,0.7095986604690552
1772811374507446300,8.3894462890625,0.5167859792709351,1.3466262817382812,1.3540830612182617
1772811374517326800,8.399326904296874,0.508263885974884,1.0366345643997192,1.960218071937561
1772811374527207400,8.40920751953125,0.4539354145526886,0.7032070755958557,2.5216119289398193
1772811374537088000,8.419087890625,0.37191012501716614,0.37244275212287903,3.038797378540039
1772811374546968600,8.428968505859375,0.2930806279182434,0.04913527891039848,3.484610080718994
1772811374556849400,8.438849365234375,0.2366216629743576,-0.290683776140213,3.8249619007110596
1772811374566730000,8.44872998046875,0.20146796107292175,-0.6363617777824402,4.0140461921691895
1772811374576610600,8.458610595703124,0.1854890137910843,-0.9399619102478027,4.02895975112915
1772811374586491100,8.4684912109375,0.1849563866853714,-1.1700588464736938,3.876627206802368
1772811374596372000,8.4783720703125,0.19347849488258362,-1.301086187362671,3.575157642364502
1772811374606252500,8.48825244140625,0.19134795665740967,-1.3442294597625732,3.182607889175415
1772811374616133000,8.498133056640626,0.18761953711509705,-1.3122714757919312,2.776742458343506
1772811374626013700,8.508013671875,0.2174469232559204,-1.1828420162200928,2.4113571643829346
1772811374635894500,8.51789453125,0.2984069585800171,-0.9804419279098511,2.101365566253662
1772811374645775000,8.527775146484375,0.42836910486221313,-0.7210502624511719,1.8270601034164429
1772811374655655700,8.53765576171875,0.583897590637207,-0.42650488018989563,1.5378410816192627
1772811374665536300,8.547536376953126,0.7367628812789917,-0.1308942586183548,1.2102725505828857
1772811374675416800,8.557416748046874,0.8592681884765625,0.13701951503753662,0.8368976712226868
1772811374685297400,8.56729736328125,0.9471524357795715,0.3687143325805664,0.4438154101371765
1772811374695178200,8.57717822265625,1.003078818321228,0.5609943866729736,0.09600687772035599
1772811374705058800,8.587058837890625,1.0536787509918213,0.7250449657440186,-0.14900372922420502
1772811374714939400,8.596939453125,1.1319756507873535,0.8427566289901733,-0.2874879837036133
1772811374724820000,8.606820068359376,1.2331756353378296,0.8912261128425598,-0.34554484486579895
1772811374734700800,8.61670068359375,1.3338431119918823,0.8853671550750732,-0.34021854400634766
1772811374744581400,8.626581298828125,1.4297168254852295,0.8352997899055481,-0.28961852192878723
1772811374754462000,8.6364619140625,1.5373084545135498,0.7282407879829407,-0.20013637840747833
1772811374764342500,8.646342529296875,1.6768579483032227,0.5748428106307983,-0.06910897046327591
1772811374774223400,8.656223388671876,1.8457021713256836,0.4033353924751282,0.09494160860776901
1772811374784104000,8.66610400390625,2.0305254459381104,0.22969745099544525,0.2893522083759308
1772811374793984500,8.675984619140625,2.2084243297576904,0.05073317512869835,0.4901543855667114
1772811374803865000,8.685864990234375,2.3527677059173584,-0.13728584349155426,0.677108108997345
1772811374813745700,8.69574560546875,2.439054012298584,-0.3380880057811737,0.8512787222862244
1772811374823626500,8.70562646484375,2.4571635723114014,-0.528237521648407,1.0068072080612183
1772811374833507000,8.715507080078124,2.4369235038757324,-0.7008102536201477,1.1399651765823364
1772811374843387600,8.7253876953125,2.4060308933258057,-0.8691218495368958,1.2539483308792114
1772811374853268200,8.735268310546875,2.39005184173584,-1.015595555305481,1.3588768243789673
1772811374863149000,8.745149169921875,2.4076287746429443,-1.1098713874816895,1.4723273515701294
1772811374873029600,8.755029541015626,2.444380283355713,-1.131709337234497,1.58364737033844
1772811374882910200,8.76491015625,2.4965782165527344,-1.0800440311431885,1.6699336767196655
1772811374892790800,8.774790771484374,2.5413193702697754,-0.9617998003959656,1.692304253578186
1772811374902671400,8.78467138671875,2.538123607635498,-0.7977492213249207,1.6267905235290527
1772811374912552000,8.794552001953125,2.437988758087158,-0.6475470662117004,1.448891520500183
1772811374922432800,8.804432861328126,2.166346549987793,-0.6038712859153748,1.1479545831680298
1772811374932313300,8.814313232421876,1.7658075094223022,-0.6235786080360413,0.7484807968139648
1772811374942194000,8.82419384765625,1.3833777904510498,-0.6203828454017639,0.2850911617279053
1772811374952074500,8.834074462890625,1.20175039768219,-0.44887542724609375,-0.13622057437896729
1772811374961955300,8.843955322265625,1.2960262298583984,-0.1548626869916916,-0.42011329531669617
1772811374971836000,8.8538359375,1.4036178588867188,0.07896266132593155,-0.6571344137191772
1772811374981716500,8.863716552734376,1.44463050365448,0.2701774537563324,-0.7913576364517212
1772811374991597000,8.87359716796875,1.2709925174713135,0.3932153880596161,-0.8339681625366211
1772811375001477600,8.8834775390625,0.7969502806663513,0.4171838164329529,-0.8408923745155334
1772811375011358200,8.893358154296875,0.13062794506549835,0.33728906512260437,-0.8856334686279297
1772811375021238500,8.903238525390625,-0.577772319316864,0.23875218629837036,-0.9570060968399048
1772811375031119000,8.913119140625,-1.2142672538757324,0.21478375792503357,-1.010801911354065
1772811375040999400,8.92299951171875,-1.7165390253067017,0.2041311264038086,-0.9591366648674011
1772811375050879700,8.932879638671874,-2.050499200820923,0.10239845514297485,-0.695483922958374
1772811375060760300,8.94276025390625,-2.104295015335083,-0.049934227019548416,-0.35406696796417236
1772811375070641000,8.952640869140625,-2.050499200820923,-0.17137427628040314,-0.03235737979412079
1772811375080521200,8.962521240234375,-1.9919096231460571,-0.38229644298553467,0.19614164531230927
1772811375090401800,8.97240185546875,-1.955690622329712,-0.6390249729156494,0.3394196033477783
1772811375100282000,8.9822822265625,-1.9242653846740723,-0.9069387316703796,0.4358259439468384
1772811375110162700,8.99216259765625,-1.8731327056884766,-1.1652650833129883,0.504535436630249
1772811375120043000,9.00204296875,-1.8150758743286133,-1.3884378671646118,0.5737775564193726
1772811375129923600,9.011923583984375,-1.7415727376937866,-1.61800217628479,0.6515418291091919
1772811375139804000,9.021803955078125,-1.6558189392089844,-1.846501111984253,0.7458176016807556
1772811375149684500,9.0316845703125,-1.5796526670455933,-2.0425095558166504,0.8534092307090759
1772811375159564800,9.041564697265626,-1.5120084285736084,-2.178863286972046,0.962066113948822
1772811375169445400,9.0514453125,-1.4385051727294922,-2.273139238357544,1.0584725141525269
1772811375179325700,9.06132568359375,-1.3820462226867676,-2.316282272338867,1.1484872102737427
1772811375189206300,9.071206298828125,-1.345827341079712,-2.3237392902374268,1.2283819913864136
1772811375199086600,9.081086669921875,-1.3325115442276,-2.2853896617889404,1.3018851280212402
1772811375208967200,9.09096728515625,-1.337837815284729,-2.2065601348876953,1.3679314851760864
1772811375218847500,9.100847412109376,-1.350088357925415,-2.094174861907959,1.4089441299438477
1772811375228728000,9.11072802734375,-1.3740568161010742,-1.9865833520889282,1.4179989099502563
1772811375238608400,9.1206083984375,-1.4273200035095215,-1.8763285875320435,1.3748557567596436
1772811375248489000,9.130489013671875,-1.4725936651229858,-1.7484968900680542,1.2880367040634155
1772811375258369300,9.140369384765625,-1.5024210214614868,-1.5972294807434082,1.159672498703003
1772811375268249900,9.150249755859376,-1.5146715641021729,-1.4491578340530396,0.9966871738433838
1772811375278130200,9.160130126953124,-1.51413893699646,-1.3042820692062378,0.7889608144760132
1772811375288010800,9.1700107421875,-1.4986926317214966,-1.1418293714523315,0.5807017683982849
1772811375297891000,9.17989111328125,-1.4832463264465332,-0.9985513687133789,0.374573290348053
1772811375307771600,9.189771728515625,-1.4693979024887085,-0.8723176717758179,0.16951005160808563
1772811375317652000,9.19965185546875,-1.47152841091156,-0.7668565511703491,-0.02330263890326023
1772811375327532500,9.209532470703126,-1.4880399703979492,-0.6858965754508972,-0.19427743554115295
1772811375337412900,9.219412841796874,-1.5279873609542847,-0.63263338804245,-0.33595749735832214
1772811375347293400,9.22929345703125,-1.5945663452148438,-0.6028059720993042,-0.4510059356689453
1772811375357173800,9.239173828125,-1.672330617904663,-0.5910881161689758,-0.5436838865280151
1772811375367054300,9.249054443359375,-1.720267415046692,-0.5697828531265259,-0.6209154725074768
1772811375376934700,9.2589345703125,-1.7266590595245361,-0.5346291065216064,-0.670982837677002
1772811375386815200,9.268815185546876,-1.6936358213424683,-0.4882901608943939,-0.6837660074234009
1772811375396695600,9.278695556640624,-1.623328447341919,-0.4243743419647217,-0.6624607443809509
1772811375406576000,9.288576171875,-1.4986926317214966,-0.3386206328868866,-0.6203828454017639
1772811375416456400,9.29845654296875,-1.3362399339675903,-0.24594271183013916,-0.5793702006340027
1772811375426337000,9.3083369140625,-1.1460903882980347,-0.13675320148468018,-0.5490102171897888
1772811375436217300,9.31821728515625,-0.96446293592453,-0.028628956526517868,-0.5266396403312683
1772811375446098000,9.328097900390626,-0.8004123568534851,0.08269108086824417,-0.4930838644504547
1772811375455978200,9.337978271484374,-0.665656566619873,0.18602164089679718,-0.4371575117111206
1772811375465858800,9.34785888671875,-0.599077582359314,0.26218798756599426,-0.3865574896335602
1772811375475739100,9.3577392578125,-0.586294412612915,0.3351585268974304,-0.39294907450675964
1772811375485619700,9.36761962890625,-0.5511407256126404,0.4619249105453491,-0.45793014764785767
1772811375495500000,9.3775,-0.4238417148590088,0.668053388595581,-0.5426186323165894
1772811375505381000,9.387381103515626,-0.31784799695014954,0.7623292207717896,-0.7178544402122498
1772811375515262200,9.39726220703125,-0.2390184998512268,0.907737672328949,-0.9293092489242554
1772811375525143300,9.407143310546875,-0.15699321031570435,1.1793798208236694,-1.0763156414031982
1772811375535024400,9.4170244140625,-0.04514054208993912,1.5271884202957153,-1.0954903364181519
1772811375544905500,9.426905517578126,0.09281108528375626,1.8526264429092407,-0.9884313941001892
1772811375554786600,9.43678662109375,0.23076270520687103,2.0928432941436768,-0.7817702889442444
1772811375564667600,9.446667724609375,0.3553985357284546,2.256361246109009,-0.5186501741409302
1772811375574548500,9.456548583984375,0.4267711937427521,2.3415822982788086,-0.23262691497802734
1772811375584429600,9.4664296875,0.4251733124256134,2.3730077743530273,0.07789739221334457
1772811375594310700,9.476310546875,0.3538006544113159,2.3064286708831787,0.3884217143058777
1772811375604191700,9.486191650390625,0.23449113965034485,2.106159210205078,0.668053388595581
1772811375614072800,9.49607275390625,0.05712475627660751,1.7753947973251343,0.8800408244132996
1772811375623954000,9.505953857421876,-0.1442100554704666,1.4062809944152832,1.007872462272644
1772811375633834800,9.515834716796874,-0.29867327213287354,1.0760493278503418,1.067527174949646
1772811375643715800,9.5257158203125,-0.3705785572528839,0.8699208498001099,1.0361019372940063
1772811375653597000,9.535596923828125,-0.3860248625278473,0.8182555437088013,0.8576703071594238
1772811375663478000,9.54547802734375,-0.40306907892227173,0.8853671550750732,0.5455480813980103
1772811375673359000,9.555359130859374,-0.4845617413520813,1.0946913957595825,0.17377111315727234
1772811375683240200,9.565240234375,-0.6640586256980896,1.4952305555343628,-0.20493006706237793
1772811375693121300,9.575121337890625,-0.9202545285224915,2.042243242263794,-0.58256596326828
1772811375703002400,9.58500244140625,-1.216397762298584,2.7501108646392822,-0.9372987151145935
1772811375712883200,9.59488330078125,-1.5269221067428589,3.6012566089630127,-1.2494210004806519
1772811375722764300,9.604764404296875,-1.8305221796035767,4.402867317199707,-1.5157368183135986
1772811375732645400,9.614645263671875,-2.10003399848938,4.990360260009766,-1.737311601638794
1772811375742526500,9.6245263671875,-2.2912487983703613,5.275850772857666,-1.9397116899490356
1772811375752407600,9.634407470703126,-2.396709680557251,5.4372382164001465,-2.0632822513580322
1772811375762288600,9.64428857421875,-2.462223529815674,5.586907863616943,-2.029193878173828
1772811375772169700,9.654169677734375,-2.4973771572113037,5.712608814239502,-1.8406422138214111
1772811375782057700,9.6640576171875,-2.5021708011627197,5.738707542419434,-1.5503579378128052
1772811375791938600,9.6739384765625,-2.46701717376709,5.647627830505371,-1.194027304649353
1772811375801819600,9.683819580078126,-2.4339940547943115,5.455347537994385,-0.7668565511703491
1772811375811700700,9.69370068359375,-2.426004409790039,5.293427467346191,-0.26618272066116333
1772811375821581800,9.703581787109375,-2.402036190032959,5.1837053298950195,0.2462090253829956
1772811375831463000,9.713462890625,-2.3109560012817383,5.078776836395264,0.7175881266593933
1772811375841344000,9.723343994140626,-2.1564929485321045,5.011665344238281,1.0739188194274902
1772811375851224800,9.733224853515624,-1.9700716733932495,4.865191459655762,1.2773841619491577
1772811375861106000,9.74310595703125,-1.762345314025879,4.581831455230713,1.3455610275268555
1772811375870987000,9.752987060546875,-1.5290526151657104,4.2468061447143555,1.3082767724990845
1772811375880868000,9.7628681640625,-1.2936294078826904,4.040677547454834,1.2193272113800049
1772811375890749200,9.772749267578124,-1.0667282342910767,3.985816717147827,1.0824408531188965
1772811375900630300,9.78263037109375,-0.850479781627655,4.04547119140625,0.9215860962867737
1772811375910511400,9.792511474609375,-0.6422207355499268,4.147736549377441,0.8044071197509766
1772811375920392400,9.802392333984375,-0.4185154139995575,4.19567346572876,0.7340997457504272
1772811375930273300,9.812273193359376,-0.1878858506679535,4.121105194091797,0.6499438881874084
1772811375940154400,9.822154296875,-0.029694220051169395,3.9746313095092773,0.4784364700317383
1772811375950035500,9.832035400390625,0.018775269389152527,3.134138345718384,0.2850911617279053
1772811375959916500,9.84191650390625,0.051798440515995026,2.0060243606567383,0.30107009410858154
1772811375969797600,9.851797607421876,0.10133319348096848,1.7908411026000977,0.5327649116516113
1772811375979678700,9.8616787109375,0.18282584846019745,1.7759274244308472,0.7910913228988647
1772811375989559800,9.871559814453125,0.2520679831504822,1.6166706085205078,1.038232445716858
1772811375999440600,9.881440673828125,0.2563290297985077,1.3615399599075317,1.273123025894165
1772811376009321700,9.89132177734375,0.21638165414333344,1.2241209745407104,1.4728599786758423
1772811376019202800,9.901202880859374,0.20466375350952148,1.0297104120254517,1.6108115911483765
1772811376029084000,9.911083984375,0.18655426800251007,0.8219839930534363,1.679521083831787
1772811376038965000,9.920965087890625,0.2089248150587082,0.7133271098136902,1.6949673891067505
1772811376048846000,9.93084619140625,0.33249539136886597,0.643552303314209,1.637975811958313
1772811376058727200,9.94072705078125,0.5087965130805969,0.5572659969329834,1.4536852836608887
1772811376068608300,9.950608154296875,0.664324939250946,0.41931435465812683,1.1484872102737427
1772811376078489300,9.9604892578125,0.7612639665603638,0.3585943281650543,0.8076028823852539
1772811376088370400,9.970370361328126,0.8251797556877136,0.48376280069351196,0.48482805490493774
1772811376098251500,9.98025146484375,0.8582029342651367,0.6968154907226562,0.15086795389652252
1772811376108132600,9.990132568359375,0.807070255279541,0.8592681884765625,-0.2107890248298645
1772811376118013700,10.000013671875,0.7218492031097412,0.9295755624771118,-0.5506080985069275
1772811376127894800,10.009894775390626,0.655802845954895,0.9508808255195618,-0.783900797367096
1772811376137775900,10.01977587890625,0.6163880825042725,0.9775124192237854,-0.9309071898460388
1772811376147657000,10.029656982421875,0.6153228282928467,0.8997482061386108,-0.9836376905441284
1772811376157537800,10.039537841796875,0.6424870491027832,0.7788407802581787,-0.913862943649292
1772811376167419100,10.049419189453126,0.6845649480819702,0.7607313394546509,-0.725311279296875
1772811376177300000,10.059300048828124,0.7591333985328674,0.8209186792373657,-0.44035330414772034
1772811376187181000,10.06918115234375,0.9002808332443237,0.8747144937515259,-0.09893634915351868
1772811376197062100,10.079062255859375,1.1112029552459717,1.0147966146469116,0.2552637755870819
1772811376206943200,10.088943115234375,1.2832430601119995,1.112268328666687,0.5780386328697205
1772811376216824300,10.09882421875,1.3444957733154297,1.0904303789138794,0.8337018489837646
1772811376226705400,10.108705322265624,1.30561363697052,0.9434239864349365,1.0259819030761719
1772811376236586500,10.11858642578125,1.2145335674285889,0.7596660256385803,1.1729882955551147
1772811376246467600,10.128467529296875,1.0989525318145752,0.6036049723625183,1.2901673316955566
1772811376256348700,10.1383486328125,0.9663271903991699,0.4528701603412628,1.3844431638717651
1772811376266229800,10.148229736328124,0.8060050010681152,0.3037332594394684,1.462207317352295
1772811376276110800,10.15811083984375,0.6004091501235962,0.1711079478263855,1.5122747421264648
1772811376285992000,10.167991943359375,0.3543332815170288,0.12476898729801178,1.5373084545135498
1772811376295873000,10.177873046875,0.2376869171857834,0.2786995768547058,1.5703315734863281
1772811376305754000,10.187754150390624,0.29148274660110474,0.45606595277786255,1.6022895574569702
1772811376315635200,10.19763525390625,0.3964111804962158,0.592952311038971,1.5916368961334229
1772811376325516300,10.207516357421875,0.4826975464820862,0.7101312875747681,1.5341126918792725
1772811376335397000,10.217397216796876,0.5647228360176086,0.7990807890892029,1.4648704528808594
1772811376345278200,10.2272783203125,0.6605965495109558,0.8448871374130249,1.4004220962524414
1772811376355159600,10.23715966796875,0.7474155426025391,0.8539418578147888,1.3423651456832886
1772811376365040400,10.247040283203125,0.7926892042160034,0.8379629254341125,1.2997546195983887
1772811376374921500,10.25692138671875,0.7905586957931519,0.7889608144760132,1.2624704837799072
1772811376384802600,10.266802490234374,0.7468829154968262,0.7665902376174927,1.20920729637146
1772811376394683600,10.27668359375,0.6984133720397949,0.714392364025116,1.1261167526245117
1772811376404564700,10.286564697265625,0.6898912787437439,0.5993438959121704,0.9982850551605225
1772811376414445800,10.29644580078125,0.6765754818916321,0.3793669641017914,0.8134618401527405
1772811376424327000,10.306326904296874,0.6403565406799316,0.1524658352136612,0.6233122944831848
1772811376434208000,10.3162080078125,0.6105291843414307,0.028895273804664612,0.4587291181087494
1772811376444089000,10.326089111328125,0.605202853679657,-0.08881634473800659,0.34314802289009094
1772811376453970200,10.33597021484375,0.6089312434196472,-0.14101426303386688,0.28615641593933105
1772811376463851300,10.345851318359376,0.5993438959121704,-0.1495363712310791,0.2792322039604187
1772811376473732400,10.355732421875,0.571647047996521,-0.1074584573507309,0.31012484431266785
1772811376483613400,10.365613525390625,0.5253080725669861,-0.03928159177303314,0.3788343369960785
1772811376493494500,10.37549462890625,0.4715122580528259,0.023036323487758636,0.4683164656162262
1772811376503375400,10.385375244140626,0.4203796088695526,0.1045289859175682,0.5785712599754333
1772811376513256200,10.395256103515624,0.3692469596862793,0.19241322576999664,0.6984133720397949
1772811376523137000,10.405136962890625,0.30160272121429443,0.21584902703762054,0.8017439842224121
1772811376533017900,10.415017822265625,0.20466375350952148,0.18229322135448456,0.8576703071594238
1772811376542899000,10.42489892578125,0.06191844120621681,0.11198582500219345,0.8448871374130249
1772811376552779800,10.43477978515625,-0.0366184338927269,-0.10319740325212479,0.7719165682792664
1772811376562660600,10.44466064453125,-0.1026647686958313,-0.5383575558662415,0.6323670744895935
1772811376572541400,10.45454150390625,-0.1820269078016281,-0.8424903154373169,0.42783647775650024
1772811376582422300,10.46442236328125,-0.23582270741462708,-0.9490166306495667,0.20040270686149597
1772811376592303000,10.47430322265625,-0.2502037584781647,-0.9234502911567688,-0.024900535121560097
1772811376602184200,10.48418408203125,-0.21505007147789001,-0.7652586698532104,-0.23688797652721405
1772811376612065000,10.49406494140625,-0.13249215483665466,-0.5053343772888184,-0.39294907450675964
1772811376621945900,10.50394580078125,0.017710005864501,-0.26991114020347595,-0.4339617192745209
1772811376631826700,10.51382666015625,0.199337437748909,-0.21718059480190277,-0.3748396039009094
1772811376641707800,10.523707763671876,0.30586379766464233,-0.3295659124851227,-0.2725743055343628
1772811376651588600,10.533588623046874,0.25260061025619507,-0.5985449552536011,-0.26884588599205017
1772811376661469400,10.543469482421875,0.11198582500219345,-0.9191892743110657,-0.4312985837459564
1772811376671350300,10.553350341796875,-0.009986845776438713,-1.2089409828186035,-0.6187849640846252
1772811376681231000,10.563231201171876,-0.0552605465054512,-1.409743070602417,-0.8765787482261658
1772811376691112200,10.5731123046875,0.031558431684970856,-1.4166673421859741,-1.2073431015014648
1772811376700993000,10.582992919921875,0.24088270962238312,-1.2446272373199463,-1.5705978870391846
1772811376710873900,10.592873779296875,0.4826975464820862,-0.9804419279098511,-1.9434401988983154
1772811376720754700,10.602754638671875,0.6957502365112305,-0.6736460328102112,-2.264084577560425
1772811376730635500,10.612635498046876,0.9295755624771118,-0.3615238070487976,-2.475539207458496
1772811376740516400,10.622516357421874,1.280579924583435,-0.2155826985836029,-2.52081298828125
1772811376750397400,10.6323974609375,1.6715316772460938,-0.628372311592102,-2.4100255966186523
1772811376760278300,10.6422783203125,1.9138790369033813,-1.4475599527359009,-2.18898344039917
1772811376770159000,10.6521591796875,1.998034954071045,-1.9743328094482422,-1.878991723060608
1772811376780040000,10.6620400390625,1.905889630317688,-2.04996657371521,-1.7255938053131104
1772811376789920800,10.671920654296875,1.6438348293304443,-2.114414930343628,-1.9317222833633423
1772811376799801900,10.6818017578125,1.3913673162460327,-2.0963053703308105,-2.3945791721343994
1772811376809682700,10.6916826171875,1.2177293300628662,-1.878459095954895,-2.9991161823272705
1772811376819563500,10.7015634765625,1.057939887046814,-1.5652716159820557,-3.6089797019958496
1772811376829444400,10.7114443359375,0.9018787145614624,-1.5301178693771362,-4.143742084503174
1772811376839325400,10.721325439453125,0.7037397027015686,-2.020671844482422,-4.692885398864746
1772811376849206300,10.731206298828125,0.5359607338905334,-2.8105647563934326,-5.159470558166504
1772811376859087000,10.741087158203126,0.35646381974220276,-3.5557165145874023,-5.386372089385986
1772811376868968000,10.750968017578124,0.10665950924158096,-3.969571352005005,-5.441233158111572
1772811376878848800,10.760848876953125,-0.10426266491413116,-3.785813331604004,-5.489169597625732
1772811376888729900,10.770729736328125,-0.23369218409061432,-2.789259433746338,-5.617001533508301
1772811376898610700,10.780610595703125,-0.36312171816825867,-1.0837724208831787,-5.956820487976074
1772811376908491500,10.790491455078126,-0.4510059356689453,0.5950828194618225,-6.5901198387146
1772811376918372400,10.800372314453124,-0.39294907450675964,1.6981632709503174,-7.138197898864746
1772811376928253200,10.810253173828125,-0.17723321914672852,1.6816515922546387,-7.12754487991333
1772811376938134000,10.820134033203125,0.10665950924158096,0.919988214969635,-6.3919806480407715
1772811376948015000,10.83001513671875,0.353268027305603,0.38629117608070374,-4.990626335144043
1772811376957896000,10.83989599609375,0.5103943943977356,0.8038744926452637,-3.1242847442626953
1772811376967776800,10.84977685546875,0.4906870126724243,1.9628812074661255,-1.2851072549819946
1772811376977657600,10.85965771484375,0.30905959010124207,3.0952563285827637,0.06138581037521362
1772811376987538400,10.869538330078125,-0.0057257916778326035,3.8707680702209473,0.9072050452232361
1772811376997419300,10.879419189453126,-0.4004059135913849,4.1919450759887695,1.3812472820281982
1772811377007299800,10.8892998046875,-0.7450186610221863,4.097136497497559,1.700293779373169
1772811377017180400,10.899180419921874,-0.9399619102478027,3.733881711959839,2.0140137672424316
1772811377027060700,10.909060791015625,-1.2073431015014648,3.282210111618042,2.3027002811431885
1772811377036941300,10.91894140625,-1.5716631412506104,3.0760815143585205,2.6750099658966064
1772811377046822000,10.92882177734375,-1.878991723060608,3.06489634513855,3.1644985675811768
1772811377056702500,10.938702392578126,-2.008953809738159,3.0164268016815186,3.644399642944336
1772811377066582800,10.948582763671874,-2.0062906742095947,2.855571985244751,3.9192376136779785
1772811377076463400,10.95846337890625,-1.8683390617370605,2.6260077953338623,3.902193546295166
1772811377086344000,10.968343994140625,-1.6291873455047607,2.533862352371216,3.6875429153442383
1772811377096224300,10.978224365234375,-1.4012210369110107,2.617485523223877,3.4084436893463135
1772811377106104800,10.988104736328125,-1.1381008625030518,2.815624713897705,3.1916627883911133
1772811377115985400,10.9979853515625,-0.7743134498596191,3.2859385013580322,3.0617005825042725
1772811377125866000,11.007865966796874,-0.5378249287605286,3.827625036239624,3.083005905151367
1772811377135746300,11.017746337890625,-0.5218459963798523,3.92136812210083,3.2742207050323486
1772811377145627000,11.027626953125,-0.5926859974861145,3.7019238471984863,3.5575807094573975
1772811377155507500,11.037507568359375,-0.6091975569725037,3.3732900619506836,3.7594480514526367
1772811377165388000,11.047387939453126,-0.5324985980987549,2.9519784450531006,3.7706334590911865
1772811377175268400,11.057268310546876,-0.32690274715423584,2.5269381999969482,3.6364102363586426
1772811377185149000,11.06714892578125,0.008122634142637253,1.9937738180160522,3.4526522159576416
1772811377195029500,11.077029541015625,0.4070638120174408,1.469664216041565,3.3131027221679688
1772811377204909800,11.086909912109375,0.6866955161094666,1.0962892770767212,3.256643772125244
1772811377214790400,11.096790283203125,0.8475502729415894,0.9183903336524963,3.2262837886810303
1772811377224671000,11.1066708984375,0.9125313758850098,0.9205208420753479,3.1842057704925537
1772811377234551600,11.116551513671874,0.9311735033988953,1.0898977518081665,3.109104871749878
1772811377244432000,11.126431884765625,0.9631313681602478,1.3120051622390747,3.01482892036438
1772811377254312400,11.1363125,0.9823061227798462,1.5394389629364014,2.96476149559021
1772811377264193000,11.146193115234375,0.9402282238006592,1.6869779825210571,2.9535763263702393
1772811377274073600,11.156073486328125,0.8305060863494873,1.6464979648590088,2.9482500553131104
1772811377283954000,11.165953857421876,0.6957502365112305,1.4041504859924316,2.9375972747802734
1772811377293834500,11.17583447265625,0.538091242313385,1.0914956331253052,2.87954044342041
1772811377303715000,11.185715087890625,0.383095383644104,0.8278428912162781,2.77194881439209
1772811377313595600,11.195595703125,0.2563290297985077,0.6797713041305542,2.6137571334838867
1772811377323476000,11.20547607421875,0.165781632065773,0.6936197280883789,2.3783340454101562
1772811377333356500,11.2153564453125,0.21691428124904633,0.8582029342651367,2.1098875999450684
1772811377343237000,11.225237060546876,0.3452785313129425,1.109605073928833,1.8622138500213623
1772811377353117400,11.235117431640624,0.49867647886276245,1.2779167890548706,1.6464979648590088
1772811377362998000,11.244998046875,0.6483460068702698,1.3114725351333618,1.4595441818237305
1772811377372878600,11.254878662109375,0.7277081608772278,1.2097399234771729,1.2880367040634155
1772811377382759200,11.26475927734375,0.7181207537651062,0.9892303347587585,1.1303777694702148
1772811377392639500,11.274639404296876,0.6664555072784424,0.7154576182365417,1.0057419538497925
1772811377402520000,11.28452001953125,0.6233122944831848,0.48962175846099854,0.9167923927307129
1772811377412400600,11.294400634765625,0.5865607261657715,0.37244275212287903,0.823581874370575
1772811377422281200,11.30428125,0.5625923275947571,0.2925480008125305,0.6845649480819702
1772811377432161500,11.31416162109375,0.5641902089118958,0.2648511528968811,0.5359607338905334
1772811377442042000,11.3240419921875,0.5940175652503967,0.31864693760871887,0.4171838164329529
1772811377451922700,11.333922607421876,0.6430196762084961,0.36179012060165405,0.32397326827049255
1772811377461803000,11.343802978515624,0.6632596850395203,0.32450589537620544,0.24993745982646942
1772811377471683600,11.35368359375,0.6302365064620972,0.25845956802368164,0.17803215980529785
1772811377491444700,11.37344482421875,0.5530049204826355,0.13062794506549835,0.1759016364812851
1772811377501325000,11.383324951171875,0.45713120698928833,0.06138581037521362,0.29893958568573
1772811377511205600,11.39320556640625,0.2701774537563324,0.07470160722732544,0.43795645236968994
1772811377521086500,11.40308642578125,0.09653950482606888,0.09174582362174988,0.5769733786582947
1772811377530967000,11.412967041015625,-0.057923704385757446,0.02623211406171322,0.668053388595581
1772811377540847600,11.42284765625,-0.1782984882593155,0.031558431684970856,0.7255775928497314
1772811377550728200,11.432728271484375,-0.2736395597457886,0.06458160281181335,0.7431544661521912
1772811377560608800,11.44260888671875,-0.35406696796417236,0.12476898729801178,0.7101312875747681
1772811377570489300,11.4524892578125,-0.3727090656757355,0.3308974802494049,0.6898912787437439
1772811377580370000,11.462369873046875,-0.3199785351753235,0.5311670303344727,0.6504765152931213
1772811377590250500,11.47225048828125,-0.22676797211170197,0.5657880902290344,0.567918598651886
1772811377600131000,11.482131103515625,-0.1452753096818924,0.5913544297218323,0.45713120698928833
1772811377610011600,11.49201171875,-0.041944749653339386,0.6792386770248413,0.38522592186927795
1772811377619892200,11.501892333984374,0.08269108086824417,0.7703186869621277,0.32823431491851807
1772811377629772800,11.511772705078124,0.18335849046707153,0.8209186792373657,0.2749711573123932
1772811377639653400,11.5216533203125,0.24887219071388245,0.8379629254341125,0.23023007810115814
1772811377649534000,11.531533935546875,0.3655185401439667,0.7202513217926025,0.22490376234054565
1772811377659414500,11.54141455078125,0.4107922613620758,0.6323670744895935,0.18389111757278442
1772811377669295000,11.551295166015626,0.30479851365089417,0.6691186428070068,0.06511422991752625
1772811377679176000,11.561176025390624,0.2467416673898697,0.5908218026161194,-0.0073236869648098946
1772811377689056500,11.571056396484375,0.22170796990394592,0.3687143325805664,-0.04780369997024536
1772811377698937000,11.58093701171875,0.25419852137565613,0.15939006209373474,-0.021172111853957176
1772811377708817700,11.590817626953125,0.31917959451675415,-0.012650004588067532,0.06671212613582611
1772811377718698200,11.6006982421875,0.33462589979171753,-0.2304963916540146,0.17164058983325958
1772811377728578800,11.610578857421874,0.330364853143692,-0.33063116669654846,0.24780692160129547
1772811377738459400,11.62045947265625,0.33302801847457886,-0.2443448156118393,0.2829606235027313
1772811377748340000,11.630340087890625,0.341017484664917,-0.1314268857240677,0.27230799198150635
1772811377758220500,11.640220458984375,0.34740906953811646,-0.0366184338927269,0.2419479787349701
1772811377768101000,11.65010107421875,0.36285537481307983,-0.03235737979412079,0.16524900496006012
1772811377777981700,11.659981689453126,0.3772364556789398,-0.1308942586183548,0.07736476510763168
1772811377787862300,11.6698623046875,0.3735080361366272,-0.26937851309776306,-0.0009321055840700865
1772811377797742800,11.679742919921875,0.3538006544113159,-0.3482080101966858,-0.03928159177303314
1772811377807623400,11.68962353515625,0.2920153737068176,-0.39188382029533386,-0.07550055533647537
1772811377817504000,11.69950390625,0.23555639386177063,-0.4147869944572449,-0.12183951586484909
