time,seconds_elapsed,z,y,x
1772811297845186000,0.18218603515625,-1.3859078884124756,-5.522725582122803,-1.1619361639022827
1772811297855067000,0.19206689453125,-1.351286768913269,-5.88385009765625,-1.3041489124298096
1772811297864948000,0.201947998046875,-1.2223899364471436,-6.192243576049805,-1.5406373739242554
1772811297874828800,0.211828857421875,-1.0466214418411255,-6.134719371795654,-1.8074859380722046
1772811297884710000,0.2217099609375,-0.8330360651016235,-5.693167686462402,-2.0892481803894043
1772811297894590700,0.2315908203125,-0.5741770267486572,-4.834565162658691,-2.4056313037872314
1772811297904471600,0.241471435546875,-0.20506322383880615,-3.781552314758301,-2.6234776973724365
1772811297914352600,0.2513525390625,0.5826991200447083,-2.7306699752807617,-2.389119863510132
1772811297924233500,0.2612333984375,1.6133415699005127,-2.282193899154663,-1.949165940284729
1772811297934114300,0.2711142578125,2.4586281776428223,-2.9208195209503174,-1.6721974611282349
1772811297943995400,0.280995361328125,2.9044411182403564,-3.38474178314209,-1.277517318725586
1772811297953876200,0.290876220703125,2.9198873043060303,-3.632415533065796,-1.0303761959075928
1772811297963757000,0.300757080078125,2.652506113052368,-3.9418745040893555,-1.0793782472610474
1772811297973638100,0.31063818359375,2.265815496444702,-4.181025981903076,-1.2540814876556396
1772811297983519000,0.32051904296875,1.7720658779144287,-4.4276347160339355,-1.5369089841842651
1772811297993399800,0.33039990234375,1.2772510051727295,-4.497941970825195,-1.974865436553955
1772811298003280400,0.3402802734375,1.0391645431518555,-4.590087413787842,-2.516551971435547
1772811298013161000,0.350160888671875,1.0082719326019287,-4.9480156898498535,-2.782867908477783
1772811298023041300,0.360041259765625,1.111602544784546,-5.2654643058776855,-2.6768741607666016
1772811298032921900,0.369921875,1.384310007095337,-5.187700271606445,-2.461158275604248
1772811298042802200,0.37980224609375,1.7427711486816406,-4.632165431976318,-2.386057138442993
1772811298052682800,0.389682861328125,2.1411798000335693,-3.865175485610962,-2.4961788654327393
1772811298062563000,0.39956298828125,2.5230767726898193,-3.150383710861206,-2.71509051322937
1772811298072443600,0.409443603515625,2.8703525066375732,-2.6635582447052,-2.938795804977417
1772811298082324000,0.419323974609375,3.1856706142425537,-2.4537012577056885,-3.086334705352783
1772811298092204500,0.42920458984375,3.5286853313446045,-2.476604461669922,-3.116694688796997
1772811298102085000,0.439085205078125,3.9350833892822266,-2.619882583618164,-3.0352020263671875
1772811298111965400,0.44896533203125,4.414452075958252,-2.7525076866149902,-2.8620967864990234
1772811298121846000,0.458845947265625,4.959867000579834,-2.783933162689209,-2.666620969772339
1772811298131726300,0.468726318359375,5.488770484924316,-2.660362482070923,-2.4956462383270264
1772811298141607000,0.47860693359375,5.951627254486084,-2.4329288005828857,-2.363020896911621
1772811298151487200,0.4884873046875,6.3164801597595215,-2.197505474090576,-2.238917589187622
1772811298161367800,0.498367919921875,6.545511722564697,-2.008953809738159,-2.0892481803894043
1772811298171248400,0.508248291015625,6.59984016418457,-1.8923075199127197,-1.9150774478912354
1772811298181128700,0.518128662109375,6.477867603302002,-1.8001621961593628,-1.7275911569595337
1772811298191009000,0.528009033203125,6.177995681762695,-1.707484245300293,-1.5369089841842651
1772811298200889600,0.5378896484375,5.721530437469482,-1.6286547183990479,-1.336106777191162
1772811298210770200,0.547770263671875,5.16493034362793,-1.5168020725250244,-1.1278477907180786
1772811298220650500,0.557650390625,4.539087772369385,-1.2808462381362915,-0.9169255495071411
1772811298230531000,0.567531005859375,3.7960665225982666,-0.9287766218185425,-0.7310370802879333
1772811298240411400,0.577411376953125,2.936398983001709,-0.5154544115066528,-0.5595296621322632
1772811298250292000,0.5872919921875,2.0761985778808594,-0.025433165952563286,-0.3747064471244812
1772811298260172300,0.59717236328125,1.28470778465271,0.5098617672920227,-0.16325163841247559
1772811298270052900,0.607052978515625,0.6402233839035034,0.9695229530334473,0.0732368677854538
1772811298279933400,0.616933349609375,0.2071937620639801,1.3375715017318726,0.3081274628639221
1772811298289813800,0.626813720703125,-0.027164220809936523,1.6566178798675537,0.5163865089416504
1772811298299694300,0.6366943359375,-0.10279793292284012,1.863811731338501,0.6761760115623474
1772811298309574700,0.64657470703125,0.01438105758279562,1.7551548480987549,0.8279760479927063
1772811298319455200,0.656455322265625,0.21784639358520508,1.8531590700149536,0.8434224128723145
1772811298329335600,0.66633544921875,0.4676506817340851,1.948500156402588,0.7763108015060425
1772811298339216100,0.676216064453125,0.7233139276504517,1.918672800064087,0.7459507584571838
1772811298349096400,0.686096435546875,0.936366617679596,1.8068201541900635,0.7161234021186829
1772811298358977000,0.69597705078125,1.1238529682159424,1.6773905754089355,0.7097318172454834
1772811298368857600,0.705857666015625,1.212802529335022,1.5820494890213013,0.6841654777526855
1772811298378738000,0.715738037109375,1.2463582754135132,1.4036178588867188,0.6900244355201721
1772811298388618500,0.725618408203125,1.2207920551300049,1.5096116065979004,0.6154559850692749
1772811298398498800,0.735498779296875,1.1616698503494263,1.7200011014938354,0.44341593980789185
1772811298408379400,0.74537939453125,1.0380992889404297,1.8654096126556396,0.2767021954059601
1772811298418259700,0.755259765625,0.8697876930236816,1.9959043264389038,0.061518967151641846
1772811298428140300,0.765140380859375,0.7110633850097656,2.0789949893951416,-0.16484953463077545
1772811298438020600,0.7750205078125,0.587492823600769,2.1130833625793457,-0.35766223073005676
1772811298447901200,0.784901123046875,0.5320991277694702,2.1279971599578857,-0.4695149064064026
1772811298457781800,0.79478173828125,0.5411538481712341,2.07686448097229,-0.4881570041179657
1772811298467662000,0.804662109375,0.5555348992347717,1.9564895629882812,-0.4418180584907532
1772811298477542700,0.814542724609375,0.5422191619873047,1.7290558815002441,-0.34487906098365784
1772811298487423000,0.824423095703125,0.5134570002555847,1.6869779825210571,-0.2857569456100464
1772811298497303600,0.834303466796875,0.49641281366348267,1.6539547443389893,-0.23888534307479858
1772811298507184000,0.84418408203125,0.45007383823394775,1.5245252847671509,-0.14247900247573853
1772811298517064700,0.854064697265625,0.40213698148727417,1.389769434928894,-0.029028430581092834
1772811298526945300,0.8639453125,0.3685811758041382,1.218261957168579,0.09933582693338394
1772811298536825900,0.873825927734375,0.32756853103637695,0.9221187233924866,0.25912535190582275
1772811298546706400,0.88370654296875,0.26418536901474,0.6531397104263306,0.3763043284416199
1772811298556587300,0.893587158203125,0.25246745347976685,0.5487438440322876,0.3896201252937317
1772811298566467800,0.9034677734375,0.25300008058547974,0.3873564600944519,0.3981422483921051
1772811298576348400,0.913348388671875,0.22477060556411743,0.18655426800251007,0.38642433285713196
1772811298586229000,0.92322900390625,0.22849902510643005,0.04913527891039848,0.37204328179359436
1772811298596109600,0.933109619140625,0.24447797238826752,-0.09467529505491257,0.3416832685470581
1772811298605990100,0.942990234375,0.2450106143951416,-0.282161682844162,0.323041170835495
1772811298615870700,0.95287060546875,0.19228006899356842,-0.45473435521125793,0.29640957713127136
1772811298625751600,0.96275146484375,0.14913690090179443,-0.5580649375915527,0.2756369411945343
1772811298635632000,0.972632080078125,0.10599371790885925,-0.6683197021484375,0.2671148180961609
1772811298645512700,0.9825126953125,0.055926334112882614,-0.7567365765571594,0.27350640296936035
1772811298655393300,0.992393310546875,0.014913689345121384,-0.8419576287269592,0.30599695444107056
1772811298665273900,1.00227392578125,-0.014913689345121384,-0.9500818848609924,0.35872748494148254
1772811298675154400,1.012154541015625,-0.066046342253685,-1.119458794593811,0.43862226605415344
1772811298685035000,1.022034912109375,-0.1555284708738327,-1.3229241371154785,0.5355612635612488
1772811298694915800,1.031915771484375,-0.2822948396205902,-1.5327810049057007,0.6207823157310486
1772811298704796400,1.04179638671875,-0.4287685751914978,-1.7229305505752563,0.682034969329834
1772811298714677000,1.051677001953125,-0.5699160099029541,-1.9066885709762573,0.7368960380554199
1772811298724557600,1.0615576171875,-0.7360970973968506,-2.033987522125244,0.7603318691253662
1772811298734438100,1.071438232421875,-0.9017455577850342,-2.1224043369293213,0.7656581401824951
1772811298744318700,1.081318603515625,-1.065796136856079,-2.1815264225006104,0.7725823521614075
1772811298754199300,1.09119921875,-1.2389014959335327,-2.232126474380493,0.7736476063728333
1772811298764080000,1.101080078125,-1.3981584310531616,-2.237985610961914,0.8077360391616821
1772811298773960700,1.110960693359375,-1.5409036874771118,-2.208158016204834,0.8833698034286499
1772811298783841300,1.12084130859375,-1.6692678928375244,-2.1655476093292236,0.9755150675773621
1772811298793721900,1.130721923828125,-1.7944364547729492,-2.084054946899414,1.0777803659439087
1772811298803602400,1.1406025390625,-1.9281269311904907,-1.967941164970398,1.1667299270629883
1772811298813483000,1.15048291015625,-2.062882900238037,-1.816673755645752,1.2253193855285645
1772811298823363600,1.160363525390625,-2.1843228340148926,-1.6329158544540405,1.2540814876556396
1772811298833244400,1.170244384765625,-2.277533531188965,-1.441701054573059,1.2785825729370117
1772811298843125000,1.180125,-2.351569175720215,-1.258475661277771,1.3174647092819214
1772811298853005600,1.190005615234375,-2.3925819396972656,-1.094957709312439,1.3776520490646362
1772811298862886100,1.19988623046875,-2.405364990234375,-0.9495492577552795,1.470862627029419
1772811298872766700,1.2097666015625,-2.3979082107543945,-0.8233155608177185,1.5811173915863037
1772811298882647300,1.219647216796875,-2.3686134815216064,-0.7162565588951111,1.6945679187774658
1772811298892528000,1.229528076171875,-2.33026385307312,-0.6880270838737488,1.7563532590866089
1772811298902408400,1.239408447265625,-2.2535650730133057,-0.7077344655990601,1.8096164464950562
1772811298912289300,1.249289306640625,-2.232792377471924,-0.6267744302749634,1.8373132944107056
1772811298922169900,1.259169921875,-2.1800618171691895,-0.599077582359314,1.7542227506637573
1772811298932050400,1.269050537109375,-2.1193418502807617,-0.565521776676178,1.59709632396698
1772811298941931000,1.278930908203125,-2.0149459838867188,-0.49627965688705444,1.403218388557434
1772811298951811600,1.2888115234375,-1.8871142864227295,-0.43023329973220825,1.1571425199508667
1772811298961692200,1.298692138671875,-1.741173267364502,-0.399873286485672,0.8977508544921875
1772811298971573000,1.308572998046875,-1.6037542819976807,-0.4243743419647217,0.6585991978645325
1772811298981453600,1.31845361328125,-1.468465805053711,-0.46325647830963135,0.4727106988430023
1772811298991334100,1.328334228515625,-1.3454278707504272,-0.5165196657180786,0.3464769721031189
1772811299001215000,1.338215087890625,-1.2442277669906616,-0.577772319316864,0.2612558901309967
1772811299011095800,1.348095703125,-1.1595393419265747,-0.6315681338310242,0.1904158592224121
1772811299020976600,1.3579765625,-1.0929603576660156,-0.6555365324020386,0.14301162958145142
1772811299030857500,1.367857421875,-1.0407624244689941,-0.6651239395141602,0.11957582831382751
1772811299040738300,1.37773828125,-0.9986845254898071,-0.670982837677002,0.11318425089120865
1772811299050619100,1.387619140625,-0.9640634655952454,-0.6720481514930725,0.1254347860813141
1772811299060500200,1.397500244140625,-0.9177245497703552,-0.6608628630638123,0.14993584156036377
1772811299070381000,1.407381103515625,-0.8543413281440735,-0.6379597187042236,0.17550216615200043
1772811299080262000,1.417261962890625,-0.7717834115028381,-0.6054691672325134,0.19947059452533722
1772811299090142700,1.427142822265625,-0.658332884311676,-0.5601954460144043,0.22024323046207428
1772811299100023600,1.4370234375,-0.5203812122344971,-0.5074648857116699,0.23888534307479858
1772811299109904400,1.446904296875,-0.3621895909309387,-0.4382227957248688,0.2516685128211975
1772811299119785500,1.456785400390625,-0.19121479988098145,-0.3476753830909729,0.26338639855384827
1772811299129666300,1.466666259765625,-0.0010652635246515274,-0.3146522045135498,0.25433167815208435
1772811299139547100,1.476547119140625,0.19068217277526855,-0.2533995509147644,0.258060097694397
1772811299149428000,1.486427978515625,0.38402751088142395,-0.25180166959762573,0.24208113551139832
1772811299159308800,1.496308837890625,0.554469645023346,-0.20279954373836517,0.22610218822956085
1772811299169190000,1.50618994140625,0.7142592072486877,-0.2203763872385025,0.17976321280002594
1772811299179070700,1.51607080078125,0.8255792260169983,-0.17936374247074127,0.09933582693338394
1772811299188951600,1.52595166015625,0.9379645586013794,-0.22889849543571472,-0.06791055202484131
1772811299198832400,1.535832275390625,1.0519477128982544,-0.14101426303386688,-0.2671148180961609
1772811299208713200,1.545713134765625,1.2010846138000488,-0.0366184338927269,-0.648479163646698
1772811299218594000,1.555593994140625,1.3544825315475464,0.015046847052872181,-1.0831066370010376
1772811299228475100,1.56547509765625,1.5164026021957397,0.05925528332591057,-1.4325131177902222
1772811299238356000,1.57535595703125,1.7321184873580933,0.1098553016781807,-1.69350266456604
1772811299248236800,1.58523681640625,1.9510301351547241,0.09653950482606888,-1.840509057044983
1772811299258117600,1.59511767578125,2.107623815536499,0.056592125445604324,-1.8287911415100098
1772811299267998500,1.60499853515625,2.226400852203369,-0.054195281118154526,-1.6492942571640015
1772811299277879300,1.61487939453125,2.296708106994629,-0.21451744437217712,-1.3355741500854492
1772811299287760100,1.624760009765625,2.302034378051758,-0.40573224425315857,-0.9217192530632019
1772811299297641200,1.63464111328125,2.2088239192962646,-0.5793702006340027,-0.4775043725967407
1772811299307522000,1.64452197265625,2.0666112899780273,-0.7087997198104858,-0.06578002125024796
1772811299317403000,1.65440283203125,1.914811134338379,-0.7769765853881836,0.2756369411945343
1772811299327283700,1.66428369140625,1.766206979751587,-0.7801723480224609,0.5323654413223267
1772811299337164500,1.67416455078125,1.62399423122406,-0.7338334321975708,0.7262434363365173
1772811299347045400,1.68404541015625,1.480716347694397,-0.6741786599159241,0.8881634473800659
1772811299356926500,1.693926513671875,1.326785683631897,-0.6203828454017639,1.0325067043304443
1772811299366807300,1.703807373046875,1.165930986404419,-0.5985449552536011,1.1699256896972656
1772811299376688000,1.713688232421875,0.9970866441726685,-0.611328125,1.3041489124298096
1772811299386569000,1.72356884765625,0.8335686922073364,-0.6502102017402649,1.4048162698745728
1772811299396449800,1.73344970703125,0.6817686557769775,-0.6922881603240967,1.440502643585205
1772811299406331000,1.743330810546875,0.5677854418754578,-0.7444860339164734,1.4021531343460083
1772811299416211700,1.753211669921875,0.46924859285354614,-0.7444860339164734,1.2727235555648804
1772811299426092500,1.763092529296875,0.3824295997619629,-0.6864292025566101,1.059138298034668
1772811299435973400,1.772973388671875,0.29933905601501465,-0.5809680819511414,0.794952929019928
1772811299445854200,1.782854248046875,0.20399796962738037,-0.4275701344013214,0.5078643560409546
1772811299455735000,1.792735107421875,0.09534108638763428,-0.23102903366088867,0.2143842875957489
1772811299465616100,1.8026162109375,-0.013848425820469856,-0.007856318727135658,-0.08388949930667877
1772811299475497000,1.8124970703125,-0.12410320341587067,0.23555639386177063,-0.36884748935699463
1772811299485377800,1.822377685546875,-0.2210421860218048,0.49281755089759827,-0.6458160281181335
1772811299495258600,1.832258544921875,-0.3249053657054901,0.7740471363067627,-0.8679234385490417
1772811299505140000,1.842139892578125,-0.4159854054450989,1.045156717300415,-1.038898229598999
1772811299515021000,1.85202099609375,-0.449008584022522,1.2901673316955566,-1.1523488759994507
1772811299524902400,1.86190234375,-0.5358275771141052,1.5431673526763916,-1.2072099447250366
1772811299534783700,1.87178369140625,-0.6269075870513916,1.7807211875915527,-1.227982521057129
1772811299544664800,1.881664794921875,-0.6652570962905884,1.965011715888977,-1.2072099447250366
1772811299554546200,1.891546142578125,-0.709465503692627,2.1178770065307617,-1.1422288417816162
1772811299564427500,1.901427490234375,-0.7531412839889526,2.249437093734741,-1.0724540948867798
1772811299574308600,1.91130859375,-0.7776423692703247,2.3623549938201904,-1.0122666358947754
1772811299584190000,1.92118994140625,-0.7819034457206726,2.449706554412842,-0.937698245048523
1772811299594071300,1.9310712890625,-0.7504781484603882,2.492849826812744,-0.8636624217033386
1772811299603952400,1.940952392578125,-0.7062697410583496,2.5445151329040527,-0.7800391912460327
1772811299613833700,1.950833740234375,-0.6242444515228271,2.558363437652588,-0.7033402323722839
1772811299623715000,1.960715087890625,-0.5028043985366821,2.532264471054077,-0.6458160281181335
1772811299633596200,1.97059619140625,-0.34194958209991455,2.4619572162628174,-0.6154559850692749
1772811299643477500,1.9804775390625,-0.1603221595287323,2.3564960956573486,-0.5834981203079224
1772811299653358800,1.99035888671875,0.04420843720436096,2.175401210784912,-0.5494096875190735
1772811299663240000,2.000239990234375,0.24607586860656738,1.9442391395568848,-0.4934833347797394
1772811299673121300,2.010121337890625,0.438355952501297,1.6475632190704346,-0.4029359221458435
1772811299683002600,2.020002685546875,0.6109286546707153,1.30561363697052,-0.2809632420539856
1772811299692883700,2.0298837890625,0.7611308097839355,0.9247819185256958,-0.1350221484899521
1772811299702765000,2.03976513671875,0.8926908373832703,0.5322322845458984,0.016777900978922844
1772811299712646400,2.049646484375,1.0167940855026245,0.16365110874176025,0.16325163841247559
1772811299722527500,2.059527587890625,1.1371687650680542,-0.15166689455509186,0.2852243185043335
1772811299732408800,2.069408935546875,1.2516846656799316,-0.4185154139995575,0.3699127733707428
1772811299742290200,2.079290283203125,1.368863582611084,-0.6219807267189026,0.4354264736175537
1772811299752171300,2.089171142578125,1.497760534286499,-0.7929555177688599,0.4748412072658539
1772811299762052600,2.099052490234375,1.6186679601669312,-0.9415597915649414,0.505733847618103
1772811299771934000,2.108933837890625,1.7267922163009644,-1.0661956071853638,0.5408875346183777
1772811299781815000,2.11881494140625,1.817872166633606,-1.1588735580444336,0.6058686375617981
1772811299791696400,2.1286962890625,1.9132132530212402,-1.2377030849456787,0.6804370880126953
1772811299801577700,2.13857763671875,2.0309247970581055,-1.308010458946228,0.7374286651611328
1772811299811458800,2.148458740234375,2.082057476043701,-1.3410335779190063,0.7779086828231812
1772811299821340200,2.158340087890625,2.042642831802368,-1.3271851539611816,0.7869634032249451
1772811299831221500,2.168221435546875,2.0218701362609863,-1.3138693571090698,0.7582013010978699
1772811299841102600,2.1781025390625,2.0000321865081787,-1.3314462900161743,0.7464833855628967
1772811299850984000,2.18798388671875,1.956356406211853,-1.3282504081726074,0.7592665553092957
1772811299860865300,2.197865234375,1.9078869819641113,-1.3117388486862183,0.7848328948020935
1772811299870746400,2.207746337890625,1.8556890487670898,-1.27871572971344,0.8040076494216919
1772811299880627700,2.217627685546875,1.7859143018722534,-1.2153325080871582,0.8002792000770569
1772811299890509000,2.227509033203125,1.6953668594360352,-1.1215893030166626,0.7592665553092957
1772811299900390100,2.23739013671875,1.574459433555603,-0.9767134785652161,0.685763418674469
1772811299910271500,2.247271484375,1.4322468042373657,-0.8435555696487427,0.5669865012168884
1772811299920152800,2.25715283203125,1.2735224962234497,-0.7609976530075073,0.3789674937725067
1772811299930034000,2.267033935546875,0.9603350758552551,-0.6725807785987854,0.1440768986940384
1772811299939915300,2.276915283203125,0.5949496626853943,-0.6044039130210876,-0.14088110625743866
1772811299949796600,2.286796630859375,0.30040431022644043,-0.5980123281478882,-0.4492748975753784
1772811299959677700,2.296677734375,0.10066740214824677,-0.5703154802322388,-0.7171886563301086
1772811299969559000,2.30655908203125,-0.047936856746673584,-0.49255120754241943,-0.9440897703170776
1772811299979440400,2.3164404296875,-0.20879164338111877,-0.3370227515697479,-1.1076077222824097
1772811299989321500,2.326321533203125,-0.3051980137825012,-0.1687111109495163,-1.1965572834014893
1772811299999203000,2.336203125,-0.2876211404800415,-0.08881634473800659,-1.235439419746399
1772811300009084700,2.346084716796875,-0.2961432635784149,-0.06857633590698242,-1.2002856731414795
1772811300018966300,2.35596630859375,-0.3579285442829132,-0.09893634915351868,-1.1379677057266235
1772811300028847900,2.365847900390625,-0.44528016448020935,-0.18841849267482758,-1.0532792806625366
1772811300038729500,2.3757294921875,-0.5869601964950562,-0.313586950302124,-0.9142624139785767
1772811300048611000,2.385611083984375,-0.7632613182067871,-0.4845617413520813,-0.7299718260765076
1772811300058492700,2.39549267578125,-0.9305076599121094,-0.6661891937255859,-0.5174517631530762
1772811300068374300,2.405374267578125,-1.0801771879196167,-0.8659260869026184,-0.3049316704273224
1772811300078255900,2.415255859375,-1.2090741395950317,-1.0635324716567993,-0.10839056223630905
1772811300088137500,2.425137451171875,-1.3118720054626465,-1.2590082883834839,0.06258422881364822
1772811300098019000,2.43501904296875,-1.3992236852645874,-1.4374399185180664,0.19734007120132446
1772811300107900700,2.444900634765625,-1.4849773645401,-1.6137410402297974,0.31558433175086975
1772811300117782300,2.4547822265625,-1.5707310438156128,-1.7932380437850952,0.43808963894844055
1772811300127663900,2.464663818359375,-1.6548868417739868,-1.9711370468139648,0.5739107131958008
1772811300137545500,2.47454541015625,-1.728390097618103,-2.1261327266693115,0.7166560292243958
1772811300147427000,2.484427001953125,-1.7912405729293823,-2.2598233222961426,0.8524771332740784
1772811300157308700,2.49430859375,-1.8279922008514404,-2.371143341064453,0.9685908555984497
1772811300167190300,2.504190185546875,-1.8359817266464233,-2.4345266819000244,1.0522140264511108
1772811300177071900,2.51407177734375,-1.8290574550628662,-2.48565936088562,1.1086729764938354
1772811300186953500,2.523953369140625,-1.8136111497879028,-2.516019344329834,1.156077265739441
1772811300196835000,2.5338349609375,-1.7907079458236694,-2.511758327484131,1.2130688428878784
1772811300206717000,2.543717041015625,-1.752891182899475,-2.4776697158813477,1.2657994031906128
1772811300216598500,2.5535986328125,-1.7145416736602783,-2.43186354637146,1.2982898950576782
1772811300226480000,2.563480224609375,-1.678322672843933,-2.397242307662964,1.289235234260559
1772811300236361700,2.57336181640625,-1.641038417816162,-2.3887202739715576,1.2290477752685547
1772811300246243300,2.583243408203125,-1.607482671737671,-2.391916036605835,1.1299782991409302
1772811300256125000,2.593125,-1.5856447219848633,-2.3855245113372803,1.0373003482818604
1772811300266006500,2.603006591796875,-1.574459433555603,-2.396709680557251,0.97977614402771
1772811300275888000,2.61288818359375,-1.5835142135620117,-2.4148192405700684,0.9574055671691895
1772811300285769700,2.622769775390625,-1.6165374517440796,-2.4425160884857178,0.9648624658584595
1772811300295651300,2.6326513671875,-1.6804531812667847,-2.481398105621338,1.0127992630004883
1772811300305533000,2.642532958984375,-1.7678048610687256,-2.5224108695983887,1.0793782472610474
1772811300315414500,2.65241455078125,-1.8807227611541748,-2.565021514892578,1.1326414346694946
1772811300325296000,2.662296142578125,-2.008021831512451,-2.594848871231079,1.1464898586273193
1772811300335177700,2.672177734375,-2.131592273712158,-2.584728717803955,1.148087739944458
1772811300345059300,2.682059326171875,-2.2391839027404785,-2.4936487674713135,1.1411635875701904
1772811300354941000,2.69194091796875,-2.321741819381714,-2.3487730026245117,1.142761468887329
1772811300364822500,2.701822509765625,-2.3734071254730225,-2.162884473800659,1.1688604354858398
1772811300374704000,2.7117041015625,-2.3877882957458496,-1.958353877067566,1.2109383344650269
1772811300384586000,2.7215859375,-2.3398513793945312,-1.7330505847930908,1.252483606338501
1772811300394467600,2.731467529296875,-2.222139596939087,-1.4752568006515503,1.294561505317688
1772811300404349200,2.74134912109375,-2.0271964073181152,-1.1487535238265991,1.3142688274383545
1772811300414230800,2.751230712890625,-1.7544890642166138,-0.7333008050918579,1.2801804542541504
1772811300424112400,2.7611123046875,-1.435975193977356,-0.21505007147789001,1.1645992994308472
1772811300433994000,2.770993896484375,-1.1318424940109253,0.3452785313129425,1.002146601676941
1772811300443875600,2.78087548828125,-0.8580697774887085,0.7996134161949158,0.8940224051475525
1772811300453757200,2.790757080078125,-0.6348970532417297,1.0286450386047363,0.9233171343803406
1772811300463638800,2.800638671875,-0.4857601523399353,1.0478198528289795,1.0873677730560303
1772811300473520400,2.810520263671875,-0.40373486280441284,0.8933566212654114,1.344096302986145
1772811300483402000,2.820402099609375,-0.38988643884658813,0.6158554553985596,1.6498268842697144
1772811300493283600,2.83028369140625,-0.45113909244537354,0.25260061025619507,1.9358501434326172
1772811300503164400,2.840164306640625,-0.5832318067550659,-0.14154689013957977,2.1323912143707275
1772811300513045200,2.850045166015625,-0.7744466066360474,-0.49574699997901917,2.2170796394348145
1772811300522925800,2.85992578125,-0.9747161269187927,-0.7641934156417847,2.1973724365234375
1772811300532806400,2.869806396484375,-1.1414299011230469,-0.9277113676071167,2.109488010406494
1772811300542687200,2.879687255859375,-1.2580761909484863,-1.0161283016204834,1.9949722290039062
1772811300552567800,2.88956787109375,-1.3156003952026367,-1.030509352684021,1.89004385471344
1772811300562448600,2.89944873046875,-1.3246551752090454,-0.9953556060791016,1.7813869714736938
1772811300572329200,2.9093291015625,-1.2900341749191284,-0.926113486289978,1.6450332403182983
1772811300582210000,2.9192099609375,-1.229846715927124,-0.8360987305641174,1.4937658309936523
1772811300592090600,2.929090576171875,-1.150484561920166,-0.7402250170707703,1.3520857095718384
1772811300601971500,2.938971435546875,-1.0620677471160889,-0.653406023979187,1.240233063697815
1772811300611852000,2.94885205078125,-0.9837708473205566,-0.577772319316864,1.165664553642273
1772811300621732900,2.95873291015625,-0.9294424057006836,-0.5149217844009399,1.1251846551895142
1772811300631613400,2.968613525390625,-0.8969519138336182,-0.45899543166160583,1.123054027557373
1772811300641494300,2.978494384765625,-0.8836361169815063,-0.41212382912635803,1.1630014181137085
1772811300651374800,2.988374755859375,-0.8777771592140198,-0.3705785572528839,1.2498204708099365
1772811300661255400,2.99825537109375,-0.8719182014465332,-0.3290332853794098,1.3515530824661255
1772811300671136300,3.00813623046875,-0.8724508285522461,-0.2992058992385864,1.4048162698745728
1772811300681016800,3.018016845703125,-0.8543413281440735,-0.27417218685150146,1.3760541677474976
1772811300690897700,3.027897705078125,-0.7829686999320984,-0.2443448156118393,1.274854063987732
1772811300700778200,3.0377783203125,-0.6466149687767029,-0.1969406008720398,1.135304570198059
1772811300710659000,3.0476591796875,-0.4617917239665985,-0.14367741346359253,0.9744498133659363
1772811300720539600,3.05753955078125,-0.2359558641910553,-0.09574055671691895,0.8178560733795166
1772811300730420200,3.067420166015625,0.023435797542333603,-0.02703106217086315,0.6969486474990845
1772811300740301000,3.077301025390625,0.3078611493110657,0.024101587012410164,0.6372938752174377
1772811300750181600,3.087181640625,0.5944170355796814,0.03049316816031933,0.6506096720695496
1772811300760062500,3.0970625,0.8713855743408203,-0.004660528153181076,0.724112868309021
1772811300769943000,3.106943115234375,1.137701392173767,-0.0648479163646698,0.8386287093162537
1772811300779823900,3.116823974609375,1.3800488710403442,-0.14367741346359253,0.9877656102180481
1772811300789704400,3.126704345703125,1.57765531539917,-0.24061639606952667,1.1592730283737183
1772811300799585300,3.136585205078125,1.733716368675232,-0.3620564341545105,1.3424983024597168
1772811300809465900,3.1464658203125,1.862080693244934,-0.4808333218097687,1.5209300518035889
1772811300819346700,3.1563466796875,1.9734007120132446,-0.5799028277397156,1.6823173761367798
1772811300829227300,3.166227294921875,2.0698070526123047,-0.6528733968734741,1.8160079717636108
1772811300839108000,3.176108154296875,2.1411798000335693,-0.6933534145355225,1.9129469394683838
1772811300848988700,3.18598876953125,2.177931308746338,-0.6922881603240967,1.9710038900375366
1772811300858869200,3.195869140625,2.1805944442749023,-0.6507428288459778,1.9816564321517944
1772811300868750000,3.20575,2.1512997150421143,-0.5916207432746887,1.9406437873840332
1772811300878630700,3.215630615234375,2.0916450023651123,-0.5277048945426941,1.835715413093567
1772811300888511500,3.225511474609375,2.002695322036743,-0.46485435962677,1.6658058166503906
1772811300898392000,3.23539208984375,1.8929733037948608,-0.37324169278144836,1.4266542196273804
1772811300908273000,3.24527294921875,1.7619458436965942,-0.26565009355545044,1.1390330791473389
1772811300918153500,3.255153564453125,1.5829815864562988,-0.1969406008720398,0.7901592254638672
1772811300928034300,3.265034423828125,1.3544825315475464,-0.1447426825761795,0.39494645595550537
1772811300937915000,3.274914794921875,1.09562349319458,-0.08135949820280075,-0.015180004760622978
1772811300947795700,3.284795654296875,0.830905556678772,-0.0318247489631176,-0.4546011984348297
1772811300957676300,3.29467626953125,0.5720465183258057,0.043808963149785995,-0.9094687104225159
1772811300967557000,3.30455712890625,0.33609065413475037,0.17696690559387207,-1.361140489578247
1772811300977437700,3.314437744140625,0.13369056582450867,0.35273537039756775,-1.8112143278121948
1772811300987318300,3.324318359375,-0.03408843278884888,0.5508744120597839,-2.2405154705047607
1772811300997199000,3.33419921875,-0.1656484752893448,0.7852323651313782,-2.615488290786743
1772811301007080000,3.344079833984375,-0.26631587743759155,1.0313082933425903,-2.9153599739074707
1772811301016960500,3.35396044921875,-0.3451453745365143,1.275786280632019,-3.1252169609069824
1772811301026841300,3.36384130859375,-0.4101264476776123,1.4893715381622314,-3.230677843093872
1772811301036722200,3.37372216796875,-0.47457489371299744,1.6406389474868774,-3.240265369415283
1772811301046602800,3.383602783203125,-0.5347622632980347,1.7508937120437622,-3.187534809112549
1772811301056483600,3.393483642578125,-0.5981454849243164,1.8355822563171387,-3.0889978408813477
1772811301066364200,3.4033642578125,-0.658332884311676,1.876062273979187,-2.963829517364502
1772811301076245000,3.413244873046875,-0.7185202240943909,1.873399019241333,-2.8205513954162598
1772811301086125800,3.423125732421875,-0.7771097421646118,1.8483654260635376,-2.6623599529266357
1772811301096006400,3.43300634765625,-0.8293076753616333,1.802026391029358,-2.4844608306884766
1772811301105887200,3.44288720703125,-0.851678192615509,1.754089593887329,-2.268744945526123
1772811301115768000,3.45276806640625,-0.8175897598266602,1.734914779663086,-1.996570110321045
1772811301125648600,3.462648681640625,-0.7371623516082764,1.7311863899230957,-1.7089489698410034
1772811301135529500,3.472529541015625,-0.6024065017700195,1.712544322013855,-1.4447636604309082
1772811301145410300,3.482410400390625,-0.44101908802986145,1.7018916606903076,-1.2338414192199707
1772811301165171700,3.502171630859375,-0.1225053071975708,1.6912389993667603,-1.0245171785354614
1772811301175052500,3.512052490234375,0.019707374274730682,1.6784558296203613,-0.9835045337677002
1772811301184933000,3.52193310546875,0.1459411084651947,1.6614116430282593,-0.9563403129577637
1772811301194814000,3.53181396484375,0.2551306188106537,1.6363779306411743,-0.9238498210906982
1772811301204694800,3.54169482421875,0.37071171402931213,1.6060179471969604,-0.8812392354011536
1772811301214575400,3.551575439453125,0.4990759491920471,1.5724620819091797,-0.8178560733795166
1772811301224456200,3.561456298828125,0.630103349685669,1.5447652339935303,-0.7390265464782715
1772811301234337000,3.5713369140625,0.7765771150588989,1.5149378776550293,-0.6623275876045227
1772811301244217600,3.581217529296875,0.9225181937217712,1.4733926057815552,-0.6048033833503723
1772811301254098400,3.591098388671875,1.0476866960525513,1.4164010286331177,-0.5621927976608276
1772811301263979300,3.600979248046875,1.1552783250808716,1.3381041288375854,-0.509462296962738
1772811301273859800,3.61085986328125,1.2442277669906616,1.2358388900756836,-0.42850226163864136
1772811301283740700,3.62074072265625,1.3283835649490356,1.1229208707809448,-0.3267695903778076
1772811301293621500,3.63062158203125,1.4210615158081055,1.0121334791183472,-0.20426428318023682
1772811301303502000,3.640502197265625,1.540371060371399,0.9066724181175232,-0.07270423322916031
1772811301313383000,3.6503828125,1.6548868417739868,0.8113313317298889,0.052996858954429626
1772811301323263700,3.660263671875,1.7512931823730469,0.7042723298072815,0.157392680644989
1772811301333144300,3.670144287109375,1.817339539527893,0.5961480736732483,0.2426137626171112
1772811301343025200,3.680025146484375,1.8540911674499512,0.5146554112434387,0.33103063702583313
1772811301352905700,3.68990576171875,1.880190134048462,0.4539354145526886,0.4178496301174164
1772811301362786600,3.69978662109375,1.9004300832748413,0.405998557806015,0.4924180507659912
1772811301372667400,3.70966748046875,1.9004300832748413,0.3687143325805664,0.5408875346183777
1772811301382548000,3.7195478515625,1.8791248798370361,0.3420827388763428,0.5387570261955261
1772811301392428800,3.7294287109375,1.8679395914077759,0.34847432374954224,0.49561384320259094
1772811301402309600,3.7393095703125,1.880190134048462,0.39854171872138977,0.42477384209632874
1772811301412190200,3.749190185546875,1.917474389076233,0.48908910155296326,0.3411506414413452
1772811301422071000,3.759071044921875,1.993640661239624,0.5833649635314941,0.2612558901309967
1772811301431952000,3.768951904296875,2.103362798690796,0.6829670667648315,0.20213375985622406
1772811301441832400,3.77883251953125,2.223205089569092,0.7878955602645874,0.1765674352645874
1772811301451713300,3.78871337890625,2.324937582015991,0.8544744849205017,0.16911058127880096
1772811301461594000,3.798593994140625,2.376070261001587,0.8667250275611877,0.1728390008211136
1772811301471474700,3.808474609375,2.3494386672973633,0.8486155271530151,0.17763268947601318
1772811301481355500,3.81835546875,2.256760835647583,0.8198534250259399,0.16591478884220123
1772811301491236400,3.828236328125,2.097503900527954,0.7681881785392761,0.14301162958145142
1772811301501117200,3.8381171875,1.8823206424713135,0.7085334062576294,0.12436951696872711
1772811301510998500,3.84799853515625,1.6149394512176514,0.6531397104263306,0.11424951255321503
1772811301520879600,3.857879638671875,1.3305141925811768,0.6121270656585693,0.11371687799692154
1772811301530761000,3.867760986328125,1.0476866960525513,0.5540701746940613,0.13289162516593933
1772811301540642000,3.87764208984375,0.7733812928199768,0.46565333008766174,0.1914811134338379
1772811301550523100,3.887523193359375,0.5049349069595337,0.34687644243240356,0.2910832464694977
1772811301560404500,3.897404541015625,0.24927166104316711,0.2233058661222458,0.41891488432884216
1772811301570285600,3.90728564453125,-0.0026631588116288185,0.1098553016781807,0.5302349328994751
1772811301580167000,3.9171669921875,-0.26152220368385315,0.003328948514536023,0.594150722026825
1772811301590048000,3.927048095703125,-0.5251749157905579,-0.09201213717460632,0.6079991459846497
1772811301599929000,3.93692919921875,-0.772316038608551,-0.16604794561862946,0.5845633745193481
1772811301609810400,3.946810546875,-0.9869666695594788,-0.21771323680877686,0.5435507297515869
1772811301619691500,3.95669140625,-1.1622024774551392,-0.25659534335136414,0.4886896312236786
1772811301629572900,3.96657275390625,-1.3076109886169434,-0.3151848316192627,0.4274369776248932
1772811301639454000,3.976453857421875,-1.4343773126602173,-0.39135119318962097,0.35872748494148254
1772811301649335000,3.9863349609375,-1.5419689416885376,-0.4744417369365692,0.2798979878425598
1772811301659216400,3.99621630859375,-1.6266573667526245,-0.5697828531265259,0.1861547976732254
1772811301669097500,4.006097412109375,-1.7017585039138794,-0.6970818042755127,0.06578002125024796
1772811301678978800,4.015978759765625,-1.7789900302886963,-0.8329029083251953,-0.07909581810235977
1772811301688860000,4.02585986328125,-1.8572869300842285,-0.9522124528884888,-0.255929559469223
1772811301698741200,4.0357412109375,-1.9366490840911865,-1.0576735734939575,-0.45140540599823
1772811301708622300,4.045622314453125,-2.00961971282959,-1.1594061851501465,-0.6394244432449341
1772811301718503400,4.05550341796875,-2.077796459197998,-1.2558125257492065,-0.8018771409988403
1772811301728384800,4.065384765625,-2.131592273712158,-1.3468925952911377,-0.9350350499153137
1772811301738265900,4.075265869140625,-2.186985969543457,-1.4214609861373901,-1.0303761959075928
1772811301748147000,4.08514697265625,-2.242379665374756,-1.4789851903915405,-1.0831066370010376
1772811301758028300,4.0950283203125,-2.2993712425231934,-1.52159583568573,-1.088433027267456
1772811301767909400,4.104909423828125,-2.3536996841430664,-1.531715750694275,-1.051148772239685
1772811301777790700,4.114790771484375,-2.4090933799743652,-1.5306504964828491,-0.97977614402771
1772811301787671800,4.124671875,-2.459693431854248,-1.5247915983200073,-0.8817718625068665
1772811301797553200,4.13455322265625,-2.470346212387085,-1.4880399703979492,-0.7858981490135193
1772811301807434200,4.144434326171875,-2.548110246658325,-1.4060146808624268,-0.6554033756256104
1772811301817315300,4.1543154296875,-2.6056346893310547,-1.2813788652420044,-0.5323654413223267
1772811301827196700,4.16419677734375,-2.5758070945739746,-1.1466230154037476,-0.45726436376571655
1772811301837077800,4.174077880859375,-2.539588212966919,-0.9633976817131042,-0.39707696437835693
1772811301846959000,4.183958984375,-2.503901958465576,-0.75034499168396,-0.3795001208782196
1772811301856840200,4.193840087890625,-2.460226058959961,-0.5372923016548157,-0.3938812017440796
1772811301866721300,4.20372119140625,-2.4122891426086426,-0.34501221776008606,-0.3944138288497925
1772811301876602600,4.2136025390625,-2.350503921508789,-0.1782984882593155,-0.3736411929130554
1772811301886483700,4.223483642578125,-2.2748701572418213,-0.07976160943508148,-0.3283674716949463
1772811301896365000,4.233364990234375,-2.1949753761291504,-0.05579317733645439,-0.2522011399269104
1772811301906246100,4.24324609375,-2.1054933071136475,-0.09254477173089981,-0.15899057686328888
1772811301916127500,4.25312744140625,-2.003227949142456,-0.16711321473121643,-0.07217160612344742
1772811301926008600,4.263008544921875,-1.891908049583435,-0.27097639441490173,0.003994738217443228
1772811301935889700,4.2728896484375,-1.7688701152801514,-0.39294907450675964,0.06524739414453506
1772811301945771000,4.28277099609375,-1.6394405364990234,-0.510660707950592,0.10732530057430267
1772811301955652000,4.292652099609375,-1.4961626529693604,-0.6017407178878784,0.10839056223630905
1772811301965533400,4.302533447265625,-1.3555477857589722,-0.6874944567680359,0.06791055202484131
1772811301975414500,4.31241455078125,-1.2223899364471436,-0.7546060681343079,0.0045273699797689915
1772811301985295600,4.322295654296875,-1.0945582389831543,-0.7892271280288696,-0.07909581810235977
1772811301995177000,4.332177001953125,-0.9757813811302185,-0.7865639328956604,-0.17816533148288727
1772811302005058000,4.34205810546875,-0.8570045232772827,-0.7636607885360718,-0.28202852606773376
1772811302014939100,4.351939208984375,-0.7462170720100403,-0.7231807708740234,-0.3784348666667938
1772811302024820200,4.3618203125,-0.6343644261360168,-0.6720481514930725,-0.4593949019908905
1772811302034701300,4.371701416015625,-0.5230444073677063,-0.6091975569725037,-0.5211801528930664
1772811302044582700,4.381582763671875,-0.4143875241279602,-0.5394228100776672,-0.5568665266036987
1772811302054463700,4.391463623046875,-0.30040431022644043,-0.4510059356689453,-0.5744433403015137
1772811302064344800,4.4013447265625,-0.18056216835975647,-0.3572627604007721,-0.5712475776672363
1772811302074226000,4.411225830078125,-0.06072001904249191,-0.2619216740131378,-0.5483443737030029
1772811302084107300,4.421107177734375,0.06444844603538513,-0.1633847951889038,-0.5073317289352417
1772811302093988400,4.43098828125,0.19014954566955566,-0.0552605465054512,-0.46152541041374207
1772811302103869400,4.440869384765625,0.29933905601501465,0.028895273804664612,-0.4231759309768677
1772811302113750500,4.45075048828125,0.3723095953464508,0.0762995034456253,-0.42903488874435425
1772811302123631900,4.4606318359375,0.4207790791988373,0.10665950924158096,-0.49561384320259094
1772811302133513000,4.470512939453125,0.4894886016845703,0.15566162765026093,-0.6042707562446594
1772811302143394000,4.48039404296875,0.5933517813682556,0.22650165855884552,-0.7267760634422302
1772811302153275100,4.490275146484375,0.7291728854179382,0.2930806279182434,-0.8375634551048279
1772811302163156500,4.500156494140625,0.8910929560661316,0.3229080140590668,-0.9243824481964111
1772811302173037600,4.51003759765625,1.0929603576660156,0.3170490562915802,-0.9611340165138245
1772811302182918700,4.519918701171875,1.3315794467926025,0.2946785092353821,-0.9105340242385864
1772811302192799700,4.5297998046875,1.6106784343719482,0.2275669276714325,-0.7550055384635925
1772811302202681000,4.53968115234375,1.9302575588226318,0.14980268478393555,-0.5201148986816406
1772811302212562200,4.549562255859375,2.271141767501831,0.043276332318782806,-0.22716744244098663
1772811302222443300,4.559443359375,2.6120262145996094,-0.09201213717460632,0.12863056361675262
1772811302232324400,4.569324462890625,2.9188220500946045,-0.2395511418581009,0.5217128396034241
1772811302242205400,4.579205322265625,3.169691562652588,-0.38709014654159546,0.9329045414924622
1772811302252086800,4.589086669921875,3.35185170173645,-0.5229112505912781,1.3222583532333374
1772811302261968000,4.5989677734375,3.462639093399048,-0.6376934051513672,1.6748605966567993
1772811302271849000,4.608848876953125,3.48714017868042,-0.7181207537651062,2.001896381378174
1772811302281730000,4.61872998046875,3.431213855743408,-0.7522091865539551,2.2975070476531982
1772811302291611400,4.628611328125,3.3108389377593994,-0.726642906665802,2.5249409675598145
1772811302301492500,4.638492431640625,3.14412522315979,-0.6030722856521606,2.6383914947509766
1772811302311373600,4.64837353515625,2.947051525115967,-0.3490069508552551,2.6080315113067627
1772811302321254700,4.658254638671875,2.6770071983337402,0.06804370880126953,2.3864567279815674
1772811302331135700,4.6681357421875,2.463954448699951,0.36951327323913574,2.170740842819214
1772811302341017000,4.67801708984375,2.3078935146331787,0.6539386510848999,1.9566227197647095
1772811302350898200,4.687898193359375,2.173137664794922,0.9229176640510559,1.676458477973938
1772811302360779300,4.697779296875,2.003227949142456,1.1950925588607788,1.287104606628418
1772811302370660400,4.707660400390625,1.7566195726394653,1.479517936706543,0.7906918525695801
1772811302380541700,4.717541748046875,1.4381057024002075,1.7484968900680542,0.2191779762506485
1772811302390422800,4.7274228515625,1.054078221321106,2.010019063949585,-0.3928159177303314
1772811302400303900,4.737303955078125,0.6141244173049927,2.2507686614990234,-0.9851024150848389
1772811302410185000,4.74718505859375,0.1464737355709076,2.4776697158813477,-1.5182667970657349
1772811302420066300,4.75706640625,-0.3073285222053528,2.72853946685791,-1.9763301610946655
1772811302429947400,4.766947509765625,-0.7265097498893738,2.9847352504730225,-2.357694387435913
1772811302439828500,4.776828369140625,-1.086036205291748,3.2462575435638428,-2.6815345287323
1772811302449709600,4.78670947265625,-1.3448952436447144,3.5216281414031982,-2.953176736831665
1772811302459591000,4.7965908203125,-1.4748573303222656,3.8135101795196533,-3.1694252490997314
1772811302469472000,4.806471923828125,-1.5009562969207764,4.088881015777588,-3.3217580318450928
1772811302479353000,4.81635302734375,-1.4812489748001099,4.312586307525635,-3.409642219543457
1772811302489234200,4.826234130859375,-1.4626067876815796,4.472375869750977,-3.450654983520508
1772811302499115300,4.836115234375,-1.4514214992523193,4.541085243225098,-3.4570465087890625
1772811302508996000,4.84599609375,-1.4322468042373657,4.50433349609375,-3.4357411861419678
1772811302518877200,4.855877197265625,-1.3944299221038818,4.406862258911133,-3.3691623210906982
1772811302528758000,4.865758056640625,-1.326253056526184,4.256659984588623,-3.247189521789551
1772811302538638800,4.875638916015625,-1.2223899364471436,4.0510640144348145,-3.0964548587799072
1772811302548519700,4.885519775390625,-1.0966887474060059,3.800194501876831,-2.9403936862945557
1772811302558400800,4.89540087890625,-0.9550087451934814,3.523226022720337,-2.7869956493377686
1772811302568281600,4.905281494140625,-0.8069370985031128,3.2361373901367188,-2.641054630279541
1772811302578162400,4.915162353515625,-0.6615286469459534,3.00657320022583,-2.537724018096924
1772811302588043300,4.925043212890625,-0.47350963950157166,2.7072341442108154,-2.4242734909057617
1772811302597924400,4.93492431640625,-0.25672850012779236,2.3935139179229736,-2.2809956073760986
1772811302607805200,4.94480517578125,-0.0564589649438858,2.1362528800964355,-2.145174503326416
1772811302617686000,4.95468603515625,0.15286532044410706,1.9477012157440186,-2.051431179046631
1772811302627566800,4.96456689453125,0.3723095953464508,1.8262611627578735,-1.998700737953186
1772811302637448000,4.974447998046875,0.5901560187339783,1.7181369066238403,-1.9555574655532837
1772811302647328800,4.984328857421875,0.8175897598266602,1.6382421255111694,-1.8879132270812988
1772811302657209600,4.994209716796875,1.0583393573760986,1.5993599891662598,-1.8085511922836304
1772811302667090400,5.00409033203125,1.296425700187683,1.5711305141448975,-1.73611319065094
1772811302676971500,5.013971435546875,1.5073479413986206,1.5413031578063965,-1.6626100540161133
1772811302686852400,5.023852294921875,1.6905732154846191,1.4923009872436523,-1.5869762897491455
1772811302696733200,5.033733154296875,1.8508954048156738,1.421993613243103,-1.5044183731079102
1772811302706614300,5.0436142578125,1.9899122714996338,1.3362399339675903,-1.4112077951431274
1772811302716495000,5.0534951171875,2.123602867126465,1.2440946102142334,-1.294561505317688
1772811302726376000,5.0633759765625,2.267413377761841,1.1359703540802002,-1.1406309604644775
1772811302736256800,5.0732568359375,2.421344041824341,1.0161283016204834,-0.9355676770210266
1772811302746137900,5.083137939453125,2.58432936668396,0.8771113753318787,-0.6921550035476685
1772811302756018700,5.093018798828125,2.7308030128479004,0.7141260504722595,-0.43010014295578003
1772811302765899500,5.1028994140625,2.8495798110961914,0.5335638523101807,-0.14460952579975128
1772811302775780400,5.1127802734375,2.950779914855957,0.324239581823349,0.15686005353927612
1772811302785661400,5.122661376953125,3.006173610687256,0.07283739000558853,0.4487422704696655
1772811302795542300,5.132542236328125,2.981672525405884,-0.18602164089679718,0.7177212834358215
1772811302805423000,5.142423095703125,2.9284093379974365,-0.43369540572166443,0.954742431640625
1772811302815304000,5.152303955078125,2.8937883377075195,-0.6877607703208923,1.1699256896972656
1772811302825185000,5.16218505859375,2.8783421516418457,-0.9274450540542603,1.3771194219589233
1772811302835065900,5.17206591796875,2.872483015060425,-1.134106159210205,1.5763237476348877
1772811302844946700,5.18194677734375,2.8794074058532715,-1.2901673316955566,1.7712669372558594
1772811302854827500,5.19182763671875,2.896984100341797,-1.3689967393875122,1.9470354318618774
1772811302864708600,5.20170849609375,2.9103000164031982,-1.3397020101547241,2.0881829261779785
1772811302874589400,5.21158935546875,2.845851421356201,-1.2235883474349976,2.169675588607788
1772811302884470300,5.22147021484375,2.6604957580566406,-1.0398303270339966,2.200568199157715
1772811302894351000,5.23135107421875,2.3680808544158936,-0.8283755779266357,2.200035572052002
1772811302904232200,5.241232177734375,1.9728680849075317,-0.6041375994682312,2.2170796394348145
1772811302914113000,5.251113037109375,1.4849773645401,-0.38043224811553955,2.2463743686676025
1772811302923993900,5.260993896484375,0.9113329648971558,-0.2041311264038086,2.2517008781433105
1772811302933875000,5.270875,0.3547327518463135,-0.048070017248392105,2.1520986557006836
1772811302943755800,5.280755859375,-0.12889689207077026,0.057923704385757446,1.9486333131790161
1772811302953636600,5.29063671875,-0.5251749157905579,0.13675320148468018,1.656218409538269
1772811302963517400,5.300517333984375,-0.839427649974823,0.1868205964565277,1.2887026071548462
1772811302973398500,5.3103984375,-1.0886993408203125,0.19907112419605255,0.8604665994644165
1772811302983279400,5.320279296875,-1.2937625646591187,0.19108164310455322,0.39175066351890564
1772811302993160200,5.33016015625,-1.4759225845336914,0.1452753096818924,-0.09347687661647797
1772811303003041300,5.340041259765625,-1.6399731636047363,0.03928159177303314,-0.5589970350265503
1772811303012922400,5.34992236328125,-1.8045563697814941,-0.10719214379787445,-0.9691234827041626
1772811303022803700,5.3598037109375,-1.9744659662246704,-0.28189536929130554,-1.307344675064087
1772811303032684800,5.369684814453125,-2.1443755626678467,-0.47524067759513855,-1.5997594594955444
1772811303042566100,5.379566162109375,-2.3025670051574707,-0.6840323209762573,-1.8628796339035034
1772811303052447200,5.389447265625,-2.4479756355285645,-0.8832366466522217,-2.07539963722229
1772811303062328300,5.399328369140625,-2.5779378414154053,-1.0510156154632568,-2.213883876800537
1772811303072209400,5.40920947265625,-2.6951167583465576,-1.1697925329208374,-2.274603843688965
1772811303082090800,5.4190908203125,-2.7851314544677734,-1.2299798727035522,-2.247972249984741
1772811303091971800,5.428971923828125,-2.82720947265625,-1.2326430082321167,-2.150500774383545
1772811303101853000,5.43885302734375,-2.8234810829162598,-1.2166640758514404,-2.011483907699585
1772811303111734300,5.448734375,-2.803241014480591,-1.1958914995193481,-1.8511617183685303
1772811303121615400,5.458615478515625,-2.7792725563049316,-1.1559441089630127,-1.6833826303482056
1772811303131496400,5.468496337890625,-2.761695623397827,-1.0867019891738892,-1.5134731531143188
1772811303141377800,5.478377685546875,-2.748379945755005,-1.0052093267440796,-1.3430309295654297
1772811303151259000,5.4882587890625,-2.722813606262207,-0.9194555878639221,-1.156077265739441
1772811303161140000,5.498139892578125,-2.6849966049194336,-0.8171902894973755,-0.9307740330696106
1772811303171021000,5.50802099609375,-2.644516706466675,-0.7122617959976196,-0.6692517995834351
1772811303180902400,5.51790234375,-2.6109609603881836,-0.6318344473838806,-0.3933485448360443
1772811303190783500,5.527783447265625,-2.5875251293182373,-0.5737775564193726,-0.12117372453212738
1772811303200664800,5.537664794921875,-2.5710134506225586,-0.5279712080955505,0.1302284598350525
1772811303210546000,5.5475458984375,-2.564089298248291,-0.5040028095245361,0.35393381118774414
1772811303220427000,5.557427001953125,-2.56941556930542,-0.5301017761230469,0.5526054501533508
1772811303230308000,5.56730810546875,-2.583796739578247,-0.601474404335022,0.7299718260765076
1772811303240189400,5.577189453125,-2.6008408069610596,-0.7287734150886536,0.8823044896125793
1772811303250070500,5.587070556640625,-2.624276638031006,-0.8757797479629517,1.0159951448440552
1772811303259951600,5.59695166015625,-2.624276638031006,-1.015861988067627,1.1214561462402344
1772811303269833000,5.6068330078125,-2.5949819087982178,-1.1410304307937622,1.197622537612915
1772811303279714000,5.616714111328125,-2.5411860942840576,-1.2369041442871094,1.2503530979156494
1772811303289595100,5.62659521484375,-2.4762051105499268,-1.3034831285476685,1.2620710134506226
1772811303299476500,5.6364765625,-2.39151668548584,-1.315733551979065,1.2088078260421753
1772811303309357600,5.646357666015625,-2.2849903106689453,-1.25554621219635,1.0873677730560303
1772811303319238700,5.65623876953125,-2.1651480197906494,-1.1618030071258545,0.9243824481964111
1772811303329120000,5.6661201171875,-2.029326915740967,-1.0488851070404053,0.7858981490135193
1772811303339001000,5.6760009765625,-1.8807227611541748,-0.9279776811599731,0.711862325668335
1772811303348882200,5.685882080078125,-1.7230637073516846,-0.8219839930534363,0.6985465288162231
1772811303358763500,5.695763427734375,-1.5590131282806396,-0.747948169708252,0.7182539105415344
1772811303368644600,5.70564453125,-1.376320481300354,-0.7053375840187073,0.7422223687171936
1772811303378525700,5.715525634765625,-1.162735104560852,-0.6632596850395203,0.7470160722732544
1772811303388406800,5.72540673828125,-0.940095067024231,-0.6328997015953064,0.7171886563301086
1772811303408169200,5.745169189453125,-0.5102612376213074,-0.6574007272720337,0.5536707043647766
1772811303418050300,5.75505029296875,-0.31744852662086487,-0.6909565329551697,0.407196968793869
1772811303427931600,5.764931640625,-0.1464737355709076,-0.7426218390464783,0.21225376427173615
1772811303437812700,5.774812744140625,-0.013848425820469856,-0.8076028823852539,-0.01411474123597145
1772811303447693800,5.78469384765625,0.07190528512001038,-0.8704534769058228,-0.23995061218738556
1772811303457575200,5.7945751953125,0.12303793430328369,-0.9205208420753479,-0.4487422704696655
1772811303467456300,5.804456298828125,0.15339794754981995,-0.9604682326316833,-0.6202496886253357
1772811303477337300,5.81433740234375,0.17150743305683136,-0.9839040040969849,-0.732634961605072
1772811303487218700,5.82421875,0.18269269168376923,-0.9801756143569946,-0.7848328948020935
1772811303497099800,5.834099853515625,0.20133480429649353,-0.9455545544624329,-0.7773760557174683
1772811303506980900,5.84398095703125,0.2119874358177185,-0.9093355536460876,-0.7113296985626221
1772811303516862000,5.853862060546875,0.19228006899356842,-0.8677902817726135,-0.6207823157310486
1772811303526743000,5.863742919921875,0.15712636709213257,-0.8033418655395508,-0.5499423146247864
1772811303536624000,5.8736240234375,0.1411474198102951,-0.7032070755958557,-0.5137233138084412
1772811303546505000,5.8835048828125,0.15659373998641968,-0.5455480813980103,-0.5067991018295288
1772811303556386300,5.89338623046875,0.19600848853588104,-0.3458111584186554,-0.5227780938148499
1772811303566267100,5.90326708984375,0.260456919670105,-0.11464899033308029,-0.5483443737030029
1772811303576148200,5.913148193359375,0.3627222180366516,0.13781847059726715,-0.5355612635612488
1772811303586029300,5.923029296875,0.5060001611709595,0.3817638158798218,-0.44341593980789185
1772811303595910400,5.932910400390625,0.6940191984176636,0.5894901752471924,-0.26818010210990906
1772811303605791500,5.94279150390625,0.9214529395103455,0.7317028641700745,-0.013582110404968262
1772811303615672600,5.952672607421875,1.1771161556243896,0.8265113234519958,0.3006706237792969
1772811303625553700,5.9625537109375,1.4301162958145142,0.8685892224311829,0.6378265619277954
1772811303635434800,5.972434814453125,1.649027943611145,0.8483492136001587,0.9717866778373718
1772811303645315800,5.98231591796875,1.8226659297943115,0.7982818484306335,1.286571979522705
1772811303655197000,5.992197021484375,1.956356406211853,0.7269092202186584,1.5768563747406006
1772811303665078000,6.002078125,2.0543606281280518,0.6278396844863892,1.8362480401992798
1772811303674959000,6.011958984375,2.1241354942321777,0.48189857602119446,2.081258535385132
1772811303684840200,6.021840087890625,2.1704745292663574,0.33116379380226135,2.312953472137451
1772811303694721300,6.03172119140625,2.186453342437744,0.21345217525959015,2.5153534412384033
1772811303704602400,6.041602294921875,2.1789965629577637,0.11118687689304352,2.6485114097595215
1772811303714483500,6.0514833984375,2.1337227821350098,0.06591317802667618,2.6927199363708496
1772811303724364300,6.0613642578125,2.0602197647094727,0.02756369300186634,2.6330652236938477
1772811303734245400,6.071245361328125,2.0149459838867188,-0.08428897708654404,2.5355935096740723
1772811303744126500,6.08112646484375,1.980857491493225,-0.19347849488258362,2.408294439315796
1772811303754007600,6.091007568359375,1.9259964227676392,-0.21052271127700806,2.194709062576294
1772811303763888600,6.100888671875,1.8402427434921265,-0.1806953251361847,1.8761954307556152
1772811303773769700,6.110769775390625,1.7246615886688232,-0.14447636902332306,1.4575468301773071
1772811303783650800,6.12065087890625,1.5659373998641968,-0.10399635136127472,0.9707213640213013
1772811303793532000,6.130531982421875,1.3699288368225098,-0.052331071346998215,0.4348938465118408
1772811303803413000,6.1404130859375,1.151017189025879,0.025965798646211624,-0.12117372453212738
1772811303813294000,6.150294189453125,0.9139961004257202,0.14793847501277924,-0.6623275876045227
1772811303823175200,6.160175048828125,0.6689854860305786,0.30346694588661194,-1.1571425199508667
1772811303833056300,6.17005615234375,0.4324969947338104,0.5079975724220276,-1.5976289510726929
1772811303842937300,6.179937255859375,0.2269011288881302,0.7583344578742981,-1.9763301610946655
1772811303852818400,6.189818359375,0.059122126549482346,1.0427597761154175,-2.269277572631836
1772811303862699500,6.199699462890625,-0.04633896425366402,1.3772525787353516,-2.4738082885742188
1772811303872580600,6.20958056640625,-0.10013477504253387,1.732517957687378,-2.5899219512939453
1772811303882461700,6.219461669921875,-0.12463583052158356,2.075532913208008,-2.625075578689575
1772811303892342800,6.2293427734375,-0.14966952800750732,2.3801982402801514,-2.5851283073425293
1772811303902223600,6.2392236328125,-0.18535585701465607,2.6326656341552734,-2.4807324409484863
1772811303912104700,6.249104736328125,-0.21465060114860535,2.8249456882476807,-2.328399658203125
1772811303921985800,6.25898583984375,-0.22370533645153046,2.970886707305908,-2.140380620956421
1772811303931867000,6.268866943359375,-0.22317270934581757,3.072086811065674,-1.9379806518554688
1772811303941748000,6.278748046875,-0.21944428980350494,3.121621608734131,-1.7393090724945068
1772811303951629000,6.288629150390625,-0.20879164338111877,3.1184258460998535,-1.56194269657135
1772811303961510100,6.29851025390625,-0.19494321942329407,3.060901641845703,-1.4149363040924072
1772811303971391200,6.30839111328125,-0.1837579607963562,2.971419334411621,-1.2860393524169922
1772811303981272300,6.318272216796875,-0.15020215511322021,2.862762451171875,-1.1693930625915527
1772811303991153400,6.3281533203125,-0.0942758247256279,2.738126754760742,-1.0804435014724731
1772811304001034000,6.338033935546875,-0.029827378690242767,2.5884571075439453,-1.0303761959075928
1772811304010914300,6.347914306640625,0.027164220809936523,2.4393203258514404,-1.0149297714233398
1772811304020795000,6.357794921875,0.0798947662115097,2.298705577850342,-1.0309088230133057
1772811304030675200,6.36767529296875,0.13369056582450867,2.154895067214966,-1.0671277046203613
1772811304040555500,6.377555419921875,0.19174742698669434,2.019606590270996,-1.1076077222824097
1772811304050435800,6.387435791015625,0.26258745789527893,1.9066885709762573,-1.135304570198059
1772811304060316400,6.39731640625,0.3536674976348877,1.799096941947937,-1.1619361639022827
1772811304070196700,6.40719677734375,0.46072646975517273,1.6920379400253296,-1.1843067407608032
1772811304080077000,6.4170771484375,0.5645896792411804,1.5913705825805664,-1.2045466899871826
1772811304089957400,6.426957275390625,0.6679202318191528,1.4976273775100708,-1.2215909957885742
1772811304099838000,6.436837890625,0.7691202759742737,1.4108083248138428,-1.2285151481628418
1772811304109718300,6.44671826171875,0.8809729218482971,1.315999984741211,-1.2136014699935913
1772811304119598600,6.4565986328125,0.9992172122001648,1.2249199151992798,-1.16513192653656
1772811304129479000,6.46647900390625,1.116396188735962,1.1423619985580444,-1.0740519762039185
1772811304139359200,6.476359130859375,1.2404993772506714,1.0496840476989746,-0.9467529654502869
1772811304149239800,6.48623974609375,1.3624720573425293,0.9357008337974548,-0.7805718183517456
1772811304159120100,6.4961201171875,1.4700636863708496,0.8105323910713196,-0.5909549593925476
1772811304169000400,6.50600048828125,1.564339518547058,0.6773744225502014,-0.3997401297092438
1772811304178880800,6.515880859375,1.6586153507232666,0.5410206913948059,-0.22130849957466125
1772811304188761300,6.52576123046875,1.7603479623794556,0.40733012557029724,-0.0588558092713356
1772811304198641700,6.5356416015625,1.8407753705978394,0.25499746203422546,0.07909581810235977
1772811304208522000,6.54552197265625,1.8711353540420532,0.09946898370981216,0.1621863692998886
1772811304218402300,6.55540234375,1.8652764558792114,-0.031025800853967667,0.16431689262390137
1772811304228282600,6.56528271484375,1.8700700998306274,-0.13488899171352386,0.1153147742152214
1772811304238163200,6.5751630859375,1.8903101682662964,-0.20519638061523438,0.06524739414453506
1772811304248043500,6.58504345703125,1.9419753551483154,-0.25845956802368164,0.05086633190512657
1772811304257923800,6.594923828125,2.0122828483581543,-0.31065747141838074,0.09720529615879059
1772811304267804200,6.60480419921875,2.0756659507751465,-0.3644532859325409,0.20746007561683655
1772811304277684700,6.614684814453125,2.1209397315979004,-0.42730382084846497,0.3549990653991699
1772811304287565000,6.62456494140625,2.138516426086426,-0.49388280510902405,0.5121254324913025
1772811304297445400,6.6344453125,2.1017649173736572,-0.5471459627151489,0.652207612991333
1772811304307325700,6.64432568359375,2.0010974407196045,-0.5775060057640076,0.7640602588653564
1772811304317206300,6.654206298828125,1.8237311840057373,-0.6057354807853699,0.8412918448448181
1772811304327086600,6.664086669921875,1.57765531539917,-0.6153228282928467,0.8977508544921875
1772811304336967000,6.673966796875,1.2756531238555908,-0.6195839047431946,0.9350350499153137
1772811304346847200,6.68384716796875,0.9347687363624573,-0.6078659892082214,0.946220338344574
1772811304356727800,6.693727783203125,0.5715138912200928,-0.5940175652503967,0.9243824481964111
1772811304366608100,6.703608154296875,0.2125200778245926,-0.5769733786582947,0.8689886927604675
1772811304376488400,6.713488525390625,-0.1177116185426712,-0.5546028017997742,0.7656581401824951
1772811304386368800,6.72336865234375,-0.4005391001701355,-0.5269059538841248,0.6122602224349976
1772811304396249000,6.7332490234375,-0.6391581296920776,-0.5157207250595093,0.4135885536670685
1772811304406129700,6.743129638671875,-0.8484823703765869,-0.5306344032287598,0.18082848191261292
1772811304416010000,6.753010009765625,-1.031707763671875,-0.5753754377365112,-0.0732368677854538
1772811304425890300,6.762890380859375,-1.2032151222229004,-0.6163880825042725,-0.3470095992088318
1772811304435770600,6.7727705078125,-1.3662004470825195,-0.6574007272720337,-0.6298370361328125
1772811304445651200,6.782651123046875,-1.4865752458572388,-0.7111965417861938,-0.9030771255493164
1772811304455531500,6.792531494140625,-1.5472952127456665,-0.7713839411735535,-1.1512835025787354
1772811304465411800,6.802411865234375,-1.5733941793441772,-0.8257123827934265,-1.3701951503753662
1772811304475292200,6.812292236328125,-1.5904384851455688,-0.8699208498001099,-1.5534205436706543
1772811304485172500,6.82217236328125,-1.6080152988433838,-0.9072050452232361,-1.6913721561431885
1772811304495053000,6.832052978515625,-1.6303858757019043,-0.9370324015617371,-1.773397445678711
1772811304504934100,6.84193408203125,-1.6559520959854126,-0.9700555801391602,-1.7819195985794067
1772811304514815500,6.8518154296875,-1.6809858083724976,-1.0020134449005127,-1.7174711227416992
1772811304524696800,6.86169677734375,-1.711345911026001,-1.0355693101882935,-1.596563696861267
1772811304534578200,6.871578125,-1.758750081062317,-1.0856367349624634,-1.4293173551559448
1772811304544459500,6.88145947265625,-1.8263943195343018,-1.1426283121109009,-1.2359720468521118
1772811304554340600,6.891340576171875,-1.897234320640564,-1.1937609910964966,-1.026647686958313
1772811304564222000,6.901221923828125,-1.9510301351547241,-1.2353062629699707,-0.803475022315979
1772811304574103300,6.911103271484375,-1.9803248643875122,-1.25554621219635,-0.5803022980690002
1772811304583984600,6.920984619140625,-1.9872491359710693,-1.2619378566741943,-0.35872748494148254
1772811304593866000,6.930865966796875,-1.9771291017532349,-1.243295669555664,-0.13981583714485168
1772811304603747000,6.9407470703125,-1.9419753551483154,-1.1926956176757812,0.07696528732776642
1772811304613628400,6.95062841796875,-1.8732658624649048,-1.122388243675232,0.2756369411945343
1772811304623509800,6.960509765625,-1.7970995903015137,-1.057407259941101,0.45726436376571655
1772811304633391000,6.97039111328125,-1.7374447584152222,-0.9972198009490967,0.6197170615196228
1772811304643272400,6.9802724609375,-1.6943016052246094,-0.9530113935470581,0.7619297504425049
1772811304653153800,6.99015380859375,-1.6628763675689697,-0.9263797998428345,0.8759129047393799
1772811304663035000,7.000034912109375,-1.6559520959854126,-0.9178577065467834,0.9616666436195374
1772811304672916200,7.009916259765625,-1.67406165599823,-0.9253145456314087,1.0271803140640259
1772811304682797600,7.019797607421875,-1.703356385231018,-0.9444893002510071,1.0783129930496216
1772811304692679000,7.029678955078125,-1.7347816228866577,-0.965794563293457,1.1203908920288086
1772811304702560300,7.039560302734375,-1.7614132165908813,-0.9940240383148193,1.1571425199508667
1772811304712441300,7.04944140625,-1.7763268947601318,-1.0116008520126343,1.185904622077942
1772811304722322700,7.05932275390625,-1.7800554037094116,-1.025449275970459,1.1885677576065063
1772811304732204000,7.0692041015625,-1.775261640548706,-1.0339714288711548,1.156077265739441
1772811304742085400,7.07908544921875,-1.7699353694915771,-1.0392976999282837,1.088965654373169
1772811304751966700,7.088966796875,-1.7624784708023071,-1.0398303270339966,1.0032119750976562
1772811304761848000,7.09884814453125,-1.750227928161621,-1.0052093267440796,0.9131971597671509
1772811304771729200,7.108729248046875,-1.7182700634002686,-0.9460871815681458,0.8146602511405945
1772811304781610500,7.118610595703125,-1.6575500965118408,-0.8715187311172485,0.7038728594779968
1772811304791491800,7.128491943359375,-1.5680679082870483,-0.7980155348777771,0.5930854678153992
1772811304801373200,7.138373291015625,-1.4647372961044312,-0.7394260168075562,0.4918854236602783
1772811304811254500,7.148254638671875,-1.3571457862854004,-0.6659228801727295,0.4077296257019043
1772811304821135600,7.158135498046875,-1.2415646314620972,-0.5732449293136597,0.3273022174835205
1772811304831017000,7.168016845703125,-1.1222550868988037,-0.4970785975456238,0.25060325860977173
1772811304840898300,7.177898193359375,-1.007206678390503,-0.4448806941509247,0.17496953904628754
1772811304850779600,7.187779541015625,-0.9012129306793213,-0.4012048840522766,0.1105210930109024
1772811304860661000,7.197660888671875,-0.8133286833763123,-0.36125749349594116,0.05139896646142006
1772811304870542000,7.2075419921875,-0.7462170720100403,-0.3266364336013794,0.0029294746927917004
1772811304880423400,7.21742333984375,-0.6998781561851501,-0.29095008969306946,-0.03861580416560173
1772811304890304800,7.2273046875,-0.6727139353752136,-0.25313323736190796,-0.06897581368684769
1772811304900186000,7.23718603515625,-0.6471475958824158,-0.20945744216442108,-0.0828242376446724
1772811304910067500,7.2470673828125,-0.6050696969032288,-0.14607426524162292,-0.07536739110946655
1772811304919948800,7.25694873046875,-0.5459475517272949,-0.07470160722732544,-0.05938844010233879
1772811304929830000,7.266829833984375,-0.4793685972690582,-0.001731053227558732,-0.03595264256000519
1772811304939711200,7.276711181640625,-0.41705065965652466,0.06378265470266342,-0.009321056306362152
1772811304949592600,7.286592529296875,-0.3781685531139374,0.10799109190702438,0.00026631588116288185
1772811304959474000,7.296473876953125,-0.3584611713886261,0.15379741787910461,-0.033289484679698944
1772811304969355300,7.306355224609375,-0.30360010266304016,0.16551531851291656,-0.10679266601800919
1772811304979236400,7.316236328125,-0.22743375599384308,0.21025638282299042,-0.1962748020887375
1772811304989117700,7.32611767578125,-0.12303793430328369,0.2917490601539612,-0.29321378469467163
1772811304998998800,7.335998779296875,0.06444844603538513,0.3609911799430847,-0.3656516969203949
1772811305008879900,7.3458798828125,0.306263267993927,0.4004059135913849,-0.34967276453971863
1772811305018761000,7.355760986328125,0.5736443996429443,0.4078627824783325,-0.23196113109588623
1772811305028641800,7.365641845703125,0.8623307943344116,0.38762277364730835,-0.04287685826420784
1772811305038523000,7.37552294921875,1.1440930366516113,0.37856802344322205,0.19361165165901184
1772811305048403700,7.38540380859375,1.3784509897232056,0.4275701344013214,0.4412854015827179
1772811305058284800,7.395284912109375,1.5164026021957397,0.5458143949508667,0.660729706287384
1772811305068166000,7.405165771484375,1.5382405519485474,0.6555365324020386,0.7853655219078064
1772811305078046700,7.415046630859375,1.4599436521530151,0.6928207874298096,0.7901592254638672
1772811305087927800,7.424927734375,1.326785683631897,0.6736460328102112,0.7395591735839844
1772811305097809000,7.434808837890625,1.1819099187850952,0.5985449552536011,0.6846981048583984
1772811305107689700,7.444689697265625,1.054078221321106,0.4749743640422821,0.6436854600906372
1772811305117570800,7.45457080078125,0.9512803554534912,0.3370227515697479,0.631434977054596
1772811305127451600,7.46445166015625,0.8756465911865234,0.20812585949897766,0.6404896974563599
1772811305137332700,7.474332763671875,0.8122634291648865,0.07283739000558853,0.6527402400970459
1772811305147213800,7.4842138671875,0.7520760297775269,-0.05925528332591057,0.6644580960273743
1772811305157094700,7.4940947265625,0.6876276135444641,-0.19134795665740967,0.6612623333930969
1772811305166975700,7.503975830078125,0.6189181208610535,-0.31012484431266785,0.6479465365409851
1772811305176856800,7.51385693359375,0.5571328401565552,-0.39428067207336426,0.6165212392807007
1772811305186737700,7.523737548828125,0.49801069498062134,-0.4581964612007141,0.5712475776672363
1772811305196618800,7.53361865234375,0.4335622489452362,-0.49867647886276245,0.5073317289352417
1772811305206499800,7.543499755859375,0.36591801047325134,-0.492284893989563,0.42424118518829346
1772811305216380700,7.553380615234375,0.33182957768440247,-0.448076456785202,0.30173590779304504
1772811305226261800,7.56326171875,0.3430148661136627,-0.39001959562301636,0.09454213827848434
1772811305236142600,7.573142578125,0.3259706497192383,-0.3308974802494049,-0.190948486328125
1772811305246023700,7.583023681640625,0.3339601159095764,-0.27124273777008057,-0.5158538818359375
1772811305255904800,7.59290478515625,0.3355579972267151,-0.17803215980529785,-0.8396939635276794
1772811305265785600,7.60278564453125,0.3302316963672638,-0.06191844120621681,-1.1267825365066528
1772811305275666700,7.612666748046875,0.316915899515152,0.0739026591181755,-1.3451615571975708
1772811305285547500,7.622547607421875,0.2966758906841278,0.22730059921741486,-1.4921678304672241
1772811305295428600,7.6324287109375,0.27696850895881653,0.40147119760513306,-1.5693994760513306
1772811305305309700,7.642309814453125,0.28069692850112915,0.6177197098731995,-1.5662037134170532
1772811305315190500,7.6521904296875,0.314785361289978,0.8371639847755432,-1.4974942207336426
1772811305325071600,7.662071533203125,0.31798115372657776,1.0049430131912231,-1.450089931488037
1772811305334952700,7.67195263671875,0.3014695644378662,1.1301114559173584,-1.420795202255249
1772811305344833500,7.68183349609375,0.2822948396205902,1.1950925588607788,-1.3936309814453125
1772811305354714600,7.691714599609375,0.2924148440361023,1.2377030849456787,-1.3430309295654297
1772811305364595700,7.701595703125,0.3025348484516144,1.2994883060455322,-1.252483606338501
1772811305374476500,7.7114765625,0.272707462310791,1.4187978506088257,-1.1816436052322388
1772811305384357600,7.721357666015625,0.2647179961204529,1.518932580947876,-1.1747193336486816
1772811305394238500,7.731238525390625,0.30945906043052673,1.573793649673462,-1.185904622077942
1772811305404119600,7.74111962890625,0.33768853545188904,1.6052190065383911,-1.1917635202407837
1772811305414000600,7.751000732421875,0.34088432788848877,1.6020231246948242,-1.1821762323379517
1772811305423881500,7.760881591796875,0.35579800605773926,1.6073495149612427,-1.1582077741622925
1772811305433762600,7.770762451171875,0.4069306552410126,1.6595474481582642,-1.1129341125488281
1772811305443643600,7.7806435546875,0.468183308839798,1.677124261856079,-1.093759298324585
1772811305453524500,7.7905244140625,0.5310338735580444,1.6744611263275146,-1.100683569908142
1772811305463405600,7.800405517578125,0.5944170355796814,1.702157974243164,-1.130510926246643
1772811305473286400,7.810286376953125,0.6636591553688049,1.836913824081421,-1.1693930625915527
1772811305483167500,7.82016748046875,0.7291728854179382,2.068608522415161,-1.2215909957885742
1772811305493048600,7.830048583984375,0.797349750995636,2.2789981365203857,-1.299887776374817
1772811305502929700,7.8399296875,0.8735160827636719,2.421743392944336,-1.390967845916748
1772811305512810800,7.849810791015625,0.9507476687431335,2.5288023948669434,-1.45062255859375
1772811305522691800,7.85969189453125,1.0130655765533447,2.64491605758667,-1.4575468301773071
1772811305532573000,7.869572998046875,1.0450235605239868,2.7418551445007324,-1.4250563383102417
1772811305542454000,7.8794541015625,1.0599372386932373,2.804172992706299,-1.373923659324646
1772811305552335000,7.889335205078125,1.0503498315811157,2.832935094833374,-1.3206604719161987
1772811305562216200,7.89921630859375,1.00667405128479,2.823347806930542,-1.2594077587127686
1772811305572097300,7.90909716796875,0.9203876852989197,2.7525076866149902,-1.1954920291900635
1772811305581978400,7.918978271484375,0.7877624034881592,2.6161539554595947,-1.1241192817687988
1772811305591859500,7.928859375,0.6412886381149292,2.4446465969085693,-1.0373003482818604
1772811305601740500,7.938740478515625,0.49641281366348267,2.2965750694274902,-0.9345024228096008
1772811305611621600,7.94862158203125,0.34621065855026245,2.1756675243377686,-0.8231824040412903
1772811305621502700,7.958502685546875,0.18482321500778198,2.0217370986938477,-0.6969486474990845
1772811305631383800,7.9683837890625,0.021837901324033737,1.858751654624939,-0.5451486110687256
1772811305641265000,7.978264892578125,-0.14913690090179443,1.7777916193008423,-0.4040012061595917
1772811305651146000,7.98814599609375,-0.30466535687446594,1.762345314025879,-0.3454116880893707
1772811305661027000,7.998027099609375,-0.491086483001709,1.7176042795181274,-0.2793653607368469
1772811305670908200,8.007908203125,-0.7158570885658264,1.6872442960739136,-0.2756369411945343
1772811305680789200,8.017789306640625,-0.9123982191085815,1.5833810567855835,-0.29161590337753296
1772811305690670300,8.02767041015625,-1.011467695236206,1.4203957319259644,-0.27350640296936035
1772811305700551400,8.037551513671875,-1.0082719326019287,1.2382357120513916,-0.15686005353927612
1772811305710432500,8.0474326171875,-0.8474171161651611,1.0363682508468628,0.07110633701086044
1772811305720313600,8.057313720703124,-0.6711159944534302,0.7945534586906433,0.3427485525608063
1772811305730194700,8.067194580078125,-0.5768402218818665,0.5873596668243408,0.594150722026825
1772811305740075800,8.07707568359375,-0.6157222986221313,0.4126564562320709,0.7805718183517456
1772811305749956900,8.086956787109376,-0.8106655478477478,0.27949851751327515,0.9030771255493164
1772811305759838000,8.096837890625,-1.116396188735962,0.17670059204101562,0.9989508986473083
1772811305769719000,8.106718994140625,-1.455682635307312,0.09094687551259995,1.0964224338531494
1772811305779600100,8.11660009765625,-1.7816532850265503,0.04034685716032982,1.1938941478729248
1772811305789481200,8.126481201171876,-2.0698070526123047,0.04833633080124855,1.2855067253112793
1772811305799362300,8.1363623046875,-2.296175479888916,0.10106687992811203,1.3377046585083008
1772811305809243400,8.146243408203125,-2.4490408897399902,0.1878858506679535,1.3393025398254395
1772811305819124500,8.15612451171875,-2.574741840362549,0.30346694588661194,1.3142688274383545
1772811305829005600,8.166005615234376,-2.6849966049194336,0.5340964794158936,1.341433048248291
1772811305838886700,8.17588671875,-2.753173589706421,0.9202545285224915,1.3888373374938965
1772811305848767700,8.185767822265625,-2.828274726867676,1.315999984741211,1.3046815395355225
1772811305858648800,8.19564892578125,-2.991260051727295,1.8395769596099854,1.1912308931350708
1772811305868530000,8.205530029296876,-3.2799463272094727,2.1458401679992676,1.1022814512252808
1772811305878411000,8.215410888671874,-3.6879422664642334,2.277400255203247,1.0942919254302979
1772811305888292000,8.2252919921875,-4.04320764541626,2.479800224304199,1.2210583686828613
1772811305898173400,8.23517333984375,-4.177431106567383,2.7418551445007324,1.3510204553604126
1772811305908054500,8.245054443359376,-4.135353088378906,2.9858005046844482,1.3685972690582275
1772811305917935600,8.254935546875,-4.025630950927734,3.229745864868164,1.3430309295654297
1772811305927816700,8.264816650390625,-3.922300338745117,3.4758217334747314,1.331845760345459
1772811305937697800,8.27469775390625,-3.8312201499938965,3.665971279144287,1.3275846242904663
1772811305947579000,8.284578857421875,-3.689007520675659,3.80924916267395,1.3174647092819214
1772811305957460000,8.2944599609375,-3.461041212081909,3.934950351715088,1.2855067253112793
1772811305967341000,8.304341064453125,-3.1579737663269043,4.088881015777588,1.1843067407608032
1772811305977222100,8.31422216796875,-2.812828302383423,4.33389139175415,1.0101361274719238
1772811305987103200,8.324103271484375,-2.4714114665985107,4.733365535736084,0.8567382097244263
1772811305996984300,8.333984375,-2.127863883972168,5.220190525054932,0.7534076571464539
1772811306006865200,8.343865234375,-1.8072196245193481,5.668666839599609,0.7507444620132446
1772811306016746200,8.353746337890625,-1.5845794677734375,5.794900417327881,0.7384939193725586
1772811306026627000,8.363626953125,-1.4993584156036377,5.569064617156982,0.7012097239494324
1772811306036508200,8.373508056640626,-1.4828468561172485,5.259072780609131,0.7843002676963806
1772811306046389000,8.383388916015624,-1.4535521268844604,4.986897945404053,1.0458225011825562
1772811306056269800,8.393269775390625,-1.4029520750045776,4.710994720458984,1.3920331001281738
1772811306066151000,8.40315087890625,-1.3321120738983154,4.347207069396973,1.7542227506637573
1772811306076031700,8.41303173828125,-1.2942951917648315,4.024965286254883,2.120140790939331
1772811306085912800,8.422912841796874,-1.24209725856781,3.770899772644043,2.4658186435699463
1772811306095793700,8.432793701171875,-1.1137330532073975,3.343729019165039,2.7145578861236572
1772811306105674800,8.4426748046875,-0.9337034821510315,2.80257511138916,2.8461177349090576
1772811306115555600,8.4525556640625,-0.7605981826782227,2.3695454597473145,2.8519768714904785
1772811306125436700,8.462436767578126,-0.5683180689811707,2.1964402198791504,2.8620967864990234
1772811306135317500,8.4723173828125,-0.38456013798713684,2.153296947479248,2.8114967346191406
1772811306145198600,8.482198486328125,-0.24714113771915436,2.168210744857788,2.6570334434509277
1772811306155079400,8.492079345703125,-0.13528846204280853,2.3237392902374268,2.4599597454071045
1772811306164960500,8.50196044921875,-0.02024000696837902,2.539987802505493,2.2410480976104736
1772811306174841300,8.51184130859375,0.12144003808498383,2.650242567062378,1.973667025566101
1772811306184722400,8.521722412109375,0.2822948396205902,2.6715476512908936,1.738776445388794
1772811306194603300,8.531603271484375,0.4202464520931244,2.6076319217681885,1.549692153930664
1772811306204484400,8.541484375,0.5123917460441589,2.42067813873291,1.4133384227752686
1772811306214365200,8.551365234375,0.5688506960868835,2.144242286682129,1.3329110145568848
1772811306224246300,8.561246337890625,0.5933517813682556,1.8528927564620972,1.2610056400299072
1772811306234127000,8.571127197265625,0.5981454849243164,1.6456990242004395,1.1736540794372559
1772811306244008200,8.58100830078125,0.5922865271568298,1.5269221067428589,1.0916287899017334
1772811306253889000,8.590888916015626,0.5826991200447083,1.4725936651229858,1.0223866701126099
1772811306263770000,8.60077001953125,0.5864275693893433,1.4022862911224365,0.9946898221969604
1772811306273651000,8.61065087890625,0.6093307137489319,1.278183102607727,1.0037446022033691
1772811306283532000,8.620531982421875,0.6178528666496277,1.1130672693252563,1.0223866701126099
1772811306293412900,8.630412841796876,0.5848296880722046,0.9309071898460388,1.0191909074783325
1772811306303294000,8.6402939453125,0.5081307291984558,0.8110650181770325,0.9685908555984497
1772811306313174800,8.6501748046875,0.42610540986061096,0.8126628994941711,0.866858184337616
1772811306323055900,8.660055908203125,0.3579285442829132,0.8771113753318787,0.7550055384635925
1772811306332936700,8.669936767578125,0.3110569417476654,0.9378314018249512,0.6628602147102356
1772811306342817800,8.67981787109375,0.31744852662086487,1.0321072340011597,0.6037381291389465
1772811306352698600,8.68969873046875,0.37444013357162476,1.052347183227539,0.5914875864982605
1772811306362579700,8.699579833984375,0.45060646533966064,0.9671261310577393,0.6218475699424744
1772811306372460500,8.70946044921875,0.5070654153823853,0.8643282055854797,0.6676539182662964
1772811306382341600,8.719341552734376,0.533164381980896,0.7609976530075073,0.69428551197052
1772811306392222500,8.729222412109374,0.5683180689811707,0.5372923016548157,0.6926876306533813
1772811306402103600,8.739103515625,0.5725791454315186,0.3716438114643097,0.6799044609069824
1772811306411984400,8.748984375,0.5619264841079712,0.3492732644081116,0.6229128241539001
1772811306421865500,8.758865478515625,0.5885580778121948,0.3514038026332855,0.5510075688362122
1772811306431746300,8.768746337890626,0.6173202395439148,0.42650488018989563,0.5648559927940369
1772811306441627400,8.77862744140625,0.6274402141571045,0.5042691230773926,0.6458160281181335
1772811306451508200,8.78850830078125,0.62477707862854,0.49042069911956787,0.7518097162246704
1772811306461389300,8.798389404296875,0.6226465106010437,0.42970067262649536,0.8402265906333923
1772811306471270100,8.808270263671876,0.6008086204528809,0.35992592573165894,0.9014792442321777
1772811306481151200,8.818151123046874,0.5427517890930176,0.2502037584781647,0.9542098045349121
1772811306491032000,8.828031982421875,0.46338963508605957,0.08455529063940048,1.0085382461547852
1772811306500913000,8.837912841796875,0.36485275626182556,-0.013981583528220654,1.0261150598526
1772811306510793700,8.847793701171875,0.26418536901474,-0.06404896825551987,1.021321415901184
1772811306520674600,8.857674560546876,0.17044216394424438,-0.18655426800251007,0.9515466690063477
1772811306530555400,8.867555419921874,0.10759161412715912,-0.1050616130232811,0.8162581920623779
1772811306540436200,8.877436279296875,0.07030738890171051,0.08881634473800659,0.6532728672027588
1772811306550317000,8.887317138671875,0.04846949130296707,0.26884588599205017,0.5052012205123901
1772811306560197600,8.89719775390625,0.03675159066915512,0.40679749846458435,0.37204328179359436
1772811306570078500,8.907078369140624,0.023968428373336792,0.5117259621620178,0.26924535632133484
1772811306579959300,8.916959228515625,0.02077263966202736,0.5591301918029785,0.21758008003234863
1772811306589840100,8.926840087890625,0.0330231711268425,0.5138564705848694,0.22024323046207428
1772811306599721000,8.936720947265625,0.05379580706357956,0.38282907009124756,0.2479400783777237
1772811306609601800,8.946601806640626,0.07616633921861649,0.2017342746257782,0.2703106105327606
1772811306619482600,8.956482666015624,0.09640634804964066,0.029694220051169395,0.26445168256759644
1772811306629363500,8.966363525390625,0.1177116185426712,-0.08269108086824417,0.224504292011261
1772811306639244300,8.976244384765625,0.14327794313430786,-0.12743215262889862,0.18775269389152527
1772811306649125000,8.986125,0.17736637592315674,-0.1519332081079483,0.1531316339969635
1772811306659005700,8.996005615234376,0.1976063847541809,-0.14580795168876648,0.07430212944746017
