time,seconds_elapsed,z,y,x
1772811057210580500,0.18058056640625,0.7303712964057922,0.7829686999320984,-0.9090692400932312
1772811057220461800,0.1904619140625,0.9237166047096252,0.7009434103965759,-0.6470144391059875
1772811057230343000,0.200343017578125,1.1564767360687256,0.7574023604393005,-0.3189132809638977
1772811057240224000,0.21022412109375,1.3610073328018188,0.8548739552497864,-0.020639481022953987
1772811057250105300,0.220105224609375,1.558081030845642,0.9070718884468079,0.23342587053775787
1772811057259986400,0.229986328125,1.7482305765151978,0.9406276941299438,0.3825627565383911
1772811057269867500,0.239867431640625,1.9170749187469482,0.9134634733200073,0.42836910486221313
1772811057279748600,0.24974853515625,2.0433084964752197,0.7488802671432495,0.4150533080101013
1772811057289630000,0.2596298828125,2.0587549209594727,0.5091959834098816,0.3969438076019287
1772811057299511000,0.269510986328125,1.8963022232055664,0.37017908692359924,0.42730382084846497
1772811057309392100,0.27939208984375,1.546363115310669,0.5597959756851196,0.5130575299263
1772811057319273500,0.2892734375,1.0840388536453247,1.0626003742218018,0.6872281432151794
1772811057329154600,0.299154541015625,0.47950175404548645,1.430648922920227,0.9157271385192871
1772811057339035600,0.30903564453125,-0.14101426303386688,1.2570109367370605,1.1831083297729492
1772811057348917000,0.3189169921875,-0.5873596668243408,0.8021434545516968,1.523992657661438
1772811057358798000,0.328798095703125,-0.913862943649292,0.2817622125148773,1.8164074420928955
1772811057368679200,0.33867919921875,-1.1711241006851196,-0.5044022798538208,1.9218685626983643
1772811057378560500,0.348560546875,-1.3064125776290894,-1.4194636344909668,1.7631442546844482
1772811057388441600,0.358441650390625,-1.191364049911499,-2.3435797691345215,1.4355757236480713
1772811057398322700,0.36832275390625,-0.9090692400932312,-2.8250789642333984,1.0904303789138794
1772811057408204000,0.3782041015625,-0.5612607002258301,-2.6322662830352783,0.802276611328125
1772811057418085000,0.388085205078125,-0.19321216642856598,-2.2684786319732666,0.5546028017997742
1772811057427966200,0.39796630859375,0.10719214379787445,-1.9062891006469727,0.3420827388763428
1772811057437847300,0.407847412109375,0.231827974319458,-1.7044216394424438,0.1098553016781807
1772811057447728600,0.417728759765625,0.11305109411478043,-2.057556390762329,-0.22730059921741486
1772811057457609700,0.427609619140625,-0.24008376896381378,-2.9027099609375,-0.6789723634719849
1772811057467490800,0.43749072265625,-0.7434207797050476,-3.791139841079712,-1.1130672693252563
1772811057477372200,0.4473720703125,-1.265932559967041,-4.435091495513916,-1.3602083921432495
1772811057487253200,0.457253173828125,-1.7415727376937866,-4.373838901519775,-1.5338462591171265
1772811057497134600,0.467134521484375,-2.0760655403137207,-3.2121689319610596,-1.7783242464065552
1772811057507016200,0.47701611328125,-2.2411813735961914,-1.769802212715149,-1.9961706399917603
1772811057516897800,0.486897705078125,-1.9168086051940918,-1.090164065361023,-2.044107437133789
1772811057526779100,0.496779052734375,-1.0486187934875488,-1.1290462017059326,-1.8076190948486328
1772811057536660700,0.50666064453125,-0.029161589220166206,-1.2760525941848755,-1.417199969291687
1772811057546542300,0.516542236328125,0.970588207244873,-1.2504862546920776,-1.0012145042419434
1772811057556424000,0.526423828125,1.8973674774169922,-1.0976208448410034,-0.5836312770843506
1772811057566305500,0.536305419921875,2.409226655960083,-1.320793628692627,-0.2677806317806244
1772811057576187100,0.546187255859375,2.45503306388855,-2.297640323638916,-0.24541008472442627
1772811057586068700,0.55606884765625,2.255828619003296,-3.532280683517456,-0.38282907009124756
1772811057595950300,0.565950439453125,1.796700119972229,-4.529900074005127,-0.4916191101074219
1772811057605832000,0.57583203125,1.2102725505828857,-5.057737827301025,-0.612526535987854
1772811057615713500,0.585713623046875,0.7325018048286438,-5.409275054931641,-0.9171919226646423
1772811057625595100,0.59559521484375,0.44754382967948914,-5.291696548461914,-1.1966904401779175
1772811057635476700,0.605476806640625,0.4358259439468384,-4.783565998077393,-1.3964272737503052
1772811057645358000,0.615358154296875,0.5785712599754333,-4.106058120727539,-1.4827136993408203
1772811057655239700,0.62523974609375,0.7330344915390015,-3.5878076553344727,-1.2845746278762817
1772811057665121300,0.635121337890625,0.8976176977157593,-3.4935317039489746,-0.8558061122894287
1772811057675003000,0.6450029296875,1.038232445716858,-3.4690306186676025,-0.39135119318962097
1772811057684884500,0.654884521484375,1.159672498703003,-3.5723612308502197,-0.0318247489631176
1772811057694766000,0.66476611328125,1.2523504495620728,-3.7827508449554443,0.13435636460781097
1772811057704647700,0.674647705078125,1.3093420267105103,-3.902592897415161,0.02197105996310711
1772811057714529300,0.684529296875,1.3450284004211426,-3.584611654281616,-0.35566484928131104
1772811057724411000,0.694410888671875,1.4190641641616821,-2.910832643508911,-0.6608628630638123
1772811057734292500,0.70429248046875,1.4531526565551758,-2.7563693523406982,-0.9649956226348877
1772811057744174000,0.714174072265625,1.5026873350143433,-2.5284030437469482,-0.9783113598823547
1772811057754055400,0.724055419921875,1.5852452516555786,-2.608297824859619,-0.7519428730010986
1772811057763937000,0.73393701171875,1.722131609916687,-3.0024452209472656,-0.31305432319641113
1772811057773818600,0.743818603515625,1.927727460861206,-3.470628499984741,0.24993745982646942
1772811057783700200,0.7537001953125,2.2473065853118896,-3.844003438949585,0.5759080648422241
1772811057793581800,0.763581787109375,2.697380304336548,-3.874363422393799,0.44275015592575073
1772811057803463400,0.77346337890625,3.2076416015625,-3.431746482849121,-0.0009321055840700865
1772811057813345000,0.783344970703125,3.6161701679229736,-2.911365270614624,-0.5271722674369812
1772811057823226600,0.7932265625,3.83241868019104,-2.940659999847412,-0.825978696346283
1772811057833108200,0.803108154296875,3.965576648712158,-3.6735613346099854,-0.5676522850990295
1772811057842989800,0.81298974609375,4.129627227783203,-4.680768013000488,0.2089248150587082
1772811057852871400,0.822871337890625,4.391149520874023,-5.629384994506836,1.1357040405273438
1772811057862752800,0.832752685546875,4.758132457733154,-6.198768615722656,1.7897758483886719
1772811057872634400,0.84263427734375,5.202347755432129,-6.192377090454102,1.960218071937561
1772811057882516000,0.852515869140625,5.617800235748291,-5.565469264984131,1.642769455909729
1772811057892397600,0.8623974609375,5.941107749938965,-4.402734279632568,0.8725839853286743
1772811057902279200,0.872279052734375,6.116876125335693,-2.985933542251587,-0.17616795003414154
1772811057912160800,0.882160888671875,6.154693126678467,-1.6751269102096558,-1.2121367454528809
1772811057922042400,0.89204248046875,6.1269965171813965,-0.7696529030799866,-1.9652780294418335
1772811057931924000,0.901924072265625,6.08491849899292,-0.4069306552410126,-2.297107696533203
1772811057941805600,0.9118056640625,6.049764633178711,-0.5038696527481079,-2.2614212036132812
1772811057951687200,0.921687255859375,5.9922404289245605,-0.906539261341095,-2.005225419998169
1772811057961568800,0.93156884765625,5.9331183433532715,-1.4524868726730347,-1.6574169397354126
1772811057971450000,0.9414501953125,5.842038154602051,-2.0149459838867188,-1.2574104070663452
1772811057981331700,0.951331787109375,5.659345626831055,-2.48046612739563,-0.7471492290496826
1772811057991213300,0.96121337890625,5.393029689788818,-2.836264133453369,-0.1303616166114807
1772811058001094400,0.971094482421875,5.0649285316467285,-2.887396812438965,0.43209752440452576
1772811058010975500,0.9809755859375,4.6926188468933105,-2.892190456390381,1.0403629541397095
1772811058020856300,0.990856201171875,4.212184906005859,-2.822282552719116,1.7391759157180786
1772811058030737200,1.000737060546875,3.644932270050049,-2.6875267028808594,2.453434944152832
1772811058040618200,1.0106181640625,3.1170942783355713,-2.362621307373047,3.010967254638672
1772811058050499000,1.0204990234375,2.631866693496704,-1.8566211462020874,3.363569498062134
1772811058060380000,1.0303798828125,2.195641279220581,-1.2744545936584473,3.531881332397461
1772811058070260700,1.0402607421875,1.8126790523529053,-0.5937512516975403,3.4977927207946777
1772811058080141800,1.050141845703125,1.4888389110565186,0.10133319348096848,3.2623696327209473
1772811058090022700,1.060022705078125,1.2241209745407104,0.810798704624176,2.87727689743042
1772811058099903500,1.069903564453125,1.0057419538497925,1.4723273515701294,2.320676565170288
1772811058109784300,1.079784423828125,0.8496808409690857,2.0646138191223145,1.6405057907104492
1772811058119665400,1.08966552734375,0.731436550617218,2.596713066101074,0.9129308462142944
1772811058129546200,1.099546142578125,0.6313018202781677,3.0467867851257324,0.19654111564159393
1772811058139427000,1.109427001953125,0.5514070391654968,3.3631701469421387,-0.44954121112823486
1772811058149308200,1.11930810546875,0.481632262468338,3.540536403656006,-0.9811077117919922
1772811058159189000,1.12918896484375,0.405998557806015,3.565570116043091,-1.3725920915603638
1772811058169069800,1.13906982421875,0.3063964247703552,3.4334774017333984,-1.6468974351882935
1772811058178950700,1.14895068359375,0.17217321693897247,3.1415953636169434,-1.8194700479507446
1772811058188831700,1.158831787109375,-0.004127896390855312,2.776742458343506,-1.9126806259155273
1772811058198712600,1.168712646484375,-0.20226691663265228,2.3165485858917236,-1.9409101009368896
1772811058208593400,1.178593505859375,-0.3993406593799591,1.8323863744735718,-1.9334533214569092
1772811058218474200,1.18847412109375,-0.5788375735282898,1.3492894172668457,-1.9132132530212402
1772811058228355300,1.198355224609375,-0.7285071015357971,0.9241161346435547,-1.9024275541305542
1772811058238236200,1.208236083984375,-0.8451534509658813,0.5257075428962708,-1.8971011638641357
1772811058248117000,1.218116943359375,-0.913862943649292,0.1880190074443817,-1.888046383857727
1772811058257997800,1.227997802734375,-0.9490166306495667,-0.08681897819042206,-1.883252739906311
1772811058267879000,1.23787890625,-0.9831050634384155,-0.3355579972267151,-1.8752633333206177
1772811058277759700,1.247759765625,-1.040629267692566,-0.5294359922409058,-1.8480991125106812
1772811058287640600,1.257640625,-1.124252438545227,-0.6929539442062378,-1.8022927045822144
1772811058297521700,1.267521728515625,-1.2515515089035034,-0.8117308020591736,-1.7463663816452026
1772811058307402500,1.277402587890625,-1.3990905284881592,-0.9006803035736084,-1.697896957397461
1772811058317283300,1.287283447265625,-1.51413893699646,-0.9129308462142944,-1.6563515663146973
1772811058327164200,1.2971640625,-1.6089473962783813,-0.8612655401229858,-1.611077904701233
1772811058337045200,1.307045166015625,-1.685646414756775,-0.7605981826782227,-1.563673734664917
1772811058346926000,1.316926025390625,-1.7314527034759521,-0.6226465106010437,-1.5120084285736084
1772811058356807000,1.326806884765625,-1.7298548221588135,-0.4703138470649719,-1.4459620714187622
1772811058366688000,1.33668798828125,-1.6920379400253296,-0.32650327682495117,-1.3586105108261108
1772811058376568800,1.34656884765625,-1.6409052610397339,-0.20559586584568024,-1.2259851694107056
1772811058386449700,1.35644970703125,-1.597762107849121,-0.1411474198102951,-1.0454230308532715
1772811058396330500,1.36633056640625,-1.5578147172927856,-0.1411474198102951,-0.7913576364517212
1772811058406211600,1.376211669921875,-1.4699305295944214,-0.23169481754302979,-0.4696480631828308
1772811058416092400,1.386092529296875,-1.374589443206787,-0.3327617049217224,-0.042477384209632874
1772811058425973200,1.39597314453125,-1.2675304412841797,-0.4616585671901703,0.44275015592575073
1772811058435854000,1.40585400390625,-1.169526219367981,-0.6416881084442139,0.9487503170967102
1772811058445735200,1.415735107421875,-1.0747177600860596,-0.8781766295433044,1.4132052659988403
1772811058455616000,1.425615966796875,-1.0198566913604736,-1.1210566759109497,1.797232747077942
1772811058465496800,1.435496826171875,-1.0198566913604736,-1.3479578495025635,2.125866413116455
1772811058475377700,1.445377685546875,-1.0592714548110962,-1.5455641746520996,2.4161508083343506
1772811058485258800,1.4552587890625,-1.1476882696151733,-1.7085494995117188,2.6680855751037598
1772811058495139600,1.4651396484375,-1.2845746278762817,-1.836381196975708,2.884866714477539
1772811058505020400,1.4750205078125,-1.4502230882644653,-1.921069622039795,3.072885751724243
1772811058514901200,1.4849013671875,-1.6291873455047607,-1.9871159791946411,3.2241532802581787
1772811058524782300,1.4947822265625,-1.8156085014343262,-2.0414443016052246,3.3306796550750732
1772811058534663200,1.5046630859375,-1.9940401315689087,-2.054760217666626,3.370626926422119
1772811058544544000,1.5145439453125,-2.164482355117798,-2.0334548950195312,3.3242878913879395
1772811058554425000,1.524425048828125,-2.318413019180298,-2.0126821994781494,3.212967872619629
1772811058564306000,1.534305908203125,-2.446777105331421,-1.9828548431396484,3.0510478019714355
1772811058574186800,1.544186767578125,-2.544781446456909,-1.9295917749404907,2.8577024936676025
1772811058584067600,1.554067626953125,-2.625741481781006,-1.8480991125106812,2.6441171169281006
1772811058593948700,1.56394873046875,-2.6768741607666016,-1.7586169242858887,2.424672842025757
1772811058603829500,1.57382958984375,-2.6976466178894043,-1.6536884307861328,2.2142834663391113
1772811058613710300,1.58371044921875,-2.683798313140869,-1.5274547338485718,2.0241339206695557
1772811058623591200,1.593591064453125,-2.629469871520996,-1.356080412864685,1.8291906118392944
1772811058633472300,1.60347216796875,-2.554368734359741,-1.1765835285186768,1.5927021503448486
1772811058643353000,1.61335302734375,-2.470212936401367,-1.0002824068069458,1.3237230777740479
1772811058653234000,1.62323388671875,-2.376469850540161,-0.8138613104820251,1.0350366830825806
1772811058663114800,1.63311474609375,-2.291781425476074,-0.6199833750724792,0.7591333985328674
1772811058672995800,1.642995849609375,-2.198570728302002,-0.45007383823394775,0.5231775641441345
1772811058682876700,1.652876708984375,-2.1010992527008057,-0.3014695644378662,0.32024484872817993
1772811058692757500,1.662757568359375,-2.008953809738159,-0.13102741539478302,0.13701951503753662
1772811058702638300,1.672638427734375,-1.9157432317733765,0.04953475296497345,-0.054727911949157715
1772811058712519400,1.68251953125,-1.828924298286438,0.18748638033866882,-0.23688797652721405
1772811058722400300,1.692400146484375,-1.744235873222351,0.2817622125148773,-0.3796332776546478
1772811058732281000,1.702281005859375,-1.6542210578918457,0.35579800605773926,-0.4888227880001068
1772811058742162000,1.712161865234375,-1.563673734664917,0.3920169770717621,-0.5852291584014893
1772811058752043000,1.72204296875,-1.4731262922286987,0.3872233033180237,-0.6853639483451843
1772811058761923800,1.731923828125,-1.3841768503189087,0.36485275626182556,-0.7865639328956604
1772811058771804700,1.7418046875,-1.2856398820877075,0.32277485728263855,-0.8813723921775818
1772811058781685800,1.751685791015625,-1.1705914735794067,0.25140219926834106,-0.9660608768463135
1772811058791566600,1.761566650390625,-1.0438251495361328,0.1549958437681198,-1.0257155895233154
1772811058801447400,1.771447509765625,-0.8984166383743286,0.04527369886636734,-1.0491514205932617
1772811058811328300,1.781328369140625,-0.7460839152336121,-0.07936213165521622,-1.0422271490097046
1772811058821209300,1.791209228515625,-0.5868270397186279,-0.21411797404289246,-1.0017471313476562
1772811058831090200,1.801090087890625,-0.4190480411052704,-0.3296990692615509,-0.9325050711631775
1772811058840971000,1.810970947265625,-0.22676797211170197,-0.4287685751914978,-0.8206523656845093
1772811058850851800,1.820851806640625,-0.016378426924347878,-0.5214464664459229,-0.6677870750427246
1772811058860732700,1.830732666015625,0.18282584846019745,-0.6114612817764282,-0.4882901608943939
1772811058870613800,1.84061376953125,0.3559311628341675,-0.6993455290794373,-0.3151848316192627
1772811058880494600,1.85049462890625,0.5311670303344727,-0.8048065900802612,-0.17084163427352905
1772811058890375400,1.86037548828125,0.7474155426025391,-0.9203876852989197,-0.04780369997024536
1772811058900256300,1.87025634765625,1.0185251235961914,-1.0375666618347168,0.10133319348096848
1772811058910137300,1.880137451171875,1.318396806716919,-1.1254509687423706,0.2840258777141571
1772811058920018200,1.89001806640625,1.6262578964233398,-1.2218573093414307,0.48482805490493774
1772811058929899000,1.89989892578125,1.9314559698104858,-1.3246551752090454,0.7607313394546509
1772811058939779800,1.90977978515625,2.2584917545318604,-1.3875057697296143,1.1005504131317139
1772811058949661000,1.919660888671875,2.5716793537139893,-1.4546173810958862,1.4685989618301392
1772811058959541800,1.929541748046875,2.8332014083862305,-1.478053092956543,1.8520938158035278
1772811058969422600,1.939422607421875,3.044123649597168,-1.4668679237365723,2.216946601867676
1772811058989184500,1.9591845703125,3.2832753658294678,-1.339036226272583,2.82574462890625
1772811058999065000,1.969065185546875,3.2800796031951904,-1.2101393938064575,3.053178310394287
1772811059008945200,1.978945068359375,3.198054313659668,-1.0471540689468384,3.2049784660339355
1772811059018825200,1.9888251953125,3.0712878704071045,-0.8819050192832947,3.2587742805480957
1772811059028705300,1.998705322265625,2.9077699184417725,-0.686961829662323,3.193793296813965
1772811059038585600,2.008585693359375,2.7245445251464844,-0.48615965247154236,3.0116331577301025
1772811059048465700,2.018465576171875,2.5258729457855225,-0.28961852192878723,2.7628941535949707
1772811059058345700,2.028345703125,2.305896043777466,-0.05313001945614815,2.4422497749328613
1772811059068225800,2.038225830078125,2.051830768585205,0.14181320369243622,2.0299928188323975
1772811059078105900,2.04810595703125,1.7759274244308472,0.3452785313129425,1.5570157766342163
1772811059087986200,2.057986083984375,1.4552831649780273,0.5860280990600586,1.0435588359832764
1772811059097866200,2.0678662109375,1.037699818611145,0.7948197722434998,0.4400869905948639
1772811059107746300,2.077746337890625,0.5780386328697205,1.0105355978012085,-0.21824586391448975
1772811059117626400,2.08762646484375,0.13009530305862427,1.2241209745407104,-0.8909597992897034
1772811059127506400,2.09750634765625,-0.2816290557384491,1.4345104694366455,-1.5322483777999878
1772811059137386500,2.107386474609375,-0.6235786080360413,1.6603463888168335,-2.1266653537750244
1772811059147266800,2.117266845703125,-0.8877639770507812,1.9010958671569824,-2.6715476512908936
1772811059157147000,2.12714697265625,-1.0688587427139282,2.156759262084961,-3.145057439804077
1772811059167027000,2.13702685546875,-1.137035608291626,2.4273362159729004,-3.531748056411743
1772811059176907000,2.146906982421875,-1.106675624847412,2.7037720680236816,-3.839076519012451
1772811059186787000,2.156787109375,-1.0198566913604736,2.965294122695923,-4.08195686340332
1772811059196667100,2.166667236328125,-0.9090692400932312,3.1708900928497314,-4.2593231201171875
1772811059206547500,2.17654736328125,-0.7684544920921326,3.30777645111084,-4.356794834136963
1772811059216427500,2.186427490234375,-0.5974797010421753,3.3439953327178955,-4.366382122039795
1772811059226307600,2.1963076171875,-0.41585224866867065,3.3088417053222656,-4.287019729614258
1772811059236187600,2.206187744140625,-0.24647535383701324,3.241197347640991,-4.125632286071777
1772811059246067700,2.216067626953125,-0.10000161081552505,3.1309425830841064,-3.879556655883789
1772811059255948000,2.225947998046875,0.04221106693148613,2.949847936630249,-3.5791523456573486
1772811059265828000,2.235828125,0.16471637785434723,2.7293384075164795,-3.24572491645813
1772811059275708200,2.245708251953125,0.2515353560447693,2.5221445560455322,-2.906038999557495
1772811059285588200,2.255588134765625,0.30905959010124207,2.335723400115967,-2.5815329551696777
1772811059295468300,2.26546826171875,0.3543332815170288,2.156226634979248,-2.282327175140381
1772811059305348600,2.2753486328125,0.383095383644104,1.9975022077560425,-2.0261311531066895
1772811059315228700,2.285228759765625,0.42410802841186523,1.8643443584442139,-1.8141437768936157
1772811059325108700,2.295108642578125,0.49441543221473694,1.7200011014938354,-1.631983757019043
1772811059334988800,2.30498876953125,0.571647047996521,1.5772558450698853,-1.4594110250473022
1772811059344868900,2.314868896484375,0.6494112610816956,1.4424999952316284,-1.275120496749878
1772811059354749200,2.324749267578125,0.7383607625961304,1.3024178743362427,-1.083905577659607
1772811059364629200,2.334629150390625,0.8432892560958862,1.141563057899475,-0.893756091594696
1772811059374509300,2.34450927734375,0.9370324015617371,0.9625987410545349,-0.6833665370941162
1772811059384389400,2.354389404296875,0.999350368976593,0.8054723739624023,-0.4335622489452362
1772811059394269400,2.36426953125,1.0510156154632568,0.6483460068702698,-0.17789900302886963
1772811059404149800,2.374149658203125,1.0984199047088623,0.46991437673568726,0.04900212213397026
1772811059414029800,2.38402978515625,1.1388999223709106,0.31917959451675415,0.24447797238826752
1772811059423910000,2.393909912109375,1.1681946516036987,0.2227732390165329,0.4203796088695526
1772811059433790000,2.4037900390625,1.2081420421600342,0.11571425199508667,0.5817670226097107
1772811059443670000,2.413669921875,1.2566114664077759,-0.00519315991550684,0.7426218390464783
1772811059453550000,2.423550048828125,1.3008198738098145,-0.09893634915351868,0.9157271385192871
1772811059463430400,2.433430419921875,1.3418325185775757,-0.1548626869916916,1.0733861923217773
1772811059473310500,2.443310546875,1.3881715536117554,-0.2071937620639801,1.188967227935791
1772811059493070600,2.463070556640625,1.4893715381622314,-0.27590325474739075,1.384975790977478
1772811059502951400,2.472951416015625,1.5671358108520508,-0.2924148440361023,1.4883062839508057
1772811059512832500,2.48283251953125,1.6417042016983032,-0.3478085398674011,1.5777884721755981
1772811059522713600,2.492713623046875,1.6827168464660645,-0.38988643884658813,1.633182168006897
1772811059532594700,2.5025947265625,1.7508937120437622,-0.4346275329589844,1.6603463888168335
1772811059542475500,2.5124755859375,1.8473000526428223,-0.4703138470649719,1.6864453554153442
1772811059552356600,2.522356689453125,1.885649561882019,-0.4942822754383087,1.68751060962677
1772811059562237700,2.53223779296875,1.92293381690979,-0.4958801567554474,1.6496937274932861
1772811059572118800,2.542118896484375,1.9575549364089966,-0.5230444073677063,1.5889737606048584
1772811059581999900,2.551999755859375,1.952761173248291,-0.5571328401565552,1.5021547079086304
1772811059591881000,2.561880859375,1.8712685108184814,-0.5800359845161438,1.3982915878295898
1772811059601761800,2.57176171875,1.7114790678024292,-0.612526535987854,1.2709925174713135
1772811059611643000,2.581642822265625,1.5058830976486206,-0.6551370620727539,1.1143988370895386
1772811059621524000,2.59152392578125,1.310939908027649,-0.6677870750427246,0.9219855666160583
1772811059631405000,2.601405029296875,1.1602051258087158,-0.6512755155563354,0.721716046333313
1772811059641286100,2.6112861328125,1.0297104120254517,-0.6044039130210876,0.5134570002555847
1772811059651167000,2.6211669921875,0.9125313758850098,-0.5239765048027039,0.29507800936698914
1772811059661048000,2.631048095703125,0.7804386615753174,-0.39348170161247253,0.060187388211488724
1772811059670929200,2.64092919921875,0.6217144131660461,-0.2757700979709625,-0.1928126960992813
1772811059680810200,2.650810302734375,0.4171838164329529,-0.18149426579475403,-0.4479433000087738
1772811059690691300,2.66069140625,0.1567268967628479,-0.09147950261831284,-0.6828339099884033
1772811059700572400,2.670572509765625,-0.18149426579475403,0.016644742339849472,-0.8820381760597229
1772811059710453500,2.68045361328125,-0.577772319316864,0.12583425641059875,-1.0205224752426147
1772811059720334300,2.690334228515625,-0.9905619025230408,0.22437113523483276,-1.1078740358352661
1772811059730215400,2.70021533203125,-1.3474252223968506,0.33302801847457886,-1.1813772916793823
1772811059740096500,2.710096435546875,-1.6158716678619385,0.4544680416584015,-1.2815120220184326
1772811059749977600,2.7199775390625,-1.8012274503707886,0.5876259803771973,-1.406147837638855
1772811059759858700,2.729858642578125,-1.9066885709762573,0.710663914680481,-1.53504478931427
1772811059769739800,2.73973974609375,-1.945038080215454,0.7926892042160034,-1.666072130203247
1772811059779620600,2.74962060546875,-1.9530274868011475,0.819320797920227,-1.7885774374008179
1772811059789501700,2.759501708984375,-1.9391790628433228,0.7980155348777771,-1.8716679811477661
1772811059799382800,2.7693828125,-1.9221348762512207,0.7319691777229309,-1.9073543548583984
1772811059809263900,2.779263916015625,-1.9088190793991089,0.596680760383606,-1.8865816593170166
1772811059819145000,2.78914501953125,-1.90349280834198,0.3836280405521393,-1.8109480142593384
1772811059829025800,2.79902587890625,-1.9066885709762573,0.12423636019229889,-1.6671373844146729
1772811059838907000,2.808906982421875,-1.9050906896591187,-0.16764584183692932,-1.460476279258728
1772811059848788000,2.8187880859375,-1.900829553604126,-0.4882901608943939,-1.208008885383606
1772811059858669000,2.8286689453125,-1.8917748928070068,-0.8153260946273804,-0.9321056008338928
1772811059868550100,2.838550048828125,-1.8773938417434692,-1.1215893030166626,-0.6476802229881287
1772811059878431200,2.84843115234375,-1.8544906377792358,-1.4086778163909912,-0.3664506673812866
1772811059888312000,2.85831201171875,-1.8310548067092896,-1.6504926681518555,-0.10226529836654663
1772811059898193200,2.868193115234375,-1.8150758743286133,-1.8220001459121704,0.14700636267662048
1772811059908074200,2.87807421875,-1.8017600774765015,-1.913080096244812,0.3771032989025116
1772811059917955300,2.887955322265625,-1.7985643148422241,-1.932787537574768,0.5970802307128906
1772811059927836400,2.89783642578125,-1.8134779930114746,-1.8923075199127197,0.814393937587738
1772811059937717200,2.90771728515625,-1.8502296209335327,-1.7932380437850952,1.0088045597076416
1772811059947598300,2.917598388671875,-1.9152106046676636,-1.6632758378982544,1.1733877658843994
1772811059957479400,2.9274794921875,-2.0121495723724365,-1.5008231401443481,1.3076109886169434
1772811059967360500,2.937360595703125,-2.1218717098236084,-1.308543086051941,1.4146699905395508
1772811059977241600,2.94724169921875,-2.232659101486206,-1.107740879058838,1.4929667711257935
1772811059987122700,2.957122802734375,-2.3407833576202393,-0.9271787405014038,1.5382405519485474
1772811059997003500,2.96700341796875,-2.436124563217163,-0.7950860857963562,1.5510237216949463
1772811060006884400,2.97688427734375,-2.5181498527526855,-0.699212372303009,1.5366426706314087
1772811060016765000,2.986764892578125,-2.5820655822753906,-0.6257091760635376,1.5009562969207764
1772811060026645800,2.996645751953125,-2.655036211013794,-0.5516733527183533,1.4295836687088013
1772811060036526300,3.0065263671875,-2.7077667713165283,-0.5138564705848694,1.3528846502304077
1772811060046407000,3.016406982421875,-2.733865737915039,-0.5032038688659668,1.279381513595581
1772811060056287700,3.026287841796875,-2.7365288734436035,-0.4930838644504547,1.212269902229309
1772811060066168300,3.036168212890625,-2.7162888050079346,-0.47231122851371765,1.1685941219329834
1772811060076049200,3.046049072265625,-2.665156126022339,-0.42916804552078247,1.1616698503494263
1772811060085929700,3.0559296875,-2.57088041305542,-0.39241644740104675,1.1968235969543457
1772811060095810600,3.065810546875,-2.456364631652832,-0.34501221776008606,1.2580761909484863
1772811060105691100,3.075691162109375,-2.3290655612945557,-0.29281431436538696,1.3070783615112305
1772811060115572000,3.085572021484375,-2.1996359825134277,-0.2544648349285126,1.3065457344055176
1772811060125452500,3.09545263671875,-2.0680758953094482,-0.21185427904129028,1.2660657167434692
1772811060135333400,3.10533349609375,-1.921069622039795,-0.17723321914672852,1.2069436311721802
1772811060145214000,3.1152138671875,-1.744235873222351,-0.1495363712310791,1.1361035108566284
1772811060155094500,3.125094482421875,-1.5381073951721191,-0.11278477311134338,1.053545594215393
1772811060164975400,3.134975341796875,-1.315999984741211,-0.08242476731538773,0.9576718807220459
1772811060174856000,3.14485595703125,-1.0757830142974854,-0.042477384209632874,0.8591350317001343
1772811060184736800,3.15473681640625,-0.8286418914794922,0.0011984214652329683,0.7531412839889526
1772811060194617300,3.164617431640625,-0.5873596668243408,0.04114580526947975,0.6364949345588684
1772811060204498200,3.174498291015625,-0.36525222659111023,0.06511422991752625,0.511859118938446
1772811060214378800,3.184378662109375,-0.16658058762550354,0.06831002235412598,0.3856253921985626
1772811060224259600,3.194259521484375,0.018775269389152527,0.05925528332591057,0.2577937841415405
1772811060234140200,3.20414013671875,0.1945437490940094,0.02569948323071003,0.13795162737369537
1772811060244021000,3.21402099609375,0.3644532859325409,-0.021172111853957176,0.03195790573954582
1772811060253901600,3.223901611328125,0.5231775641441345,-0.07496792078018188,-0.05805686116218567
1772811060263782400,3.233782470703125,0.672314465045929,-0.12929636240005493,-0.1363537311553955
1772811060273663000,3.2436630859375,0.8118639588356018,-0.17883111536502838,-0.1981390118598938
1772811060283543800,3.253543701171875,0.9482176899909973,-0.21398481726646423,-0.2407495528459549
1772811060293424400,3.26342431640625,1.092560887336731,-0.23262691497802734,-0.26098957657814026
1772811060303305200,3.27330517578125,1.2347736358642578,-0.2443448156118393,-0.2556632459163666
1772811060313185800,3.283185791015625,1.378051519393921,-0.2480732500553131,-0.2258358597755432
1772811060323066600,3.293066650390625,1.5170683860778809,-0.24274691939353943,-0.15872426331043243
1772811060332947200,3.302947265625,1.6363779306411743,-0.2390184998512268,-0.06817686557769775
1772811060342828000,3.312828125,1.7152074575424194,-0.2304963916540146,0.034621063619852066
1772811060352708600,3.32270849609375,1.77646005153656,-0.22144165635108948,0.1315600425004959
1772811060362589200,3.332589111328125,1.8877800703048706,-0.2209090292453766,0.21837902069091797
1772811060372470000,3.342469970703125,2.0459718704223633,-0.22410480678081512,0.314785361289978
1772811060382350600,3.3523505859375,2.2334580421447754,-0.2432795614004135,0.4330296218395233
1772811060392231400,3.3622314453125,2.3953781127929688,-0.28003114461898804,0.5784381031990051
1772811060402112000,3.372112060546875,2.562091827392578,-0.36844801902770996,0.7376949787139893
1772811060411992800,3.381992919921875,2.7288057804107666,-0.48669227957725525,0.9166592359542847
1772811060421873400,3.391873291015625,2.891258478164673,-0.5815007090568542,1.1254509687423706
1772811060431754200,3.401754150390625,3.019622564315796,-0.6358291506767273,1.3614068031311035
1772811060441634800,3.411634765625,3.137866973876953,-0.6310355067253113,1.6112110614776611
1772811060451515600,3.421515625,3.197521686553955,-0.6065344214439392,1.8775269985198975
1772811060461396200,3.431396240234375,3.1746184825897217,-0.5239765048027039,2.1337227821350098
1772811060471277000,3.441277099609375,3.0515804290771484,-0.3769701421260834,2.3244049549102783
1772811060481157600,3.45115771484375,2.8566372394561768,-0.216115340590477,2.410691261291504
1772811060491038500,3.46103857421875,2.6387908458709717,-0.05632580816745758,2.39524507522583
1772811060500919000,3.4709189453125,2.439586639404297,0.1386174112558365,2.2604892253875732
1772811060510799600,3.480799560546875,2.2787318229675293,0.30959221720695496,2.023468017578125
1772811060520680200,3.49068017578125,2.1540958881378174,0.4779038429260254,1.7363795042037964
1772811060530560800,3.500560791015625,2.048102378845215,0.647280752658844,1.410408854484558
1772811060540441300,3.51044140625,1.9192054271697998,0.8033418655395508,1.061535120010376
1772811060550321700,3.52032177734375,1.7413064241409302,0.9428913593292236,0.7057371139526367
1772811060560202200,3.5302021484375,1.5191988945007324,1.0435588359832764,0.3547327518463135
1772811060570082800,3.540082763671875,1.2720577716827393,1.1010830402374268,0.029827378690242767
1772811060579963400,3.54996337890625,1.0195903778076172,1.1378345489501953,-0.26525062322616577
1772811060589844000,3.559843994140625,0.760198712348938,1.1506177186965942,-0.5400885939598083
1772811060599724500,3.569724609375,0.4965459704399109,1.129845142364502,-0.7978823781013489
1772811060609605000,3.579605224609375,0.23129534721374512,1.0771145820617676,-1.037034034729004
1772811060619485700,3.589485595703125,-0.020639481022953987,1.0211882591247559,-1.2506194114685059
1772811060629366300,3.5993662109375,-0.23688797652721405,0.9886977076530457,-1.4466278553009033
1772811060639246800,3.609246826171875,-0.40147119760513306,0.9801756143569946,-1.641571044921875
1772811060649127400,3.61912744140625,-0.5138564705848694,1.0057419538497925,-1.8370469808578491
1772811060659008000,3.629008056640625,-0.5745764970779419,1.0616682767868042,-2.042642831802368
1772811060668888600,3.638888671875,-0.5980123281478882,1.1399651765823364,-2.2450428009033203
1772811060678769200,3.64876904296875,-0.6107954978942871,1.2374367713928223,-2.450638771057129
1772811060688649700,3.658649658203125,-0.6134586334228516,1.364735722541809,-2.6413209438323975
1772811060698530300,3.6685302734375,-0.5996102094650269,1.5122747421264648,-2.797382116317749
1772811060708411000,3.678410888671875,-0.5783049464225769,1.6603463888168335,-2.907104253768921
1772811060718291500,3.68829150390625,-0.556999683380127,1.7998958826065063,-2.95504093170166
1772811060728172000,3.698172119140625,-0.5522059798240662,1.9245316982269287,-2.9529104232788086
1772811060738052600,3.708052490234375,-0.5591301918029785,2.0305254459381104,-2.9097673892974854
1772811060747933200,3.71793310546875,-0.5873596668243408,2.122138023376465,-2.8341336250305176
1772811060757813800,3.727813720703125,-0.628372311592102,2.211620330810547,-2.7249441146850586
1772811060767694300,3.7376943359375,-0.6379597187042236,2.3112223148345947,-2.5806009769439697
1772811060777575000,3.747574951171875,-0.6155891418457031,2.404433012008667,-2.4090933799743652
1772811060787455500,3.75745556640625,-0.5751091241836548,2.4710118770599365,-2.226400852203369
1772811060797336000,3.767336181640625,-0.5314333438873291,2.517883539199829,-2.043175458908081
1772811060807216400,3.77721630859375,-0.4978775382041931,2.5413193702697754,-1.8508954048156738
1772811060817097000,3.787096923828125,-0.4557996392250061,2.5290687084198,-1.6463648080825806
1772811060826977500,3.7969775390625,-0.41105857491493225,2.484327793121338,-1.442899465560913
1772811060836858000,3.806858154296875,-0.3727090656757355,2.428401470184326,-1.2383688688278198
1772811060846738700,3.81673876953125,-0.32583749294281006,2.3575613498687744,-1.0508824586868286
1772811060856619300,3.826619384765625,-0.2826943099498749,2.2622201442718506,-0.8953539729118347
1772811060866499800,3.836499755859375,-0.2480732500553131,2.150367498397827,-0.7637939453125
1772811060876380400,3.84638037109375,-0.2012016475200653,2.0385148525238037,-0.6317012906074524
1772811060886261000,3.856260986328125,-0.13462267816066742,1.9170749187469482,-0.4814991056919098
1772811060896141600,3.8661416015625,-0.04034685716032982,1.7785905599594116,-0.3009369373321533
1772811060906022100,3.876022216796875,0.07470160722732544,1.6246600151062012,-0.08362318575382233
1772811060925783300,3.895783203125,0.37031224370002747,1.273123025894165,0.41758328676223755
1772811060935663900,3.905663818359375,0.5301017761230469,1.066994547843933,0.6791055202484131
1772811060945544400,3.91554443359375,0.6824344396591187,0.8289082050323486,0.9411603212356567
1772811060955425000,3.925425048828125,0.8283755779266357,0.5732449293136597,1.1914972066879272
1772811060965305600,3.9353056640625,0.9711208343505859,0.33249539136886597,1.4274531602859497
1772811060975186200,3.945186279296875,1.121855616569519,0.11784477531909943,1.6341142654418945
1772811060985066800,3.955066650390625,1.2752536535263062,-0.09467529505491257,1.8242638111114502
1772811060994947300,3.964947265625,1.4339778423309326,-0.28802061080932617,1.9909775257110596
1772811061004828400,3.974828369140625,1.588441014289856,-0.4573975205421448,2.1289291381835938
1772811061014709500,3.98470947265625,1.7455674409866333,-0.599077582359314,2.227998733520508
1772811061024590600,3.994590576171875,1.8899106979370117,-0.7183870673179626,2.2844576835632324
1772811061034472000,4.004471923828125,2.021470785140991,-0.800944983959198,2.2993712425231934
1772811061044353000,4.01435302734375,2.1434433460235596,-0.8744481801986694,2.266348123550415
1772811061054234000,4.024234130859375,2.239849805831909,-0.9309071898460388,2.1512997150421143
1772811061064115200,4.034115234375,2.3165485858917236,-0.9697892665863037,1.9675416946411133
1772811061073996500,4.04399658203125,2.3511698246002197,-1.0038777589797974,1.7241289615631104
1772811061083877600,4.053877685546875,2.3229403495788574,-1.0294439792633057,1.4365078210830688
1772811061093758700,4.0637587890625,2.240382432937622,-1.048086166381836,1.120657205581665
1772811061103639800,4.073639892578125,2.157291889190674,-1.052347183227539,0.8000128865242004
1772811061113521200,4.083521240234375,2.072603464126587,-1.035302996635437,0.49215173721313477
1772811061123402200,4.09340234375,1.9580875635147095,-1.015595555305481,0.20186743140220642
1772811061133283300,4.103283447265625,1.802026391029358,-1.0145303010940552,-0.0846884474158287
1772811061143164700,4.11316455078125,1.6177358627319336,-1.0326398611068726,-0.3499390780925751
1772811061153045800,4.123045654296875,1.4179989099502563,-1.0534124374389648,-0.5709812641143799
1772811061162926800,4.1329267578125,1.2161314487457275,-1.0619345903396606,-0.7281076312065125
1772811061172808000,4.142807861328125,1.0089377164840698,-1.0811092853546143,-0.8426234722137451
1772811061182689300,4.152689208984375,0.7894934415817261,-1.106675624847412,-0.9321056008338928
1772811061192570400,4.1625703125,0.5546028017997742,-1.1412967443466187,-1.0077393054962158
1772811061202451500,4.172451416015625,0.3117227256298065,-1.1855051517486572,-1.0652635097503662
1772811061212332500,4.18233251953125,0.0672447606921196,-1.2195935249328613,-1.0892319679260254
1772811061222214000,4.1922138671875,-0.15539531409740448,-1.2377030849456787,-1.0828403234481812
1772811061232095000,4.202094970703125,-0.3530017137527466,-1.22864830493927,-1.032240390777588
1772811061241976000,4.21197607421875,-0.5245091319084167,-1.2004188299179077,-0.936366617679596
1772811061261738500,4.231738525390625,-0.8403597474098206,-1.1343724727630615,-0.608798086643219
1772811061271619600,4.24161962890625,-1.0081387758255005,-1.1109366416931152,-0.3962780237197876
1772811061281500700,4.251500732421875,-1.1902987957000732,-1.0837724208831787,-0.17630110681056976
1772811061291382000,4.261382080078125,-1.3825788497924805,-1.0614019632339478,0.026631588116288185
1772811061301263000,4.27126318359375,-1.5599452257156372,-1.0661956071853638,0.1885516494512558
1772811061311144200,4.281144287109375,-1.7170716524124146,-1.08217453956604,0.2966758906841278
1772811061321025300,4.291025390625,-1.8555558919906616,-1.0715219974517822,0.36485275626182556
1772811061330906600,4.30090673828125,-1.9572886228561401,-1.084837794303894,0.39734330773353577
1772811061340787700,4.31078759765625,-2.024932861328125,-1.1221219301223755,0.4111917316913605
1772811061350668800,4.320668701171875,-2.060086488723755,-1.162069320678711,0.43143174052238464
1772811061360550000,4.3305498046875,-2.0680758953094482,-1.2179956436157227,0.46338963508605957
1772811061370431200,4.34043115234375,-2.0771307945251465,-1.3042820692062378,0.5006738305091858
1772811061380312300,4.350312255859375,-2.089913845062256,-1.4267873764038086,0.5464801788330078
1772811061390193400,4.360193359375,-2.1021645069122314,-1.5551515817642212,0.5848296880722046
1772811061400074500,4.370074462890625,-2.1117517948150635,-1.6936358213424683,0.6221138834953308
1772811061409955800,4.379955810546875,-2.1005666255950928,-1.8220001459121704,0.6578001976013184
1772811061419837000,4.3898369140625,-2.0670106410980225,-1.9359833002090454,0.6998781561851501
1772811061429718000,4.399718017578125,-2.010019063949585,-2.0185413360595703,0.7403581738471985
1772811061439599400,4.409599365234375,-1.9423748254776,-2.065412759780884,0.7643265724182129
1772811061449480400,4.41948046875,-1.8726000785827637,-2.0616843700408936,0.7637939453125
1772811061459361500,4.429361572265625,-1.8060210943222046,-2.024400234222412,0.751543402671814
1772811061469242600,4.43924267578125,-1.7511600255966187,-1.9322549104690552,0.7243791818618774
1772811061479124000,4.4491240234375,-1.7112126350402832,-1.7884442806243896,0.6716486811637878
1772811061489005000,4.459005126953125,-1.690440058708191,-1.635578989982605,0.5880254507064819
1772811061498886100,4.46888623046875,-1.6888421773910522,-1.4704631567001343,0.48309701681137085
1772811061508767500,4.478767578125,-1.7048211097717285,-1.2701935768127441,0.3637875020503998
1772811061518648800,4.48864892578125,-1.7261264324188232,-1.048086166381836,0.2450106143951416
1772811061528530200,4.4985302734375,-1.7389096021652222,-0.8211849927902222,0.15233267843723297
1772811061538411500,4.50841162109375,-1.7426379919052124,-0.611328125,0.1086568832397461
1772811061548292900,4.51829296875,-1.7378442287445068,-0.4281027913093567,0.11504846066236496
1772811061558174200,4.52817431640625,-1.7176042795181274,-0.2635195553302765,0.15659373998641968
1772811061568055600,4.5380556640625,-1.677656888961792,-0.12343741208314896,0.207726389169693
1772811061577937000,4.54793701171875,-1.6371768712997437,-0.03235737979412079,0.24873903393745422
1772811061587818200,4.557818359375,-1.6121431589126587,0.015579478815197945,0.2775011360645294
1772811061597699600,4.567699462890625,-1.581250548362732,0.035286854952573776,0.3067958950996399
1772811061607580700,4.57758056640625,-1.5199978351593018,0.03475422412157059,0.35206958651542664
1772811061627343400,4.59734326171875,-1.374589443206787,-0.054727911949157715,0.541686475276947
1772811061637224700,4.607224609375,-1.2936294078826904,-0.15646058320999146,0.6727139353752136
1772811061647106000,4.61710595703125,-1.1977556943893433,-0.26511746644973755,0.8005455136299133
1772811061656987400,4.6269873046875,-1.094957709312439,-0.370045930147171,0.8910929560661316
1772811061666868700,4.63686865234375,-0.9953556060791016,-0.43928804993629456,0.9166592359542847
1772811061676750000,4.64675,-0.9080039858818054,-0.523443877696991,0.8692550659179688
1772811061686631400,4.65663134765625,-0.8499471545219421,-0.5937512516975403,0.7621960639953613
1772811061696512800,4.6665126953125,-0.8121302723884583,-0.6550039052963257,0.5890907049179077
1772811061706394000,4.67639404296875,-0.7956187129020691,-0.6949512958526611,0.3760380148887634
1772811061716275500,4.686275390625,-0.787629246711731,-0.6981470584869385,0.13954952359199524
1772811061726156800,4.69615673828125,-0.7812376618385315,-0.674711287021637,-0.08894950151443481
1772811061736038100,4.7060380859375,-0.779639720916748,-0.6193175911903381,-0.2977411448955536
1772811061745919200,4.715919189453125,-0.7860313057899475,-0.5538038611412048,-0.47350963950157166
1772811061755800600,4.725800537109375,-0.787629246711731,-0.4510059356689453,-0.6034718155860901
1772811061765682000,4.735681884765625,-0.7791070938110352,-0.3295659124851227,-0.7046718001365662
1772811061775563300,4.745563232421875,-0.7567365765571594,-0.1964079588651657,-0.7787076234817505
1772811061785444600,4.755444580078125,-0.7183870673179626,-0.04780369997024536,-0.8159918785095215
1772811061795326000,4.765325927734375,-0.6640586256980896,0.11358372122049332,-0.8138613104820251
1772811061805207300,4.775207275390625,-0.6033385992050171,0.26218798756599426,-0.7707181572914124
1772811061815088600,4.785088623046875,-0.552738606929779,0.374573290348053,-0.7009434103965759
1772811061824970000,4.794969970703125,-0.528237521648407,0.4587291181087494,-0.666854977607727
1772811061834851300,4.804851318359375,-0.5154544115066528,0.5412870049476624,-0.7206507921218872
1772811061844732700,4.814732666015625,-0.45793014764785767,0.6110618114471436,-0.8378297686576843
1772811061854614000,4.824614013671875,-0.3295659124851227,0.6637923121452332,-0.9598024487495422
1772811061864495400,4.834495361328125,-0.1442100554704666,0.701609194278717,-1.0636656284332275
1772811061874376700,4.844376708984375,0.0720384493470192,0.7181207537651062,-1.15314781665802
1772811061884258000,4.854258056640625,0.3277016878128052,0.7074681520462036,-1.2042803764343262
1772811061894139100,4.86413916015625,0.6083986163139343,0.6850975751876831,-1.1888340711593628
1772811061904020500,4.8740205078125,0.9056071639060974,0.6318344473838806,-1.1009498834609985
1772811061913901800,4.88390185546875,1.2145335674285889,0.5460807085037231,-0.9353013634681702
1772811061923783200,4.893783203125,1.5618095397949219,0.46032699942588806,-0.6870949864387512
1772811061933664500,4.90366455078125,1.927727460861206,0.3772364556789398,-0.36432012915611267
1772811061943545900,4.9135458984375,2.2622201442718506,0.2941458821296692,0.001597895286977291
1772811061953427200,4.92342724609375,2.5370583534240723,0.23449113965034485,0.3952127695083618
1772811061963308500,4.93330859375,2.7431867122650146,0.16951005160808563,0.7893602848052979
1772811061973190000,4.94318994140625,2.8672900199890137,0.1050616130232811,1.1558109521865845
1772811061983071200,4.9530712890625,2.92960786819458,0.048070017248392105,1.4620741605758667
1772811061992952600,4.96295263671875,2.945586919784546,-0.013715268112719059,1.6831163167953491
1772811062002833200,4.972833251953125,2.919487953186035,-0.04780369997024536,1.829590082168579
1772811062012713700,4.982713623046875,2.846517324447632,-0.05153212323784828,1.8951038122177124
1772811062022594000,4.992593994140625,2.7389256954193115,-0.04514054208993912,1.8684722185134888
1772811062032474600,5.002474609375,2.551971912384033,-0.058456335216760635,1.7624784708023071
1772811062042355200,5.012355224609375,2.304298162460327,-0.10426266491413116,1.6154720783233643
1772811062052235500,5.022235595703125,2.1578245162963867,-0.14367741346359253,1.4397037029266357
1772811062062116000,5.0321162109375,2.07686448097229,-0.1356879472732544,1.2213246822357178
1772811062071996700,5.04199658203125,1.990578055381775,-0.09520792961120605,0.9384971857070923
1772811062081877200,5.051877197265625,1.8904433250427246,-0.046205803751945496,0.5906886458396912
1772811062091757600,5.061757568359375,1.7461000680923462,-0.016378426924347878,0.20985691249370575
1772811062101638100,5.07163818359375,1.5628747940063477,0.003861580276861787,-0.1693768948316574
1772811062111518700,5.081518798828125,1.3636704683303833,0.05552686005830765,-0.541686475276947
1772811062121399300,5.0913994140625,1.1655313968658447,0.14554162323474884,-0.9070718884468079
1772811062131279600,5.101279541015625,0.9812408685684204,0.27177536487579346,-1.272457242012024
1772811062141160200,5.11116015625,0.8283755779266357,0.4294343590736389,-1.6452995538711548
1772811062151040800,5.121040771484375,0.7186533808708191,0.6328997015953064,-2.0154786109924316
1772811062160921000,5.130921142578125,0.6504765152931213,0.9157271385192871,-2.354764938354492
1772811062170801700,5.1408017578125,0.6297038793563843,1.2321103811264038,-2.654103994369507
1772811062180682200,5.15068212890625,0.6419544219970703,1.5639400482177734,-2.895918846130371
1772811062190562800,5.160562744140625,0.6957502365112305,1.9745991230010986,-3.010967254638672
1772811062200443100,5.170443115234375,0.7745797634124756,2.344245433807373,-2.9822051525115967
1772811062210323700,5.18032373046875,0.7846997380256653,2.5711467266082764,-2.9529104232788086
1772811062220204300,5.190204345703125,0.7793734073638916,2.8284077644348145,-2.84744930267334
1772811062230084600,5.200084716796875,0.7415565848350525,3.0164268016815186,-2.672213554382324
1772811062239965200,5.209965087890625,0.6691186428070068,3.112833261489868,-2.4767377376556396
1772811062249845800,5.219845703125,0.5902891755104065,3.1751511096954346,-2.2391839027404785
1772811062259726300,5.229726318359375,0.4997417628765106,3.1959238052368164,-1.968606948852539
1772811062269606700,5.239606689453125,0.41345539689064026,3.1655638217926025,-1.6857795715332031
1772811062279487200,5.2494873046875,0.34687644243240356,3.0718204975128174,-1.393897294998169
1772811062289367800,5.259367919921875,0.3021353781223297,2.919487953186035,-1.0934929847717285
1772811062299248000,5.269248046875,0.2664490342140198,2.7234792709350586,-0.8037413358688354
1772811062309128700,5.279128662109375,0.23395849764347076,2.49391508102417,-0.5262401700019836
1772811062319009300,5.28900927734375,0.21052271127700806,2.229729652404785,-0.26258745789527893
1772811062328889900,5.298889892578125,0.19614164531230927,1.947967529296875,-0.02077263966202736
1772811062338770200,5.308770263671875,0.1759016364812851,1.6667379140853882,0.18482321500778198
1772811062348650800,5.318650634765625,0.1476721614599228,1.3908346891403198,0.35100433230400085
1772811062358531300,5.32853125,0.12689951062202454,1.134638786315918,0.47830331325531006
1772811062368411600,5.33841162109375,0.12476898729801178,0.9205208420753479,0.5747096538543701
1772811062378292200,5.348292236328125,0.15779216587543488,0.7612639665603638,0.6439517736434937
1772811062388172800,5.3581728515625,0.2131858617067337,0.6414217948913574,0.6934865713119507
1772811062398053000,5.36805322265625,0.29041746258735657,0.5620596408843994,0.738760232925415
1772811062407933700,5.37793359375,0.4006722569465637,0.5386238694190979,0.7920234203338623
1772811062417814300,5.387814208984375,0.5524722933769226,0.5359607338905334,0.8500803112983704
1772811062427694800,5.39769482421875,0.7239797115325928,0.53436279296875,0.9299750328063965
1772811062437575200,5.4075751953125,0.9135966300964355,0.5455480813980103,1.019457221031189
1772811062447455700,5.417455810546875,1.099485158920288,0.5498091578483582,1.1014825105667114
1772811062457336300,5.42733642578125,1.2576767206192017,0.5253080725669861,1.1792466640472412
1772811062467217000,5.437216796875,1.3743231296539307,0.4810996353626251,1.2570109367370605
1772811062477097200,5.44709716796875,1.4664684534072876,0.42251014709472656,1.3411667346954346
1772811062486977800,5.456977783203125,1.565537929534912,0.3159838020801544,1.4381057024002075
1772811062496858400,5.4668583984375,1.6816515922546387,0.17377111315727234,1.5595457553863525
1772811062506739200,5.4767392578125,1.8030916452407837,0.024101587012410164,1.6852469444274902
1772811062516620300,5.486620361328125,1.9266622066497803,-0.14154689013957977,1.8194700479507446
1772811062526501000,5.496501220703125,2.0385148525238037,-0.3247722089290619,1.9579544067382812
1772811062536382000,5.5063818359375,2.1242685317993164,-0.5293028354644775,2.0991017818450928
1772811062546263000,5.516262939453125,2.1695423126220703,-0.7343660593032837,2.242379665374756
1772811062556143900,5.526143798828125,2.1796622276306152,-0.9335703253746033,2.3696787357330322
1772811062566024700,5.536024658203125,2.1487696170806885,-1.1098713874816895,2.46555233001709
1772811062575905800,5.54590576171875,2.0800602436065674,-1.215865135192871,2.5214786529541016
1772811062585786600,5.55578662109375,2.0086874961853027,-1.3026841878890991,2.509760856628418
1772811062595667500,5.56566748046875,1.935716986656189,-1.3916336297988892,2.3782007694244385
1772811062605548300,5.57554833984375,1.8073527812957764,-1.4070799350738525,2.147571325302124
1772811062615429400,5.585429443359375,1.625725269317627,-1.3831114768981934,1.8327858448028564
1772811062625310200,5.595310302734375,1.4179989099502563,-1.3442294597625732,1.4540847539901733
1772811062635191000,5.60519091796875,1.1910977363586426,-1.266465187072754,1.0269140005111694
1772811062645072100,5.615072021484375,0.9391629695892334,-1.1535472869873047,0.5619264841079712
1772811062654953000,5.624952880859375,0.6408891677856445,-1.0187914371490479,0.06657896935939789
1772811062664834000,5.634833984375,0.2888195812702179,-0.8808397650718689,-0.438355952501297
1772811062674715000,5.64471484375,-0.10319740325212479,-0.7370291948318481,-0.9422255754470825
1772811062684595700,5.654595703125,-0.5122585892677307,-0.5889575481414795,-1.430648922920227
1772811062694476500,5.6644765625,-0.9080039858818054,-0.4312985837459564,-1.8982995748519897
1772811062704357600,5.674357666015625,-1.2595409154891968,-0.23582270741462708,-2.3334598541259766
1772811062714238500,5.684238525390625,-1.525856852531433,-0.006258423440158367,-2.7446515560150146
1772811062724119300,5.694119384765625,-1.6888421773910522,0.24407850205898285,-3.096188545227051
1772811062734000400,5.70400048828125,-1.749029517173767,0.49814385175704956,-3.367830514907837
1772811062743881200,5.713881103515625,-1.7463663816452026,0.7431544661521912,-3.5649044513702393
1772811062753762000,5.723761962890625,-1.739974856376648,0.9615334868431091,-3.694333791732788
1772811062763643100,5.73364306640625,-1.752225399017334,1.1319756507873535,-3.755586624145508
1772811062773524000,5.74352392578125,-1.7895095348358154,1.264068365097046,-3.750792980194092
1772811062783404800,5.75340478515625,-1.846501111984253,1.322657823562622,-3.703921318054199
1772811062793286000,5.763285888671875,-1.9615496397018433,1.3317126035690308,-3.6384074687957764
1772811062803166700,5.773166748046875,-2.1309266090393066,1.3125377893447876,-3.5483927726745605
1772811062813047600,5.783047607421875,-2.2901833057403564,1.2832430601119995,-3.4248223304748535
1772811062822928600,5.7929287109375,-2.3935139179229736,1.273123025894165,-3.253314733505249
1772811062842690300,5.812690185546875,-2.4249391555786133,1.285373568534851,-2.7558367252349854
1772811062852571400,5.8225712890625,-2.4148192405700684,1.2576767206192017,-2.4660849571228027
1772811062862452200,5.8324521484375,-2.4089603424072266,1.2108051776885986,-2.1560933589935303
1772811062872333000,5.8423330078125,-2.4094929695129395,1.1452914476394653,-1.8306553363800049
1772811062882214100,5.852214111328125,-2.4132213592529297,1.0558092594146729,-1.5094784498214722
1772811062892095000,5.862094970703125,-2.4190802574157715,0.9396955966949463,-1.200551986694336
1772811062901975800,5.871975830078125,-2.4329288005828857,0.8171902894973755,-0.906539261341095
1772811062911857000,5.88185693359375,-2.46701717376709,0.6962828636169434,-0.6285054683685303
1772811062921737700,5.89173779296875,-2.506431818008423,0.5727123022079468,-0.3547327518463135
1772811062931618600,5.90161865234375,-2.5240087509155273,0.4358259439468384,-0.07456845045089722
1772811062941499600,5.911499755859375,-2.486724615097046,0.27177536487579346,0.22849902510643005
1772811062951380500,5.92138037109375,-2.391916036605835,0.08535423874855042,0.5640570521354675
1772811062961261300,5.93126123046875,-2.253964424133301,-0.09254477173089981,0.9262466430664062
1772811062971142100,5.94114208984375,-2.0904464721679688,-0.2619216740131378,1.2953604459762573
1772811062981023200,5.951023193359375,-1.9024275541305542,-0.43875542283058167,1.6330490112304688
1772811062990904000,5.960904052734375,-1.71440851688385,-0.5889575481414795,1.9116153717041016
1772811063000785000,5.970784912109375,-1.5295852422714233,-0.7210502624511719,2.1161460876464844
1772811063010665500,5.98066552734375,-1.3586105108261108,-0.8307723999023438,2.2636849880218506
1772811063020546000,5.990546142578125,-1.1892335414886475,-0.9410271644592285,2.379798650741577
1772811063030427000,6.000427001953125,-1.0139976739883423,-1.0289113521575928,2.4772703647613525
1772811063040307500,6.010307373046875,-0.8499471545219421,-1.082707166671753,2.5406534671783447
1772811063050188000,6.02018798828125,-0.7125281691551208,-1.1226545572280884,2.5560998916625977
1772811063060068600,6.030068603515625,-0.6123933792114258,-1.1487535238265991,2.524674654006958
1772811063069949400,6.039949462890625,-0.5431512594223022,-1.161536693572998,2.4660849571228027
1772811063079830000,6.049830078125,-0.49574699997901917,-1.1583409309387207,2.4240071773529053
1772811063089710600,6.059710693359375,-0.4510059356689453,-1.1610040664672852,2.4229419231414795
1772811063109472000,6.079471923828125,-0.3535343408584595,-1.1956251859664917,2.43039870262146
1772811063119352600,6.0893525390625,-0.3386206328868866,-1.2057451009750366,2.371276617050171
1772811063129233200,6.099233154296875,-0.34128379821777344,-1.2211915254592896,2.242379665374756
1772811063148994600,6.11899462890625,-0.38282907009124756,-1.107208251953125,1.7369121313095093
1772811063158875100,6.128875244140625,-0.43076592683792114,-1.0166609287261963,1.3853752613067627
1772811063168755700,6.138755615234375,-0.47923544049263,-0.9218524098396301,1.0104024410247803
1772811063178636500,6.148636474609375,-0.5149217844009399,-0.7785744667053223,0.6396907567977905
1772811063188517000,6.15851708984375,-0.5458143949508667,-0.607599675655365,0.2865558862686157
1772811063198397700,6.168397705078125,-0.5756417512893677,-0.42650488018989563,-0.026098955422639847
1772811063208278300,6.1782783203125,-0.6155891418457031,-0.2443448156118393,-0.29507800936698914
1772811063218159000,6.1881591796875,-0.6651239395141602,-0.08562055230140686,-0.5193159580230713
1772811063228039700,6.198039794921875,-0.7098649740219116,0.03475422412157059,-0.6940191984176636
1772811063237920300,6.207920166015625,-0.7338334321975708,0.13116057217121124,-0.809600293636322
1772811063247800800,6.21780078125,-0.7295723557472229,0.2233058661222458,-0.8681897521018982
1772811063257681700,6.227681640625,-0.7045386433601379,0.30905959010124207,-0.8777771592140198
1772811063267562200,6.237562255859375,-0.6592649817466736,0.38043224811553955,-0.8452866077423096
1772811063277442800,6.24744287109375,-0.5942838788032532,0.4496743679046631,-0.767522394657135
1772811063287323600,6.25732373046875,-0.5138564705848694,0.5103943943977356,-0.6418212652206421
1772811063297204200,6.267204345703125,-0.414254367351532,0.5562007427215576,-0.48362964391708374
1772811063307084800,6.277084716796875,-0.2922816872596741,0.5647228360176086,-0.2972085177898407
1772811063316965400,6.28696533203125,-0.1735047996044159,0.5306344032287598,-0.10652635246515274
1772811063326846200,6.29684619140625,-0.08881634473800659,0.4592617452144623,0.027696851640939713
1772811063336726800,6.306726806640625,-0.026498429477214813,0.3500722348690033,0.04048001393675804
1772811063346607400,6.316607421875,0.03315632790327072,0.20626164972782135,-0.054861072450876236
1772811063356488000,6.326488037109375,0.14128057658672333,0.07416897267103195,-0.16671374440193176
1772811063366368800,6.33636865234375,0.3319627344608307,-0.006258423440158367,-0.24234744906425476
1772811063376249300,6.346249267578125,0.6163880825042725,-0.0739026591181755,-0.25726112723350525
1772811063386130000,6.3561298828125,0.978577733039856,-0.1255679428577423,-0.2119874358177185
1772811063396010800,6.3660107421875,1.372192621231079,-0.17563532292842865,-0.11824425309896469
1772811063405891300,6.375891357421875,1.7727316617965698,-0.24967113137245178,0.001597895286977291
1772811063415772000,6.38577197265625,2.140780210494995,-0.36471959948539734,0.15233267843723297
1772811063425652500,6.395652587890625,2.4363908767700195,-0.5143890976905823,0.33768853545188904
1772811063435533300,6.405533203125,2.661694049835205,-0.6640586256980896,0.5656549334526062
1772811063445414000,6.415413818359375,2.8321361541748047,-0.7913576364517212,0.8420908451080322
1772811063455294500,6.42529443359375,2.943988800048828,-0.892557680606842,1.15314781665802
1772811063465175000,6.435175048828125,2.980207920074463,-0.9218524098396301,1.5068153142929077
1772811063475055900,6.445055908203125,2.9615657329559326,-0.8824376463890076,1.9009627103805542
1772811063484936400,6.4549365234375,2.89072585105896,-0.7519428730010986,2.331329107284546
1772811063494817000,6.464817138671875,2.791123628616333,-0.6342312693595886,2.698312520980835
1772811063504698400,6.474698486328125,2.6537046432495117,-0.5687175393104553,2.900179862976074
1772811063514579500,6.484579345703125,2.484327793121338,-0.46858277916908264,2.9348011016845703
1772811063524460500,6.49446044921875,2.3117549419403076,-0.3237069547176361,2.802175760269165
1772811063534342000,6.504341796875,2.1482369899749756,-0.17723321914672852,2.535327196121216
1772811063544223000,6.514222900390625,1.9591528177261353,-0.07603318244218826,2.1640827655792236
1772811063554104300,6.524104248046875,1.7008264064788818,-0.06857633590698242,1.6879100799560547
1772811063563985400,6.5339853515625,1.3711273670196533,-0.1591237336397171,1.128646731376648
1772811063573866800,6.54386669921875,0.9897629618644714,-0.3098585307598114,0.49854332208633423
1772811063593629000,6.56362890625,0.1290300488471985,-0.5671196579933167,-0.666854977607727
1772811063603510300,6.57351025390625,-0.2853574752807617,-0.6635259985923767,-1.0572741031646729
1772811063613391400,6.583391357421875,-0.6592649817466736,-0.7578018307685852,-1.3496888875961304
1772811063623272700,6.593272705078125,-0.9884313941001892,-0.8163913488388062,-1.5691331624984741
1772811063633153800,6.60315380859375,-1.2467577457427979,-0.7556713223457336,-1.7555543184280396
1772811063643035100,6.61303515625,-1.4108083248138428,-0.5916207432746887,-1.9291921854019165
1772811063652916200,6.622916259765625,-1.4869747161865234,-0.3567301332950592,-2.1113522052764893
1772811063662797300,6.63279736328125,-1.5056167840957642,-0.057923704385757446,-2.3339924812316895
1772811063672678700,6.6426787109375,-1.5008231401443481,0.2984069585800171,-2.5976450443267822
1772811063682559700,6.652559814453125,-1.454484224319458,0.68083655834198,-2.867689371109009
1772811063692440800,6.66244091796875,-1.3479578495025635,1.0861693620681763,-3.099916934967041
1772811063702322200,6.672322265625,-1.1956251859664917,1.479251503944397,-3.2607717514038086
1772811063712203300,6.682203369140625,-1.023052453994751,1.8574200868606567,-3.322556972503662
1772811063722084600,6.692084716796875,-0.8376966118812561,2.1935107707977295,-3.2767505645751953
1772811063731965700,6.701965576171875,-0.6432859897613525,2.4624898433685303,-3.148386240005493
1772811063741847000,6.711846923828125,-0.45420172810554504,2.6584982872009277,-2.9672915935516357
1772811063751728000,6.72172802734375,-0.2763027250766754,2.7772750854492188,-2.743586301803589
1772811063761609200,6.731609130859375,-0.11012161523103714,2.820418357849121,-2.4735419750213623
1772811063771490600,6.741490478515625,0.060853179544210434,2.800178289413452,-2.1608870029449463
1772811063781371600,6.75137158203125,0.23023007810115814,2.706967830657959,-1.7997627258300781
1772811063791253000,6.7612529296875,0.38629117608070374,2.54398250579834,-1.4072130918502808
1772811063801134000,6.771134033203125,0.5199817419052124,2.330929756164551,-1.0050761699676514
1772811063811015400,6.781015380859375,0.6115944385528564,2.091245412826538,-0.6285054683685303
1772811063820896500,6.790896484375,0.6717818379402161,1.8382453918457031,-0.2924148440361023
1772811063830777600,6.800777587890625,0.7303712964057922,1.5564831495285034,-0.005326317623257637
1772811063840659000,6.810658935546875,0.7884281873703003,1.264068365097046,0.25140219926834106
1772811063850540000,6.8205400390625,0.852876603603363,1.0041440725326538,0.468183308839798
1772811063860421400,6.83042138671875,0.9423587322235107,0.7815039753913879,0.642353892326355
1772811063870302500,6.840302490234375,1.0542113780975342,0.5961480736732483,0.7808381915092468
1772811063880183800,6.850183837890625,1.171923041343689,0.44594594836235046,0.8921582102775574
1772811063890065000,6.86006494140625,1.2864388227462769,0.307461678981781,0.9954887628555298
1772811063899946000,6.869946044921875,1.3988242149353027,0.17643427848815918,1.1004172563552856
1772811063909827300,6.879827392578125,1.5096116065979004,0.06404896825551987,1.2101393938064575
1772811063919708400,6.88970849609375,1.6108115911483765,-0.0057257916778326035,1.3203941583633423
1772811063929589800,6.89958984375,1.6901737451553345,-0.06751107424497604,1.430648922920227
1772811063939470800,6.909470947265625,1.7748621702194214,-0.12503530085086823,1.5462299585342407
1772811063949352000,6.91935205078125,1.8765949010849,-0.1548626869916916,1.6692678928375244
1772811063959233300,6.9292333984375,1.9841865301132202,-0.1692437380552292,1.7965669631958008
1772811063969114400,6.9391142578125,2.0805928707122803,-0.16658058762550354,1.9126806259155273
1772811063978995700,6.94899560546875,2.156226634979248,-0.15379741787910461,1.994173288345337
1772811063988876800,6.958876708984375,2.226533889770508,-0.13302478194236755,2.0218701362609863
1772811063998758000,6.9687578125,2.3112223148345947,-0.10905635356903076,1.9909775257110596
1772811064008638500,6.978638427734375,2.4007046222686768,-0.09467529505491257,1.9004300832748413
1772811064018519300,6.988519287109375,2.4667508602142334,-0.09467529505491257,1.7566195726394653
1772811064028399900,6.99839990234375,2.502437114715576,-0.12183951586484909,1.583114743232727
1772811064038280700,7.00828076171875,2.5008392333984375,-0.16551531851291656,1.3972262144088745
1772811064048161300,7.018161376953125,2.463555097579956,-0.25659534335136414,1.2283819913864136
1772811064058042000,7.0280419921875,2.3730077743530273,-0.3897532820701599,1.0744514465332031
1772811064067922700,7.037922607421875,2.206293821334839,-0.5559344291687012,0.9135966300964355
1772811064077803300,7.04780322265625,1.990045428276062,-0.7456844449043274,0.7207839488983154
1772811064087684000,7.05768408203125,1.7727316617965698,-0.8756465911865234,0.4874912202358246
1772811064097564700,7.067564697265625,1.5804516077041626,-0.9715203046798706,0.24354587495326996
1772811064107445500,7.077445556640625,1.43717360496521,-1.0343708992004395,0.027297377586364746
1772811064117326000,7.087326171875,1.3322452306747437,-1.061002492904663,-0.15699321031570435
1772811064127207000,7.09720703125,1.2416977882385254,-1.054078221321106,-0.3290332853794098
1772811064137087500,7.10708740234375,1.1330409049987793,-1.0295772552490234,-0.49681228399276733
1772811064146968000,7.116968017578125,0.991893470287323,-0.9720529913902283,-0.665656566619873
1772811064156849000,7.126848876953125,0.8001460433006287,-0.8948213458061218,-0.8313050270080566
1772811064166729500,7.1367294921875,0.5695165395736694,-0.801078200340271,-0.9777787327766418
1772811064176610300,7.1466103515625,0.318114310503006,-0.6807034015655518,-1.0880335569381714
1772811064186491000,7.156490966796875,0.05925528332591057,-0.5342296361923218,-1.1673957109451294
1772811064196371500,7.166371337890625,-0.1926795393228531,-0.37071171402931213,-1.215865135192871
1772811064206252300,7.176252197265625,-0.42543962597846985,-0.1938779652118683,-1.2307788133621216
1772811064216132900,7.1861328125,-0.6166543960571289,-0.013715268112719059,-1.2101393938064575
1772811064226013700,7.196013671875,-0.7572692036628723,0.16365110874176025,-1.1648656129837036
1772811064235894300,7.205894287109375,-0.8451534509658813,0.3127880096435547,-1.1062761545181274
1772811064245775000,7.215775146484375,-0.9159934520721436,0.41398802399635315,-1.043958306312561
1772811064255655700,7.22565576171875,-0.9889640212059021,0.46618595719337463,-0.9688571691513062
1772811064265536500,7.23553662109375,-1.047553539276123,0.4688491225242615,-0.90281081199646
1772811064275417000,7.2454169921875,-1.1258504390716553,0.40386801958084106,-0.8617981672286987
1772811064285297700,7.255297607421875,-1.2201261520385742,0.30905959010124207,-0.847949743270874
1772811064295178500,7.265178466796875,-1.3154672384262085,0.2137184888124466,-0.8548739552497864
1772811064305059000,7.27505908203125,-1.4129389524459839,0.12157320231199265,-0.8687223792076111
1772811064314940000,7.28493994140625,-1.5168020725250244,0.031558431684970856,-0.8719182014465332
1772811064324820500,7.294820556640625,-1.630785346031189,-0.049934227019548416,-0.851678192615509
1772811064334701300,7.304701416015625,-1.7421053647994995,-0.12716583907604218,-0.8101329207420349
1772811064344582000,7.314581787109375,-1.8321200609207153,-0.2113216519355774,-0.7542065978050232
1772811064354462500,7.32446240234375,-1.9024275541305542,-0.3151848316192627,-0.6918886303901672
1772811064364343300,7.33434326171875,-1.9711370468139648,-0.4408859312534332,-0.6221138834953308
1772811064374224000,7.344223876953125,-2.0430421829223633,-0.586294412612915,-0.536892831325531
1772811064384104700,7.354104736328125,-2.114947557449341,-0.7439534068107605,-0.4436822533607483
1772811064393985300,7.3639853515625,-2.1756675243377686,-0.913862943649292,-0.316915899515152
1772811064403866000,7.3738662109375,-2.219343423843384,-1.0965555906295776,-0.13209268450737
1772811064413746700,7.38374658203125,-2.2401161193847656,-1.2675304412841797,0.11078740656375885
1772811064423627500,7.39362744140625,-2.2358548641204834,-1.4024194478988647,0.3783017098903656
1772811064433508000,7.403508056640625,-2.2166802883148193,-1.5089458227157593,0.6376934051513672
1772811064443388700,7.413388671875,-2.193777084350586,-1.5851120948791504,0.8491482138633728
1772811064453269500,7.42326953125,-2.168743371963501,-1.6181353330612183,0.9897629618644714
1772811064463150000,7.433150146484375,-2.1213390827178955,-1.6032216548919678,1.0595377683639526
1772811064473031000,7.443031005859375,-2.0611517429351807,-1.5563499927520752,1.0781798362731934
1772811064482911500,7.452911376953125,-1.99989914894104,-1.4823142290115356,1.0733861923217773
1772811064492792300,7.462792236328125,-1.9365159273147583,-1.368863582611084,1.0595377683639526
1772811064502673000,7.4726728515625,-1.8694043159484863,-1.2293140888214111,1.0355693101882935
1772811064512553700,7.4825537109375,-1.8129453659057617,-1.0775140523910522,1.0041440725326538
1772811064522434600,7.4924345703125,-1.7809875011444092,-0.9267792701721191,0.9636639952659607
1772811064532315400,7.5023154296875,-1.7660738229751587,-0.7872297167778015,0.8997482061386108
1772811064542196200,7.5121962890625,-1.7703348398208618,-0.6721813082695007,0.8171902894973755
1772811064552076800,7.522076904296875,-1.786846399307251,-0.5944170355796814,0.7271755337715149
1772811064561957600,7.53195751953125,-1.8150758743286133,-0.5470128059387207,0.6446176171302795
1772811064571838500,7.54183837890625,-1.8401095867156982,-0.5225117802619934,0.5689838528633118
1772811064581719300,7.55171923828125,-1.8528927564620972,-0.5081307291984558,0.5087965130805969
1772811064591600000,7.56160009765625,-1.8427727222442627,-0.49641281366348267,0.4672512114048004
1772811064601480700,7.571480712890625,-1.8129453659057617,-0.48309701681137085,0.4432827830314636
1772811064611361500,7.581361572265625,-1.7708674669265747,-0.4809664785861969,0.42357540130615234
1772811064621242400,7.591242431640625,-1.7309200763702393,-0.4808333218097687,0.39840856194496155
1772811064631123200,7.601123291015625,-1.6973642110824585,-0.44354909658432007,0.37071171402931213
1772811064641004000,7.611004150390625,-1.6504926681518555,-0.3860248625278473,0.3211769461631775
1772811064650884900,7.620884765625,-1.5897727012634277,-0.3279680013656616,0.26418536901474
1772811064660765400,7.630765380859375,-1.5253242254257202,-0.2619216740131378,0.2034653276205063
1772811064670646300,7.640646240234375,-1.4534189701080322,-0.18415743112564087,0.14274531602859497
1772811064680527000,7.650527099609375,-1.3772525787353516,-0.10532793402671814,0.07882949709892273
1772811064690408000,7.660407958984375,-1.303216814994812,-0.045673172920942307,0.01597895286977291
1772811064700288800,7.670288818359375,-1.2302461862564087,-0.0014647373463958502,-0.039414748549461365
1772811064710169600,7.680169677734375,-1.161536693572998,0.03368895873427391,-0.08149266242980957
1772811064720050200,7.69005029296875,-1.0800440311431885,0.052331071346998215,-0.11185266822576523
1772811064729931000,7.699930908203125,-0.99322509765625,0.052863702178001404,-0.12463583052158356
1772811064739811800,7.709811767578125,-0.9032102823257446,0.052331071346998215,-0.12516845762729645
1772811064749692700,7.719692626953125,-0.8094671368598938,0.04114580526947975,-0.11185266822576523
1772811064759573500,7.729573486328125,-0.6965491771697998,0.0294279046356678,-0.08255792409181595
1772811064769454000,7.7394541015625,-0.5772396922111511,0.011851056478917599,-0.02503369376063347
1772811064779335000,7.7493349609375,-0.456332266330719,-0.010519477538764477,0.04953475296497345
1772811064789215700,7.7592158203125,-0.3386206328868866,-0.022237375378608704,0.13528846204280853
1772811064799096600,7.7690966796875,-0.23369218409061432,-0.046205803751945496,0.21411797404289246
1772811064808977400,7.778977294921875,-0.1681784838438034,-0.08242476731538773,0.26152220368385315
1772811064818858200,7.788858154296875,-0.12450267374515533,-0.11331740766763687,0.23981745541095734
1772811064828738800,7.79873876953125,-0.06325002014636993,-0.13195951282978058,0.16791217029094696
1772811064848500500,7.81850048828125,0.22064270079135895,-0.11012161523103714,0.036352116614580154
1772811064858381300,7.82838134765625,0.44168490171432495,-0.06378265470266342,0.027297377586364746
1772811064868262100,7.83826220703125,0.7138597369194031,-0.008921582251787186,0.08375634253025055
1772811064878143000,7.84814306640625,1.02012300491333,0.06351634114980698,0.2126532346010208
1772811064888023600,7.8580234375,1.3386367559432983,0.13968268036842346,0.3964111804962158
1772811064897904400,7.867904296875,1.6315842866897583,0.18442374467849731,0.6147902011871338
1772811064907785200,7.87778515625,1.8707358837127686,0.17483638226985931,0.8416913151741028
1772811064917666000,7.887666015625,2.051298141479492,0.1237037256360054,1.066994547843933
1772811064927547000,7.897546875,2.190315008163452,0.04966791346669197,1.2672641277313232
1772811064937427500,7.907427490234375,2.2835254669189453,-0.03608580306172371,1.4137378931045532
1772811064947308300,7.917308349609375,2.3564960956573486,-0.16018900275230408,1.516535758972168
1772811064957189000,7.927189208984375,2.413487672805786,-0.31252169609069824,1.600691556930542
1772811064967070000,7.937070068359375,2.4411845207214355,-0.4573975205421448,1.6885758638381958
1772811064976950800,7.94695068359375,2.439586639404297,-0.6012080907821655,1.7737969160079956
1772811064986831600,7.95683154296875,2.415085554122925,-0.7242460250854492,1.8531590700149536
1772811064996712400,7.96671240234375,2.3735404014587402,-0.8243808150291443,1.9160096645355225
1772811065006593300,7.97659326171875,2.324538230895996,-0.9170587658882141,1.943173885345459
1772811065016474000,7.98647412109375,2.25476336479187,-0.9692566394805908,1.9334533214569092
1772811065026355000,7.99635498046875,2.1727380752563477,-1.0171935558319092,1.8881795406341553
1772811065036236000,8.006236083984374,2.0656790733337402,-1.0390313863754272,1.8034911155700684
1772811065046116900,8.016116943359375,1.9293253421783447,-1.0427597761154175,1.6745942831039429
1772811065055997700,8.025997802734375,1.7631442546844482,-1.0081387758255005,1.490303635597229
1772811065065878800,8.035878662109376,1.5740599632263184,-0.9410271644592285,1.2522172927856445
1772811065075759600,8.045759521484374,1.3705947399139404,-0.850479781627655,0.9603350758552551
1772811065085640400,8.055640380859375,1.1495524644851685,-0.7322354912757874,0.6199833750724792
1772811065095521500,8.065521484375,0.911466121673584,-0.5804354548454285,0.23329271376132965
1772811065105402400,8.07540234375,0.6787060499191284,-0.39667749404907227,-0.17044216394424438
1772811065115283200,8.085283203125,0.4438154101371765,-0.12982898950576782,-0.5869601964950562
1772811065125164300,8.095164306640624,0.2137184888124466,0.19827216863632202,-1.007206678390503
1772811065135045000,8.105045166015625,0.015579478815197945,0.5524722933769226,-1.413072109222412
1772811065144926000,8.114926025390625,-0.14634057879447937,0.9274450540542603,-1.7789900302886963
1772811065154806800,8.124806884765626,-0.2826943099498749,1.3215925693511963,-2.0815248489379883
1772811065164688000,8.13468798828125,-0.39348170161247253,1.6949673891067505,-2.3046977519989014
1772811065174568700,8.144568603515625,-0.4717785716056824,2.0262644290924072,-2.4469103813171387
1772811065184449500,8.154449462890625,-0.5239765048027039,2.3213424682617188,-2.528935670852661
1772811065194330600,8.16433056640625,-0.5633912682533264,2.5892560482025146,-2.558230400085449
1772811065204211500,8.17421142578125,-0.5980123281478882,2.8145594596862793,-2.5427839756011963
1772811065214092300,8.18409228515625,-0.6139912605285645,2.980740547180176,-2.4809987545013428
1772811065223973000,8.19397314453125,-0.6150565147399902,3.0919272899627686,-2.3849918842315674
1772811065233854200,8.203854248046875,-0.6054691672325134,3.1377336978912354,-2.27793288230896
1772811065243735000,8.213735107421876,-0.5878922939300537,3.10897159576416,-2.1762001514434814
1772811065253615900,8.223615966796874,-0.5564670562744141,3.0370662212371826,-2.08884859085083
1772811065263497000,8.2334970703125,-0.5138564705848694,2.9198873043060303,-2.0078885555267334
1772811065273377800,8.243377685546875,-0.4653870165348053,2.7494451999664307,-1.9338527917861938
1772811065283258600,8.253258544921875,-0.4099932909011841,2.548642873764038,-1.8592842817306519
1772811065293139700,8.2631396484375,-0.35087117552757263,2.3276007175445557,-1.7719327211380005
1772811065303020500,8.2730205078125,-0.2757700979709625,2.0959060192108154,-1.6755263805389404
1772811065312901400,8.2829013671875,-0.18362480401992798,1.8610153198242188,-1.569000005722046
1772811065332663300,8.302663330078126,0.040613170713186264,1.4274531602859497,-1.3559472560882568
1772811065342544100,8.312544189453124,0.16045531630516052,1.24209725856781,-1.2558125257492065
1772811065352425000,8.322425048828125,0.2984069585800171,1.0871014595031738,-1.1657977104187012
1772811065362306000,8.33230615234375,0.4715122580528259,0.9555413722991943,-1.090164065361023
1772811065372187000,8.342186767578125,0.65953129529953,0.872983455657959,-1.035302996635437
1772811065382067700,8.352067626953126,0.8400934338569641,0.8149266242980957,-1.0065408945083618
1772811065391948800,8.36194873046875,1.0179924964904785,0.7584676146507263,-0.9990840554237366
1772811065401829600,8.37182958984375,1.1905651092529297,0.6428865194320679,-0.9916271567344666
1772811065411710500,8.38171044921875,1.402552604675293,0.3920169770717621,-0.9181240200996399
1772811065421591300,8.39159130859375,1.6411715745925903,0.0798947662115097,-0.7343660593032837
1772811065431472400,8.401472412109374,1.8648769855499268,-0.18535585701465607,-0.43928804993629456
1772811065441353200,8.411353271484375,2.0507655143737793,-0.33236223459243774,-0.08029423654079437
1772811065451234000,8.421234130859375,2.181792974472046,-0.423974871635437,0.2707100808620453
1772811065461115100,8.431115234375,2.2877864837646484,-0.48735806345939636,0.5854954719543457
1772811065470996000,8.440995849609376,2.424672842025757,-0.5395559668540955,0.8677902817726135
1772811065480876800,8.450876708984374,2.582331895828247,-0.5539370179176331,1.1149314641952515
1772811065490758000,8.4607578125,2.7181529998779297,-0.5560675859451294,1.310407280921936
1772811065500638700,8.470638671875,2.7996456623077393,-0.5592633485794067,1.4462283849716187
1772811065510519800,8.480519775390626,2.8284077644348145,-0.5432844161987305,1.516003131866455
1772811065520401000,8.49040087890625,2.8044393062591553,-0.5336970090866089,1.5351779460906982
1772811065530281700,8.50028173828125,2.732001543045044,-0.503337025642395,1.516003131866455
1772811065540162800,8.510162841796875,2.616952896118164,-0.47883594036102295,1.4638051986694336
1772811065550044000,8.5200439453125,2.4401192665100098,-0.468183308839798,1.3785841464996338
1772811065559924700,8.5299248046875,2.2435781955718994,-0.446878045797348,1.2592746019363403
1772811065569805800,8.539805908203125,2.0587549209594727,-0.4191811978816986,1.1181272268295288
1772811065579687000,8.54968701171875,1.9016284942626953,-0.4090611934661865,0.970588207244873
1772811065589567700,8.559567626953125,1.7455674409866333,-0.43569278717041016,0.7910913228988647
1772811065599448800,8.56944873046875,1.6358453035354614,-0.45912858843803406,0.6185186505317688
1772811065609330000,8.579329833984374,1.5282536745071411,-0.4655201733112335,0.517318606376648
1772811065619210800,8.589210693359375,1.4265210628509521,-0.4761728048324585,0.492284893989563
1772811065629091800,8.599091796875,1.3082767724990845,-0.5107938647270203,0.5034701824188232
1772811065638973000,8.608972900390626,1.1351714134216309,-0.5747096538543701,0.5167859792709351
1772811065648853800,8.618853759765624,0.8869650363922119,-0.6551370620727539,0.5301017761230469
1772811065658734800,8.62873486328125,0.5647228360176086,-0.7334339618682861,0.5492765307426453
1772811065668616000,8.638615966796875,0.20040270686149597,-0.7898929119110107,0.580169141292572
1772811065678496800,8.648496826171876,-0.16231952607631683,-0.809600293636322,0.6068007349967957
1772811065688377900,8.6583779296875,-0.49574699997901917,-0.8064044713973999,0.5961480736732483
1772811065698259000,8.668259033203125,-0.7908250093460083,-0.7797728776931763,0.5285038948059082
1772811065708140000,8.67814013671875,-1.0470209121704102,-0.7329013347625732,0.4022701382637024
1772811065718020900,8.688020751953125,-1.2638020515441895,-0.6993455290794373,0.23289324343204498
1772811065727902000,8.69790185546875,-1.4491578340530396,-0.6998781561851501,0.05339633300900459
1772811065737783000,8.707782958984374,-1.615338921546936,-0.7323686480522156,-0.12503530085086823
1772811065747664000,8.717663818359375,-1.774595856666565,-0.8383623957633972,-0.2635195553302765
1772811065757545000,8.727544921875,-1.925330638885498,-1.0034782886505127,-0.3838943541049957
1772811065767426000,8.737426025390626,-2.0632822513580322,-1.174985647201538,-0.5165196657180786
1772811065777307000,8.747306884765624,-2.1873855590820312,-1.3198615312576294,-0.6566017866134644
1772811065787188000,8.75718798828125,-2.2843244075775146,-1.4423668384552002,-0.796151340007782
1772811065797069000,8.767069091796875,-2.3599581718444824,-1.5249247550964355,-0.9096018671989441
1772811065806950000,8.776949951171876,-2.4132213592529297,-1.556882619857788,-0.9570060968399048
1772811065816831000,8.7868310546875,-2.4281351566314697,-1.5606110095977783,-0.9319724440574646
1772811065826712000,8.796712158203125,-2.406829833984375,-1.5723289251327515,-0.8616650104522705
1772811065836593200,8.80659326171875,-2.3642191886901855,-1.589373230934143,-0.7604650259017944
1772811065846474000,8.816473876953125,-2.2965750694274902,-1.641571044921875,-0.6267744302749634
1772811065856355000,8.82635498046875,-2.212419271469116,-1.7198679447174072,-0.46698489785194397
1772811065866236200,8.836236083984375,-2.1224043369293213,-1.7933712005615234,-0.2869553565979004
1772811065876117000,8.846116943359375,-2.010019063949585,-1.8354490995407104,-0.08775108307600021
1772811065885998000,8.855998046875,-1.8933727741241455,-1.8658090829849243,0.1050616130232811
1772811065895879200,8.865879150390626,-1.8054884672164917,-1.904158592224121,0.2563290297985077
1772811065905760000,8.875760009765624,-1.7117453813552856,-1.859950065612793,0.36072486639022827
1772811065915641000,8.88564111328125,-1.6169369220733643,-1.7390427589416504,0.42251014709472656
1772811065935403300,8.9054033203125,-1.412406325340271,-1.3725920915603638,0.41771647334098816
1772811065945284000,8.9152841796875,-1.2643346786499023,-1.0221203565597534,0.32450589537620544
1772811065955165200,8.925165283203125,-1.1061429977416992,-0.5395559668540955,0.15353110432624817
1772811065965046300,8.93504638671875,-0.9996166825294495,0.014913689345121384,-0.08295739442110062
1772811065974927000,8.944927001953126,-1.0038777589797974,0.5832318067550659,-0.334892213344574
1772811065984808200,8.95480810546875,-1.1311767101287842,1.129312515258789,-0.5735112428665161
1772811065994689300,8.964689208984375,-1.3287830352783203,1.6150726079940796,-0.8147934675216675
1772811066014451200,8.984451171875,-1.727191686630249,2.4369235038757324,-1.3293156623840332
1772811066024332000,8.99433203125,-1.979659080505371,2.82720947265625,-1.5114758014678955
1772811066034213000,9.004213134765624,-2.316282272338867,3.2810115814208984,-1.556216835975647
1772811066044094200,9.01409423828125,-2.571413040161133,3.6272222995758057,-1.5620758533477783
1772811066053975000,9.02397509765625,-2.644383430480957,3.9654433727264404,-1.5674021244049072
1772811066063856000,9.033856201171876,-2.639589786529541,4.2583909034729,-1.5114758014678955
1772811066073737200,9.0437373046875,-2.644383430480957,4.589155197143555,-1.3990905284881592
1772811066083618000,9.0536181640625,-2.6827330589294434,4.88103723526001,-1.2515515089035034
1772811066093499100,9.0634990234375,-2.7072341442108154,5.047751426696777,-1.0986862182617188
1772811066103380200,9.073380126953126,-2.6928529739379883,5.102612495422363,-0.9958882331848145
1772811066113261000,9.083260986328124,-2.6635582447052,5.278380870819092,-0.917591392993927
1772811066123142100,9.09314208984375,-2.6182847023010254,5.77852201461792,-0.7460839152336121
1772811066133023000,9.10302294921875,-2.4552993774414062,6.070404052734375,-0.48615965247154236
1772811066142904000,9.112904052734375,-2.272073984146118,6.0837202072143555,-0.2587258815765381
1772811066152785200,9.12278515625,-2.1501011848449707,6.237117767333984,-0.111719511449337
1772811066162666000,9.132666015625,-1.9658106565475464,6.4048967361450195,0.0624510757625103
1772811066172547000,9.142547119140625,-1.749029517173767,6.337785243988037,0.2504700720310211
1772811066182428200,9.15242822265625,-1.6089473962783813,6.272804260253906,0.41878172755241394
1772811066192309000,9.16230908203125,-1.47152841091156,6.135917663574219,0.6531397104263306
1772811066202190000,9.172190185546874,-1.362338900566101,6.023532390594482,0.9673924446105957
1772811066212071000,9.18207080078125,-1.3713936805725098,6.012347221374512,1.2598072290420532
1772811066221952000,9.191951904296875,-1.36766517162323,5.619265079498291,1.546363115310669
1772811066231833000,9.2018330078125,-1.3532841205596924,5.084502696990967,1.8169400691986084
1772811066241714000,9.2117138671875,-1.3373051881790161,4.7936859130859375,2.066744327545166
1772811066251595000,9.221594970703125,-1.3074778318405151,4.592350959777832,2.256361246109009
1772811066261475800,9.231475830078125,-1.2792483568191528,4.613123893737793,2.3820624351501465
1772811066271357000,9.24135693359375,-1.2195935249328613,4.646679401397705,2.434792995452881
1772811066281238000,9.251238037109376,-1.1311767101287842,4.587024688720703,2.3511698246002197
1772811066291118800,9.261118896484374,-1.0448904037475586,4.404332160949707,2.1482369899749756
1772811066301000000,9.271,-0.977246105670929,4.095938205718994,1.8776601552963257
1772811066310881000,9.280881103515625,-0.9410271644592285,3.679420232772827,1.5421020984649658
1772811066320761900,9.290761962890626,-0.9793766736984253,3.120156764984131,1.1681946516036987
1772811066330643000,9.300642822265624,-1.2259851694107056,1.9957711696624756,0.8097334504127502
1772811066340523800,9.310523681640625,-1.5871094465255737,1.2612719535827637,0.5892238616943359
1772811066350404900,9.32040478515625,-1.945038080215454,1.0871014595031738,0.5892238616943359
1772811066360286000,9.330285888671876,-2.247572898864746,1.0934929847717285,0.7207839488983154
1772811066370166800,9.340166748046874,-2.432396173477173,1.0700571537017822,0.9189229607582092
1772811066380048000,9.3500478515625,-2.470212936401367,1.0498172044754028,1.1660641431808472
1772811066389928700,9.3599287109375,-2.3849918842315674,1.037034034729004,1.4600768089294434
1772811066399809800,9.369809814453125,-2.1863203048706055,1.0173267126083374,1.7066853046417236
1772811066409691000,9.37969091796875,-1.9301244020462036,1.0050761699676514,1.7908411026000977
1772811066419571700,9.38957177734375,-1.5903053283691406,0.9805750846862793,1.6891084909439087
1772811066429452800,9.399452880859375,-1.1775156259536743,1.1728551387786865,1.4638051986694336
1772811066439334000,9.409333984375,-0.804673433303833,1.5190657377243042,1.2502199411392212
1772811066449214700,9.419214599609376,-0.5932186245918274,1.7438364028930664,1.0861693620681763
1772811066459095800,9.429095703125,-0.4611259400844574,1.8349164724349976,0.907737672328949
1772811066468977000,9.438976806640625,-0.31784799695014954,1.9286595582962036,0.7394260168075562
1772811066478857700,9.448857666015625,-0.13728584349155426,1.938779592514038,0.5945501923561096
1772811066488738800,9.45873876953125,0.05712475627660751,1.842373251914978,0.481632262468338
1772811066498619600,9.46861962890625,0.21158796548843384,1.7166721820831299,0.4017375111579895
1772811066508500200,9.478500244140625,0.31012484431266785,1.6170700788497925,0.39055225253105164
1772811066518381000,9.488381103515625,0.35646381974220276,1.515337347984314,0.47524067759513855
1772811066528261600,9.49826171875,0.37191012501716614,1.3736573457717896,0.6265081167221069
1772811066538142500,9.508142578125,0.3559311628341675,1.2218573093414307,0.823581874370575
1772811066548023000,9.51802294921875,0.3122553825378418,1.0775140523910522,1.0595377683639526
1772811066557904000,9.52790380859375,0.28136274218559265,0.9326382279396057,1.3327778577804565
1772811066567784400,9.537784423828125,0.24993745982646942,0.7989476323127747,1.6140073537826538
1772811066577665000,9.5476650390625,0.1849563866853714,0.6311686635017395,1.863279104232788
1772811066587545900,9.5575458984375,0.09174582362174988,0.4751075208187103,2.052363395690918
1772811066597426400,9.567426513671874,-0.033955276012420654,0.371244341135025,2.1599550247192383
1772811066607307300,9.577307373046875,-0.1820269078016281,0.3158506453037262,2.1588897705078125
1772811066617187800,9.587187744140625,-0.315717488527298,0.29454535245895386,2.0603528022766113
1772811066627068700,9.597068603515625,-0.4126564562320709,0.260456919670105,1.8968348503112793
1772811066636949200,9.60694921875,-0.4600606858730316,0.20080217719078064,1.680586338043213
1772811066646830000,9.616830078125,-0.4552670121192932,0.1411474198102951,1.448891520500183
1772811066656710700,9.626710693359374,-0.41212382912635803,0.08894950151443481,1.2097399234771729
1772811066666591200,9.63659130859375,-0.34447959065437317,0.07776423543691635,0.9647293090820312
1772811066686352600,9.6563525390625,-0.07709844410419464,0.19867165386676788,0.5588638782501221
1772811066696233500,9.6662333984375,0.035286854952573776,0.20612849295139313,0.4054659307003021
1772811066706114000,9.676114013671874,0.1279647797346115,0.20506322383880615,0.3223753869533539
1772811066715995000,9.685994873046875,0.19667427241802216,0.272707462310791,0.2829606235027313
1772811066725875500,9.69587548828125,0.2600574493408203,0.27643588185310364,0.2504700720310211
1772811066745636900,9.715636962890626,0.35699644684791565,0.1608547866344452,0.11305109411478043
1772811066765398300,9.735398193359375,0.33462589979171753,0.05273054540157318,-0.03874896094202995
1772811066785159700,9.75515966796875,0.08908266574144363,0.18162743747234344,-0.0552605465054512
1772811066795040300,9.765040283203126,0.06884265691041946,0.22423797845840454,0.02516685053706169
1772811066804921000,9.774921142578124,0.11092056334018707,0.3099916875362396,0.15566162765026093
1772811066814801700,9.7848017578125,0.14660689234733582,0.4069306552410126,0.28668904304504395
1772811066824682200,9.79468212890625,0.11092056334018707,0.46392226219177246,0.3793669641017914
1772811066834563000,9.80456298828125,0.043276332318782806,0.3968106508255005,0.4347606897354126
1772811066844443600,9.814443603515626,-0.05579317733645439,0.42184436321258545,0.4304996132850647
1772811066854324500,9.824324462890624,-0.07496792078018188,0.48416227102279663,0.3591269552707672
1772811066864205000,9.834205078125,0.048602648079395294,0.49321702122688293,0.2600574493408203
1772811066874086000,9.8440859375,0.231827974319458,0.4005391001701355,0.13116057217121124
1772811066883966500,9.853966552734375,0.3841606676578522,0.31851378083229065,0.0011984214652329683
1772811066903727900,9.873727783203124,0.47896912693977356,0.19920428097248077,-0.03129211440682411
1772811066913608400,9.8836083984375,0.4342280328273773,0.13528846204280853,0.1237037256360054
1772811066923489300,9.8934892578125,0.3351585268974304,0.12410320341587067,0.31438589096069336
1772811066933369900,9.903369873046875,0.21691428124904633,0.11025477200746536,0.42730382084846497
1772811066943250700,9.913250732421876,0.0810931846499443,0.13262531161308289,0.47097963094711304
1772811066953131300,9.92313134765625,-0.06591317802667618,0.07616633921861649,0.4155859351158142
1772811066963012000,9.93301220703125,-0.10958898812532425,0.05432844161987305,0.29574379324913025
1772811066972892700,9.942892578125,-0.07603318244218826,0.09534108638763428,0.20572902262210846
1772811066982773500,9.9527734375,0.015046847052872181,0.11504846066236496,0.16684690117835999
1772811066992654000,9.962654052734376,0.13648688793182373,0.10173266381025314,0.1615205854177475
1772811067002535000,9.972534912109374,0.23502376675605774,0.07456845045089722,0.16737952828407288
1772811067012416000,9.982416015625,0.29893958568573,0.070840023458004,0.1806953251361847
1772811067022296800,9.992296875,0.3442132771015167,0.09960214048624039,0.20200060307979584
1772811067032178000,10.002177978515626,0.3825627565383911,0.10013477504253387,0.2041311264038086
1772811067042058800,10.012058837890624,0.39001959562301636,0.08415582031011581,0.18815216422080994
1772811067051939800,10.02193994140625,0.3633880317211151,0.05699159950017929,0.1801626980304718
1772811067061821000,10.031821044921875,0.31438589096069336,-0.004793685860931873,0.17377111315727234
1772811067071701800,10.04170166015625,0.23076270520687103,-0.11078740656375885,0.16258583962917328
1772811067081582800,10.051582763671876,0.13968268036842346,-0.22796639800071716,0.17270584404468536
