time,seconds_elapsed,z,y,x
1772811122389512700,0.1805126953125,0.044341593980789185,-0.8275765776634216,0.18389111757278442
1772811122399393800,0.190393798828125,0.10612688213586807,-0.9378314018249512,0.1524658352136612
1772811122409275000,0.20027490234375,0.1849563866853714,-1.0837724208831787,0.13062794506549835
1772811122419156000,0.210156005859375,0.25792694091796875,-1.2675304412841797,0.10133319348096848
1772811122429037000,0.220037109375,0.2701774537563324,-1.4406358003616333,0.040080539882183075
1772811122438918100,0.229918212890625,0.21531638503074646,-1.555684208869934,-0.054727911949157715
1772811122448799200,0.23979931640625,0.10080055892467499,-1.5791200399398804,-0.16977638006210327
1772811122458680300,0.249680419921875,-0.03289001062512398,-1.5231937170028687,-0.3098585307598114
1772811122468561400,0.2595615234375,-0.1255679428577423,-1.4203957319259644,-0.44994068145751953
1772811122478442500,0.2694423828125,-0.1452753096818924,-1.342631459236145,-0.5804354548454285
1772811122488323600,0.279323486328125,-0.08562055230140686,-1.308010458946228,-0.6795049905776978
1772811122498204400,0.289204345703125,0.026764746755361557,-1.253682017326355,-0.7103976011276245
1772811122508085500,0.29908544921875,0.1524658352136612,-1.1887009143829346,-0.6507428288459778
1772811122517966600,0.308966552734375,0.2419479787349701,-1.0997514724731445,-0.5447491407394409
1772811122527847700,0.31884765625,0.28722167015075684,-1.0832397937774658,-0.48136594891548157
1772811122537728800,0.328728759765625,0.31491851806640625,-1.136502981185913,-0.410525918006897
1772811122547609900,0.33860986328125,0.3458111584186554,-1.2297135591506958,-0.26937851309776306
1772811122557491000,0.348490966796875,0.3729753792285919,-1.156743049621582,-0.18042901158332825
1772811122567372000,0.3583720703125,0.4619249105453491,-1.143959879875183,-0.07177212834358215
1772811122577253000,0.368253173828125,0.5269059538841248,-1.266465187072754,0.07363633811473846
1772811122587134200,0.37813427734375,0.46512067317962646,-1.4486252069473267,0.17696690559387207
1772811122597015300,0.388015380859375,0.35646381974220276,-1.6462316513061523,0.24514377117156982
1772811122606896400,0.397896484375,0.2781669497489929,-1.774063229560852,0.2802974581718445
1772811122616777500,0.407777587890625,0.2600574493408203,-1.8251959085464478,0.2888195812702179
1772811122626658600,0.417658447265625,0.2643185257911682,-1.888046383857727,0.27124273777008057
1772811122636539400,0.427539306640625,0.2808300852775574,-2.0169432163238525,0.22863218188285828
1772811122646420500,0.43742041015625,0.30160272121429443,-2.1671454906463623,0.17377111315727234
1772811122656301800,0.4473017578125,0.23502376675605774,-2.2885854244232178,0.09973529726266861
1772811122666182700,0.4571826171875,-0.02809632569551468,-2.3146843910217285,-0.01531316339969635
1772811122676063700,0.467063720703125,-0.3801659345626831,-2.237452983856201,-0.19853848218917847
1772811122685944800,0.47694482421875,-0.6720481514930725,-1.9492990970611572,-0.41212382912635803
1772811122695826000,0.486825927734375,-0.813195526599884,-1.3868399858474731,-0.6054691672325134
1772811122705707000,0.49670703125,-0.1261005699634552,-0.19800585508346558,-0.6795049905776978
1772811122715588000,0.506588134765625,1.4403694868087769,1.2784494161605835,-0.3109237849712372
1772811122725469200,0.51646923828125,2.637192964553833,1.814276933670044,0.3692469596862793
1772811122735350300,0.526350341796875,2.780470848083496,1.414803147315979,0.8209186792373657
1772811122745231400,0.5362314453125,3.0611679553985596,1.0691250562667847,1.0057419538497925
1772811122755112400,0.546112548828125,3.3887364864349365,0.6829670667648315,0.8150597810745239
1772811122764993500,0.55599365234375,3.4292163848876953,0.30000483989715576,0.4448806941509247
1772811122774874600,0.56587451171875,3.332810163497925,-0.1399489939212799,0.06511422991752625
1772811122784755700,0.575755615234375,3.1650311946868896,-0.595349133014679,-0.20759323239326477
1772811122794636800,0.58563671875,3.024948835372925,-1.2073431015014648,-0.2155826985836029
1772811122804517600,0.595517578125,2.9178898334503174,-1.8092169761657715,-0.006791055202484131
1772811122814398700,0.605398681640625,2.7948520183563232,-2.455832004547119,0.32450589537620544
1772811122824279800,0.61527978515625,2.696847677230835,-3.001246929168701,0.6755102276802063
1772811122834161000,0.625160888671875,2.54771089553833,-3.285139560699463,0.8576703071594238
1772811122844042000,0.6350419921875,2.255828619003296,-3.24572491645813,0.8725839853286743
1772811122853923000,0.644923095703125,1.9463696479797363,-3.2664973735809326,0.7948197722434998
1772811122863804200,0.65480419921875,1.7194684743881226,-3.2627689838409424,0.6669881343841553
1772811122873685200,0.664685302734375,1.570864200592041,-3.226017475128174,0.5199817419052124
1772811122883566300,0.67456640625,1.4872410297393799,-3.1940596103668213,0.4107922613620758
1772811122893447400,0.684447509765625,1.3940304517745972,-3.0582385063171387,0.35699644684791565
1772811122903328500,0.69432861328125,1.330647349357605,-2.814293146133423,0.38096487522125244
1772811122913209600,0.704209716796875,1.4041504859924316,-2.6374592781066895,0.5013396739959717
1772811122923090700,0.714090576171875,1.600158929824829,-2.595381498336792,0.7032070755958557
1772811122932971800,0.7239716796875,1.7993632555007935,-2.575141429901123,0.9189229607582092
1772811122942852900,0.733852783203125,1.9548916816711426,-2.427602529525757,1.0867019891738892
1772811122952734000,0.74373388671875,2.095506429672241,-2.193777084350586,1.1287798881530762
1772811122962614800,0.75361474609375,2.2275991439819336,-1.8747305870056152,0.9636639952659607
1772811122972496000,0.763495849609375,2.3330602645874023,-1.350088357925415,0.5615270137786865
1772811122982377000,0.773376953125,2.424140214920044,-0.8291745185852051,-0.10373003780841827
1772811122992258000,0.783258056640625,2.5296013355255127,-0.4217112064361572,-0.998018741607666
1772811123002139000,0.793138916015625,2.517883539199829,-0.30826061964035034,-1.791107416152954
1772811123012019200,0.803019287109375,2.4172160625457764,-0.3375553786754608,-2.3546319007873535
1772811123021899800,0.812899658203125,2.2521002292633057,-0.5793702006340027,-2.720017194747925
1772811123031780400,0.8227802734375,2.022536039352417,-1.0416945219039917,-2.916558265686035
1772811123041660700,0.83266064453125,1.7263927459716797,-1.7080168724060059,-2.9240152835845947
1772811123051541200,0.842541259765625,1.4387716054916382,-2.4744739532470703,-2.764225721359253
1772811123061421800,0.852421875,1.2592746019363403,-3.2723562717437744,-2.5730109214782715
1772811123071302400,0.862302490234375,1.238502025604248,-4.048933506011963,-2.33172869682312
1772811123081182700,0.8721826171875,1.365268349647522,-4.414319038391113,-2.1607539653778076
1772811123100944000,0.89194384765625,1.9634138345718384,-4.397274494171143,-1.7889769077301025
1772811123110824200,0.90182421875,2.3485066890716553,-4.217777729034424,-1.479517936706543
1772811123120704800,0.911704833984375,2.6904561519622803,-4.030824184417725,-1.0321072340011597
1772811123130585300,0.92158544921875,2.9429235458374023,-3.870501756668091,-0.46485435962677
1772811123140466000,0.9314658203125,3.132540464401245,-3.715506076812744,0.16365110874176025
1772811123150346200,0.94134619140625,3.2806122303009033,-3.5850112438201904,0.7852323651313782
1772811123160226800,0.951226806640625,3.3988564014434814,-3.4763543605804443,1.3546156883239746
1772811123170107400,0.961107421875,3.4878058433532715,-3.383676528930664,1.8462347984313965
1772811123179988000,0.970988037109375,3.5969953536987305,-3.295259475708008,2.2382519245147705
1772811123189868300,0.980868408203125,3.717902898788452,-3.3415985107421875,2.6041698455810547
1772811123199748900,0.990748779296875,3.7669050693511963,-3.4907355308532715,2.980207920074463
1772811123209629400,1.00062939453125,3.7402734756469727,-3.70538592338562,3.3679637908935547
1772811123219509800,1.010509765625,3.669965982437134,-3.938678741455078,3.7317512035369873
1772811123229390300,1.020390380859375,3.574625015258789,-4.149068355560303,4.020437717437744
1772811123239271000,1.03027099609375,3.469696521759033,-4.320575714111328,4.209521770477295
1772811123249151500,1.0401513671875,3.3541152477264404,-4.422308444976807,4.327233791351318
1772811123259031800,1.05003173828125,3.183673143386841,-4.45426607131958,4.347473621368408
1772811123268912400,1.059912353515625,2.969555139541626,-4.444146156311035,4.247338771820068
1772811123278793000,1.06979296875,2.7346646785736084,-4.403666019439697,4.031622886657715
1772811123288673500,1.079673583984375,2.5045676231384277,-4.308325290679932,3.7264249324798584
1772811123298553900,1.089553955078125,2.2787318229675293,-4.127762794494629,3.355713367462158
1772811123308434400,1.099434326171875,2.066211700439453,-3.8470661640167236,2.906172037124634
1772811123318315000,1.10931494140625,1.8595505952835083,-3.4518532752990723,2.359691858291626
1772811123328195300,1.1191953125,1.6337147951126099,-2.9437224864959717,1.712011694908142
1772811123347956500,1.13895654296875,1.1154640913009644,-1.7234631776809692,0.2174469232559204
1772811123367717400,1.15871728515625,0.5950828194618225,-0.23262691497802734,-1.2760525941848755
1772811123377598000,1.168597900390625,0.4022701382637024,0.5546028017997742,-1.945570707321167
1772811123387478500,1.178478515625,0.2504700720310211,1.3860410451889038,-2.546379327774048
1772811123397359000,1.188359130859375,0.14341109991073608,2.2425129413604736,-3.071554183959961
1772811123407239400,1.198239501953125,0.08695213496685028,3.0862016677856445,-3.5216281414031982
1772811123417120000,1.2081201171875,0.07097318023443222,3.8835513591766357,-3.8779587745666504
1772811123427000600,1.21800048828125,0.08695213496685028,4.620181083679199,-4.113914489746094
1772811123436881000,1.227880859375,0.14820478856563568,5.2737202644348145,-4.221506118774414
1772811123446761500,1.237761474609375,0.2643185257911682,5.795699596405029,-4.236952304840088
1772811123456642000,1.24764208984375,0.43263015151023865,6.18878173828125,-4.190613746643066
1772811123466522600,1.257522705078125,0.6243776082992554,6.477468013763428,-4.116577625274658
1772811123476403000,1.26740283203125,0.8145270943641663,6.6132893562316895,-4.032954692840576
1772811123486283500,1.277283447265625,1.0020134449005127,6.600505828857422,-3.9179060459136963
1772811123496164000,1.2871640625,1.1783145666122437,6.454565048217773,-3.7341480255126953
1772811123506044400,1.29704443359375,1.3317126035690308,6.173335075378418,-3.488604784011841
1772811123515925000,1.306925048828125,1.4472936391830444,5.785046577453613,-3.19565749168396
1772811123525805300,1.316805419921875,1.5170683860778809,5.3024821281433105,-2.8792741298675537
1772811123535685600,1.326685546875,1.5389063358306885,4.738425254821777,-2.5533034801483154
1772811123545566200,1.336566162109375,1.5122747421264648,4.104593753814697,-2.22786545753479
1772811123555446500,1.346446533203125,1.4403694868087769,3.431346893310547,-1.8992316722869873
1772811123565327000,1.3563271484375,1.359942078590393,2.7490456104278564,-1.5663368701934814
1772811123575207400,1.36620751953125,1.3034831285476685,2.033188581466675,-1.216397762298584
1772811123585088000,1.376087890625,1.276318907737732,1.3173315525054932,-0.8419576287269592
1772811123594968300,1.38596826171875,1.2603398561477661,0.6499438881874084,-0.4366248846054077
1772811123604848600,1.3958486328125,1.2667315006256104,0.03795001283288002,-0.02756369300186634
1772811123614729200,1.405729248046875,1.2917652130126953,-0.48669227957725525,0.3367564380168915
1772811123624609500,1.415609619140625,1.330114722251892,-0.9234502911567688,0.6536723375320435
1772811123634490000,1.425489990234375,1.3881715536117554,-1.2717914581298828,0.9295755624771118
1772811123644370400,1.435370361328125,1.4781862497329712,-1.5040189027786255,1.1777819395065308
1772811123654250800,1.445250732421875,1.595897912979126,-1.6318506002426147,1.3972262144088745
1772811123664131300,1.45513134765625,1.7205337285995483,-1.6803200244903564,1.5900390148162842
1772811123674011600,1.46501171875,1.8371801376342773,-1.660080075263977,1.7780579328536987
1772811123683892200,1.474892333984375,1.943173885345459,-1.5785874128341675,1.952761173248291
1772811123693772500,1.4847724609375,2.0395801067352295,-1.434244155883789,2.1088223457336426
1772811123703653000,1.494653076171875,2.120540142059326,-1.2249199151992798,2.249437093734741
1772811123713533400,1.504533447265625,2.186053991317749,-0.9554082155227661,2.3767361640930176
1772811123723414000,1.5144140625,2.23612117767334,-0.6507428288459778,2.4715445041656494
1772811123733294300,1.52429443359375,2.26967716217041,-0.35566484928131104,2.4960455894470215
1772811123743174700,1.534174560546875,2.260622262954712,-0.08402266353368759,2.424672842025757
1772811123753055200,1.54405517578125,2.200434923171997,0.17696690559387207,2.279264450073242
1772811123762935600,1.553935546875,2.1056265830993652,0.45127224922180176,2.0992348194122314
1772811123772816100,1.563816162109375,2.00815486907959,0.701609194278717,1.8947043418884277
1772811123782696400,1.573696533203125,1.9037591218948364,0.8896281719207764,1.6512916088104248
1772811123792576800,1.58357666015625,1.7956348657608032,1.0440914630889893,1.378051519393921
1772811123802457300,1.593457275390625,1.6731295585632324,1.1527483463287354,1.0691250562667847
1772811123812337700,1.603337646484375,1.5170683860778809,1.206544041633606,0.7378281354904175
1772811123822218200,1.61321826171875,1.3199946880340576,1.238502025604248,0.38149750232696533
1772811123832098600,1.6230986328125,1.0723209381103516,1.2896347045898438,-0.01105210930109024
1772811123841979000,1.632978759765625,0.7628618478775024,1.2571440935134888,-0.4275701344013214
1772811123851859500,1.642859375,0.37510591745376587,1.1522157192230225,-0.8542081713676453
1772811123861739800,1.65273974609375,-0.08029423654079437,0.9583377242088318,-1.2600735425949097
1772811123871620400,1.662620361328125,-0.5250417590141296,0.6776407361030579,-1.6009578704833984
1772811123881500700,1.672500732421875,-0.9111998081207275,0.3585943281650543,-1.865675926208496
1772811123891381200,1.68238134765625,-1.236637830734253,0.05925528332591057,-2.078728675842285
1772811123901261600,1.692261474609375,-1.5120084285736084,-0.1921469122171402,-2.2859222888946533
1772811123911142000,1.702141845703125,-1.7282569408416748,-0.4089280366897583,-2.5096278190612793
1772811123921022500,1.7120224609375,-1.9088190793991089,-0.5681849122047424,-2.7253434658050537
1772811123930902800,1.72190283203125,-2.1117517948150635,-0.6289049386978149,-2.901644706726074
1772811123940783400,1.731783447265625,-2.3690128326416016,-0.6006754636764526,-3.0300090312957764
1772811123950663700,1.74166357421875,-2.6667540073394775,-0.535694420337677,-3.1184258460998535
1772811123960544300,1.751544189453125,-2.973017454147339,-0.5037364959716797,-3.1578404903411865
1772811123970424600,1.761424560546875,-3.2521164417266846,-0.5090628266334534,-3.1232194900512695
1772811123980305000,1.771304931640625,-3.4550490379333496,-0.5362270474433899,-3.0603690147399902
1772811123990185500,1.781185546875,-3.5099101066589355,-0.5410206913948059,-2.987398386001587
1772811124000066000,1.791066162109375,-3.399122714996338,-0.49201858043670654,-2.877676248550415
1772811124009946600,1.800946533203125,-3.1828742027282715,-0.4243743419647217,-2.7269413471221924
1772811124019827200,1.8108271484375,-2.94159197807312,-0.30293431878089905,-2.5224108695983887
1772811124029707800,1.820707763671875,-2.7306699752807617,-0.17563532292842865,-2.2752697467803955
1772811124039588600,1.830588623046875,-2.5719456672668457,-0.06591317802667618,-2.0126821994781494
1772811124049469200,1.84046923828125,-2.4782023429870605,0.006524738855659962,-1.7506273984909058
1772811124059349800,1.850349853515625,-2.45210337638855,0.04966791346669197,-1.508812665939331
1772811124069230600,1.860230712890625,-2.4739413261413574,0.08215844631195068,-1.2760525941848755
1772811124079111200,1.870111083984375,-2.5138888359069824,0.11837740987539291,-1.03583562374115
1772811124088991700,1.87999169921875,-2.554368734359741,0.15459637343883514,-0.7721828818321228
1772811124098872600,1.88987255859375,-2.5580971240997314,0.20785954594612122,-0.4787027835845947
1772811124108753200,1.899753173828125,-2.5144214630126953,0.265383780002594,-0.16231952607631683
1772811124118633700,1.9096337890625,-2.441983461380005,0.3032006323337555,0.1609879434108734
1772811124128514300,1.919514404296875,-2.3343918323516846,0.3229080140590668,0.4683164656162262
1772811124138395100,1.92939501953125,-2.179395914077759,0.32450589537620544,0.7468829154968262
1772811124148275700,1.939275634765625,-2.015345335006714,0.2707100808620453,0.9908282160758972
1772811124158156300,1.94915625,-1.8619475364685059,0.16365110874176025,1.2193272113800049
1772811124168037000,1.959037109375,-1.7255938053131104,0.005459475331008434,1.444097876548767
1772811124177917700,1.968917724609375,-1.61054527759552,-0.19853848218917847,1.6656726598739624
1772811124187798300,1.97879833984375,-1.5253242254257202,-0.44834280014038086,1.8899106979370117
1772811124197679000,1.98867919921875,-1.479517936706543,-0.7301049828529358,2.1226706504821777
1772811124207559700,1.9985595703125,-1.4704631567001343,-1.0113345384597778,2.364485502243042
1772811124217440300,2.008440185546875,-1.4992252588272095,-1.2653999328613281,2.6110939979553223
1772811124227321000,2.018321044921875,-1.5460968017578125,-1.501355767250061,2.8427889347076416
1772811124237201700,2.02820166015625,-1.605751633644104,-1.6984295845031738,3.0425257682800293
1772811124247082200,2.038082275390625,-1.6792547702789307,-1.8427727222442627,3.1943259239196777
1772811124256963000,2.047963134765625,-1.7580842971801758,-1.9290590286254883,3.2843406200408936
1772811124266843600,2.05784375,-1.8433053493499756,-1.9727349281311035,3.3088417053222656
1772811124276724200,2.06772412109375,-1.9200043678283691,-1.9759306907653809,3.273155450820923
1772811124286605000,2.07760498046875,-1.9727349281311035,-1.9343854188919067,3.188466787338257
1772811124296485600,2.087485595703125,-1.9833874702453613,-1.848631739616394,3.0707552433013916
1772811124306366200,2.0973662109375,-1.9572886228561401,-1.71440851688385,2.9471848011016846
1772811124316246800,2.107246826171875,-1.8976337909698486,-1.5429010391235352,2.8092331886291504
1772811124326127600,2.117127685546875,-1.8198695182800293,-1.3346420526504517,2.6590309143066406
1772811124336008200,2.12700830078125,-1.739974856376648,-1.1045451164245605,2.503502368927002
1772811124345888800,2.136888671875,-1.6664716005325317,-0.8637955784797668,2.334125518798828
1772811124355769600,2.14676953125,-1.5945663452148438,-0.6182523369789124,2.1738033294677734
1772811124365650200,2.156650146484375,-1.5237263441085815,-0.35886064171791077,2.0299928188323975
1772811124375530800,2.16653076171875,-1.455016851425171,-0.10426266491413116,1.8947043418884277
1772811124385411300,2.176411376953125,-1.3825788497924805,0.12050793319940567,1.7588832378387451
1772811124395292200,2.186292236328125,-1.3016188144683838,0.29148274660110474,1.6246600151062012
1772811124405172700,2.1961728515625,-1.2147998809814453,0.4294343590736389,1.4931000471115112
1772811124415053300,2.20605322265625,-1.1290462017059326,0.5226449370384216,1.3636704683303833
1772811124424934100,2.21593408203125,-1.023052453994751,0.5492765307426453,1.2475566864013672
1772811124434814700,2.225814697265625,-0.9133303165435791,0.5050680637359619,1.1511503458023071
1772811124444695300,2.2356953125,-0.7929555177688599,0.40493330359458923,1.0723209381103516
1772811124454576000,2.245576171875,-0.6603302359580994,0.28242799639701843,1.0116008520126343
1772811124464456700,2.255456787109375,-0.5255743861198425,0.14500899612903595,0.9519461393356323
1772811124474337300,2.265337158203125,-0.40733012557029724,-0.026498429477214813,0.8890955448150635
1772811124484218000,2.275218017578125,-0.31198906898498535,-0.2065279632806778,0.8209186792373657
1772811124494098700,2.2850986328125,-0.24594271183013916,-0.3727090656757355,0.7404913306236267
1772811124503979800,2.294979736328125,-0.2113216519355774,-0.5239765048027039,0.6371607184410095
1772811124513860900,2.30486083984375,-0.19960375130176544,-0.6645912528038025,0.5247754454612732
1772811124523742000,2.314741943359375,-0.1964079588651657,-0.7934881448745728,0.428901731967926
1772811124533623000,2.324623046875,-0.18469005823135376,-0.8856334686279297,0.3644532859325409
1772811124543504400,2.33450439453125,-0.1399489939212799,-0.9207871556282043,0.33356064558029175
1772811124553385500,2.344385498046875,-0.07070686668157578,-0.9234502911567688,0.32823431491851807
1772811124563266600,2.3542666015625,0.001731053227558732,-0.913862943649292,0.3490069508552551
1772811124573147600,2.364147705078125,0.07576686888933182,-0.8877639770507812,0.3964111804962158
1772811124583029000,2.374029052734375,0.13968268036842346,-0.8414250016212463,0.46085962653160095
1772811124592910000,2.38391015625,0.1854890137910843,-0.800944983959198,0.508263885974884
1772811124602791200,2.393791259765625,0.21425113081932068,-0.771117627620697,0.5024049282073975
1772811124612672300,2.40367236328125,0.24833956360816956,-0.7583344578742981,0.44647857546806335
1772811124622553600,2.4135537109375,0.29095008969306946,-0.7423555254936218,0.39001959562301636
1772811124632434700,2.4234345703125,0.36232274770736694,-0.7141260504722595,0.37563854455947876
1772811124642315800,2.433315673828125,0.4821648895740509,-0.6693849563598633,0.4251733124256134
1772811124652196900,2.44319677734375,0.6579334139823914,-0.6145238876342773,0.5402217507362366
1772811124662078000,2.453077880859375,0.8747144937515259,-0.5601954460144043,0.7197186946868896
1772811124671959300,2.462959228515625,1.1026809215545654,-0.510660707950592,0.9524787664413452
1772811124681840400,2.47284033203125,1.317864179611206,-0.46432173252105713,1.2326430082321167
1772811124691721500,2.482721435546875,1.516003131866455,-0.42064592242240906,1.5277210474014282
1772811124701602600,2.4926025390625,1.6800537109375,-0.3854922354221344,1.801493763923645
1772811124711484000,2.50248388671875,1.796700119972229,-0.34607750177383423,2.0347864627838135
1772811124721365000,2.512364990234375,1.880855917930603,-0.2858901023864746,2.2126855850219727
1772811124731246000,2.52224609375,1.9453043937683105,-0.18895111978054047,2.345310926437378
1772811124741127200,2.532127197265625,1.9804580211639404,-0.05952160060405731,2.4358582496643066
1772811124751008300,2.54200830078125,1.9799253940582275,0.09920266270637512,2.4805991649627686
1772811124760889600,2.5518896484375,1.9554243087768555,0.2605900764465332,2.4603593349456787
1772811124770770700,2.561770751953125,1.9032264947891235,0.4438154101371765,2.3517024517059326
1772811124780651800,2.57165185546875,1.818537950515747,0.6275733709335327,2.1839234828948975
1772811124790532900,2.581532958984375,1.7018916606903076,0.9135966300964355,1.9921759366989136
1772811124800414200,2.591414306640625,1.5389063358306885,1.0888324975967407,1.7508937120437622
1772811124810295300,2.60129541015625,1.3865736722946167,1.06273353099823,1.4606094360351562
1772811124820176400,2.61117626953125,1.2241209745407104,1.0286450386047363,1.0989525318145752
1772811124830057500,2.621057373046875,1.0371671915054321,1.0153292417526245,0.6739123463630676
1772811124839938600,2.6309384765625,0.8161250352859497,0.9950892925262451,0.18335849046707153
1772811124849820000,2.64081982421875,0.5641902089118958,0.9961545467376709,-0.3705785572528839
1772811124859701000,2.650700927734375,0.29095008969306946,1.0062745809555054,-0.9612671732902527
1772811124869582000,2.66058203125,0.03049316816031933,1.0057419538497925,-1.5572820901870728
1772811124879463200,2.670463134765625,-0.19907112419605255,0.9972198009490967,-2.1202738285064697
1772811124889344500,2.680344482421875,-0.38709014654159546,0.9945566654205322,-2.629469871520996
1772811124899225600,2.6902255859375,-0.540488064289093,1.0105355978012085,-3.0736846923828125
1772811124909106700,2.700106689453125,-0.6379597187042236,1.0696576833724976,-3.443863868713379
1772811124918987800,2.70998779296875,-0.6661891937255859,1.1756514310836792,-3.7330827713012695
1772811124928869000,2.719869140625,-0.6422207355499268,1.3130704164505005,-3.953059673309326
1772811124938750200,2.729750244140625,-0.586294412612915,1.4712620973587036,-4.097403049468994
1772811124948631300,2.73963134765625,-0.4803006947040558,1.6784558296203613,-4.174101829528809
1772811124958512400,2.749512451171875,-0.33222904801368713,1.834517002105713,-4.164514541625977
1772811124968393500,2.7593935546875,-0.16977638006210327,1.9367822408676147,-4.056390285491943
1772811124978274800,2.76927490234375,-0.007856318727135658,2.0054917335510254,-3.8784914016723633
1772811124988156000,2.779156005859375,0.1514005810022354,2.046504497528076,-3.6281545162200928
1772811124998037000,2.789037109375,0.3117227256298065,2.046504497528076,-3.31976056098938
1772811125007918000,2.79891796875,0.48482805490493774,2.006556987762451,-2.9591689109802246
1772811125017799200,2.808799072265625,0.6552702188491821,1.9202706813812256,-2.5586297512054443
1772811125027680300,2.81868017578125,0.7969502806663513,1.8025590181350708,-2.138383388519287
1772811125037561300,2.828561279296875,0.9061397910118103,1.6491611003875732,-1.694701075553894
1772811125047442400,2.8384423828125,0.9801756143569946,1.462207317352295,-1.246225118637085
1772811125057323500,2.848323486328125,1.0265145301818848,1.2614052295684814,-0.8147934675216675
1772811125067204600,2.85820458984375,1.0515482425689697,1.087767243385315,-0.4190480411052704
1772811125077085700,2.868085693359375,1.0643314123153687,0.962066113948822,-0.08082687109708786
1772811125086966800,2.877966796875,1.0819082260131836,0.882703959941864,0.1902827024459839
1772811125096848000,2.887847900390625,1.0914956331253052,0.8214513063430786,0.397476464509964
1772811125106729000,2.89772900390625,1.109605073928833,0.7703186869621277,0.5700491666793823
1772811125116610000,2.907610107421875,1.1463567018508911,0.7362302541732788,0.7090660333633423
1772811125126491100,2.9174912109375,1.1926956176757812,0.7335671186447144,0.8262450098991394
1772811125136372200,2.927372314453125,1.243295669555664,0.7586007714271545,0.9130640029907227
1772811125146253300,2.93725341796875,1.3002872467041016,0.7980155348777771,0.9604682326316833
1772811125156134400,2.947134521484375,1.3450284004211426,0.8384955525398254,0.965794563293457
1772811125166015500,2.957015380859375,1.3785841464996338,0.8731166124343872,0.9434239864349365
1772811125175896600,2.966896484375,1.4174662828445435,0.9040092825889587,0.9082702994346619
1772811125185777700,2.976777587890625,1.4611420631408691,0.9295755624771118,0.8651271462440491
1772811125195658800,2.98665869140625,1.4936326742172241,0.9471524357795715,0.819320797920227
1772811125205539800,2.996539794921875,1.499491572380066,0.9434239864349365,0.7740471363067627
1772811125215421000,3.0064208984375,1.4899041652679443,0.9253145456314087,0.7340997457504272
1772811125225302000,3.016302001953125,1.481914758682251,0.8725839853286743,0.6888260245323181
1772811125235183000,3.02618310546875,1.478718876838684,0.8097334504127502,0.647280752658844
1772811125245064200,3.036064208984375,1.4829800128936768,0.7319691777229309,0.6265081167221069
1772811125254945300,3.0459453125,1.5005568265914917,0.6653902530670166,0.6131923198699951
1772811125264826400,3.055826416015625,1.5436999797821045,0.580169141292572,0.5998765230178833
1772811125274707700,3.065707763671875,1.600691556930542,0.4720448851585388,0.5796365141868591
1772811125284588800,3.0755888671875,1.6449000835418701,0.35752907395362854,0.5412870049476624
1772811125294470000,3.085469970703125,1.645432710647583,0.24567639827728271,0.4832301735877991
1772811125304351000,3.09535107421875,1.5948326587677002,0.11358372122049332,0.39374804496765137
1772811125314232000,3.105232177734375,1.4760557413101196,-0.029161589220166206,0.2707100808620453
1772811125324113200,3.115113037109375,1.306146264076233,-0.12876373529434204,0.10186582803726196
1772811125333994200,3.124994140625,1.1032135486602783,-0.21238692104816437,-0.12716583907604218
1772811125343875300,3.134875244140625,0.8986829519271851,-0.259258508682251,-0.3961448669433594
1772811125353756400,3.14475634765625,0.7207839488983154,-0.248605877161026,-0.6736460328102112
1772811125363637500,3.154637451171875,0.5769733786582947,-0.17616795003414154,-0.9404945373535156
1772811125373518600,3.1645185546875,0.4826975464820862,-0.07230476289987564,-1.1902987957000732
1772811125383399700,3.174399658203125,0.43209752440452576,0.07470160722732544,-1.4310483932495117
1772811125393280800,3.18428076171875,0.3926827609539032,0.24514377117156982,-1.6568843126296997
1772811125403161900,3.194161865234375,0.3213101029396057,0.41398802399635315,-1.853958010673523
1772811125413043000,3.20404296875,0.19347849488258362,0.56312495470047,-2.019073963165283
1772811125422924000,3.213924072265625,0.015046847052872181,0.6946849822998047,-2.1522316932678223
1772811125432805000,3.22380517578125,-0.19800585508346558,0.8060050010681152,-2.2459750175476074
1772811125442686200,3.233686279296875,-0.4190480411052704,0.8858997821807861,-2.298172950744629
1772811125452567300,3.2435673828125,-0.6257091760635376,0.9407608509063721,-2.302433967590332
1772811125462448400,3.253448486328125,-0.8158587217330933,0.965794563293457,-2.2560949325561523
1772811125472329500,3.26332958984375,-0.9724524617195129,0.9700555801391602,-2.168743371963501
1772811125482210600,3.27321044921875,-1.0741851329803467,0.9471524357795715,-2.0478360652923584
1772811125492091600,3.283091552734375,-1.119991421699524,0.8805734515190125,-1.8971011638641357
1772811125501972500,3.292972412109375,-1.1285135746002197,0.7655249834060669,-1.7266590595245361
1772811125511853300,3.302853271484375,-1.1412967443466187,0.6185186505317688,-1.5519558191299438
1772811125521734100,3.312734130859375,-1.1775156259536743,0.4352933168411255,-1.3825788497924805
1772811125531615000,3.322614990234375,-1.2254525423049927,0.19773954153060913,-1.2142672538757324
1772811125541495600,3.33249560546875,-1.258475661277771,-0.04780369997024536,-1.0347703695297241
1772811125551376400,3.34237646484375,-1.2638020515441895,-0.2917490601539612,-0.8334355354309082
1772811125561257200,3.35225732421875,-1.2398335933685303,-0.5202480554580688,-0.6065344214439392
1772811125571138000,3.362137939453125,-1.1684609651565552,-0.7396923303604126,-0.35992592573165894
1772811125581018600,3.3720185546875,-1.073119878768921,-0.9490166306495667,-0.10106687992811203
1772811125590899500,3.3818994140625,-0.9687240123748779,-1.157275676727295,0.1663142740726471
1772811125600780300,3.3917802734375,-0.8781766295433044,-1.362338900566101,0.44594594836235046
1772811125610661000,3.4016611328125,-0.8142607808113098,-1.5780547857284546,0.7543397545814514
1772811125620542000,3.4115419921875,-0.7801723480224609,-1.7969664335250854,1.096821904182434
1772811125630422500,3.421422607421875,-0.7817702889442444,-2.0382485389709473,1.478718876838684
1772811125640303400,3.431303466796875,-0.8265113234519958,-2.287520170211792,1.8920412063598633
1772811125650184200,3.44118408203125,-0.9037429690361023,-2.5128235816955566,2.314950704574585
1772811125660065000,3.45106494140625,-0.9990840554237366,-2.7077667713165283,2.726675033569336
1772811125669945600,3.460945556640625,-1.107740879058838,-2.8744804859161377,3.1053762435913086
1772811125679826400,3.470826416015625,-1.2174630165100098,-3.022552013397217,3.4270858764648438
1772811125689707300,3.480707275390625,-1.337837815284729,-3.159970998764038,3.6502585411071777
1772811125699588000,3.490588134765625,-1.4587452411651611,-3.245192050933838,3.777024984359741
1772811125709468700,3.50046875,-1.5769895315170288,-3.2579753398895264,3.8191030025482178
1772811125719349500,3.510349609375,-1.6845811605453491,-3.2025816440582275,3.7802207469940186
1772811125729230300,3.520230224609375,-1.7708674669265747,-3.0731520652770996,3.6561176776885986
1772811125739111200,3.530111083984375,-1.836913824081421,-2.8808720111846924,3.460641622543335
1772811125748992000,3.539991943359375,-1.8891117572784424,-2.650775194168091,3.193793296813965
1772811125758872600,3.54987255859375,-1.9434401988983154,-2.386057138442993,2.855571985244751
1772811125768753400,3.55975341796875,-2.0110843181610107,-2.1303939819335938,2.467816114425659
1772811125778634200,3.56963427734375,-2.0915117263793945,-1.9088190793991089,2.0544939041137695
1772811125788515000,3.57951513671875,-2.1873855590820312,-1.7106800079345703,1.6449000835418701
1772811125798395600,3.589395751953125,-2.2960424423217773,-1.531715750694275,1.2693946361541748
1772811125808276500,3.5992763671875,-2.4089603424072266,-1.380448341369629,0.9338366389274597
1772811125818157300,3.6091572265625,-2.5192151069641113,-1.2595409154891968,0.6398239135742188
1772811125828038100,3.6190380859375,-2.615088701248169,-1.1530146598815918,0.40013960003852844
1772811125837919000,3.6289189453125,-2.67474365234375,-1.0310419797897339,0.23129534721374512
1772811125847799600,3.638799560546875,-2.6832656860351562,-0.8957534432411194,0.1290300488471985
1772811125857680400,3.648680419921875,-2.6422529220581055,-0.7732481360435486,0.0810931846499443
1772811125867561200,3.658561279296875,-2.55969500541687,-0.6677870750427246,0.07310371100902557
1772811125877442000,3.668442138671875,-2.446777105331421,-0.561793327331543,0.07257107645273209
1772811125887322600,3.678322509765625,-2.3141517639160156,-0.456332266330719,0.060853179544210434
1772811125897203500,3.688203369140625,-2.17779803276062,-0.35886064171791077,0.040613170713186264
1772811125907084300,3.698084228515625,-2.039846420288086,-0.27044376730918884,0.012383688241243362
1772811125916965000,3.707965087890625,-1.900829553604126,-0.17989638447761536,-0.03289001062512398
1772811125926846000,3.717845947265625,-1.7639431953430176,-0.08934897929430008,-0.09627319127321243
1772811125936726500,3.7277265625,-1.6345137357711792,-0.021172111853957176,-0.17190690338611603
1772811125946607400,3.737607421875,-1.509345293045044,0.02623211406171322,-0.24274691939353943
1772811125956488200,3.74748828125,-1.3783178329467773,0.048602648079395294,-0.30346694588661194
1772811125966369000,3.757369140625,-1.241431474685669,0.040080539882183075,-0.33968591690063477
1772811125976249600,3.76724951171875,-1.0997514724731445,0.0006657897029072046,-0.35566484928131104
1772811125986130400,3.77713037109375,-0.968191385269165,-0.062184758484363556,-0.3476753830909729
1772811125996011300,3.78701123046875,-0.8483492136001587,-0.12769846618175507,-0.32743537425994873
1772811126005892400,3.796892333984375,-0.7380944490432739,-0.18362480401992798,-0.2949448525905609
1772811126015773400,3.8067734375,-0.6443513035774231,-0.2443448156118393,-0.2491385042667389
1772811126025654500,3.816654541015625,-0.5724459886550903,-0.3194459080696106,-0.17457005381584167
1772811126035535600,3.82653564453125,-0.5271722674369812,-0.4051996171474457,-0.07496792078018188
1772811126045416400,3.83641650390625,-0.5133238434791565,-0.48615965247154236,0.009720529429614544
1772811126055297500,3.846297607421875,-0.5042691230773926,-0.5490102171897888,0.056059494614601135
1772811126065178600,3.8561787109375,-0.45793014764785767,-0.5735112428665161,0.09281108528375626
1772811126075059700,3.866059814453125,-0.3519364297389984,-0.5543364882469177,0.15406373143196106
1772811126084940800,3.87594091796875,-0.21345217525959015,-0.5149217844009399,0.27656903862953186
1772811126094822000,3.88582177734375,-0.06804370880126953,-0.45260384678840637,0.4486091136932373
1772811126104703000,3.895702880859375,0.07843002676963806,-0.3705785572528839,0.6547375917434692
1772811126114584000,3.905583984375,0.24887219071388245,-0.27470484375953674,0.8757797479629517
1772811126124465200,3.915465087890625,0.42783647775650024,-0.18096163868904114,1.087234616279602
1772811126134346000,3.925345947265625,0.592952311038971,-0.0978710874915123,1.2747209072113037
1772811126144227000,3.93522705078125,0.7309039235115051,-0.028628956526517868,1.4291841983795166
1772811126154108200,3.945108154296875,0.8550071120262146,0.023568956181406975,1.5602115392684937
1772811126163989200,3.9549892578125,0.9716535210609436,0.04700475186109543,1.6992285251617432
1772811126173870300,3.964870361328125,1.0882998704910278,0.05712475627660751,1.8542243242263794
1772811126183751400,3.97475146484375,1.2076094150543213,0.06617949903011322,2.017209529876709
1772811126193632500,3.984632568359375,1.3365062475204468,0.07736476510763168,2.166346549987793
1772811126203513300,3.994513427734375,1.4670010805130005,0.10239845514297485,2.2766013145446777
1772811126213394400,4.00439453125,1.5932347774505615,0.1386174112558365,2.329331874847412
1772811126223275500,4.014275634765625,1.709348440170288,0.17164058983325958,2.3224077224731445
1772811126233156600,4.024156494140625,1.809483289718628,0.19667427241802216,2.260089635848999
1772811126243037700,4.03403759765625,1.8749970197677612,0.2035984843969345,2.1477043628692627
1772811126252918800,4.043918701171875,1.897900104522705,0.20466375350952148,1.9895128011703491
1772811126262800000,4.0537998046875,1.8707358837127686,0.1902827024459839,1.7940369844436646
1772811126272681000,4.063680908203125,1.7961674928665161,0.1615205854177475,1.5506242513656616
1772811126282562000,4.07356201171875,1.6907063722610474,0.10080055892467499,1.2624704837799072
1772811126292443000,4.08344287109375,1.5676684379577637,0.015579478815197945,0.9380977153778076
1772811126302324000,4.093323974609375,1.4361083507537842,-0.06165212765336037,0.5822996497154236
1772811126312205000,4.103205078125,1.2906999588012695,-0.13355740904808044,0.21158796548843384
1772811126322086100,4.113086181640625,1.1245187520980835,-0.2155826985836029,-0.16498269140720367
1772811126341848300,4.132848388671875,0.7293060421943665,-0.313586950302124,-0.926113486289978
1772811126351729400,4.1427294921875,0.550341784954071,-0.3439469635486603,-1.27125883102417
1772811126361610500,4.152610595703125,0.41292276978492737,-0.334892213344574,-1.586044192314148
1772811126371491300,4.1624912109375,0.3085269629955292,-0.2677806317806244,-1.8853832483291626
1772811126381372400,4.172372314453125,0.22437113523483276,-0.13675320148468018,-2.162884473800659
1772811126391253500,4.18225341796875,0.17270584404468536,0.06298370659351349,-2.4132213592529297
1772811126401134600,4.192134521484375,0.15406373143196106,0.3404848575592041,-2.625741481781006
1772811126411015700,4.202015625,0.16844479739665985,0.6860297322273254,-2.797781467437744
1772811126420896800,4.211896728515625,0.1902827024459839,1.0844383239746094,-2.911764621734619
1772811126430777900,4.22177783203125,0.20679427683353424,1.5185331106185913,-2.95650577545166
1772811126440659000,4.231658935546875,0.2270342856645584,1.9377143383026123,-2.927211046218872
1772811126450540000,4.2415400390625,0.28722167015075684,2.272207021713257,-2.804172992706299
1772811126460420900,4.2514208984375,0.4033353924751282,2.5315988063812256,-2.6039035320281982
1772811126470302000,4.261302001953125,0.5711144208908081,2.727607250213623,-2.347175121307373
1772811126480183000,4.27118310546875,0.7676555514335632,2.8554389476776123,-2.088315963745117
1772811126490064100,4.281064208984375,0.9743166565895081,2.921485185623169,-1.8550232648849487
1772811126499944700,4.29094482421875,1.1623356342315674,2.917224168777466,-1.6579495668411255
1772811126509825000,4.300824951171875,1.2954936027526855,2.84744930267334,-1.4784525632858276
1772811126519705600,4.31070556640625,1.3748557567596436,2.6951167583465576,-1.2962925434112549
1772811126529586000,4.3205859375,1.414803147315979,2.459160804748535,-1.0922945737838745
1772811126539466200,4.33046630859375,1.4164010286331177,2.1699419021606445,-0.8600671291351318
1772811126549346600,4.3403466796875,1.3860410451889038,1.8583521842956543,-0.6022733449935913
1772811126559227000,4.350226806640625,1.3397020101547241,1.5377079248428345,-0.3237069547176361
1772811126569107200,4.360107177734375,1.2912325859069824,1.2261183261871338,-0.06165212765336037
1772811126578987500,4.369987548828125,1.2566114664077759,0.9331708550453186,0.15459637343883514
1772811126588867800,4.379867919921875,1.234241008758545,0.6838991641998291,0.2984069585800171
1772811126598748200,4.389748046875,1.2230557203292847,0.4862928092479706,0.36232274770736694
1772811126608628500,4.39962841796875,1.2257188558578491,0.3621895909309387,0.3585943281650543
1772811126618508800,4.4095087890625,1.2321103811264038,0.3051980137825012,0.32024484872817993
1772811126628389000,4.41938916015625,1.2251862287521362,0.2870885133743286,0.27656903862953186
1772811126638269400,4.42926953125,1.2198598384857178,0.2721748352050781,0.24407850205898285
1772811126648149800,4.439149658203125,1.2544809579849243,0.27164220809936523,0.2376869171857834
1772811126658030000,4.449030029296875,1.3370388746261597,0.2647179961204529,0.24088270962238312
1772811126667910700,4.45891064453125,1.4382388591766357,0.25140219926834106,0.2376869171857834
1772811126677791000,4.468791015625,1.53357994556427,0.23861902952194214,0.22650165855884552
1772811126687671300,4.47867138671875,1.6065505743026733,0.20985691249370575,0.22863218188285828
1772811126697551600,4.488551513671875,1.6438348293304443,0.16192005574703217,0.2611227333545685
1772811126707432000,4.498431884765625,1.6544873714447021,0.10492845624685287,0.3277016878128052
1772811126717312300,4.508312255859375,1.6464979648590088,0.0378168560564518,0.4161185622215271
1772811126727192600,4.518192626953125,1.625725269317627,-0.02450106106698513,0.5167859792709351
1772811126737073000,4.528072998046875,1.5916368961334229,-0.08362318575382233,0.6169207096099854
1772811126746953200,4.537953125,1.5452978610992432,-0.13795162737369537,0.7010765671730042
1772811126756833500,4.54783349609375,1.4851105213165283,-0.18269269168376923,0.7506113052368164
1772811126766713900,4.5577138671875,1.4217272996902466,-0.23009692132472992,0.735164999961853
1772811126776594200,4.56759423828125,1.3626052141189575,-0.2599242925643921,0.643552303314209
1772811126786474500,4.577474609375,1.3162662982940674,-0.2684464156627655,0.48536068201065063
1772811126796354800,4.587354736328125,1.2901673316955566,-0.26525062322616577,0.30533117055892944
1772811126806235400,4.5972353515625,1.2954936027526855,-0.24128219485282898,0.14181320369243622
1772811126816115700,4.60711572265625,1.3311799764633179,-0.19973690807819366,0.035819485783576965
1772811126825996000,4.61699609375,1.3658009767532349,-0.1549958437681198,0.01344895176589489
1772811126835876400,4.62687646484375,1.3636704683303833,-0.11930951476097107,0.06617949903011322
1772811126845756700,4.636756591796875,1.293363094329834,-0.10972214490175247,0.15779216587543488
1772811126855637000,4.646636962890625,1.1479545831680298,-0.13355740904808044,0.24727429449558258
1772811126865517300,4.656517333984375,0.9556745290756226,-0.20066902041435242,0.31012484431266785
1772811126875397600,4.666397705078125,0.7431544661521912,-0.3093259036540985,0.3506048619747162
1772811126885278000,4.67627783203125,0.5359607338905334,-0.44035330414772034,0.3740406632423401
1772811126895158300,4.686158203125,0.3463438153266907,-0.5873596668243408,0.3681817054748535
1772811126905038600,4.69603857421875,0.18442374467849731,-0.7615302801132202,0.32450589537620544
1772811126914919000,4.7059189453125,0.06191844120621681,-0.9548755884170532,0.2568616569042206
1772811126924799200,4.71579931640625,0.00013315794058144093,-1.1381008625030518,0.17323848605155945
1772811126934679600,4.725679443359375,-0.029694220051169395,-1.32505464553833,0.08855003118515015
1772811126944559900,4.735559814453125,-0.06910897046327591,-1.526389479637146,0.018242638558149338
1772811126954440400,4.7454404296875,-0.14580795168876648,-1.7112126350402832,-0.02024000696837902
1772811126964320800,4.75532080078125,-0.26937851309776306,-1.861414909362793,-0.029294747859239578
1772811126974201000,4.765201171875,-0.4467448890209198,-1.980191707611084,-0.02077263966202736
1772811126984081400,4.775081298828125,-0.6720481514930725,-2.064880132675171,-0.006391581147909164
1772811126993961700,4.784961669921875,-0.9239829778671265,-2.104827642440796,0.015446321107447147
1772811127003842000,4.794842041015625,-1.1753851175308228,-2.1102869510650635,0.031558431684970856
1772811127013722600,4.80472265625,-1.412406325340271,-2.0868513584136963,0.040613170713186264
1772811127023603000,4.81460302734375,-1.6164042949676514,-2.039447069168091,0.040613170713186264
1772811127033483500,4.8244833984375,-1.7809875011444092,-1.9627480506896973,0.02569948323071003
1772811127043364000,4.834364013671875,-1.902960181236267,-1.8764617443084717,-0.0009321055840700865
1772811127053244400,4.844244384765625,-1.997235894203186,-1.7986974716186523,-0.0366184338927269
1772811127063125000,4.854125,-2.0520970821380615,-1.7496953010559082,-0.0834900289773941
1772811127073005300,4.86400537109375,-2.075532913208008,-1.728390097618103,-0.10586056113243103
1772811127082886000,4.873885986328125,-2.069673776626587,-1.733716368675232,-0.09520792961120605
1772811127092766500,4.883766357421875,-2.044640064239502,-1.7789900302886963,-0.04780369997024536
1772811127102646800,4.893646728515625,-2.014812707901001,-1.8743311166763306,0.043276332318782806
1772811127112527400,4.90352734375,-1.9849854707717896,-1.9851186275482178,0.1897500604391098
1772811127122407700,4.91340771484375,-1.9498317241668701,-2.097503900527954,0.363920658826828
1772811127132288300,4.923288330078125,-1.8768612146377563,-2.2285313606262207,0.5247754454612732
1772811127142168800,4.9331689453125,-1.778856873512268,-2.356362819671631,0.6494112610816956
1772811127152049200,4.943049072265625,-1.6845811605453491,-2.450106143951416,0.7703186869621277
1772811127161929700,4.9529296875,-1.576456904411316,-2.4612913131713867,0.8688555359840393
1772811127171810000,4.96281005859375,-1.4406358003616333,-2.4229419231414795,0.9157271385192871
1772811127181690600,4.972690673828125,-1.3213262557983398,-2.3494386672973633,0.9178577065467834
1772811127191571200,4.9825712890625,-1.2419641017913818,-2.2242703437805176,0.8885629177093506
1772811127201451500,4.992451416015625,-1.1998862028121948,-2.0559585094451904,0.8305060863494873
1772811127211332000,5.00233203125,-1.1924293041229248,-1.8535585403442383,0.7506113052368164
1772811127221212400,5.01221240234375,-1.2217241525650024,-1.6271899938583374,0.668586015701294
1772811127231093000,5.022093017578125,-1.2755199670791626,-1.3981584310531616,0.6009417772293091
1772811127240973300,5.031973388671875,-1.338370442390442,-1.1984214782714844,0.5583312511444092
1772811127250854000,5.04185400390625,-1.3905683755874634,-1.0375666618347168,0.5402217507362366
1772811127260734500,5.051734375,-1.4278526306152344,-0.9283771514892578,0.5396891236305237
1772811127270614800,5.06161474609375,-1.4512883424758911,-0.8735160827636719,0.5498091578483582
1772811127280495400,5.071495361328125,-1.4603431224822998,-0.8639287352561951,0.5769733786582947
1772811127290375700,5.081375732421875,-1.4560821056365967,-0.8820381760597229,0.5988112688064575
1772811127300256300,5.09125634765625,-1.4406358003616333,-0.9278445243835449,0.6126596927642822
1772811127310136600,5.101136474609375,-1.4267873764038086,-0.9917603135108948,0.6190512776374817
1772811127320017200,5.11101708984375,-1.4161347150802612,-1.0498172044754028,0.6169207096099854
1772811127329897700,5.120897705078125,-1.399623155593872,-1.0897645950317383,0.596680760383606
1772811127339778000,5.130778076171875,-1.3847094774246216,-1.108406662940979,0.559396505355835
1772811127349658600,5.14065869140625,-1.3729915618896484,-1.1057435274124146,0.508263885974884
1772811127359539000,5.1505390625,-1.3650020360946655,-1.0764487981796265,0.45180490612983704
1772811127369419500,5.16041943359375,-1.362338900566101,-1.0205224752426147,0.39534592628479004
1772811127379300000,5.170300048828125,-1.3687304258346558,-0.9528782367706299,0.34687644243240356
1772811127389180400,5.180180419921875,-1.3767199516296387,-0.8761792778968811,0.3159838020801544
1772811127399061000,5.19006103515625,-1.3681977987289429,-0.7803055047988892,0.29521116614341736
1772811127408941300,5.19994140625,-1.3527514934539795,-0.6732465624809265,0.2840258777141571
1772811127418822000,5.20982177734375,-1.3309136629104614,-0.5747096538543701,0.2888195812702179
1772811127428702200,5.2197021484375,-1.3000209331512451,-0.4857601523399353,0.30905959010124207
1772811127438582800,5.229582763671875,-1.2701935768127441,-0.38988643884658813,0.33356064558029175
1772811127448463400,5.23946337890625,-1.2393009662628174,-0.2961432635784149,0.3591269552707672
1772811127458343700,5.24934375,-1.2078757286071777,-0.21411797404289246,0.38575854897499084
1772811127468224300,5.259224365234375,-1.1668630838394165,-0.1368863582611084,0.40440067648887634
1772811127478104600,5.2691044921875,-1.1167956590652466,-0.06285054981708527,0.4017375111579895
1772811127487985200,5.278985107421875,-1.0640650987625122,0.01012000348418951,0.374573290348053
1772811127497865700,5.28886572265625,-1.0113345384597778,0.07510107755661011,0.3314301073551178
1772811127507746600,5.29874658203125,-0.955940842628479,0.14274531602859497,0.2850911617279053
1772811127517627400,5.30862744140625,-0.8978840112686157,0.20879164338111877,0.2419479787349701
1772811127527508200,5.31850830078125,-0.8334355354309082,0.2755037844181061,0.2179795503616333
1772811127537389000,5.32838916015625,-0.7753787040710449,0.31971222162246704,0.21904481947422028
1772811127547270000,5.338269775390625,-0.7396923303604126,0.3314301073551178,0.24727429449558258
1772811127557150700,5.348150634765625,-0.7301049828529358,0.30479851365089417,0.2829606235027313
1772811127567031600,5.358031494140625,-0.7258439064025879,0.2462090253829956,0.31491851806640625
1772811127576912400,5.367912353515625,-0.6997449994087219,0.1705753207206726,0.34687644243240356
1772811127586793200,5.377793212890625,-0.6336986422538757,0.10825740545988083,0.38948696851730347
1772811127596674000,5.387674072265625,-0.5266396403312683,0.05339633300900459,0.45979437232017517
1772811127606555000,5.397554931640625,-0.38282907009124756,0.003728422336280346,0.5530049204826355
1772811127616435700,5.407435791015625,-0.21771323680877686,-0.03834948688745499,0.6872281432151794
1772811127626316500,5.417316650390625,-0.03235737979412079,-0.07297055423259735,0.8704534769058228
1772811127636197400,5.427197265625,0.14820478856563568,-0.11664635688066483,1.110137701034546
1772811127646078200,5.437078125,0.31012484431266785,-0.18695375323295593,1.3844431638717651
1772811127655959000,5.446958984375,0.44594594836235046,-0.2828274667263031,1.6843148469924927
1772811127665839900,5.45683984375,0.5508744120597839,-0.392549604177475,1.9975022077560425
1772811127675720700,5.466720703125,0.6344975829124451,-0.48416227102279663,2.30483078956604
1772811127685601500,5.4766015625,0.7255775928497314,-0.5507412552833557,2.6009740829467773
1772811127695482400,5.486482421875,0.8411586880683899,-0.6066675782203674,2.876344680786133
1772811127705363200,5.49636328125,0.9610008597373962,-0.6593981385231018,3.1101701259613037
1772811127715244000,5.506244140625,1.0659292936325073,-0.6993455290794373,3.2891342639923096
1772811127725124900,5.516124755859375,1.1463567018508911,-0.721716046333313,3.405780553817749
1772811127735005700,5.526005615234375,1.214000940322876,-0.738760232925415,3.441999673843384
1772811127744886500,5.535886474609375,1.264068365097046,-0.7568697333335876,3.405247926712036
1772811127754767400,5.545767333984375,1.2912325859069824,-0.7659244537353516,3.2981889247894287
1772811127764648200,5.555648193359375,1.2896347045898438,-0.7558044791221619,3.1149637699127197
1772811127774529000,5.565529052734375,1.2614052295684814,-0.730238139629364,2.8529088497161865
1772811127784409900,5.575409912109375,1.2054787874221802,-0.7025412917137146,2.5098941326141357
1772811127794290700,5.585290771484375,1.1138662099838257,-0.6833665370941162,2.0992348194122314
1772811127804171500,5.595171630859375,0.995621919631958,-0.6721813082695007,1.633182168006897
1772811127814052400,5.60505224609375,0.8576703071594238,-0.6636591553688049,1.1362366676330566
1772811127823933200,5.61493310546875,0.7048049569129944,-0.6487454771995544,0.6307691931724548
1772811127833814000,5.62481396484375,0.5242428183555603,-0.6407560110092163,0.13062794506549835
1772811127843694800,5.63469482421875,0.3026680052280426,-0.6327665448188782,-0.3466101288795471
1772811127853575700,5.64457568359375,0.06990791857242584,-0.5896233320236206,-0.774846076965332
1772811127863456500,5.65445654296875,-0.1356879472732544,-0.5054675340652466,-1.1551451683044434
1772811127873337300,5.66433740234375,-0.29441219568252563,-0.3776359260082245,-1.4976273775100708
1772811127883218200,5.67421826171875,-0.3950796127319336,-0.1789642721414566,-1.8124127388000488
1772811127893099000,5.68409912109375,-0.433429092168808,0.0798947662115097,-2.1117517948150635
1772811127902979800,5.693979736328125,-0.42543962597846985,0.36591801047325134,-2.402568817138672
1772811127912860700,5.703860595703125,-0.40200382471084595,0.6540718078613281,-2.6720802783966064
1772811127922741500,5.713741455078125,-0.3764374852180481,0.9368992447853088,-2.8856656551361084
1772811127932622300,5.723622314453125,-0.36312171816825867,1.2394341230392456,-3.0007143020629883
1772811127942503200,5.733503173828125,-0.36844801902770996,1.527587890625,-3.007638454437256
1772811127952384000,5.743384033203125,-0.357795387506485,1.7614132165908813,-2.9053730964660645
1772811127962264800,5.753264892578125,-0.32104378938674927,1.9526280164718628,-2.704038381576538
1772811127972145700,5.763145751953125,-0.2810963988304138,2.1065585613250732,-2.4441139698028564
1772811127982026500,5.773026611328125,-0.25180166959762573,2.2098891735076904,-2.159688711166382
1772811127991907300,5.7829072265625,-0.23742060363292694,2.2594239711761475,-1.8624801635742188
1772811128001788200,5.7927880859375,-0.23209428787231445,2.250502347946167,-1.5647389888763428
1772811128011669000,5.8026689453125,-0.20919112861156464,2.2025654315948486,-1.2638020515441895
1772811128021549800,5.8125498046875,-0.15805847942829132,2.1056265830993652,-0.96446293592453
1772811128031430700,5.8224306640625,-0.09094687551259995,1.9564895629882812,-0.6725807785987854
1772811128041311500,5.8323115234375,-0.004127896390855312,1.766872763633728,-0.41212382912635803
1772811128051192600,5.842192626953125,0.0954742431640625,1.558613657951355,-0.2065279632806778
1772811128061073400,5.852073486328125,0.19134795665740967,1.3247883319854736,-0.06111949309706688
1772811128070954200,5.861954345703125,0.2691121995449066,1.0888324975967407,0.019307902082800865
1772811128080835000,5.8718349609375,0.3394196033477783,0.8645945191383362,0.05499422922730446
1772811128090716000,5.8817158203125,0.40919435024261475,0.6515418291091919,0.07310371100902557
1772811128100597000,5.891596923828125,0.4810996353626251,0.4645880460739136,0.09707213938236237
1772811128110477800,5.901477783203125,0.5577986240386963,0.3298322260379791,0.13009530305862427
1772811128120358700,5.911358642578125,0.6440849304199219,0.23076270520687103,0.16777899861335754
1772811128130239500,5.921239501953125,0.7340997457504272,0.14980268478393555,0.21145480871200562
1772811128140120600,5.93112060546875,0.8145270943641663,0.09494160860776901,0.25672850012779236
1772811128150001400,5.94100146484375,0.8906934857368469,0.06191844120621681,0.29987168312072754
1772811128159882200,5.95088232421875,0.9673924446105957,0.013981583528220654,0.33715590834617615
1772811128169763000,5.96076318359375,1.043026089668274,-0.04407527670264244,0.3920169770717621
1772811128179644000,5.970643798828125,1.1133335828781128,-0.10000161081552505,0.47350963950157166
1772811128189525000,5.98052490234375,1.1926956176757812,-0.14154689013957977,0.5720465183258057
1772811128199405800,5.99040576171875,1.2789820432662964,-0.18895111978054047,0.6775075793266296
1772811128209286700,6.00028662109375,1.3578115701675415,-0.2583264112472534,0.780971348285675
1772811128219167500,6.01016748046875,1.4339778423309326,-0.325437992811203,0.8880302906036377
1772811128229048300,6.02004833984375,1.5090789794921875,-0.3866906464099884,0.9892303347587585
1772811128238929400,6.029929443359375,1.571396827697754,-0.4527370035648346,1.0813755989074707
1772811128248810200,6.039810302734375,1.6198663711547852,-0.5177180767059326,1.163933515548706
1772811128258691000,6.049691162109375,1.6603463888168335,-0.578970730304718,1.2369041442871094
1772811128268572000,6.059572021484375,1.6955000162124634,-0.6290380954742432,1.2922978401184082
1772811128278452700,6.06945263671875,1.7327842712402344,-0.6487454771995544,1.3136030435562134
1772811128288333800,6.079333740234375,1.7636768817901611,-0.6711159944534302,1.2944283485412598
1772811128298214700,6.089214599609375,1.784449577331543,-0.6801707744598389,1.243295669555664
1772811128308095500,6.099095458984375,1.7860474586486816,-0.6578001976013184,1.1570093631744385
1772811128317976300,6.108976318359375,1.7551548480987549,-0.6103960275650024,1.0265145301818848
1772811128327857200,6.118857177734375,1.6821842193603516,-0.5464801788330078,0.8613986968994141
1772811128337738200,6.12873828125,1.5634074211120605,-0.4772380590438843,0.6691186428070068
1772811128347619000,6.138619140625,1.3791167736053467,-0.4202464520931244,0.4384891092777252
1772811128357500000,6.1485,1.1282472610473633,-0.37071171402931213,0.17164058983325958
1772811128367380700,6.158380615234375,0.8400934338569641,-0.32863378524780273,-0.12024161964654922
1772811128377261800,6.16826171875,0.5519396662712097,-0.28921905159950256,-0.4190480411052704
1772811128387142700,6.178142578125,0.28722167015075684,-0.22050954401493073,-0.7125281691551208
1772811128397023500,6.1880234375,0.07150581479072571,-0.1278316229581833,-0.9756482243537903
1772811128406904300,6.197904296875,-0.06431528180837631,-0.012783162295818329,-1.1796462535858154
1772811128416785200,6.20778515625,-0.10799109190702438,0.12037477642297745,-1.3090757131576538
1772811128426666200,6.217666259765625,-0.09574055671691895,0.2407495528459549,-1.3660672903060913
1772811128436547000,6.227547119140625,-0.0744352862238884,0.34194958209991455,-1.3847094774246216
1772811128446428000,6.237427978515625,-0.0882837176322937,0.4298338294029236,-1.3889704942703247
1772811128456308700,6.247308837890625,-0.15273216366767883,0.49215173721313477,-1.3942967653274536
1772811128466189600,6.257189453125,-0.2544648349285126,0.5193159580230713,-1.400155782699585
1772811128476070700,6.267070556640625,-0.3849596083164215,0.515587568283081,-1.3820462226867676
1772811128485951500,6.276951416015625,-0.5218459963798523,0.5251749157905579,-1.3346420526504517
1772811128495832300,6.286832275390625,-0.6560691595077515,0.5299686193466187,-1.261671543121338
1772811128505713200,6.296713134765625,-0.7663239240646362,0.5081307291984558,-1.1716567277908325
1772811128515593700,6.30659375,-0.8494145274162292,0.47350963950157166,-1.0688587427139282
1772811128525474600,6.316474609375,-0.8984166383743286,0.41705065965652466,-0.9490166306495667
1772811128535355400,6.32635546875,-0.9207871556282043,0.32810115814208984,-0.8099997639656067
1772811128545236000,6.336236083984375,-0.9181240200996399,0.2125200778245926,-0.6416881084442139
1772811128555116800,6.34611669921875,-0.9080039858818054,0.06338317692279816,-0.4467448890209198
1772811128564997400,6.355997314453125,-0.8989492654800415,-0.12090741097927094,-0.22730059921741486
1772811128574878200,6.365878173828125,-0.8978840112686157,-0.33662328124046326,0.004394211806356907
1772811128584759000,6.375759033203125,-0.9122650623321533,-0.5639238953590393,0.2275669276714325
1772811128594639600,6.3856396484375,-0.9399619102478027,-0.7679218649864197,0.43263015151023865
1772811128604520400,6.3955205078125,-0.9873661398887634,-0.9502150416374207,0.6068007349967957
1772811128614401300,6.4054013671875,-1.0347703695297241,-1.1259835958480835,0.7447523474693298
1772811128624281900,6.41528173828125,-1.0757830142974854,-1.2884361743927002,0.8672576546669006
1772811128634162700,6.42516259765625,-1.1109366416931152,-1.4492909908294678,0.9886977076530457
1772811128644043500,6.43504345703125,-1.143959879875183,-1.6133415699005127,1.1181272268295288
1772811128653924000,6.444924072265625,-1.1631345748901367,-1.7779247760772705,1.256078839302063
1772811128663805000,6.454804931640625,-1.1673957109451294,-1.9547585248947144,1.4078788757324219
1772811128673685800,6.464685791015625,-1.1663304567337036,-2.163017511367798,1.5772558450698853
1772811128683566300,6.47456640625,-1.1604714393615723,-2.3627545833587646,1.7631442546844482
1772811128693447200,6.484447265625,-1.1540799140930176,-2.525207281112671,1.9287927150726318
1772811128703328000,6.494327880859375,-1.1530146598815918,-2.6599631309509277,2.0385148525238037
1772811128713208600,6.50420849609375,-1.1594061851501465,-2.766489267349243,2.0880496501922607
1772811128723089400,6.51408935546875,-1.1732546091079712,-2.826144218444824,2.092310667037964
1772811128732970000,6.523969970703125,-1.194559931755066,-2.8293399810791016,2.0640811920166016
1772811128742850800,6.533850830078125,-1.233441948890686,-2.791522979736328,2.017742156982422
1772811128752731600,6.543731689453125,-1.2856398820877075,-2.70843243598938,1.9490327835083008
1772811128762612200,6.5536123046875,-1.3431642055511475,-2.57314395904541,1.8707358837127686
1772811128772493000,6.5634931640625,-1.4070799350738525,-2.3936471939086914,1.7881779670715332
1772811128782374000,6.573373779296875,-1.476322054862976,-2.1843228340148926,1.697097897529602
1772811128792254500,6.58325439453125,-1.5397052764892578,-1.9499648809432983,1.608148455619812
1772811128802135300,6.59313525390625,-1.5908379554748535,-1.695899486541748,1.494165301322937
1772811128812016000,6.60301611328125,-1.623328447341919,-1.4551500082015991,1.3684641122817993
1772811128821896700,6.612896728515625,-1.6451663970947266,-1.2479562759399414,1.2480894327163696
1772811128831777500,6.622777587890625,-1.6451663970947266,-1.0748509168624878,1.1431609392166138
1772811128841658400,6.632658447265625,-1.6361116170883179,-0.9470192790031433,1.0531461238861084
1772811128851539000,6.6425390625,-1.6116105318069458,-0.8703203201293945,0.9668598175048828
1772811128861419800,6.652419677734375,-1.588707447052002,-0.8213181495666504,0.8651271462440491
1772811128871300400,6.66230029296875,-1.563673734664917,-0.8037413358688354,0.7415565848350525
1772811128881181200,6.67218115234375,-1.5375747680664062,-0.8186550140380859,0.6078659892082214
1772811128891062000,6.68206201171875,-1.5104105472564697,-0.8351665735244751,0.4784364700317383
1772811128900942600,6.691942626953125,-1.4800505638122559,-0.8362318873405457,0.36285537481307983
1772811128910823400,6.701823486328125,-1.4358420372009277,-0.8415581583976746,0.28136274218559265
1772811128920704300,6.711704345703125,-1.3618062734603882,-0.8468844890594482,0.24248060584068298
1772811128930584800,6.721584716796875,-1.2627367973327637,-0.8287750482559204,0.21158796548843384
1772811128940465700,6.731465576171875,-1.1578083038330078,-0.788827657699585,0.15566162765026093
1772811128950346500,6.741346435546875,-1.0619345903396606,-0.7430213093757629,0.07416897267103195
1772811128960227000,6.75122705078125,-0.9783113598823547,-0.6737791895866394,-0.01957421749830246
1772811128970108000,6.76110791015625,-0.8994818925857544,-0.5816338658332825,-0.10532793402671814
1772811128979988700,6.77098876953125,-0.8281092047691345,-0.48256438970565796,-0.16658058762550354
1772811128989869300,6.780869384765625,-0.7620629072189331,-0.3776359260082245,-0.19108164310455322
1772811128999750400,6.79075048828125,-0.7162565588951111,-0.26152220368385315,-0.18522270023822784
1772811129009631500,6.800631591796875,-0.683233380317688,-0.1368863582611084,-0.16658058762550354
1772811129019512600,6.8105126953125,-0.6613954901695251,-0.03408843278884888,-0.13728584349155426
1772811129029394000,6.820393798828125,-0.641155481338501,0.03834948688745499,-0.0930773988366127
1772811129039275000,6.83027490234375,-0.6060017943382263,0.07243791967630386,-0.03928159177303314
1772811129049156400,6.84015625,-0.5591301918029785,0.06817686557769775,0.01344895176589489
1772811129059037400,6.850037353515625,-0.5042691230773926,0.046871595084667206,0.06777739524841309
1772811129068918800,6.859918701171875,-0.4424838423728943,0.00426105409860611,0.1290300488471985
1772811129078800000,6.8697998046875,-0.3769701421260834,-0.042610540986061096,0.20040270686149597
1772811129088681000,6.879680908203125,-0.2965427339076996,-0.0894821360707283,0.28455850481987
1772811129098562300,6.889562255859375,-0.19960375130176544,-0.13369056582450867,0.37670382857322693
1772811129108443400,6.899443359375,-0.09254477173089981,-0.15872426331043243,0.47577333450317383
1772811129118324700,6.90932470703125,0.010785792954266071,-0.1789642721414566,0.5737775564193726
1772811129128205800,6.919205810546875,0.10879004001617432,-0.19441059231758118,0.6691186428070068
1772811129138087200,6.929087158203125,0.1897500604391098,-0.20559586584568024,0.7655249834060669
1772811129147968300,6.93896826171875,0.254731148481369,-0.21305270493030548,0.8571376800537109
1772811129157849300,6.948849365234375,0.29148274660110474,-0.23915165662765503,0.9093355536460876
1772811129167730700,6.958730712890625,0.3127880096435547,-0.27537062764167786,0.8874976634979248
1772811129177611800,6.96861181640625,0.3553985357284546,-0.3451453745365143,0.7942871451377869
1772811129187493000,6.9784931640625,0.4214448928833008,-0.3526022136211395,0.6547375917434692
1772811129197374200,6.988374267578125,0.4864259660243988,-0.32703590393066406,0.47577333450317383
1772811129207255600,6.998255615234375,0.5428849458694458,-0.31265485286712646,0.27337324619293213
1772811129217136600,7.00813671875,0.6030722856521606,-0.29880642890930176,0.09867003560066223
1772811129227017700,7.018017822265625,0.6856302618980408,-0.24767376482486725,-0.008921582251787186
1772811129236899000,7.027899169921875,0.773514449596405,-0.14966952800750732,-0.0366184338927269
1772811129246780200,7.0377802734375,0.8448871374130249,-0.029294747859239578,-0.006258423440158367
1772811129256661500,7.04766162109375,0.899215579032898,0.11824425309896469,0.06564686447381973
1772811129266542600,7.05754248046875,0.9466198086738586,0.2822948396205902,0.17377111315727234
1772811129276423700,7.067423583984375,0.9849692583084106,0.44581279158592224,0.32450589537620544
1772811129286305000,7.077304931640625,1.0068072080612183,0.5805686116218567,0.5151880979537964
1772811129296186000,7.08718603515625,1.0233187675476074,0.6636591553688049,0.7197186946868896
1772811129306067500,7.0970673828125,1.0361019372940063,0.7137265801429749,0.9008134603500366
1772811129315948500,7.106948486328125,1.038232445716858,0.7291728854179382,1.0515482425689697
1772811129325830000,7.116829833984375,1.0307756662368774,0.7099981307983398,1.1857714653015137
1772811129335711000,7.1267109375,1.0222535133361816,0.6540718078613281,1.327984094619751
1772811129345592000,7.136592041015625,1.0110682249069214,0.5661875605583191,1.4840452671051025
1772811129355473400,7.146473388671875,0.9855019450187683,0.45540016889572144,1.6539547443389893
1772811129365354500,7.1563544921875,0.9492829442024231,0.32863378524780273,1.8222664594650269
1772811129375235800,7.16623583984375,0.907737672328949,0.18642111122608185,1.969805359840393
1772811129385117000,7.176116943359375,0.869388222694397,0.04527369886636734,2.066744327545166
1772811129394998300,7.185998291015625,0.8246471285820007,-0.07137265801429749,2.0795276165008545
1772811129404879400,7.19587939453125,0.7713839411735535,-0.15446321666240692,1.9943064451217651
1772811129414760400,7.205760498046875,0.7181207537651062,-0.20453059673309326,1.8030916452407837
1772811129424641800,7.215641845703125,0.6488786339759827,-0.24394534528255463,1.5080137252807617
1772811129434523000,7.22552294921875,0.5476785898208618,-0.26152220368385315,1.1287798881530762
1772811129444404200,7.235404296875,0.41931435465812683,-0.2636527121067047,0.6861628890037537
1772811129454285300,7.245285400390625,0.2563290297985077,-0.2396842986345291,0.20679427683353424
1772811129464166700,7.255166748046875,0.06884265691041946,-0.17789900302886963,-0.27470484375953674
1772811129474047700,7.2650478515625,-0.10905635356903076,-0.06711160391569138,-0.7226481437683105
1772811129483928800,7.2749287109375,-0.259258508682251,0.08628634363412857,-1.1114693880081177
1772811129493810200,7.28481005859375,-0.3727090656757355,0.2700442969799042,-1.4214609861373901
1772811129503691300,7.294691162109375,-0.44994068145751953,0.4713791012763977,-1.6547536849975586
1772811129513572400,7.304572265625,-0.48669227957725525,0.6945518255233765,-1.8060210943222046
1772811129523453700,7.31445361328125,-0.4850943684577942,0.9262466430664062,-1.8757959604263306
1772811129533334800,7.324334716796875,-0.44354909658432007,1.1392993927001953,-1.8694043159484863
1772811129543215900,7.3342158203125,-0.35886064171791077,1.3102741241455078,-1.7932380437850952
1772811129553097000,7.344096923828125,-0.25180166959762573,1.4631394147872925,-1.6520905494689941
1772811129562978300,7.353978271484375,-0.14154689013957977,1.581916332244873,-1.4555494785308838
1772811129572859400,7.363859375,-0.054727911949157715,1.636777400970459,-1.2281156778335571
1772811129582740500,7.373740478515625,0.003861580276861787,1.6378426551818848,-0.9756482243537903
1772811129592621600,7.38362158203125,0.039547909051179886,1.589373230934143,-0.6965491771697998
1772811129602503000,7.3935029296875,0.07257107645273209,1.5238595008850098,-0.4094606637954712
1772811129612384000,7.403384033203125,0.09973529726266861,1.430648922920227,-0.15592794120311737
1772811129622265000,7.41326513671875,0.12263846397399902,1.314535140991211,0.028362641111016273
1772811129632146200,7.423146240234375,0.14820478856563568,1.1787140369415283,0.1386174112558365
1772811129642027500,7.433027587890625,0.18335849046707153,1.0375666618347168,0.19081532955169678
1772811129651908600,7.44290869140625,0.22543638944625854,0.9017455577850342,0.19720691442489624
1772811129661789700,7.452789794921875,0.27284061908721924,0.7637939453125,0.17430374026298523
1772811129671670800,7.4626708984375,0.32344064116477966,0.6476802229881287,0.11518161743879318
1772811129681552100,7.47255224609375,0.37084487080574036,0.5502086281776428,0.020373165607452393
1772811129691433200,7.48243310546875,0.4102596044540405,0.46072646975517273,-0.09201213717460632
1772811129701314300,7.492314208984375,0.4352933168411255,0.3829622268676758,-0.21771323680877686
1772811129711195400,7.5021953125,0.44594594836235046,0.329166442155838,-0.34447959065437317
1772811129721076700,7.51207666015625,0.450206995010376,0.27537062764167786,-0.45366910099983215
1772811129730957800,7.521957763671875,0.4539354145526886,0.21305270493030548,-0.519715428352356
1772811129740839000,7.5318388671875,0.4736427962779999,0.17363795638084412,-0.5394228100776672
1772811129750720300,7.54172021484375,0.5109270215034485,0.14008215069770813,-0.5293028354644775
1772811129760601300,7.551601318359375,0.5572659969329834,0.10120003670454025,-0.5005406737327576
1772811129770482400,7.561482421875,0.6094638705253601,0.05379580706357956,-0.44887542724609375
1772811129780363500,7.571363525390625,0.6803039312362671,0.02024000696837902,-0.370045930147171
1772811129790244600,7.58124462890625,0.7719165682792664,0.001597895286977291,-0.2720416784286499
1772811129800126000,7.5911259765625,0.8709861040115356,-0.043143171817064285,-0.16285216808319092
1772811129810007000,7.601007080078125,0.9588703513145447,-0.09534108638763428,-0.037683695554733276
1772811129819888000,7.61088818359375,1.0361019372940063,-0.13901689648628235,0.09653950482606888
1772811129829769500,7.62076953125,1.1032135486602783,-0.18482321500778198,0.22064270079135895
1772811129839650600,7.630650634765625,1.1511503458023071,-0.2455432415008545,0.3255711793899536
1772811129849531600,7.64053173828125,1.1751188039779663,-0.30306747555732727,0.4075964689254761
1772811129859412700,7.650412841796875,1.1729882955551147,-0.358993798494339,0.4667185842990875
1772811129869293800,7.6602939453125,1.147421956062317,-0.415452778339386,0.5040028095245361
1772811129879175200,7.670175048828125,1.1165293455123901,-0.47404226660728455,0.5215796828269958
1772811129889056300,7.68005615234375,1.0893651247024536,-0.5315665006637573,0.5301017761230469
1772811129898937300,7.689937255859375,1.0520808696746826,-0.5928191542625427,0.5263733267784119
1772811129908818700,7.699818603515625,1.0137313604354858,-0.6279728412628174,0.5103943943977356
1772811129918699800,7.70969970703125,0.9508808255195618,-0.6311686635017395,0.46565333008766174
1772811129928580900,7.719580810546875,0.8262450098991394,-0.6317012906074524,0.37563854455947876
1772811129938462000,7.7294619140625,0.625975489616394,-0.612526535987854,0.2323606014251709
1772811129948343300,7.73934326171875,0.39534592628479004,-0.5518065094947815,0.04540685936808586
1772811129958224400,7.749224365234375,0.20253323018550873,-0.4655201733112335,-0.15752583742141724
1772811129968105500,7.75910546875,0.0720384493470192,-0.34621065855026245,-0.34075117111206055
1772811129977986600,7.768986572265625,-0.0009321055840700865,-0.20453059673309326,-0.47710490226745605
1772811129987868000,7.778867919921875,-0.017443690448999405,-0.05326317623257637,-0.552738606929779
1772811129997749000,7.7887490234375,0.006524738855659962,0.10013477504253387,-0.5671196579933167
1772811130007630000,7.798630126953125,0.056059494614601135,0.24234744906425476,-0.528237521648407
1772811130017511200,7.80851123046875,0.10346371680498123,0.35526537895202637,-0.46805015206336975
1772811130027392300,7.818392333984375,0.1237037256360054,0.4431496262550354,-0.4046669900417328
1772811130037273300,7.8282734375,0.10612688213586807,0.49641281366348267,-0.3434143364429474
1772811130047154400,7.838154541015625,0.06404896825551987,0.5075980424880981,-0.2805637717247009
1772811130057035800,7.848035888671875,0.009720529429614544,0.49215173721313477,-0.20439743995666504
1772811130066916900,7.857916748046875,-0.04886896535754204,0.4484759569168091,-0.13409005105495453
1772811130076798000,7.8677978515625,-0.11278477311134338,0.3691138029098511,-0.08508792519569397
1772811130086679000,7.877678955078125,-0.17030900716781616,0.2535327076911926,-0.0696416050195694
1772811130096560000,7.88756005859375,-0.21664796769618988,0.12516845762729645,-0.0739026591181755
1772811130106441200,7.897441162109375,-0.25606271624565125,-0.035153694450855255,-0.08615318685770035
1772811130116322300,7.907322265625,-0.2965427339076996,-0.21784639358520508,-0.09094687551259995
1772811130126203600,7.91720361328125,-0.33968591690063477,-0.4042675197124481,-0.07496792078018188
1772811130136084700,7.927084716796875,-0.3817638158798218,-0.5725791454315186,-0.03981422260403633
1772811130145965800,7.9369658203125,-0.43023329973220825,-0.7275750041007996,0.004926843568682671
1772811130155847000,7.946846923828125,-0.4893554449081421,-0.8655266165733337,0.043276332318782806
1772811130165728000,7.95672802734375,-0.5559344291687012,-0.9736508727073669,0.07363633811473846
1772811130175609000,7.966609130859375,-0.6299701929092407,-1.0551434755325317,0.1002679318189621
1772811130185490200,7.976490234375,-0.6976144313812256,-1.1227877140045166,0.12104056775569916
1772811130195371300,7.986371337890625,-0.762595534324646,-1.18830144405365,0.13701951503753662
1772811130205252600,7.996252685546875,-0.8121302723884583,-1.2362383604049683,0.156194269657135
1772811130215133700,8.0061337890625,-0.8376966118812561,-1.2639352083206177,0.1801626980304718
1772811130225014800,8.016014892578125,-0.8440881967544556,-1.3028173446655273,0.2233058661222458
1772811130234896000,8.025895751953126,-0.8387618660926819,-1.3528846502304077,0.2978743016719818
1772811130244777000,8.03577685546875,-0.8291745185852051,-1.414137363433838,0.4017375111579895
1772811130254658000,8.045657958984375,-0.8142607808113098,-1.4833794832229614,0.53436279296875
1772811130264539100,8.0555390625,-0.8110650181770325,-1.569665789604187,0.6824344396591187
1772811130274420200,8.065420166015626,-0.8339681625366211,-1.6586153507232666,0.8438218832015991
1772811130284301600,8.075301513671874,-0.8813723921775818,-1.7470321655273438,1.0041440725326538
1772811130294182700,8.0851826171875,-0.947418749332428,-1.8237311840057373,1.1490198373794556
1772811130304063700,8.095063720703125,-1.0241177082061768,-1.8775269985198975,1.273123025894165
1772811130313944800,8.10494482421875,-1.1082735061645508,-1.9030933380126953,1.3663336038589478
1772811130323826000,8.114825927734374,-1.1998862028121948,-1.8982995748519897,1.4238578081130981
1772811130333707000,8.12470703125,-1.2851072549819946,-1.8759291172027588,1.43717360496521
1772811130343588000,8.134588134765625,-1.3596757650375366,-1.8306553363800049,1.4116073846817017
1772811130353469200,8.14446923828125,-1.4278526306152344,-1.7678048610687256,1.3578115701675415
1772811130363350300,8.154350341796874,-1.4864420890808105,-1.6884427070617676,1.2922978401184082
1772811130373231600,8.164231689453125,-1.5370421409606934,-1.607482671737671,1.2241209745407104
1772811130383112700,8.17411279296875,-1.581250548362732,-1.527055263519287,1.1602051258087158
1772811130392993800,8.183993896484376,-1.628122091293335,-1.456215262413025,1.1117357015609741
1772811130402875000,8.193875,-1.6744611263275146,-1.3970930576324463,1.0776472091674805
1772811130412756000,8.203755859375,-1.7154737710952759,-1.3486236333847046,1.045689344406128
1772811130422637000,8.213636962890625,-1.7506273984909058,-1.2980235815048218,1.0137313604354858
1772811130432518100,8.22351806640625,-1.7783242464065552,-1.2522172927856445,0.9796429872512817
1772811130442399200,8.233399169921874,-1.7921726703643799,-1.200019359588623,0.9423587322235107
1772811130452280600,8.243280517578125,-1.7884442806243896,-1.1446256637573242,0.9018787145614624
1772811130462161700,8.25316162109375,-1.7596821784973145,-1.0871014595031738,0.8598008155822754
1772811130472042800,8.263042724609376,-1.7106800079345703,-1.0306425094604492,0.8129292130470276
1772811130481923800,8.272923828125,-1.643568515777588,-0.9795098304748535,0.7676555514335632
1772811130491805000,8.282804931640625,-1.5578147172927856,-0.9134634733200073,0.7138597369194031
1772811130501685500,8.292685546875,-1.4630062580108643,-0.8570045232772827,0.6483460068702698
1772811130511565800,8.30256591796875,-1.3681977987289429,-0.8069370985031128,0.583897590637207
1772811130521446000,8.31244580078125,-1.2691283226013184,-0.7632613182067871,0.5242428183555603
1772811130531326200,8.322326171875,-1.1716567277908325,-0.7297055125236511,0.47524067759513855
1772811130541206500,8.33220654296875,-1.0795114040374756,-0.7062697410583496,0.4304996132850647
1772811130551086800,8.3420869140625,-0.9889640212059021,-0.679638147354126,0.38149750232696533
1772811130560967000,8.351966796875,-0.9117324352264404,-0.6567349433898926,0.33356064558029175
1772811130570847200,8.36184716796875,-0.8323702812194824,-0.6370275616645813,0.2930806279182434
1772811130580727600,8.3717275390625,-0.7487471103668213,-0.6114612817764282,0.25899219512939453
1772811130590607600,8.381607666015626,-0.6597976088523865,-0.5896233320236206,0.23395849764347076
1772811130600488000,8.391488037109376,-0.5687175393104553,-0.5619264841079712,0.21638165414333344
1772811130610368300,8.4013681640625,-0.47657227516174316,-0.5150549411773682,0.199337437748909
1772811130620248600,8.41124853515625,-0.3961448669433594,-0.446878045797348,0.1753690093755722
1772811130630128600,8.421128662109375,-0.3237069547176361,-0.3717769682407379,0.14447636902332306
1772811130640009000,8.431009033203125,-0.25180166959762573,-0.27537062764167786,0.11624687910079956
1772811130649889300,8.44088916015625,-0.1777658462524414,-0.1747032105922699,0.09387634694576263
1772811130659769600,8.45076953125,-0.0978710874915123,-0.06870950013399124,0.07789739221334457
1772811130669649700,8.460649658203126,-0.013182636350393295,0.02503369376063347,0.07363633811473846
1772811130679530000,8.470530029296874,0.06777739524841309,0.11238530278205872,0.07523423433303833
1772811130689410300,8.480410400390625,0.14554162323474884,0.18162743747234344,0.09227845072746277
1772811130699290600,8.49029052734375,0.22117534279823303,0.2263685017824173,0.12583425641059875
1772811130709170700,8.500170654296875,0.2888195812702179,0.2535327076911926,0.18602164089679718
1772811130719051000,8.510051025390625,0.33888694643974304,0.24660851061344147,0.25845956802368164
1772811130728931300,8.519931396484376,0.3692469596862793,0.21784639358520508,0.3127880096435547
1772811130738811600,8.529811767578124,0.4028027653694153,0.20506322383880615,0.31864693760871887
1772811130748691700,8.539691650390624,0.45713120698928833,0.1933453232049942,0.28455850481987
1772811130758572000,8.549572021484375,0.5487438440322876,0.18002954125404358,0.24887219071388245
1772811130768452400,8.559452392578125,0.6669881343841553,0.16884426772594452,0.21904481947422028
1772811130778332400,8.56933251953125,0.8219839930534363,0.15765899419784546,0.20146796107292175
1772811130788212700,8.579212646484375,1.0185251235961914,0.14061477780342102,0.20785954594612122
1772811130798093000,8.589093017578126,1.2416977882385254,0.09214529395103455,0.26165536046028137
1772811130807973400,8.598973388671874,1.462207317352295,0.023968428373336792,0.3729753792285919
1772811130817853400,8.608853515625,1.6496937274932861,-0.05752423033118248,0.5402217507362366
1772811130827733800,8.618733642578125,1.802026391029358,-0.1459411084651947,0.7511439323425293
1772811130837614000,8.628614013671875,1.9160096645355225,-0.22050954401493073,0.9892303347587585
1772811130847494400,8.638494384765625,1.9975022077560425,-0.27110958099365234,1.2496873140335083
1772811130857374500,8.64837451171875,2.047569751739502,-0.3014695644378662,1.5245252847671509
1772811130867254800,8.6582548828125,2.051298141479492,-0.2929474711418152,1.8126790523529053
1772811130877135000,8.668135009765624,1.9969695806503296,-0.23276008665561676,2.116279125213623
1772811130887015200,8.67801513671875,1.905357003211975,-0.15339794754981995,2.4076287746429443
1772811130896895500,8.6878955078125,1.8084180355072021,-0.12463583052158356,2.6302688121795654
1772811130906775800,8.69777587890625,1.6955000162124634,-0.10918951034545898,2.761828899383545
1772811130916656000,8.70765625,1.5799189805984497,-0.07669897377490997,2.804971933364868
1772811130926536200,8.7175361328125,1.4675337076187134,-0.026098955422639847,2.7527740001678467
1772811130936416500,8.72741650390625,1.353017807006836,0.02077263966202736,2.6004414558410645
1772811130946296800,8.737296875,1.2278493642807007,0.06817686557769775,2.359159231185913
1772811130956177200,8.74717724609375,1.0936261415481567,0.13209268450737,2.0236012935638428
1772811130966057200,8.75705712890625,0.9572724103927612,0.1789642721414566,1.5815168619155884
1772811130975937500,8.7669375,0.8182555437088013,0.16405057907104492,1.0808429718017578
1772811130985817900,8.77681787109375,0.6371607184410095,0.11824425309896469,0.5567333698272705
1772811130995698200,8.7866982421875,0.41398802399635315,0.06231791526079178,0.02143842913210392
1772811131005578800,8.796578857421874,0.1620532125234604,-0.002130527049303055,-0.510660707950592
1772811131015459300,8.806459228515624,-0.1165132001042366,-0.054861072450876236,-1.0166609287261963
1772811131025340200,8.816340087890625,-0.41212382912635803,-0.08628634363412857,-1.4741915464401245
1772811131035220700,8.826220703125,-0.7024081349372864,-0.10599371790885925,-1.8752633333206177
1772811131045101600,8.8361015625,-0.9543429613113403,-0.08522108197212219,-2.2294633388519287
1772811131054982100,8.845982177734374,-1.1562104225158691,-0.00426105409860611,-2.5421183109283447
1772811131064863000,8.855863037109375,-1.2962925434112549,0.1597895324230194,-2.8169562816619873
1772811131074743600,8.86574365234375,-1.3847094774246216,0.3669832944869995,-3.055575370788574
1772811131084624400,8.875624267578125,-1.4358420372009277,0.6199833750724792,-3.244126796722412
1772811131094505000,8.8855048828125,-1.4459620714187622,0.9155939817428589,-3.3517184257507324
1772811131104385800,8.8953857421875,-1.4113410711288452,1.217063546180725,-3.3575775623321533
1772811131114266400,8.905266357421874,-1.3303810358047485,1.478053092956543,-3.2734217643737793
1772811131124147200,8.915147216796875,-1.2142672538757324,1.6953668594360352,-3.1040446758270264
1772811131134027800,8.92502783203125,-1.08217453956604,1.884451150894165,-2.8648931980133057
1772811131143908400,8.934908447265625,-0.9442229270935059,2.072470188140869,-2.5783371925354004
1772811131153789200,8.9447890625,-0.792422890663147,2.2200090885162354,-2.2662150859832764
1772811131163669800,8.954669677734374,-0.6262418031692505,2.2929797172546387,-1.933320164680481
1772811131173550600,8.964550537109375,-0.47763752937316895,2.306828260421753,-1.5903053283691406
1772811131183431200,8.97443115234375,-0.3492732644081116,2.282327175140381,-1.2504862546920776
1772811131193312000,8.98431201171875,-0.24008376896381378,2.1949753761291504,-0.9399619102478027
1772811131203192600,8.994192626953126,-0.13728584349155426,2.049034357070923,-0.6390249729156494
1772811131213073400,9.004073486328124,-0.049934227019548416,1.850362777709961,-0.35566484928131104
1772811131222954000,9.0139541015625,0.03741738200187683,1.6026890277862549,-0.10586056113243103
1772811131232834800,9.023834716796875,0.11731214821338654,1.3118720054626465,0.10080055892467499
1772811131242715400,9.03371533203125,0.1892174333333969,0.9922930002212524,0.27284061908721924
1772811131252596200,9.04359619140625,0.2510027289390564,0.6711159944534302,0.4155859351158142
1772811131262476800,9.053476806640624,0.30533117055892944,0.36538538336753845,0.529569149017334
1772811131272357600,9.063357666015625,0.3591269552707672,0.09108003228902817,0.6195839047431946
1772811131282238200,9.07323828125,0.41665118932724,-0.11877688020467758,0.6803039312362671
1772811131292119000,9.083119140625,0.481632262468338,-0.27696850895881653,0.7111965417861938
1772811131301999600,9.09299951171875,0.5418196320533752,-0.3968106508255005,0.7255775928497314
1772811131311880400,9.10288037109375,0.5998765230178833,-0.4761728048324585,0.7404913306236267
1772811131321761000,9.112760986328125,0.6637923121452332,-0.5166528224945068,0.756470263004303
1772811131331641600,9.1226416015625,0.7287734150886536,-0.5289033651351929,0.7804386615753174
1772811131341522400,9.1325224609375,0.802276611328125,-0.5102612376213074,0.8012113571166992
1772811131351403000,9.142403076171876,0.8757797479629517,-0.468183308839798,0.8182555437088013
1772811131361283800,9.152283935546874,0.949815571308136,-0.4181159436702728,0.8352997899055481
1772811131371164400,9.162164306640625,1.0121334791183472,-0.3685811758041382,0.8496808409690857
1772811131381045200,9.172045166015625,1.0680598020553589,-0.314785361289978,0.8715187311172485
1772811131390925800,9.18192578125,1.1117357015609741,-0.2599242925643921,0.8922913670539856
1772811131400806700,9.191806640625,1.1388999223709106,-0.22357217967510223,0.9119987487792969
1772811131410687200,9.201687255859374,1.1623356342315674,-0.20399796962738037,0.928510308265686
1772811131420568000,9.211568115234375,1.2001525163650513,-0.17523585259914398,0.9380977153778076
1772811131430448600,9.22144873046875,1.2411651611328125,-0.1656484752893448,0.9279776811599731
1772811131440329500,9.23132958984375,1.2752536535263062,-0.17044216394424438,0.9061397910118103
1772811131450210000,9.2412099609375,1.293363094329834,-0.18535585701465607,0.8731166124343872
1772811131460091000,9.2510908203125,1.3072115182876587,-0.20612849295139313,0.8283755779266357
1772811131469971500,9.260971435546875,1.3120051622390747,-0.2354232370853424,0.7681881785392761
1772811131479852300,9.270852294921875,1.3066788911819458,-0.260456919670105,0.7048049569129944
1772811131489732900,9.28073291015625,1.2880367040634155,-0.2790990471839905,0.6403565406799316
1772811131499613700,9.29061376953125,1.25554621219635,-0.2961432635784149,0.5796365141868591
1772811131509494500,9.30049462890625,1.1990872621536255,-0.32863378524780273,0.5237101912498474
1772811131519375400,9.310375244140625,1.0893651247024536,-0.3904190957546234,0.4406196177005768
1772811131529256400,9.32025634765625,0.9189229607582092,-0.4527370035648346,0.3170490562915802
1772811131539137300,9.33013720703125,0.7378281354904175,-0.49801069498062134,0.16258583962917328
1772811131549018000,9.34001806640625,0.5945501923561096,-0.524642288684845,-0.00519315991550684
1772811131558899000,9.34989892578125,0.5338301658630371,-0.5166528224945068,-0.15699321031570435
1772811131568780000,9.359780029296875,0.5487438440322876,-0.47830331325531006,-0.2901511490345001
1772811131578660900,9.369660888671875,0.6046702265739441,-0.4202464520931244,-0.40626487135887146
1772811131588541700,9.379541748046876,0.7000113129615784,-0.35206958651542664,-0.49095332622528076
1772811131598422800,9.3894228515625,0.8092008233070374,-0.28921905159950256,-0.5330312252044678
1772811131608303600,9.3993037109375,0.8869650363922119,-0.2593916654586792,-0.5474122762680054
1772811131618184400,9.409184326171875,0.8906934857368469,-0.24288007616996765,-0.5500754714012146
1772811131628065300,9.419065185546875,0.7820366024971008,-0.20506322383880615,-0.535694420337677
1772811131637946400,9.4289462890625,0.5759080648422241,-0.164583221077919,-0.5063996315002441
1772811131647827200,9.4388271484375,0.31012484431266785,-0.13848425447940826,-0.46698489785194397
1772811131657708000,9.4487080078125,0.0027963167522102594,-0.11132004112005234,-0.4286354184150696
1772811131667589000,9.458589111328125,-0.3338269591331482,-0.07030738890171051,-0.4078627824783325
1772811131677470000,9.468469970703126,-0.6677870750427246,-0.026631588116288185,-0.4041343629360199
1772811131687350800,9.478350830078124,-0.9665935039520264,-0.01012000348418951,-0.4126564562320709
1772811131697232000,9.48823193359375,-1.2025493383407593,-0.011717898771166801,-0.4185154139995575
1772811131707112700,9.49811279296875,-1.3692630529403687,-0.001597895286977291,-0.4185154139995575
1772811131716993500,9.50799365234375,-1.4901704788208008,0.017576847225427628,-0.414254367351532
1772811131726874600,9.51787451171875,-1.5849789381027222,0.022903166711330414,-0.41691750288009644
1772811131736755500,9.52775537109375,-1.6808526515960693,-0.01012000348418951,-0.4281027913093567
1772811131746636300,9.53763623046875,-1.779389500617981,-0.070840023458004,-0.4382227957248688
1772811131756517000,9.54751708984375,-1.8603495359420776,-0.15180005133152008,-0.44887542724609375
1772811131766398200,9.557398193359376,-1.9274611473083496,-0.2263685017824173,-0.4605933129787445
1772811131776279000,9.567279052734374,-1.9839200973510742,-0.28549063205718994,-0.4696480631828308
1772811131786159900,9.577159912109375,-2.020139217376709,-0.3302316963672638,-0.46325647830963135
1772811131796041000,9.587041015625,-2.0286612510681152,-0.37017908692359924,-0.44514700770378113
1772811131805921800,9.596921875,-2.014812707901001,-0.4063980281352997,-0.410525918006897
1772811131815802600,9.606802734375,-1.9855180978775024,-0.4234422445297241,-0.3519364297389984
1772811131825683500,9.616683349609374,-1.9439728260040283,-0.43196436762809753,-0.27523747086524963
1772811131835564500,9.626564453125,-1.8917748928070068,-0.438355952501297,-0.1964079588651657
1772811131845445400,9.6364453125,-1.8315874338150024,-0.43516016006469727,-0.12450267374515533
1772811131855326200,9.646326171875,-1.7724653482437134,-0.4298338294029236,-0.06378265470266342
1772811131865207300,9.656207275390624,-1.7112126350402832,-0.423974871635437,-0.01531316339969635
1772811131875088100,9.666088134765625,-1.6552863121032715,-0.40746331214904785,0.019307902082800865
1772811131884969000,9.675968994140625,-1.6164042949676514,-0.3813643455505371,0.048602648079395294
1772811131894850000,9.68585009765625,-1.5881747007369995,-0.358993798494339,0.08695213496685028
1772811131904731000,9.69573095703125,-1.556216835975647,-0.3344927430152893,0.13968268036842346
1772811131914611700,9.70561181640625,-1.5146715641021729,-0.31798115372657776,0.21105533838272095
1772811131924492500,9.715492431640625,-1.4630062580108643,-0.29454535245895386,0.2930806279182434
1772811131934373600,9.72537353515625,-1.404416799545288,-0.23755376040935516,0.34847432374954224
1772811131944254500,9.73525439453125,-1.3410335779190063,-0.13102741539478302,0.33462589979171753
1772811131954135300,9.74513525390625,-1.2946946620941162,0.02450106106698513,0.26272061467170715
1772811131964016400,9.755016357421875,-1.2819114923477173,0.19920428097248077,0.15939006209373474
1772811131973897200,9.764897216796875,-1.2941620349884033,0.3488737940788269,0.06831002235412598
1772811131983778000,9.774778076171875,-1.3277177810668945,0.4713791012763977,0.02516685053706169
1772811131993659000,9.784658935546876,-1.3735241889953613,0.5779054760932922,0.0342215895652771
1772811132003539200,9.794539306640624,-1.4315810203552246,0.6657897233963013,0.08855003118515015
1772811132013419500,9.80441943359375,-1.4981600046157837,0.7355644702911377,0.17430374026298523
1772811132023299800,9.8142998046875,-1.5668694972991943,0.809600293636322,0.2648511528968811
1772811132033180200,9.82418017578125,-1.6158716678619385,0.9193224310874939,0.33462589979171753
1772811132043060500,9.834060546875,-1.639840006828308,1.0396971702575684,0.38096487522125244
1772811132052940800,9.84394091796875,-1.6116105318069458,1.1520824432373047,0.4203796088695526
1772811132062821000,9.853821044921874,-1.5402379035949707,1.262337327003479,0.48908910155296326
1772811132072701400,9.863701416015624,-1.5034862756729126,1.316665768623352,0.5199817419052124
1772811132082581800,9.873581787109375,-1.5045515298843384,1.351286768913269,0.46565333008766174
1772811132092462000,9.883462158203125,-1.525856852531433,1.3656678199768066,0.3500722348690033
1772811132102342400,9.89334228515625,-1.538640022277832,1.3789836168289185,0.2179795503616333
1772811132112222500,9.903222412109375,-1.5056167840957642,1.4120068550109863,0.09760477393865585
1772811132122102800,9.913102783203126,-1.434244155883789,1.5121415853500366,-0.013715268112719059
1772811132131983000,9.922983154296874,-1.3447620868682861,1.6980301141738892,-0.1404816210269928
1772811132141863400,9.932863525390625,-1.2595409154891968,1.9078869819641113,-0.27470484375953674
1772811132151743700,9.94274365234375,-1.1860377788543701,2.1113522052764893,-0.40093857049942017
1772811132161624000,9.9526240234375,-1.1349050998687744,2.312154531478882,-0.5170522928237915
1772811132171504400,9.96250439453125,-1.1226545572280884,2.525739908218384,-0.6081323027610779
1772811132181384700,9.972384765625,-1.127448320388794,2.728139877319336,-0.6645912528038025
1772811132191264800,9.9822646484375,-1.127448320388794,2.9784767627716064,-0.6944186687469482
1772811132201145000,9.99214501953125,-1.1082735061645508,3.307643175125122,-0.7173218131065369
1772811132211025400,10.002025390625,-1.0752503871917725,3.705519199371338,-0.7556713223457336
1772811132220905700,10.01190576171875,-1.04329252243042,4.119906902313232,-0.8179892301559448
1772811132230786000,10.0217861328125,-1.030509352684021,4.519380569458008,-0.8829703330993652
1772811132240666400,10.031666259765625,-1.0491514205932617,4.852807998657227,-0.9202545285224915
1772811132250546700,10.041546630859376,-1.0890988111495972,5.063730239868164,-0.901612401008606
1772811132260427000,10.051427001953124,-1.136502981185913,5.134570121765137,-0.7854986786842346
1772811132270307300,10.061307373046875,-1.143959879875183,5.11859130859375,-0.5809680819511414
1772811132280187600,10.071187744140625,-1.0741851329803467,4.9923577308654785,-0.370045930147171
1772811132290068000,10.08106787109375,-1.0395640134811401,4.834698677062988,-0.1687111109495163
1772811132299948000,10.090947998046875,-1.0326398611068726,5.019521713256836,0.051798440515995026
1772811132309828400,10.100828369140626,-0.9996166825294495,5.283707141876221,0.2691121995449066
1772811132319708700,10.110708740234376,-0.9037429690361023,5.261868953704834,0.4454133212566376
1772811132329589000,10.120589111328124,-0.8254460692405701,5.287435531616211,0.53436279296875
1772811132339469300,10.13046923828125,-0.7583344578742981,5.046153545379639,0.5604617595672607
1772811132349349600,10.140349609375,-0.6688523292541504,4.536957263946533,0.5737775564193726
1772811132359230000,10.15022998046875,-0.6022733449935913,4.106058120727539,0.5711144208908081
1772811132369110300,10.1601103515625,-0.6352965235710144,3.834416151046753,0.5615270137786865
1772811132378990300,10.169990234375,-0.7343660593032837,3.5798180103302,0.5785712599754333
1772811132388870700,10.17987060546875,-0.8414250016212463,3.363036870956421,0.6408891677856445
1772811132398751000,10.1897509765625,-0.9074713587760925,2.9731504917144775,0.7431544661521912
1772811132408631300,10.19963134765625,-0.9069387316703796,2.5374577045440674,0.9210534691810608
1772811132418511600,10.20951171875,-0.8685892224311829,2.198171377182007,1.1580746173858643
1772811132428392000,10.219391845703125,-0.8302397727966309,1.9670090675354004,1.4084115028381348
1772811132438272300,10.229272216796875,-0.8004123568534851,1.7385101318359375,1.6060179471969604
1772811132448152600,10.239152587890626,-0.7673892378807068,1.4711289405822754,1.7040221691131592
1772811132458033000,10.249032958984374,-0.720517635345459,1.1110697984695435,1.6731295585632324
1772811132467913200,10.258913330078125,-0.6571344137191772,0.8106655478477478,1.5399715900421143
1772811132477793300,10.268793212890625,-0.5846965312957764,0.7408908009529114,1.3908346891403198
1772811132487673600,10.278673583984375,-0.5101280808448792,0.9145287275314331,1.2901673316955566
1772811132497554200,10.28855419921875,-0.422776460647583,1.1616698503494263,1.2347736358642578
1772811132507435300,10.298435302734376,-0.3343595862388611,1.3406341075897217,1.1926956176757812
1772811132517316600,10.308316650390625,-0.2528669238090515,1.503086805343628,1.1649987697601318
1772811132527197700,10.31819775390625,-0.18362480401992798,1.6085479259490967,1.117061972618103
1772811132537078800,10.328078857421875,-0.1266331970691681,1.6399731636047363,1.025449275970459
1772811132546960000,10.3379599609375,-0.08295739442110062,1.6346468925476074,0.9183903336524963
1772811132556841200,10.34784130859375,-0.049934227019548416,1.5915037393569946,0.8267776370048523
1772811132566722300,10.357722412109375,-0.03235737979412079,1.5078805685043335,0.7559376358985901
1772811132576603400,10.367603271484375,-0.026498429477214813,1.3624720573425293,0.6952176094055176
1772811132586484700,10.377484619140626,-0.04727106913924217,1.111602544784546,0.6334323287010193
1772811132596365800,10.38736572265625,-0.10000161081552505,0.7621960639953613,0.5700491666793823
1772811132606247000,10.397246826171875,-0.19001637399196625,0.38948696851730347,0.496013343334198
1772811132616128000,10.4071279296875,-0.3290332853794098,0.08162581920623779,0.40919435024261475
1772811132626009300,10.41700927734375,-0.5277048945426941,-0.054195281118154526,0.33409327268600464
1772811132635890400,10.426890380859374,-0.7354313135147095,-0.0414121188223362,0.3069290518760681
1772811132645771500,10.436771484375,-0.9026776552200317,-0.007856318727135658,0.32024484872817993
1772811132655652900,10.44665283203125,-0.9905619025230408,0.006524738855659962,0.34261539578437805
1772811132665534000,10.456533935546876,-0.9804419279098511,0.06937528401613235,0.3692469596862793
1772811132675415000,10.4664150390625,-0.9335703253746033,0.17963005602359772,0.41292276978492737
1772811132685296000,10.476296142578125,-0.9218524098396301,0.24780692160129547,0.4640554189682007
1772811132695177500,10.486177490234375,-0.9303745031356812,0.3069290518760681,0.5061333179473877
1772811132705058600,10.49605859375,-0.9245156049728394,0.40440067648887634,0.53436279296875
1772811132714939600,10.505939697265624,-0.8797745108604431,0.5263733267784119,0.5364933609962463
1772811132724820700,10.51582080078125,-0.7982818484306335,0.6334323287010193,0.492284893989563
1772811132734702000,10.5257021484375,-0.6763091683387756,0.7090660333633423,0.4539354145526886
1772811132744583200,10.535583251953126,-0.5532712340354919,0.7996134161949158,0.41292276978492737
1772811132754464300,10.54546435546875,-0.44514700770378113,0.8470176458358765,0.36179012060165405
1772811132764345300,10.555345458984375,-0.3466101288795471,0.8289082050323486,0.2920153737068176
1772811132774226700,10.565226806640625,-0.23848587274551392,0.7857649922370911,0.21052271127700806
1772811132784107800,10.575107666015626,-0.14101426303386688,0.7788407802581787,0.15033531188964844
1772811132793988900,10.58498876953125,-0.054195281118154526,0.7836344838142395,0.1290300488471985
1772811132803870200,10.5948701171875,0.032091062515974045,0.7873628735542297,0.1476721614599228
1772811132813751300,10.604751220703125,0.09813740104436874,0.8017439842224121,0.20626164972782135
1772811132823632400,10.61463232421875,0.14074794948101044,0.8305060863494873,0.2786995768547058
1772811132833513500,10.624513427734374,0.16897742450237274,0.8464850187301636,0.3447459042072296
1772811132843394800,10.634394775390625,0.19773954153060913,0.810798704624176,0.41824910044670105
1772811132853276000,10.64427587890625,0.2366216629743576,0.7884281873703003,0.5050680637359619
1772811132863157000,10.654156982421876,0.2792322039604187,0.7767102718353271,0.5961480736732483
1772811132873038300,10.664038330078125,0.3063964247703552,0.7080007791519165,0.689358651638031
1772811132882919400,10.67391943359375,0.32344064116477966,0.5854954719543457,0.7916239500045776
1772811132892800500,10.683800537109375,0.34847432374954224,0.492284893989563,0.9151945114135742
1772811132902681600,10.693681640625,0.3932153880596161,0.496013343334198,1.0632661581039429
1772811132912563000,10.70356298828125,0.46618595719337463,0.5364933609962463,1.2038809061050415
1772811132922444000,10.713444091796875,0.5615270137786865,0.592952311038971,1.306146264076233
1772811132932325000,10.7233251953125,0.6659228801727295,0.6478133797645569,1.3423651456832886
1772811132942206500,10.73320654296875,0.756470263004303,0.6845649480819702,1.3215925693511963
1772811132952087600,10.743087646484375,0.7980155348777771,0.6968154907226562,1.2619378566741943
1772811132961968600,10.75296875,0.819320797920227,0.6147902011871338,1.1825757026672363
1772811132971849700,10.762849609375,0.8203860521316528,0.4954806864261627,1.117594599723816
1772811132981731000,10.77273095703125,0.7825692296028137,0.36179012060165405,1.0867019891738892
1772811132991612200,10.782612060546874,0.760198712348938,0.2174469232559204,1.0861693620681763
1772811133001493200,10.7924931640625,0.7516765594482422,0.10133319348096848,1.0952240228652954
1772811133011374300,10.802374267578125,0.7463502287864685,0.07097318023443222,1.0941587686538696
1772811133021255400,10.81225537109375,0.7495460510253906,0.11677951365709305,1.0914956331253052
1772811133031136500,10.822136474609374,0.7463502287864685,0.21158796548843384,1.0952240228652954
1772811133041017600,10.832017578125,0.756470263004303,0.2755037844181061,1.0888324975967407
1772811133050899000,10.84189892578125,0.731436550617218,0.32823431491851807,1.043026089668274
1772811133060780000,10.851780029296876,0.6797713041305542,0.3644532859325409,0.9205208420753479
1772811133070661000,10.8616611328125,0.5988112688064575,0.3798995912075043,0.7111965417861938
1772811133080542200,10.871542236328125,0.5290365219116211,0.3697795867919922,0.47044700384140015
1772811133090423300,10.88142333984375,0.4912196397781372,0.383095383644104,0.25899219512939453
1772811133100304400,10.891304443359376,0.4965459704399109,0.4006722569465637,0.11358372122049332
1772811133110185500,10.901185546875,0.5311670303344727,0.4970785975456238,0.04167843610048294
1772811133120066600,10.911066650390625,0.550341784954071,0.6552702188491821,0.05552686005830765
1772811133129947600,10.92094775390625,0.5210469961166382,0.844354510307312,0.1620532125234604
1772811133139828700,10.930828857421876,0.4912196397781372,1.0068072080612183,0.33302801847457886
1772811133149710000,10.9407099609375,0.504535436630249,1.0840388536453247,0.4576638340950012
1772811133159591200,10.950591064453125,0.5396891236305237,1.0835061073303223,0.47950175404548645
1772811133169472300,10.96047216796875,0.5524722933769226,1.0717883110046387,0.4496743679046631
1772811133179353300,10.970353271484376,0.504535436630249,0.9434239864349365,0.5460807085037231
1772811133189234400,10.980234375,0.42304277420043945,0.5050680637359619,0.617453396320343
1772811133199115500,10.990115478515625,0.39055225253105164,0.28455850481987,0.5535375475883484
1772811133208996600,10.99999658203125,0.3553985357284546,0.3037332594394684,0.4304996132850647
1772811133218877700,11.009877685546876,0.29148274660110474,0.38149750232696533,0.30000483989715576
1772811133228758800,11.0197587890625,0.23502376675605774,0.48376280069351196,0.20466375350952148
1772811133238639900,11.029639892578125,0.20572902262210846,0.5908218026161194,0.11784477531909943
1772811133248521000,11.03952099609375,0.17164058983325958,0.6797713041305542,0.05925528332591057
1772811133258402300,11.04940234375,0.13222584128379822,0.7165228724479675,0.043808963149785995
1772811133268283400,11.059283447265624,0.10772477090358734,0.6925544738769531,0.06138581037521362
1772811133278164500,11.06916455078125,0.11305109411478043,0.6765754818916321,0.11677951365709305
1772811133288045600,11.079045654296875,0.12210582941770554,0.5940175652503967,0.16844479739665985
