time,seconds_elapsed,z,y,x
1772811138369206000,0.3242060546875,-3.6285271644592285,-2.6294522285461426,-0.21022629737854004
1772811138388966400,0.34396630859375,-3.6940321922302246,-1.8331623077392578,-1.3781437873840332
1772811138408726500,0.3637265625,-2.2126622200012207,-0.4687361717224121,-2.9416916370391846
1772811138428486700,0.383486572265625,-0.7685952186584473,-0.3874530792236328,-4.06941032409668
1772811138448247000,0.4032470703125,0.8613109588623047,-0.9985408782958984,-4.384040355682373
1772811138468007200,0.423007080078125,2.155594825744629,-1.0546009540557861,-4.424577713012695
1772811138487767300,0.442767333984375,2.1777734756469727,0.03773069381713867,-4.711541175842285
1772811138507528200,0.462528076171875,1.0938677787780762,0.26573610305786133,-3.992673635482788
1772811138527289300,0.482289306640625,1.5934491157531738,0.40027785301208496,-3.0621497631073
1772811138547050200,0.50205029296875,5.205630779266357,0.5063275098800659,-1.8750333786010742
1772811138566811100,0.52181103515625,7.147787094116211,-0.03143811225891113,-0.6193370819091797
1772811138586572300,0.541572265625,9.417057991027832,0.4685426950454712,-1.207918643951416
1772811138606333200,0.561333251953125,8.490351676940918,0.6836979985237122,-0.8099384307861328
1772811138626094000,0.581093994140625,6.200560569763184,1.1356048583984375,-0.9644651412963867
1772811138645855000,0.60085498046875,4.321654796600342,1.2258429527282715,-0.5021100044250488
1772811138665616100,0.6206162109375,3.196920394897461,1.6272714138031006,0.16686725616455078
1772811138685377000,0.640376953125,2.6993227005004883,1.8036894798278809,-0.1336212158203125
1772811138705138000,0.660137939453125,1.1887664794921875,1.8604445457458496,-0.7372965812683105
1772811138724899000,0.679899169921875,-1.4779975414276123,1.6454342603683472,-1.2950177192687988
1772811138744660000,0.699659912109375,-2.950772285461426,0.9143772721290588,-1.391089916229248
1772811138764420900,0.7194208984375,-1.6599466800689697,0.7693390250205994,-1.1182408332824707
1772811138784182000,0.73918212890625,-0.04511594772338867,0.6464461088180542,-1.4590544700622559
1772811138803943000,0.75894287109375,-0.5140964984893799,0.2152315080165863,-2.346013069152832
1772811138823703800,0.778703857421875,-1.5048850774765015,-0.6193372011184692,-3.1135125160217285
1772811138843465000,0.79846484375,-1.871304988861084,-1.9677432775497437,-2.987459182739258
1772811138863225900,0.818225830078125,-0.7732987999916077,-2.468750238418579,-2.2060608863830566
1772811138882986800,0.83798681640625,-0.8950178027153015,-3.938704013824463,-1.1803474426269531
1772811138902748000,0.857747802734375,-0.4675057530403137,-4.559558868408203,-0.7941064834594727
1772811138922508800,0.8775087890625,0.8317749500274658,-5.3776631355285645,-0.9798879623413086
1772811138942269700,0.897269775390625,2.2267961502075195,-6.226466178894043,-1.5897693634033203
1772811138962030800,0.91703076171875,2.762115001678467,-6.8051605224609375,-2.1758904457092285
1772811138981791700,0.936791748046875,1.7137404680252075,-7.0395050048828125,-2.5514378547668457
1772811139001553200,0.95655322265625,-0.1461334228515625,-7.198580741882324,-2.4875388145446777
1772811139021315300,0.9763154296875,-0.7902295589447021,-7.00086784362793,-2.0787711143493652
1772811139041077200,0.9960771484375,0.254932165145874,-6.556387901306152,-1.3996453285217285
1772811139060839400,1.01583935546875,0.8338991403579712,-6.084478855133057,-0.28981494903564453
1772811139080601600,1.0356015625,0.9896506071090698,-5.622593879699707,0.8259239196777344
1772811139100363500,1.055363525390625,1.0074635744094849,-5.192278861999512,1.798184871673584
1772811139120125700,1.075125732421875,0.5355567932128906,-4.527127265930176,2.1762123107910156
1772811139139887900,1.094887939453125,-0.9683647155761719,-3.577056407928467,2.5633506774902344
1772811139159649800,1.11464990234375,-2.429677724838257,-2.8296337127685547,2.9064040184020996
1772811139179412000,1.134411865234375,-2.830521583557129,-2.0269522666931152,3.088773727416992
1772811139199174100,1.154174072265625,-1.2708890438079834,-1.500800609588623,2.7763686180114746
1772811139218936000,1.17393603515625,0.3103652000427246,-1.5708808898925781,2.2503771781921387
1772811139238698200,1.1936982421875,0.8768584728240967,-1.6006484031677246,1.1452012062072754
1772811139258460400,1.21346044921875,0.8725359439849854,-1.5565791130065918,-0.04184770584106445
1772811139278222300,1.233222412109375,0.7490122318267822,-1.3509931564331055,-1.3396329879760742
1772811139297984500,1.252984619140625,0.9820423126220703,-1.3210797309875488,-2.119656562805176
1772811139317746700,1.27274658203125,1.711139440536499,-1.2046160697937012,-2.7024166584014893
1772811139337508600,1.292508544921875,2.1255481243133545,-1.191634178161621,-3.118941068649292
1772811139357270800,1.312270751953125,2.217022180557251,-1.0309720039367676,-3.4855644702911377
1772811139377033000,1.332032958984375,2.0829758644104004,-0.9351449012756348,-3.490636110305786
1772811139396795000,1.351794921875,2.18764328956604,-1.0488977432250977,-3.3447301387786865
1772811139416557000,1.37155712890625,2.346966028213501,-1.2015552520751953,-3.171027421951294
1772811139436319200,1.3913193359375,2.4638125896453857,-1.2189507484436035,-2.7687065601348877
1772811139456081200,1.4110810546875,2.1479718685150146,-1.3013076782226562,-1.9805283546447754
1772811139475843300,1.43084326171875,1.8022687435150146,-1.1933293342590332,-1.2812528610229492
1772811139495605200,1.450605224609375,1.454298496246338,-1.1149253845214844,-0.46192121505737305
1772811139515366000,1.470365966796875,0.8913143873214722,-1.1630115509033203,0.48752260208129883
1772811139535126500,1.49012646484375,0.717054009437561,-1.1069374084472656,1.4231667518615723
1772811139554887200,1.50988720703125,-0.4876002073287964,-1.1058225631713867,2.559964656829834
1772811139574647800,1.529647705078125,-0.9643776416778564,-0.8874177932739258,3.4728660583496094
1772811139594408400,1.549408447265625,-1.7939358949661255,-0.5630207061767578,4.266592025756836
1772811139614169000,1.569169189453125,-2.633925437927246,-0.07307815551757812,4.928072929382324
1772811139633930000,1.588929931640625,-3.203925371170044,-0.0429229736328125,5.896226406097412
1772811139653690600,1.608690673828125,-3.7038791179656982,-0.3363151550292969,6.1893157958984375
1772811139673451300,1.628451171875,-2.868908405303955,-0.20623016357421875,5.681293487548828
1772811139693212000,1.6482119140625,-1.206669569015503,0.18044662475585938,5.25905704498291
1772811139712972500,1.66797265625,-0.05543363094329834,0.3148183822631836,5.213100433349609
1772811139732733200,1.687733154296875,0.9394989609718323,0.718907356262207,4.811287879943848
1772811139752493800,1.707493896484375,1.9322659969329834,0.7480707168579102,4.48289680480957
1772811139772254700,1.727254638671875,2.5305895805358887,0.7935781478881836,4.001147747039795
1772811139792015400,1.747015380859375,3.4869189262390137,0.9694547653198242,3.3162448406219482
1772811139811776000,1.76677587890625,4.278069972991943,1.350255012512207,2.886441230773926
1772811139831536600,1.78653662109375,4.904004096984863,1.625077247619629,3.148219347000122
1772811139851297300,1.80629736328125,5.205399036407471,1.8102831840515137,3.617642402648926
1772811139871058000,1.826057861328125,4.76218843460083,1.4775285720825195,4.0888872146606445
1772811139890818600,1.845818603515625,3.8919544219970703,1.0073347091674805,4.068470001220703
1772811139910579500,1.865579345703125,3.2319931983947754,0.5741615295410156,3.2986700534820557
1772811139930340000,1.885340087890625,2.4900357723236084,0.0048770904541015625,2.7628254890441895
1772811139950100700,1.905100830078125,2.113530158996582,-0.4122743606567383,2.349365711212158
1772811139969861400,1.924861328125,1.6396973133087158,-0.7915830612182617,2.2726387977600098
1772811139989622000,1.9446220703125,1.9073385000228882,-0.9295263290405273,2.357900619506836
1772811140009383200,1.964383056640625,1.7044200897216797,-1.381521224975586,2.478663444519043
1772811140029144600,1.98414453125,2.1737875938415527,-1.3867311477661133,2.0529685020446777
1772811140048906000,2.003906005859375,2.414217233657837,-1.5331215858459473,1.8081183433532715
1772811140068667400,2.02366748046875,2.417820930480957,-1.8850841522216797,1.9228496551513672
1772811140088428500,2.043428466796875,2.595444440841675,-1.9145317077636719,1.91184663772583
1772811140108190000,2.06318994140625,2.9564356803894043,-2.1940126419067383,1.5880107879638672
1772811140127951400,2.082951416015625,3.5367159843444824,-1.9909162521362305,0.4034748077392578
1772811140147712800,2.102712646484375,4.917399883270264,-1.9391603469848633,-0.41466236114501953
1772811140167474000,2.122473876953125,5.622929573059082,-1.7162952423095703,-0.6561055183410645
1772811140187235300,2.1422353515625,5.90330696105957,-1.709489345550537,-0.3215479850769043
1772811140206996700,2.161996826171875,5.565785884857178,-1.6899466514587402,0.20738840103149414
1772811140226758100,2.181758056640625,5.060298919677734,-1.751718521118164,0.6928009986877441
1772811140246519300,2.201519287109375,4.695656776428223,-1.6878223419189453,0.7676725387573242
1772811140266280700,2.22128076171875,3.8810269832611084,-1.7468371391296387,0.4284687042236328
1772811140286042000,2.2410419921875,3.356016159057617,-1.8682231903076172,-0.13292264938354492
1772811140305803500,2.260803466796875,3.168510675430298,-2.0488338470458984,-0.6271305084228516
1772811140325564700,2.280564697265625,3.4347057342529297,-2.068154811859131,-1.0771727561950684
1772811140345326000,2.300326171875,3.6662986278533936,-2.0972299575805664,-1.5419340133666992
1772811140365087500,2.32008740234375,3.5721750259399414,-2.1266894340515137,-2.146918296813965
1772811140384849000,2.339848876953125,3.3873331546783447,-2.2953271865844727,-2.767591953277588
1772811140404610300,2.3596103515625,2.6213088035583496,-3.014737606048584,-3.28617262840271
1772811140424371500,2.379371337890625,1.6212117671966553,-3.544769763946533,-4.262417793273926
1772811140444132900,2.3991328125,2.463547945022583,-5.048198223114014,-4.0507307052612305
1772811140463894300,2.418894287109375,3.2502212524414062,-4.401145935058594,-4.736455917358398
1772811140483655400,2.438655517578125,4.162331581115723,-4.403784275054932,-4.147396087646484
1772811140503417600,2.45841748046875,4.375262260437012,-3.7473583221435547,-3.9535253047943115
1772811140523180000,2.478179931640625,3.2045695781707764,-2.9689736366271973,-3.4846808910369873
1772811140542942200,2.497942138671875,2.132589817047119,-2.001877784729004,-2.957773447036743
1772811140562704600,2.51770458984375,1.5300328731536865,-1.0144200325012207,-2.2645175457000732
1772811140582467000,2.537467041015625,0.7580103874206543,-0.40239524841308594,-1.5127573013305664
1772811140602229500,2.5572294921875,0.04475736618041992,0.02613210678100586,-0.8562498092651367
1772811140621992000,2.576991943359375,-0.6828703880310059,0.476682186126709,-0.19060707092285156
1772811140641754400,2.59675439453125,-1.5065734386444092,0.7002553939819336,0.2823352813720703
1772811140661516800,2.616516845703125,-2.0188024044036865,0.7499485015869141,0.7878127098083496
1772811140681279200,2.636279296875,-2.266231060028076,0.5375428199768066,1.3743295669555664
1772811140701041700,2.656041748046875,-2.053093910217285,0.01935863494873047,1.7977643013000488
1772811140720804000,2.67580419921875,-1.032818078994751,-0.43587303161621094,1.8057332038879395
1772811140740566500,2.69556640625,0.15639638900756836,-0.9836788177490234,1.4616141319274902
1772811140760329000,2.715328857421875,1.6722452640533447,-1.2588396072387695,0.961188793182373
1772811140780091400,2.73509130859375,3.1150472164154053,-1.1331367492675781,0.6185040473937988
1772811140799853800,2.754853759765625,4.063723564147949,-0.7662830352783203,0.41933536529541016
1772811140819616300,2.7746162109375,4.318249702453613,-0.3087425231933594,0.3895092010498047
1772811140839378700,2.794378662109375,3.736053705215454,0.1989583969116211,0.40927982330322266
1772811140859141000,2.81414111328125,2.3231253623962402,0.34297800064086914,0.45809507369995117
1772811140878903600,2.833903564453125,0.7707054615020752,0.5316343307495117,0.38195133209228516
1772811140898666000,2.853666015625,-0.27965784072875977,0.6908082962036133,0.3898177146911621
1772811140918428400,2.873428466796875,-0.49925899505615234,0.8422985076904297,0.6669082641601562
1772811140938190600,2.893190673828125,-0.44937682151794434,0.8672304153442383,0.5889344215393066
1772811140957953000,2.912953125,0.272167444229126,0.7890825271606445,0.9582333564758301
1772811140977715500,2.932715576171875,0.8511035442352295,0.8661422729492188,1.104743480682373
1772811140997478000,2.952477783203125,0.844386100769043,0.8626904487609863,1.3174805641174316
1772811141017239600,2.972239501953125,0.7515251636505127,0.9025049209594727,1.6174793243408203
1772811141037001200,2.992001220703125,0.5908937454223633,0.9946718215942383,2.267770290374756
1772811141056763000,3.011762939453125,0.3730449676513672,0.9178905487060547,3.090663194656372
1772811141076524500,3.031524658203125,0.036095380783081055,0.7398090362548828,3.846640110015869
1772811141096286200,3.0512861328125,-0.024873733520507812,0.7492380142211914,4.440991401672363
1772811141116048000,3.0710478515625,-0.12627959251403809,0.9947948455810547,4.963433742523193
1772811141135809500,3.0908095703125,-0.411588191986084,1.1026134490966797,5.532071590423584
1772811141155571200,3.1105712890625,-0.8437821865081787,0.020877838134765625,6.254158020019531
1772811141175332900,3.130332763671875,-0.9204981327056885,-1.0998649597167969,5.9301228523254395
1772811141195094500,3.150094482421875,-0.3291137218475342,-1.8014707565307617,5.093808174133301
1772811141214856400,3.1698564453125,0.9011950492858887,-1.3037633895874023,4.1744704246521
1772811141234618000,3.1896181640625,2.5245938301086426,-0.6194486618041992,3.715693473815918
1772811141254379800,3.2093798828125,3.7016031742095947,-0.37234973907470703,3.8156328201293945
1772811141274141400,3.229141357421875,3.8529880046844482,-0.09823989868164062,3.607602596282959
1772811141293903000,3.248903076171875,3.871326446533203,-0.05616283416748047,2.8868212699890137
1772811141313664800,3.268664794921875,3.368769407272339,0.08031654357910156,1.7937054634094238
1772811141333426400,3.288426513671875,3.40537166595459,0.21483516693115234,0.8196640014648438
1772811141353188000,3.30818798828125,3.7894697189331055,0.43838024139404297,0.07567310333251953
1772811141372949800,3.32794970703125,4.143535614013672,0.37099456787109375,-0.29321956634521484
1772811141392711400,3.34771142578125,4.617984771728516,0.01116800308227539,-0.4817662239074707
1772811141412473000,3.36747314453125,4.925988674163818,-0.37993955612182617,-0.9619240760803223
1772811141432234800,3.38723486328125,5.223109722137451,-0.7012820243835449,-1.5588536262512207
1772811141451996400,3.406996337890625,5.194762229919434,-1.107102870941162,-2.0550291538238525
1772811141471758000,3.426758056640625,4.671494483947754,-1.520784854888916,-2.1319358348846436
1772811141491520000,3.44652001953125,4.067237854003906,-1.4927253723144531,-2.0539352893829346
1772811141511281200,3.46628125,3.8302059173583984,-1.3708200454711914,-1.1745405197143555
1772811141531042600,3.48604248046875,4.187656402587891,-1.148118495941162,0.17827987670898438
1772811141550803700,3.5058037109375,3.810610055923462,-0.983464241027832,1.3005552291870117
1772811141570565000,3.525565185546875,2.7525036334991455,-0.9805974960327148,2.2947402000427246
1772811141590326500,3.545326416015625,1.747261643409729,-0.6567230224609375,2.7554492950439453
1772811141610087700,3.565087646484375,1.1559522151947021,-0.2651329040527344,3.094358444213867
1772811141629849000,3.58484912109375,0.7703371047973633,0.041446685791015625,3.2217416763305664
1772811141649610500,3.604610595703125,0.3199939727783203,0.13526630401611328,2.9757351875305176
1772811141669371600,3.62437158203125,0.34240078926086426,0.22472190856933594,2.3914098739624023
1772811141689133000,3.644133056640625,0.8675365447998047,0.3105630874633789,1.6061291694641113
1772811141708894200,3.663894287109375,1.404444694519043,0.3310070037841797,0.8942389488220215
1772811141728655600,3.683655517578125,1.6586670875549316,0.2813725471496582,0.25048112869262695
1772811141748417000,3.7034169921875,1.9620716571807861,0.18290281295776367,-0.3281888961791992
1772811141768178200,3.72317822265625,2.5091707706451416,-0.01235198974609375,-0.7352843284606934
1772811141787939600,3.742939697265625,3.055673599243164,-0.03938913345336914,-1.1023802757263184
1772811141807700700,3.76270068359375,2.772627115249634,-0.03840780258178711,-1.328927993774414
1772811141827462100,3.782462158203125,1.833646297454834,0.02030467987060547,-1.4627938270568848
1772811141847223600,3.8022236328125,1.1714606285095215,0.2063579559326172,-1.521791934967041
1772811141866984700,3.821984619140625,0.7542665004730225,0.3063840866088867,-1.3470568656921387
1772811141886746000,3.84174609375,0.665759801864624,0.3280220031738281,-1.1009702682495117
1772811141906507500,3.861507568359375,0.675977349281311,0.31230688095092773,-0.9266977310180664
1772811141926268700,3.8812685546875,0.3625493049621582,-0.2785162925720215,-0.43439435958862305
1772811141946030000,3.901030029296875,-0.3653888702392578,-1.262448787689209,-0.29657745361328125
1772811141965791200,3.920791259765625,-0.37021613121032715,-2.0967063903808594,-0.563021183013916
1772811141985552600,3.940552734375,0.8214867115020752,-2.564354419708252,-1.2261466979980469
1772811142005314000,3.96031396484375,2.570866823196411,-2.203197956085205,-1.638777732849121
1772811142025075500,3.980075439453125,3.4744625091552734,-1.6842279434204102,-1.1876368522644043
1772811142044836900,3.9998369140625,3.217411518096924,-0.9984097480773926,-0.19829034805297852
1772811142064598300,4.019598388671875,2.1085681915283203,-0.33095598220825195,0.5807633399963379
1772811142084359700,4.039359619140625,1.3699495792388916,0.5188531875610352,0.7594051361083984
1772811142104121000,4.05912109375,0.7551556825637817,1.230771541595459,0.6142587661743164
1772811142123882200,4.07888232421875,-0.015258431434631348,1.4603900909423828,0.6635556221008301
1772811142143643600,4.0986435546875,-0.8979576826095581,1.4514880180358887,0.7727198600769043
1772811142163405000,4.118405029296875,-1.5774873495101929,1.4341468811035156,1.027721881866455
1772811142183166500,4.13816650390625,-2.2247087955474854,1.4133915901184082,1.114077091217041
1772811142202927900,4.157927978515625,-2.4451448917388916,1.2202987670898438,1.3604154586791992
1772811142222689300,4.177689208984375,-1.7828110456466675,0.6961555480957031,1.5668811798095703
1772811142242450700,4.19745068359375,-0.5736789703369141,0.06400299072265625,1.4326400756835938
1772811142262212000,4.217212158203125,0.3458296060562134,-0.39719676971435547,1.0847277641296387
1772811142281973500,4.236973388671875,1.3417643308639526,-0.6300210952758789,0.4612574577331543
1772811142301735000,4.25673486328125,2.3955745697021484,-0.6149845123291016,-0.14311790466308594
1772811142321496300,4.276496337890625,3.177391767501831,-0.3462815284729004,-0.6571917533874512
1772811142341257700,4.2962578125,3.5428524017333984,-0.11217117309570312,-0.909233570098877
1772811142361019100,4.31601904296875,3.6122751235961914,0.005314826965332031,-1.1210222244262695
1772811142380780500,4.335780517578125,3.286768913269043,0.08965063095092773,-1.400552749633789
1772811142400541700,4.355541748046875,2.3824236392974854,0.15552377700805664,-1.471590518951416
1772811142420303000,4.37530322265625,1.4942516088485718,0.38948726654052734,-1.4285588264465332
1772811142440064500,4.395064453125,0.7999066710472107,0.625211238861084,-1.2822613716125488
1772811142459826000,4.414825927734375,0.1967325210571289,0.8026371002197266,-0.969393253326416
1772811142479587300,4.43458740234375,-0.22893941402435303,0.9343886375427246,-0.7840104103088379
1772811142499349000,4.454348876953125,-0.3038533926010132,0.9656281471252441,-0.6189155578613281
1772811142519111000,4.47411083984375,-0.1257418990135193,0.9894371032714844,-0.44336843490600586
1772811142538872800,4.493872802734375,-0.05671733617782593,0.8606643676757812,-0.255157470703125
1772811142558634800,4.513634765625,-0.13617074489593506,0.6734714508056641,0.009069442749023438
1772811142578396700,4.533396728515625,-0.2869439125061035,0.5247917175292969,0.29795074462890625
1772811142598158800,4.553158935546875,-0.4304858148097992,0.38585948944091797,0.8857207298278809
1772811142617920800,4.572920654296875,-0.5677421689033508,0.1546945571899414,1.7904448509216309
1772811142637682700,4.5926826171875,-0.8002981543540955,0.13551044464111328,2.7283873558044434
1772811142657444600,4.612444580078125,-1.2573165893554688,0.28910255432128906,3.740945339202881
1772811142677206500,4.63220654296875,-2.5250158309936523,-0.4906120300292969,5.684937477111816
1772811142696968400,4.651968505859375,-3.8260698318481445,-1.0015697479248047,6.987102031707764
1772811142716730400,4.67173046875,-3.9044716358184814,-0.4741230010986328,7.31662130355835
1772811142736492500,4.691492431640625,-3.0537266731262207,0.3663759231567383,7.373427867889404
1772811142756254500,4.71125439453125,-2.0891313552856445,1.3159294128417969,7.488164901733398
1772811142776016400,4.731016357421875,-1.3160908222198486,1.442622184753418,8.155611038208008
1772811142795778300,4.7507783203125,-0.3968696892261505,1.2952404022216797,8.100772857666016
1772811142815540200,4.770540283203125,0.2732999920845032,1.0682353973388672,7.048200607299805
1772811142835302100,4.79030224609375,0.5719170570373535,0.8886356353759766,5.465470790863037
1772811142855064000,4.81006396484375,1.3002984523773193,0.9313344955444336,3.908691644668579
1772811142874826200,4.829826171875,2.466386318206787,1.1798791885375977,3.0543549060821533
1772811142894588200,4.849588134765625,3.536940813064575,1.4203267097473145,2.772310495376587
1772811142914350000,4.86935009765625,4.217949867248535,1.644251823425293,2.6457316875457764
1772811142934112000,4.889112060546875,4.324864387512207,1.3904638290405273,2.4370131492614746
1772811142953874000,4.9088740234375,4.002995491027832,1.0814447402954102,1.9576468467712402
1772811142973635800,4.9286357421875,3.6683616638183594,0.5323390960693359,1.397017002105713
1772811142993397800,4.948397705078125,3.8067736625671387,-0.01845264434814453,0.8492927551269531
1772811143013159700,4.96815966796875,3.810617685317993,-0.5591220855712891,0.4975142478942871
1772811143032921900,4.987921875,3.7077083587646484,-0.9101428985595703,0.4577031135559082
1772811143052683800,5.007683837890625,3.46561336517334,-1.3015365600585938,0.7810325622558594
1772811143072445700,5.02744580078125,3.377107858657837,-1.4478139877319336,1.3601369857788086
1772811143092207600,5.04720751953125,3.1194751262664795,-1.4496278762817383,1.8430829048156738
1772811143111969500,5.066969482421875,2.7798094749450684,-1.2993512153625488,2.09550142288208
1772811143131731500,5.0867314453125,2.4161465167999268,-1.0230135917663574,2.1263909339904785
1772811143151493400,5.106493408203125,1.9537771940231323,-0.8403048515319824,2.192460536956787
1772811143171255600,5.126255615234375,1.5917277336120605,-0.6120367050170898,1.9910273551940918
1772811143191017500,5.146017578125,1.2162981033325195,-0.5769271850585938,1.5545897483825684
1772811143210779400,5.165779296875,0.9115184545516968,-0.5655736923217773,0.815882682800293
1772811143230541300,5.185541259765625,1.0273786783218384,-0.5205698013305664,0.03722333908081055
1772811143250303200,5.20530322265625,1.177971601486206,-0.3665604591369629,-0.779789924621582
1772811143270065200,5.225065185546875,1.1909420490264893,-0.2046947479248047,-1.192826271057129
1772811143289827000,5.2448271484375,1.3278294801712036,-0.28493499755859375,-1.2675399780273438
1772811143309589200,5.26458935546875,1.580822467803955,-0.308807373046875,-1.3763370513916016
1772811143329351200,5.28435107421875,1.5570521354675293,-0.3324747085571289,-1.5737252235412598
1772811143349113000,5.304113037109375,1.244269609451294,-0.32265377044677734,-1.815767765045166
1772811143368875000,5.323875,0.8901959657669067,-0.2693343162536621,-2.0690646171569824
1772811143388637000,5.343636962890625,0.741539478302002,-0.2594752311706543,-2.3195385932922363
1772811143408398800,5.36339892578125,0.5999712944030762,-0.4164395332336426,-2.4736666679382324
1772811143428160800,5.383160888671875,0.8656105995178223,-0.4904155731201172,-2.7296080589294434
1772811143447923000,5.4029228515625,0.9112426042556763,-0.5804247856140137,-3.03941011428833
1772811143467684900,5.422684814453125,0.9027864933013916,-0.5460901260375977,-3.3028483390808105
1772811143487446800,5.44244677734375,0.7573680877685547,-0.7981452941894531,-3.2018699645996094
1772811143507208000,5.4622080078125,-0.18667900562286377,-2.0866637229919434,-2.692845344543457
1772811143526968800,5.48196875,-0.1812812089920044,-2.7843284606933594,-3.0339317321777344
1772811143546729500,5.5017294921875,0.31547415256500244,-3.3622994422912598,-3.2040815353393555
1772811143566490400,5.521490478515625,1.1977413892745972,-3.0869970321655273,-3.302403211593628
1772811143586251300,5.541251220703125,1.30064058303833,-3.0542092323303223,-1.90645170211792
1772811143606012200,5.56101220703125,1.107500433921814,-2.524829387664795,-0.5571560859680176
1772811143625772800,5.580772705078125,1.2920747995376587,-1.763704776763916,0.5620002746582031
1772811143645533700,5.60053369140625,1.4507458209991455,-0.5338034629821777,0.9650964736938477
1772811143665294600,5.620294677734375,1.0700933933258057,0.4929943084716797,1.1881351470947266
1772811143685055500,5.640055419921875,0.16598528623580933,1.2126169204711914,1.1827812194824219
1772811143704816000,5.659816162109375,-1.1866590976715088,1.6226415634155273,0.9243979454040527
1772811143724577000,5.679576904296875,-2.720778703689575,1.9181718826293945,0.6022844314575195
1772811143744338000,5.699337890625,-3.663036346435547,2.0567522048950195,0.37423038482666016
1772811143764098800,5.719098876953125,-3.7047250270843506,1.9049749374389648,0.41776037216186523
1772811143783859500,5.738859375,-2.811788320541382,1.258256435394287,0.7366204261779785
1772811143803620400,5.758620361328125,-1.238844633102417,0.48152875900268555,0.9475870132446289
1772811143823381200,5.77838134765625,0.31789451837539673,-0.4143228530883789,1.1146941184997559
1772811143843142100,5.79814208984375,1.8936004638671875,-0.876617431640625,1.0092482566833496
1772811143862902800,5.81790283203125,3.212184429168701,-0.8669977188110352,0.810513973236084
1772811143882663700,5.83766357421875,4.259251117706299,-0.46958446502685547,0.7724084854125977
1772811143902424600,5.857424560546875,5.0374345779418945,-0.018903732299804688,1.2090973854064941
1772811143922185500,5.877185546875,5.422608375549316,0.3780498504638672,1.824502944946289
1772811143941946400,5.8969462890625,5.069279670715332,0.7097206115722656,2.325629711151123
1772811143961707000,5.91670703125,3.877267360687256,0.848665714263916,2.631463050842285
1772811143981468000,5.936468017578125,2.7175731658935547,0.9902477264404297,2.5798044204711914
1772811144001229300,5.956229248046875,1.642809510231018,1.1009531021118164,2.4442267417907715
1772811144020991700,5.97599169921875,0.7220417261123657,1.2378478050231934,2.3038578033447266
1772811144040754200,5.995754150390625,-0.25298070907592773,1.3456239700317383,2.2409791946411133
1772811144060516400,6.015516357421875,-0.8524898290634155,1.3898725509643555,2.1983139514923096
1772811144080278800,6.03527880859375,-0.9708772897720337,1.4914183616638184,2.027268171310425
1772811144100041000,6.055041015625,-0.7011569738388062,1.7053093910217285,1.840116024017334
1772811144119803400,6.074803466796875,-0.6444764137268066,1.5385937690734863,2.0707523822784424
1772811144139565800,6.09456591796875,-0.7907968759536743,1.1620330810546875,2.4304237365722656
1772811144159328000,6.114327880859375,-1.1333297491073608,0.9514036178588867,2.6012628078460693
1772811144179090400,6.13409033203125,-2.088470935821533,0.7572479248046875,3.0898513793945312
1772811144198852600,6.1538525390625,-3.295867681503296,0.8892078399658203,3.3712382316589355
1772811144218615000,6.173614990234375,-4.282188892364502,1.3098363876342773,3.684840202331543
1772811144238377500,6.19337744140625,-4.892607688903809,1.4948043823242188,4.417713165283203
1772811144258139600,6.2131396484375,-5.322065353393555,0.5232820510864258,5.786149978637695
1772811144277902000,6.232902099609375,-4.823220252990723,0.23430538177490234,5.804802894592285
1772811144297664500,6.25266455078125,-3.521733283996582,0.22461700439453125,5.746813774108887
1772811144317426700,6.2724267578125,-2.3487966060638428,0.5490093231201172,5.753777980804443
1772811144337189000,6.292189208984375,-1.4261797666549683,1.1053476333618164,6.04292106628418
1772811144356951300,6.311951416015625,-0.5178366899490356,1.3368520736694336,6.890561103820801
1772811144376713700,6.331713623046875,0.5046247243881226,1.2536582946777344,7.785257339477539
1772811144396476200,6.35147607421875,1.176958680152893,1.1051998138427734,7.867769241333008
1772811144416238300,6.37123828125,1.747477412223816,1.1105756759643555,7.029882907867432
1772811144436000800,6.391000732421875,2.2857377529144287,1.1525812149047852,5.737221717834473
1772811144455763000,6.410762939453125,2.2196083068847656,0.8616657257080078,4.741698265075684
1772811144475525400,6.430525390625,2.1154751777648926,0.19718456268310547,4.043173789978027
1772811144495287600,6.45028759765625,2.380626916885376,-0.4907722473144531,3.2570629119873047
1772811144515048200,6.470048095703125,2.4961743354797363,-1.1530485153198242,2.500406265258789
1772811144534809000,6.48980908203125,2.46150541305542,-1.7033185958862305,1.8083138465881348
1772811144554570000,6.509570068359375,2.4860432147979736,-2.0330610275268555,1.2294840812683105
1772811144574331000,6.529330810546875,2.8482255935668945,-2.077913284301758,0.7475242614746094
1772811144594091500,6.549091552734375,3.126443862915039,-1.9052610397338867,0.4878196716308594
1772811144613852400,6.568852294921875,3.0146541595458984,-1.771280288696289,0.6802644729614258
1772811144633613300,6.58861328125,2.7703135013580322,-1.5421724319458008,0.8118834495544434
1772811144653374000,6.6083740234375,2.339451551437378,-1.4249777793884277,1.0471100807189941
1772811144673134800,6.628134765625,2.004560947418213,-1.410860538482666,1.0264992713928223
1772811144692895700,6.647895751953125,1.8291112184524536,-1.3980793952941895,0.5289392471313477
1772811144712656400,6.667656494140625,1.7202339172363281,-1.4505648612976074,-0.095733642578125
1772811144732417300,6.687417236328125,1.787839651107788,-1.3078670501708984,-0.8550477027893066
1772811144752178200,6.70717822265625,1.756593942642212,-1.146500587463379,-1.5108041763305664
1772811144771939000,6.72693896484375,1.4462840557098389,-0.9207429885864258,-2.2569398880004883
1772811144791699700,6.74669970703125,1.2072148323059082,-0.7124533653259277,-2.9012904167175293
1772811144811460600,6.766460693359375,1.189530372619629,-0.5043344497680664,-3.373049259185791
1772811144831221500,6.786221435546875,1.1909024715423584,-0.42519474029541016,-3.6538727283477783
1772811144850982100,6.805982177734375,1.2833566665649414,-0.4181246757507324,-3.9283034801483154
1772811144870743000,6.825742919921875,1.5039525032043457,-0.3294672966003418,-4.197819709777832
1772811144890504000,6.84550390625,1.4827324151992798,-0.40728330612182617,-4.297405242919922
1772811144910264800,6.865264892578125,1.3918416500091553,-0.6042261123657227,-4.378558158874512
1772811144930025500,6.885025390625,1.413757562637329,-0.9588770866394043,-4.532595634460449
1772811144949786400,6.904786376953125,1.5517466068267822,-1.3621530532836914,-4.70555305480957
1772811144969547300,6.92454736328125,1.8999873399734497,-1.737414836883545,-4.843175888061523
1772811144989308000,6.944307861328125,2.402113914489746,-1.8784456253051758,-4.902256965637207
1772811145009069800,6.96406982421875,2.350353479385376,-2.2972493171691895,-4.142983436584473
1772811145028832000,6.98383203125,1.097198247909546,-3.5068578720092773,-1.7794365882873535
1772811145048594200,7.00359423828125,1.0267176628112793,-3.723639488220215,1.0955605506896973
1772811145068356000,7.023356201171875,1.2758984565734863,-4.049368381500244,1.5615391731262207
1772811145088118300,7.0431181640625,0.44645774364471436,-3.671203136444092,-0.2661571502685547
1772811145107880400,7.06288037109375,-0.16409122943878174,-2.990973949432373,-0.6985945701599121
1772811145127642600,7.082642578125,-0.6131064891815186,-1.8946194648742676,0.5291428565979004
1772811145147404500,7.102404541015625,-1.1086006164550781,-0.5791749954223633,2.0078630447387695
1772811145167166700,7.122166748046875,-1.892895221710205,0.5954728126525879,3.0732693672180176
1772811145186929000,7.141928955078125,-2.6953818798065186,1.7718286514282227,2.9669957160949707
1772811145206691000,7.161691162109375,-3.237057685852051,2.1183996200561523,2.8625540733337402
1772811145226453000,7.181452880859375,-3.4746105670928955,2.2565383911132812,3.138530731201172
1772811145246215200,7.201215087890625,-3.1381754875183105,2.4350051879882812,3.4482064247131348
1772811145265977300,7.220977294921875,-2.776022434234619,2.5093603134155273,3.5060486793518066
1772811145285739500,7.240739501953125,-2.3402891159057617,2.173354148864746,3.5542731285095215
1772811145305501400,7.26050146484375,-1.7215503454208374,1.6432948112487793,3.342151165008545
1772811145325263600,7.280263671875,-1.0807850360870361,0.9635171890258789,3.077383518218994
1772811145345025800,7.30002587890625,-0.2630828022956848,0.44228363037109375,2.5360422134399414
1772811145364787700,7.31978759765625,0.7212365865707397,0.16475963592529297,1.788583755493164
1772811145384550000,7.3395498046875,1.7505066394805908,0.14496612548828125,1.0877571105957031
1772811145404312000,7.35931201171875,2.7853200435638428,0.2524528503417969,0.5865793228149414
1772811145424074200,7.37907421875,3.298083782196045,0.6910028457641602,0.15118408203125
1772811145443836200,7.398836181640625,3.2996959686279297,0.9551410675048828,0.04259300231933594
1772811145463598300,7.418598388671875,2.81282377243042,1.0729503631591797,-0.011349201202392578
1772811145483360500,7.438360595703125,2.1480064392089844,1.036177635192871,-0.024297714233398438
1772811145503122400,7.458122314453125,1.3299355506896973,0.9862990379333496,-0.07037115097045898
1772811145522884600,7.477884521484375,0.7165955305099487,0.837550163269043,0.047863006591796875
1772811145542646500,7.497646484375,0.15562230348587036,0.6954078674316406,0.08815193176269531
1772811145562408700,7.51740869140625,-0.19519305229187012,0.6835050582885742,-0.016594886779785156
1772811145582170600,7.537170654296875,-0.30253446102142334,0.7340407371520996,-0.14783668518066406
1772811145601932800,7.556932861328125,-0.4022219777107239,0.8644719123840332,-0.3860969543457031
1772811145621694700,7.57669482421875,-0.5904678106307983,0.6864557266235352,-0.4712843894958496
1772811145641457000,7.596456787109375,-0.6567203402519226,0.605008602142334,-0.6128129959106445
1772811145661218800,7.61621875,-0.847856879234314,0.3813514709472656,-0.5210566520690918
1772811145680980700,7.635980712890625,-1.0036689043045044,0.20064640045166016,-0.09185361862182617
1772811145700743000,7.655742919921875,-1.4667023420333862,0.16563987731933594,0.5257425308227539
1772811145720505000,7.675505126953125,-2.191349983215332,0.26987743377685547,1.4004302024841309
1772811145740267000,7.69526708984375,-3.233844518661499,-0.062333106994628906,2.75803279876709
1772811145760029000,7.71502880859375,-4.112247467041016,-0.8533115386962891,4.2464704513549805
1772811145779791000,7.734791015625,-3.7774038314819336,-1.0845680236816406,5.306121826171875
1772811145799553000,7.754552978515625,-2.6568355560302734,-1.1295700073242188,6.228204727172852
1772811145819315200,7.774315185546875,-1.6783132553100586,-0.30335140228271484,6.813060283660889
1772811145839077000,7.7940771484375,-1.1991409063339233,0.546147346496582,7.980031490325928
1772811145858839300,7.81383935546875,-1.0890454053878784,1.3372249603271484,9.512038230895996
1772811145878601200,7.833601318359375,-0.8438829779624939,2.0610828399658203,10.178964614868164
1772811145898363400,7.85336328125,-0.5751006007194519,2.489567756652832,9.954229354858398
1772811145918125300,7.873125244140625,-0.4654519557952881,2.4865942001342773,8.499358177185059
1772811145937887500,7.892887451171875,-0.11459693312644958,2.349102020263672,6.688833236694336
1772811145957649400,7.9126494140625,0.40331554412841797,2.029238700866699,4.821995735168457
1772811145977411600,7.93241162109375,1.2886618375778198,1.6593689918518066,3.511244058609009
1772811145997173500,7.952173583984375,2.26815128326416,1.2674188613891602,2.6968917846679688
1772811146016934700,7.9719345703125,3.157317638397217,0.6963109970092773,2.155888080596924
1772811146036695800,7.99169580078125,3.5392730236053467,0.06594085693359375,1.350618839263916
1772811146056457000,8.01145703125,3.703808307647705,-0.4598560333251953,0.8606891632080078
1772811146076218400,8.03121826171875,3.523080348968506,-1.0762138366699219,0.8580288887023926
1772811146095979500,8.0509794921875,3.1135878562927246,-1.3739204406738281,1.063638687133789
1772811146115740700,8.07074072265625,2.5452539920806885,-1.0988578796386719,1.2320141792297363
1772811146135501800,8.090501708984375,2.0227067470550537,-0.5375070571899414,1.6114959716796875
1772811146155263000,8.110262939453126,1.7711681127548218,-0.1705636978149414,2.1902594566345215
1772811146175024400,8.1300244140625,1.907322883605957,-0.08082103729248047,2.778804302215576
1772811146194785500,8.14978564453125,2.1188385486602783,-0.12563323974609375,3.1178622245788574
1772811146214546700,8.169546630859376,1.9814457893371582,-0.22932720184326172,2.8748440742492676
1772811146234307800,8.189307861328125,1.4834115505218506,-0.4738454818725586,2.0149970054626465
1772811146254069000,8.209069091796875,1.246715784072876,-0.7744231224060059,1.0548758506774902
1772811146273830400,8.228830322265624,1.0398390293121338,-0.9210920333862305,0.02846670150756836
1772811146293591600,8.248591552734375,0.8889407515525818,-1.0797271728515625,-0.791348934173584
1772811146313352700,8.268352783203126,1.1467114686965942,-1.0940876007080078,-1.2904667854309082
1772811146333113900,8.28811376953125,1.1843721866607666,-1.0177488327026367,-1.668774127960205
1772811146352875000,8.307875,0.9816755056381226,-0.8537464141845703,-1.9742841720581055
1772811146372636400,8.327636474609376,0.7428632378578186,-0.8189020156860352,-2.148867130279541
1772811146392397600,8.3473974609375,0.7816303372383118,-1.0086193084716797,-2.3249664306640625
1772811146412158700,8.36715869140625,1.0406482219696045,-1.190742015838623,-2.6786317825317383
1772811146431919900,8.386919921875,1.4439088106155396,-1.312302589416504,-3.1065845489501953
1772811146451681300,8.406681396484375,1.7682955265045166,-1.4728307723999023,-3.4276461601257324
1772811146471442400,8.4264423828125,1.748239278793335,-2.2219700813293457,-3.213723659515381
1772811146491203600,8.44620361328125,1.4252359867095947,-2.937204360961914,-3.327561378479004
1772811146510965000,8.465965087890625,1.7780956029891968,-3.3855462074279785,-3.5093741416931152
1772811146530726400,8.485726318359376,2.2035562992095947,-3.5434322357177734,-3.8163719177246094
1772811146550487800,8.50548779296875,2.75608491897583,-3.3108110427856445,-4.0707597732543945
1772811146570249200,8.525249267578126,2.9166712760925293,-2.774333953857422,-3.9137752056121826
1772811146590010600,8.5450107421875,2.5957844257354736,-2.1364431381225586,-3.291253089904785
1772811146609772000,8.56477197265625,1.9726502895355225,-1.452685832977295,-2.2899985313415527
1772811146629533400,8.584533447265626,0.9427628517150879,-0.6191401481628418,-1.4621901512145996
1772811146649294800,8.604294921875,-0.2132711410522461,0.168975830078125,-0.8909702301025391
1772811146669056300,8.62405615234375,-1.5730780363082886,0.684755802154541,-0.3670201301574707
1772811146688817700,8.643817626953124,-3.159085750579834,0.9240536689758301,0.15512466430664062
1772811146708579000,8.6635791015625,-4.251400470733643,0.9907517433166504,0.7781763076782227
1772811146728340500,8.683340576171876,-4.793749809265137,1.290123462677002,1.2837677001953125
1772811146748102000,8.703101806640625,-5.259724140167236,1.213815689086914,1.9268584251403809
1772811146767863300,8.72286328125,-4.710483551025391,0.7813277244567871,2.2665257453918457
1772811146787624700,8.742624755859374,-3.2085936069488525,0.022069931030273438,2.0964980125427246
1772811146807386000,8.76238623046875,-1.6649264097213745,-1.059493064880371,1.7242169380187988
1772811146827147500,8.7821474609375,0.016549259424209595,-1.6646308898925781,0.7704806327819824
1772811146846909000,8.801908935546875,1.6131248474121094,-1.5480918884277344,-0.17197561264038086
1772811146866670300,8.82167041015625,2.786555767059326,-1.0394582748413086,-0.5292363166809082
1772811146886431700,8.841431640625,3.351511001586914,-0.46238040924072266,-0.3552727699279785
1772811146906193200,8.861193115234375,3.1547999382019043,0.12548065185546875,-0.02088165283203125
1772811146925954600,8.88095458984375,1.8901541233062744,0.5015802383422852,0.36063385009765625
1772811146945716000,8.900716064453125,0.5495297908782959,0.7285022735595703,0.6960554122924805
1772811146965477600,8.9204775390625,-0.777999997138977,0.9356803894042969,0.9964265823364258
1772811146985239000,8.940239013671874,-1.9107757806777954,1.1707820892333984,1.3092546463012695
1772811147005000200,8.960000244140625,-2.8404948711395264,1.467726230621338,1.5620155334472656
1772811147024761300,8.97976123046875,-3.4381613731384277,1.4664912223815918,1.8661890029907227
1772811147044522500,8.9995224609375,-3.3755102157592773,1.5348329544067383,1.7363171577453613
1772811147064283400,9.019283447265625,-2.9514846801757812,1.5312447547912598,1.484574794769287
1772811147084044500,9.03904443359375,-2.2485687732696533,1.3730354309082031,1.340414047241211
1772811147103805700,9.0588056640625,-1.593441367149353,1.1026020050048828,1.2737436294555664
1772811147123566800,9.07856689453125,-1.2668070793151855,0.6313800811767578,1.4946718215942383
1772811147143328000,9.098327880859374,-1.2648301124572754,0.37394237518310547,1.7420711517333984
1772811147163089200,9.118089111328125,-0.9943481683731079,0.40364933013916016,1.874382734298706
1772811147182850300,9.137850341796875,-0.46660590171813965,0.7546901702880859,2.185408353805542
1772811147202611500,9.157611572265624,-0.10188263654708862,0.9006471633911133,2.862362861633301
1772811147222372400,9.177372314453125,-0.41635143756866455,0.18997859954833984,4.1675190925598145
1772811147242133500,9.197133544921876,-0.9747986793518066,0.1410388946533203,4.315693378448486
1772811147261894700,9.216894775390625,-1.0270464420318604,0.45376014709472656,4.337054252624512
1772811147281655800,9.23665576171875,-0.7923928499221802,1.0774917602539062,4.460200786590576
1772811147301417000,9.2564169921875,-0.45761874318122864,1.8353195190429688,4.751121520996094
1772811147321178000,9.27617822265625,-0.34566402435302734,2.158475875854492,5.501193046569824
1772811147340939300,9.295939208984375,-0.14225757122039795,2.445516586303711,5.969020843505859
1772811147360700200,9.3157001953125,0.012068867683410645,2.4686174392700195,6.037990570068359
1772811147380461300,9.33546142578125,-0.07492676377296448,2.140676498413086,5.7529497146606445
1772811147400222500,9.355222412109375,0.17895272374153137,1.9123306274414062,5.057462692260742
1772811147419983600,9.374983642578124,0.5562061667442322,1.6853594779968262,4.438556671142578
1772811147439744800,9.394744873046875,1.3960610628128052,1.4490299224853516,3.9654667377471924
1772811147459506000,9.414505859375,2.2681586742401123,1.2537345886230469,3.6556003093719482
1772811147479267000,9.43426708984375,3.024571180343628,0.8680753707885742,3.578169584274292
1772811147499028500,9.454028564453125,3.324859619140625,0.5324907302856445,3.4187092781066895
1772811147518790700,9.473790771484374,3.0854873657226562,0.09983062744140625,3.1042490005493164
1772811147538552800,9.493552734375,2.7833657264709473,-0.48271656036376953,2.5748238563537598
1772811147558315300,9.513315185546874,3.0334339141845703,-0.9280157089233398,1.7427959442138672
1772811147578077400,9.533077392578125,3.5913257598876953,-1.1548376083374023,0.8228020668029785
1772811147597839600,9.552839599609374,4.0118818283081055,-1.425105094909668,0.13464117050170898
1772811147617602000,9.57260205078125,3.98801326751709,-1.5141992568969727,-0.5172715187072754
1772811147637364200,9.5923642578125,3.6371870040893555,-1.4189167022705078,-1.0914192199707031
1772811147657126700,9.612126708984375,3.064840316772461,-1.230724811553955,-1.279280662536621
1772811147676888800,9.631888916015624,2.444716215133667,-1.005021095275879,-1.0551185607910156
1772811147696651000,9.651651123046875,1.8810033798217773,-0.8376107215881348,-0.6500616073608398
1772811147716413200,9.6714130859375,1.517130970954895,-0.7491240501403809,-0.29468870162963867
1772811147736175600,9.691175537109375,1.0489801168441772,-0.7274041175842285,-0.17288875579833984
1772811147755937800,9.710937744140624,0.5570231676101685,-0.4206547737121582,-0.25031423568725586
1772811147775700000,9.730699951171875,-0.038086891174316406,-0.16680908203125,-0.3074016571044922
1772811147795462400,9.75046240234375,-0.7037763595581055,0.02916097640991211,-0.2577347755432129
1772811147815224600,9.770224609375,-1.178485631942749,0.1036376953125,-0.13422775268554688
1772811147834987000,9.789987060546874,-1.2851130962371826,0.13280868530273438,-0.05027580261230469
1772811147854749200,9.809749267578125,-1.3145925998687744,0.2809300422668457,-0.17694425582885742
1772811147874511400,9.829511474609374,-1.4995396137237549,0.3683772087097168,-0.4082784652709961
1772811147894273800,9.849273681640625,-1.359586477279663,0.39354848861694336,-0.6482934951782227
1772811147914036000,9.869035888671876,-1.3012313842773438,0.1800832748413086,-0.7091851234436035
1772811147933798100,9.888798095703125,-1.0326851606369019,-0.1479663848876953,-0.7986769676208496
1772811147953560300,9.908560302734376,-0.680232584476471,-0.4293332099914551,-1.0997767448425293
1772811147973322800,9.92832275390625,-0.15226048231124878,-0.6580791473388672,-1.582261085510254
1772811147993085000,9.9480849609375,0.41231048107147217,-0.8624649047851562,-2.0064268112182617
1772811148012846800,9.967846923828125,0.5709735751152039,-1.562791347503662,-1.8834161758422852
1772811148032608500,9.9876083984375,0.3480081558227539,-2.346675395965576,-1.9250106811523438
1772811148052370200,10.0073701171875,0.9231824278831482,-2.4908876419067383,-2.2948217391967773
1772811148072132000,10.027132080078125,1.744434118270874,-2.675539016723633,-2.3610806465148926
1772811148091893800,10.046893798828124,2.4440317153930664,-2.579333782196045,-2.449995994567871
1772811148111655700,10.06665576171875,2.667156457901001,-2.607443332672119,-2.2201619148254395
1772811148131417300,10.086417236328124,2.242635726928711,-2.236241340637207,-1.984447956085205
1772811148151179300,10.10617919921875,1.3246210813522339,-1.5003886222839355,-1.8427834510803223
1772811148170941000,10.12594091796875,0.44734713435173035,-0.7298417091369629,-1.7094402313232422
1772811148190702800,10.145702880859375,-0.11986416578292847,-0.1284184455871582,-1.3732972145080566
1772811148210464500,10.165464599609376,-0.7252374291419983,0.24921035766601562,-0.851433277130127
1772811148230226200,10.18522607421875,-1.498103141784668,0.5877442359924316,-0.404904842376709
1772811148249988000,10.204988037109375,-2.44438099861145,0.8993759155273438,-0.06203460693359375
1772811148269749800,10.224749755859374,-3.4097039699554443,1.086679458618164,0.21303510665893555
1772811148289511700,10.24451171875,-3.742572784423828,1.1546049118041992,0.4688100814819336
1772811148309273300,10.2642734375,-3.5234057903289795,0.9343972206115723,0.8011975288391113
1772811148329035000,10.284034912109375,-2.569262981414795,0.46117162704467773,0.771338939666748
1772811148348797000,10.303796875,-1.265807032585144,-0.24592208862304688,0.630281925201416
1772811148368558800,10.323558837890625,-0.15583357214927673,-0.8933844566345215,0.3012371063232422
1772811148388320500,10.343320556640625,1.0658762454986572,-1.1719369888305664,-0.2746410369873047
1772811148408082200,10.363082275390624,2.154602289199829,-1.069455623626709,-0.8235692977905273
1772811148427844000,10.382843994140625,2.828028440475464,-0.9089841842651367,-1.2292919158935547
1772811148447605800,10.402605712890624,3.0175158977508545,-0.7052054405212402,-1.5149898529052734
1772811148467367700,10.42236767578125,2.295969247817993,-0.45542287826538086,-1.6947026252746582
1772811148487129300,10.44212939453125,0.8727685213088989,-0.2749910354614258,-1.7667651176452637
1772811148506890800,10.461890869140625,-0.24414825439453125,-0.07560586929321289,-1.5971179008483887
1772811148526652000,10.48165185546875,-1.0652341842651367,0.07854557037353516,-1.2329015731811523
1772811148546413000,10.5014130859375,-1.879095196723938,0.19474029541015625,-0.7385964393615723
1772811148566174200,10.52117431640625,-2.28594708442688,0.3722696304321289,-0.16753578186035156
1772811148585935400,10.540935302734376,-2.365468978881836,0.6542043685913086,0.24395084381103516
1772811148605696300,10.5606962890625,-2.5475730895996094,0.7959184646606445,0.5341272354125977
1772811148625457400,10.58045751953125,-2.7660515308380127,0.8588581085205078,0.6524114608764648
1772811148645218600,10.600218505859376,-2.6864378452301025,0.7577285766601562,0.6598935127258301
1772811148664979700,10.619979736328125,-2.117929458618164,0.6437382698059082,0.7401752471923828
1772811148684740900,10.639740966796875,-1.6478815078735352,0.5290918350219727,0.8551840782165527
1772811148704502000,10.659501953125,-1.9912753105163574,0.3060026168823242,1.1586437225341797
1772811148724263200,10.67926318359375,-2.7753987312316895,0.19123554229736328,1.3567290306091309
1772811148744024300,10.6990244140625,-3.5126657485961914,0.34397125244140625,1.4184279441833496
1772811148763785500,10.718785400390624,-3.512768268585205,0.7237224578857422,1.4953107833862305
1772811148783546600,10.738546630859375,-2.8499135971069336,1.062896728515625,1.9301872253417969
1772811148803307800,10.758307861328126,-2.1255719661712646,1.1430988311767578,2.5353894233703613
1772811148823069000,10.77806884765625,-2.093083143234253,0.6483926773071289,3.483382225036621
1772811148842830000,10.797830078125,-2.1853854656219482,0.06623077392578125,3.879974842071533
1772811148862591200,10.81759130859375,-1.9030497074127197,-0.17030048370361328,3.733663558959961
1772811148882352400,10.837352294921875,-1.0162279605865479,0.21067237854003906,3.469860792160034
1772811148902113500,10.857113525390625,-0.21225035190582275,0.6061077117919922,3.838036298751831
1772811148921874700,10.876874755859374,0.11843234300613403,0.9029369354248047,4.705183982849121
1772811148941635800,10.8966357421875,0.4458467960357666,1.1364221572875977,5.526046276092529
1772811148961397000,10.91639697265625,0.7772448062896729,1.2316889762878418,5.92049503326416
1772811148981158000,10.936157958984374,1.017380952835083,1.359431266784668,5.335080146789551
1772811149000919000,10.9559189453125,1.0284192562103271,1.4173088073730469,4.283198356628418
1772811149020680000,10.975679931640625,1.1275514364242554,1.480879783630371,3.3405566215515137
1772811149040441000,10.995441162109374,1.4938316345214844,1.4321441650390625,2.755404472351074
1772811149060202000,11.015201904296875,1.9753952026367188,1.2684335708618164,2.315380573272705
1772811149079963000,11.034962890625,2.335268497467041,1.084913730621338,2.056755542755127
1772811149099723800,11.054723876953124,2.395171880722046,0.5952653884887695,1.835911750793457
1772811149119485000,11.07448486328125,2.2175519466400146,0.11332416534423828,1.3080859184265137
1772811149139245800,11.094245849609376,2.129470109939575,-0.4219503402709961,0.670006275177002
1772811149159006700,11.1140068359375,2.1476221084594727,-0.8589048385620117,-0.0794057846069336
1772811149178767600,11.133767578125,2.3058271408081055,-1.2007713317871094,-0.6259293556213379
1772811149198528500,11.153528564453126,2.2746732234954834,-1.358675479888916,-0.9795527458190918
1772811149218289700,11.17328955078125,2.020996570587158,-1.5453643798828125,-0.9314045906066895
1772811149238050600,11.193050537109375,1.543972373008728,-1.602428913116455,-0.6274762153625488
1772811149257811500,11.2128115234375,1.4643480777740479,-1.5030474662780762,-0.29599618911743164
1772811149277572400,11.232572265625,1.7677093744277954,-1.3734135627746582,-0.042160987854003906
1772811149297333500,11.25233349609375,1.6591109037399292,-1.2299060821533203,0.008861064910888672
1772811149317094400,11.272094482421876,1.1601676940917969,-0.8447179794311523,-0.36399412155151367
1772811149336855300,11.291855224609375,0.8105757236480713,-0.5762734413146973,-0.6274213790893555
1772811149356616400,11.311616455078125,0.6706545352935791,-0.49655628204345703,-0.8016133308410645
1772811149376377300,11.33137744140625,0.46943891048431396,-0.45360803604125977,-0.9948773384094238
1772811149396138200,11.35113818359375,0.15232230722904205,-0.37270259857177734,-1.1818361282348633
1772811149415899100,11.370899169921875,-0.2087615430355072,-0.3649015426635742,-1.371023178100586
1772811149435660000,11.390659912109374,-0.62221360206604,-0.3859105110168457,-1.6329612731933594
1772811149455421200,11.410421142578125,-0.9708700776100159,-0.37886762619018555,-1.872387409210205
1772811149475182000,11.43018212890625,-1.2424979209899902,-0.30080080032348633,-1.843703269958496
1772811149494943000,11.44994287109375,-1.2004778385162354,-0.15548133850097656,-1.4843029975891113
1772811149514705200,11.469705078125,-0.7857288122177124,-0.13695955276489258,-0.9948325157165527
1772811149534467000,11.489467041015626,-0.2202051877975464,-0.3533315658569336,-0.6414914131164551
1772811149554229000,11.50922900390625,0.2945525050163269,-0.7071185111999512,-0.6414198875427246
1772811149573991000,11.528990966796876,0.6732021570205688,-1.0478692054748535,-0.9464645385742188
1772811149593752800,11.5487529296875,0.9731378555297852,-1.2164521217346191,-1.3666095733642578
1772811149613514800,11.5685146484375,1.3939859867095947,-1.2805700302124023,-1.7938036918640137
1772811149633276700,11.588276611328125,1.726738452911377,-1.2036027908325195,-2.1608762741088867
1772811149653038600,11.60803857421875,1.8461558818817139,-1.4307327270507812,-2.223186492919922
1772811149672800500,11.627800537109374,1.175330638885498,-2.0983285903930664,-2.063467025756836
1772811149692562400,11.6475625,0.6098122596740723,-2.3642163276672363,-2.2411203384399414
1772811149712324400,11.667324462890624,0.38898271322250366,-2.65506649017334,-2.399698257446289
1772811149732086300,11.687086181640625,0.7892743945121765,-2.341094970703125,-2.802422046661377
1772811149751848200,11.70684814453125,1.4072825908660889,-2.0327062606811523,-2.5870227813720703
1772811149771610000,11.726610107421875,1.6511738300323486,-1.5253868103027344,-2.0033931732177734
1772811149791372000,11.7463720703125,1.3261998891830444,-0.926795482635498,-1.4793171882629395
1772811149811134000,11.766134033203125,0.950021505355835,-0.4373316764831543,-0.9862465858459473
1772811149830895900,11.785895751953126,0.6302551627159119,-0.00810384750366211,-0.5996227264404297
1772811149850657800,11.80565771484375,0.25532805919647217,0.26404237747192383,-0.24920415878295898
1772811149870419700,11.825419677734375,-0.4434404671192169,0.25426721572875977,0.1387171745300293
1772811149890181600,11.845181640625,-1.3000987768173218,0.3765859603881836,0.5958027839660645
1772811149909943600,11.864943603515625,-2.27059268951416,0.5544590950012207,1.1668047904968262
1772811149929705500,11.88470556640625,-2.8122172355651855,0.5795817375183105,1.9000849723815918
1772811149949467600,11.904467529296875,-2.731309652328491,0.27660655975341797,2.507385730743408
1772811149969229600,11.9242294921875,-2.240957260131836,-0.05661201477050781,2.5950217247009277
1772811149988991500,11.943991455078125,-2.659818410873413,-0.1987295150756836,2.599039077758789
1772811150008753400,11.96375341796875,-3.546659469604492,-0.3155660629272461,3.702425956726074
1772811150028515300,11.983515380859375,-3.2745609283447266,-0.5981130599975586,4.973116874694824
1772811150048277200,12.00327734375,-0.9591383337974548,-0.5200891494750977,5.585424900054932
1772811150068039000,12.023038818359375,-0.18304762244224548,0.47319889068603516,7.019936561584473
1772811150087801000,12.042801025390625,-1.680031657218933,0.4509878158569336,8.051896095275879
1772811150107563000,12.06256298828125,-2.3201143741607666,-0.3254985809326172,7.345747947692871
1772811150127325000,12.082324951171875,-1.3589818477630615,-1.0718541145324707,5.652589321136475
1772811150147086800,12.1020869140625,0.2000390887260437,-1.2059926986694336,4.674648284912109
1772811150166848800,12.121848876953125,0.960299015045166,-1.4802026748657227,5.194293975830078
1772811150186610400,12.1416103515625,1.9012954235076904,-1.2459173202514648,5.550564765930176
1772811150206372400,12.161372314453125,2.4760124683380127,-1.5681071281433105,5.325201034545898
1772811150226134500,12.181134521484376,2.2127039432525635,-2.7376575469970703,4.816742897033691
1772811150245896400,12.200896484375,2.7753491401672363,-2.819401979446411,3.532343864440918
1772811150265658400,12.220658447265626,4.4639997482299805,-3.5740036964416504,2.9227466583251953
1772811150285420000,12.240419921875,4.718390464782715,-3.652223587036133,2.636168956756592
1772811150305182000,12.260181884765625,1.697763442993164,-4.05302095413208,1.9418225288391113
1772811150324944000,12.27994384765625,-0.1778879165649414,-4.52106237411499,1.5617728233337402
1772811150344705800,12.299705810546875,-1.1949868202209473,-3.5287113189697266,0.7939419746398926
1772811150364467700,12.3194677734375,-0.3568859100341797,-4.358503818511963,0.959632396697998
1772811150384230000,12.33922998046875,1.5779094696044922,-4.9024858474731445,1.1307477951049805
1772811150403991600,12.358991455078124,1.0000934600830078,-5.259525299072266,1.8074853420257568
1772811150423753500,12.37875341796875,-0.7144584655761719,-5.870107650756836,1.8016430139541626
1772811150443515400,12.398515380859376,-1.874464988708496,-5.6351470947265625,1.630413293838501
1772811150463277300,12.41827734375,-2.6182498931884766,-5.744303226470947,1.9013888835906982
1772811150483039200,12.438039306640626,-3.0231804847717285,-6.019428730010986,1.7842097282409668
1772811150502801200,12.45780126953125,-3.7043581008911133,-6.170616149902344,1.2998216152191162
1772811150522563000,12.47756298828125,-4.327363967895508,-5.758233547210693,1.0138691663742065
1772811150542325000,12.497324951171874,-3.308981418609619,-5.465545177459717,1.3385061025619507
1772811150562087000,12.5170869140625,-1.8238048553466797,-5.550504684448242,1.1532976627349854
1772811150581848800,12.536848876953124,-1.378420352935791,-5.484880447387695,0.8838748931884766
1772811150601610500,12.556610595703125,-1.6267404556274414,-4.942622661590576,0.8572627305984497
1772811150621372400,12.576372314453126,-1.5164427757263184,-4.447103500366211,1.0518608093261719
1772811150641134300,12.59613427734375,-1.3439617156982422,-4.040239334106445,1.3805983066558838
1772811150660896300,12.615896240234376,-1.976111888885498,-3.4789867401123047,1.3884251117706299
1772811150680658200,12.635658203125,-2.810380220413208,-3.1059980392456055,1.548299789428711
1772811150700420000,12.655420166015626,-2.2757139205932617,-2.4050121307373047,1.1736557483673096
1772811150720182000,12.67518212890625,-0.8295440673828125,-2.440671443939209,1.4438011646270752
1772811150739943700,12.694943603515625,0.38366270065307617,-2.1551027297973633,1.0466848611831665
1772811150759705600,12.71470556640625,0.3800487518310547,-1.7247247695922852,0.4627276360988617
1772811150779467500,12.734467529296875,0.14690446853637695,-1.393883228302002,0.8219610452651978
1772811150799229400,12.7542294921875,0.8024601936340332,-1.366806983947754,2.3703956604003906
1772811150818991400,12.773991455078125,0.9109587669372559,-1.15938138961792,3.500448226928711
1772811150838753300,12.793753173828126,-0.3041715621948242,-0.7975316047668457,2.771491050720215
1772811150858515200,12.81351513671875,-0.07404708862304688,-0.6027994155883789,1.576670527458191
1772811150878277000,12.833277099609376,0.5939126014709473,-0.42636919021606445,0.30064910650253296
1772811150898038800,12.853038818359375,1.4640884399414062,-0.42396974563598633,0.42276138067245483
1772811150917800700,12.87280078125,1.0827865600585938,-0.5085048675537109,1.1435182094573975
1772811150937562600,12.892562744140625,-0.23445558547973633,-0.5221548080444336,1.7814027070999146
1772811150957324500,12.912324462890625,-0.9015030860900879,-0.29479408264160156,1.3193023204803467
