time,seconds_elapsed,z,y,x
1772811026733271600,0.182271484375,1.4670010805130005,-0.2619216740131378,0.28668904304504395
1772811026743152400,0.19215234375,1.3796494007110596,-0.3535343408584595,0.48855647444725037
1772811026753033000,0.202032958984375,1.4307820796966553,-0.7567365765571594,0.8874976634979248
1772811026762913800,0.211913818359375,1.528786301612854,-1.0294439792633057,1.3934978246688843
1772811026772794400,0.22179443359375,1.561276912689209,-0.9564734697341919,2.002295970916748
1772811026782675200,0.23167529296875,1.4430326223373413,-0.9325050711631775,2.5258729457855225
1772811026792555800,0.2415556640625,1.1500850915908813,-0.9996166825294495,2.7687530517578125
1772811026802436600,0.2514365234375,0.6909565329551697,-1.0608693361282349,2.581799268722534
1772811026812317200,0.261317138671875,0.1849563866853714,-0.6752439141273499,2.11574649810791
1772811026822198000,0.271197998046875,-0.1681784838438034,0.09920266270637512,1.6635421514511108
1772811026832078800,0.281078857421875,-0.3226417005062103,0.8448871374130249,1.3066788911819458
1772811026841959400,0.29095947265625,-0.33116379380226135,1.0526134967803955,0.8725839853286743
1772811026851840300,0.30084033203125,-0.23369218409061432,0.6781733632087708,0.19081532955169678
1772811026861720800,0.310720947265625,-0.03289001062512398,0.374573290348053,-0.4749743640422821
1772811026871601700,0.3206015625,0.27230799198150635,0.26698166131973267,-0.9548755884170532
1772811026881482200,0.330482177734375,0.6302365064620972,0.18815216422080994,-1.2377030849456787
1772811026891363000,0.340363037109375,1.007872462272644,-0.09147950261831284,-1.2600735425949097
1772811026901243600,0.35024365234375,1.285906195640564,-0.4243743419647217,-1.194559931755066
1772811026911124500,0.36012451171875,1.4515546560287476,-0.5261070132255554,-1.2073431015014648
1772811026921005000,0.370005126953125,1.5809842348098755,-0.6038712859153748,-1.2345073223114014
1772811026930886000,0.379885986328125,1.7450348138809204,-0.616121768951416,-1.204147219657898
1772811026940766500,0.389766357421875,1.9341191053390503,-0.5948165059089661,-1.1135998964309692
1772811026950647300,0.399647216796875,2.067276954650879,-0.6853639483451843,-1.0038777589797974
1772811026960528000,0.40952783203125,2.048102378845215,-1.0374335050582886,-0.8920250535011292
1772811026970408700,0.41940869140625,1.905889630317688,-1.534379005432129,-0.7562039494514465
1772811026980289300,0.429289306640625,1.6832494735717773,-1.9189391136169434,-0.6006754636764526
1772811026990170000,0.439170166015625,1.397758960723877,-2.1005666255950928,-0.48136594891548157
1772811027000050200,0.44905029296875,1.0227861404418945,-2.2220065593719482,-0.46325647830963135
1772811027009930000,0.458929931640625,0.5668533444404602,-2.34664249420166,-0.5910881161689758
1772811027019809800,0.468809814453125,0.1998700648546219,-2.4941813945770264,-0.8041408061981201
1772811027029689600,0.478689697265625,0.05978791415691376,-2.5564992427825928,-0.9527450799942017
1772811027039569400,0.4885693359375,0.08695213496685028,-2.2513012886047363,-1.131709337234497
1772811027049449200,0.49844921875,0.2371542900800705,-1.670199990272522,-1.3772525787353516
1772811027059329000,0.5083291015625,0.5109270215034485,-1.4651367664337158,-1.5359768867492676
1772811027069208800,0.518208740234375,0.9764471650123596,-1.6414378881454468,-1.7010927200317383
1772811027079088600,0.528088623046875,1.6102789640426636,-1.744768500328064,-1.8555558919906616
1772811027088968400,0.537968505859375,2.6510415077209473,-1.1466230154037476,-1.9668759107589722
1772811027098848300,0.54784814453125,3.628953456878662,-0.16551531851291656,-1.955157995223999
1772811027108728000,0.55772802734375,4.026829242706299,0.1279647797346115,-2.114414930343628
1772811027118608000,0.56760791015625,3.9938061237335205,-0.1729721575975418,-2.396177053451538
1772811027128487700,0.57748779296875,3.7567849159240723,-0.18522270023822784,-2.3157496452331543
1772811027138367200,0.5873671875,3.6273555755615234,-0.3237069547176361,-1.828924298286438
1772811027148247000,0.5972470703125,3.565570116043091,-0.7743134498596191,-1.1487535238265991
1772811027158126800,0.607126953125,3.356245994567871,-1.0576735734939575,-0.4179827868938446
1772811027168006700,0.617006591796875,3.1064414978027344,-0.9974861145019531,0.16524900496006012
1772811027177886500,0.626886474609375,3.0153615474700928,-0.9937577247619629,0.41771647334098816
1772811027187766300,0.636766357421875,2.855039358139038,-1.2446272373199463,0.48908910155296326
1772811027197646000,0.64664599609375,2.5562329292297363,-1.6148062944412231,0.23875218629837036
1772811027207526000,0.65652587890625,2.2371866703033447,-2.3311960697174072,-0.27896589040756226
1772811027217405700,0.66640576171875,1.969805359840393,-3.3916659355163574,-0.783900797367096
1772811027227285500,0.676285400390625,1.8126790523529053,-4.545346260070801,-1.1471556425094604
1772811027237165300,0.686165283203125,1.7200011014938354,-5.647893905639648,-1.3053473234176636
1772811027247045000,0.696045166015625,1.7189358472824097,-6.389317512512207,-1.4369072914123535
1772811027256925000,0.705925048828125,1.9325212240219116,-6.214614391326904,-1.849164366722107
1772811027266804500,0.715804443359375,2.2627527713775635,-5.115795135498047,-2.4489076137542725
1772811027276684300,0.725684326171875,2.5051002502441406,-3.949863910675049,-3.0204215049743652
1772811027286564000,0.735564208984375,2.628138303756714,-3.364501714706421,-3.397524833679199
1772811027296444000,0.74544384765625,2.6829993724823,-3.2409310340881348,-3.3570449352264404
1772811027306323700,0.75532373046875,2.641986608505249,-3.5125732421875,-2.8595666885375977
1772811027316203500,0.76520361328125,2.527470827102661,-4.142676830291748,-2.094707489013672
1772811027326083300,0.775083251953125,2.374605655670166,-4.98263692855835,-1.2510188817977905
1772811027335963100,0.784963134765625,2.256361246109009,-5.810879230499268,-0.44035330414772034
1772811027345843000,0.794843017578125,2.229729652404785,-6.396241664886475,0.1940111219882965
1772811027355722800,0.80472265625,2.310689687728882,-6.546976566314697,0.596680760383606
1772811027365602600,0.8146025390625,2.488056182861328,-6.363218307495117,0.7713839411735535
1772811027375482400,0.824482421875,2.732534170150757,-6.017540454864502,0.8113313317298889
1772811027385362000,0.83436181640625,3.013231039047241,-5.665471076965332,0.7937544584274292
1772811027395241700,0.84424169921875,3.2784817218780518,-5.392230987548828,0.7974829077720642
1772811027405121500,0.85412158203125,3.4739575386047363,-5.2063422203063965,0.8944218754768372
1772811027415001300,0.86400146484375,3.594332218170166,-5.06626033782959,1.1037461757659912
1772811027424881200,0.873881103515625,3.6412038803100586,-4.960266590118408,1.3918999433517456
1772811027434761000,0.883760986328125,3.6475954055786133,-4.77863883972168,1.7066853046417236
1772811027444640800,0.893640869140625,3.628420829772949,-4.444678783416748,1.9714033603668213
1772811027454520600,0.9035205078125,3.55065655708313,-3.8278913497924805,2.0853865146636963
1772811027464400400,0.913400390625,3.4489238262176514,-3.2728891372680664,2.112550735473633
1772811027474280200,0.9232802734375,3.3972585201263428,-2.8803393840789795,2.2419803142547607
1772811027484160000,0.933159912109375,3.2758185863494873,-2.486724615097046,2.3527677059173584
1772811027494039800,0.943039794921875,3.1011152267456055,-2.1506338119506836,2.428934097290039
1772811027503920600,0.952920654296875,2.9237489700317383,-1.8944380283355713,2.5407867431640625
1772811027513801700,0.9628017578125,2.732001543045044,-1.6968315839767456,2.6590309143066406
1772811027523682800,0.972682861328125,2.5168182849884033,-1.5226610898971558,2.742121458053589
1772811027533564000,0.98256396484375,2.3261361122131348,-1.3596757650375366,2.846517324447632
1772811027543445000,0.992445068359375,2.1482369899749756,-1.1093387603759766,2.8965847492218018
1772811027553326000,1.002326171875,1.9889801740646362,-0.8233155608177185,2.8822035789489746
1772811027563207200,1.012207275390625,1.8366475105285645,-0.49148595333099365,2.7879278659820557
1772811027573088300,1.022088134765625,1.667803168296814,-0.10639319568872452,2.5993762016296387
1772811027582969300,1.03196923828125,1.4904367923736572,0.2701774537563324,2.3037655353546143
1772811027592850400,1.041850341796875,1.3215925693511963,0.6302365064620972,1.9463696479797363
1772811027602731500,1.0517314453125,1.1692599058151245,0.995621919631958,1.5687336921691895
1772811027612612600,1.061612548828125,1.0291776657104492,1.3375715017318726,1.206011414527893
1772811027622493700,1.07149365234375,0.9093355536460876,1.6411715745925903,0.9013460874557495
1772811027632374800,1.081374755859375,0.8044071197509766,1.8829864263534546,0.668586015701294
1772811027642256000,1.091255859375,0.7032070755958557,2.0433084964752197,0.49494805932044983
1772811027652137000,1.101136962890625,0.6185186505317688,2.1684770584106445,0.3543332815170288
1772811027662018000,1.11101806640625,0.5487438440322876,2.2238707542419434,0.2227732390165329
1772811027671899100,1.120899169921875,0.5077311992645264,2.180727481842041,0.12104056775569916
1772811027681780200,1.1307802734375,0.4858933389186859,2.0592875480651855,0.051798440515995026
1772811027691661300,1.140661376953125,0.47097963094711304,1.876062273979187,0.009720529429614544
1772811027701542100,1.150542236328125,0.4576638340950012,1.6512916088104248,-0.0030626326333731413
1772811027711423200,1.16042333984375,0.4619249105453491,1.3908346891403198,0.0011984214652329683
1772811027721304300,1.17030419921875,0.4683164656162262,1.1058766841888428,0.004926843568682671
1772811027731185400,1.180185302734375,0.44168490171432495,0.7926892042160034,-0.01531316339969635
1772811027741066500,1.19006640625,0.37563854455947876,0.47417542338371277,-0.07337002456188202
1772811027750947600,1.199947509765625,0.29627642035484314,0.16897742450237274,-0.15113426744937897
1772811027760828700,1.20982861328125,0.20626164972782135,-0.12876373529434204,-0.2347574532032013
1772811027770709800,1.219709716796875,0.09920266270637512,-0.43076592683792114,-0.32743537425994873
1772811027780590800,1.2295908203125,0.01717737503349781,-0.5692501664161682,-0.506932258605957
1772811027790472000,1.239471923828125,0.031558431684970856,-0.7482144832611084,-0.7066692113876343
1772811027800353000,1.24935302734375,0.09227845072746277,-0.9357008337974548,-0.8121302723884583
1772811027810234000,1.259234130859375,0.18282584846019745,-1.107208251953125,-0.8941555619239807
1772811027820115200,1.269115234375,0.30959221720695496,-1.2472903728485107,-1.0145303010940552
1772811027829996300,1.278996337890625,0.41398802399635315,-1.3703283071517944,-1.1599388122558594
1772811027839877400,1.28887744140625,0.4443480372428894,-1.5109431743621826,-1.2771178483963013
1772811027849758500,1.298758544921875,0.39854171872138977,-1.6819179058074951,-1.3703283071517944
1772811027859639600,1.3086396484375,0.2946785092353821,-1.8624801635742188,-1.459277868270874
1772811027869520600,1.318520751953125,0.12689951062202454,-1.99989914894104,-1.5599452257156372
1772811027879401700,1.328401611328125,-0.10799109190702438,-2.110153913497925,-1.6627432107925415
1772811027889282800,1.33828271484375,-0.38229644298553467,-2.214017152786255,-1.7431706190109253
1772811027899164000,1.348163818359375,-0.6273070573806763,-2.301901340484619,-1.7666064500808716
1772811027909045000,1.358044921875,-0.8179892301559448,-2.3796656131744385,-1.732517957687378
1772811027918926000,1.367926025390625,-0.9617998003959656,-2.436657190322876,-1.627589464187622
1772811027928807200,1.37780712890625,-1.0566082000732422,-2.461690902709961,-1.467267394065857
1772811027938688300,1.387688232421875,-1.1290462017059326,-2.465419292449951,-1.2691283226013184
1772811027948569300,1.3975693359375,-1.1982883214950562,-2.4334614276885986,-1.040096640586853
1772811027958450400,1.407450439453125,-1.2978904247283936,-2.3700780868530273,-0.7791070938110352
1772811027968331500,1.41733154296875,-1.4273200035095215,-2.293379306793213,-0.4941491186618805
1772811027978212600,1.427212646484375,-1.573261022567749,-2.1953749656677246,-0.20546270906925201
1772811027988093700,1.43709375,-1.7192021608352661,-2.0611517429351807,0.060320548713207245
1772811027997974800,1.446974853515625,-1.8853832483291626,-1.8981664180755615,0.2925480008125305
1772811028007855600,1.456855712890625,-2.069673776626587,-1.7165390253067017,0.4832301735877991
1772811028017736700,1.46673681640625,-2.2550296783447266,-1.5476948022842407,0.6366280913352966
1772811028027617800,1.47661767578125,-2.426537036895752,-1.379915714263916,0.7639271020889282
1772811028037498600,1.48649853515625,-2.5719456672668457,-1.2398335933685303,0.8518113493919373
1772811028047379700,1.496379638671875,-2.693385601043701,-1.1551451683044434,0.9066724181175232
1772811028057260800,1.5062607421875,-2.7748782634735107,-1.1093387603759766,0.9343692660331726
1772811028067141600,1.5161416015625,-2.7951183319091797,-1.0486187934875488,0.9215860962867737
1772811028077022700,1.526022705078125,-2.7610299587249756,-0.9863008856773376,0.869388222694397
1772811028086903800,1.53590380859375,-2.6923203468322754,-0.9538103342056274,0.802276611328125
1772811028096784600,1.54578466796875,-2.5991098880767822,-0.9527450799942017,0.7420892119407654
1772811028106665700,1.555665771484375,-2.495779275894165,-0.9740503430366516,0.6984133720397949
1772811028116546800,1.565546875,-2.4036340713500977,-1.0134650468826294,0.6542049646377563
1772811028126427600,1.575427734375,-2.33172869682312,-1.0518145561218262,0.5998765230178833
1772811028136308700,1.585308837890625,-2.2704761028289795,-1.0800440311431885,0.5455480813980103
1772811028146189800,1.59518994140625,-2.1921792030334473,-1.08217453956604,0.5071985721588135
1772811028156071000,1.60507080078125,-2.0915117263793945,-1.0661956071853638,0.49335017800331116
1772811028165951700,1.61495166015625,-1.9887138605117798,-1.0571409463882446,0.5130575299263
1772811028175832800,1.624832763671875,-1.8763285875320435,-1.0427597761154175,0.5620596408843994
1772811028185714000,1.6347138671875,-1.7655410766601562,-1.0129324197769165,0.6302365064620972
1772811028195594800,1.6445947265625,-1.6707327365875244,-0.9751155972480774,0.6994786858558655
1772811028205475800,1.654475830078125,-1.6206653118133545,-0.9404945373535156,0.760198712348938
1772811028215357000,1.66435693359375,-1.606284260749817,-0.9197219014167786,0.8145270943641663
1772811028225237800,1.67423779296875,-1.6089473962783813,-0.8914924263954163,0.8720513582229614
1772811028235118800,1.684118896484375,-1.6164042949676514,-0.8616650104522705,0.9205208420753479
1772811028245000000,1.694,-1.6126757860183716,-0.8451534509658813,0.9434239864349365
1772811028254880800,1.703880859375,-1.5945663452148438,-0.8270439505577087,0.9391629695892334
1772811028274643000,1.723642822265625,-1.5162694454193115,-0.8153260946273804,0.8576703071594238
1772811028284523800,1.733523681640625,-1.466734766960144,-0.8462187051773071,0.8076028823852539
1772811028294404900,1.74340478515625,-1.4038841724395752,-0.8701871633529663,0.7745797634124756
1772811028304286000,1.753285888671875,-1.3229241371154785,-0.8930903077125549,0.7825692296028137
1772811028314166800,1.763166748046875,-1.233441948890686,-0.9202545285224915,0.8379629254341125
1772811028324048000,1.7730478515625,-1.1530146598815918,-0.9431576728820801,0.9317061305046082
1772811028333929000,1.782928955078125,-1.094957709312439,-0.9703218936920166,1.0419608354568481
1772811028343809800,1.792809814453125,-1.0640650987625122,-1.0044103860855103,1.1394325494766235
1772811028353691000,1.80269091796875,-1.0661956071853638,-1.0321072340011597,1.2108051776885986
1772811028363572000,1.812572021484375,-1.0986862182617188,-1.0337051153182983,1.2480894327163696
1772811028373453000,1.822453125,-1.13969886302948,-1.0001492500305176,1.250752568244934
1772811028383334000,1.832333984375,-1.1785808801651,-0.9415597915649414,1.2363715171813965
1772811028393215000,1.842215087890625,-1.1929619312286377,-0.8520776629447937,1.2251862287521362
1772811028403096000,1.852095947265625,-1.1711241006851196,-0.7418228983879089,1.2166640758514404
1772811028412977000,1.861976806640625,-1.1157304048538208,-0.6379597187042236,1.1868367195129395
1772811028422858000,1.87185791015625,-1.0390313863754272,-0.544216513633728,1.1191924810409546
1772811028432739000,1.881739013671875,-0.9468861222267151,-0.4664522707462311,1.0137313604354858
1772811028442620000,1.891619873046875,-0.8424903154373169,-0.39774277806282043,0.8731166124343872
1772811028452501000,1.9015009765625,-0.7317028641700745,-0.334892213344574,0.6925544738769531
1772811028462382000,1.911382080078125,-0.6203828454017639,-0.2810963988304138,0.48429542779922485
1772811028472263000,1.921262939453125,-0.5298354625701904,-0.2246374487876892,0.2563290297985077
1772811028482144000,1.93114404296875,-0.4787027835845947,-0.16231952607631683,0.02197105996310711
1772811028492025000,1.941025146484375,-0.47763752937316895,-0.09893634915351868,-0.21931113302707672
1772811028501905700,1.95090576171875,-0.4978775382041931,-0.011584741063416004,-0.4573975205421448
1772811028511786500,1.960786376953125,-0.528237521648407,0.0576573871076107,-0.7215828895568848
1772811028521667000,1.9706669921875,-0.544216513633728,0.15939006209373474,-1.0038777589797974
1772811028531548000,1.9805478515625,-0.5090628266334534,0.32450589537620544,-1.3016188144683838
1772811028541428500,1.990428466796875,-0.4195806682109833,0.5194491147994995,-1.5695326328277588
1772811028551309300,2.000309326171875,-0.29281431436538696,0.7202513217926025,-1.7660738229751587
1772811028561190000,2.01018994140625,-0.14634057879447937,0.9141292572021484,-1.8821874856948853
1772811028571070700,2.02007080078125,0.024101587012410164,1.087767243385315,-1.9141453504562378
1772811028580951300,2.029951416015625,0.2222405970096588,1.239034652709961,-1.8480991125106812
1772811028590832000,2.03983203125,0.43795645236968994,1.34822416305542,-1.6792547702789307
1772811028600712700,2.049712646484375,0.6701838970184326,1.4078788757324219,-1.3911010026931763
1772811028610593500,2.059593505859375,0.9146618843078613,1.4164010286331177,-0.9974861145019531
1772811028620474000,2.06947412109375,1.1266493797302246,1.3711273670196533,-0.5207806825637817
1772811028630355000,2.07935498046875,1.2821778059005737,1.2587419748306274,0.02623211406171322
1772811028640235500,2.089235595703125,1.385508418083191,1.0835061073303223,0.6020070314407349
1772811028650116400,2.099116455078125,1.4424999952316284,0.8773776888847351,1.1602051258087158
1772811028659997000,2.108996826171875,1.4840452671051025,0.6153228282928467,1.6635421514511108
1772811028669877800,2.118877685546875,1.5170683860778809,0.3415501117706299,2.1130833625793457
1772811028679758300,2.12875830078125,1.5186662673950195,0.09387634694576263,2.4667508602142334
1772811028689639200,2.13863916015625,1.4824473857879639,-0.10799109190702438,2.6893908977508545
1772811028699519700,2.148519775390625,1.4222599267959595,-0.23156166076660156,2.7794055938720703
1772811028709400600,2.158400634765625,1.3237230777740479,-0.31625011563301086,2.7586331367492676
1772811028719281200,2.16828125,1.2832430601119995,-0.3487406373023987,2.6387908458709717
1772811028729162000,2.178161865234375,1.323190450668335,-0.29814061522483826,2.4257380962371826
1772811028739042600,2.18804248046875,1.3966935873031616,-0.1585911065340042,2.1050939559936523
1772811028748923400,2.19792333984375,1.4547505378723145,-0.006391581147909164,1.6683357954025269
1772811028758804000,2.207803955078125,1.4664684534072876,0.1272989958524704,1.1266493797302246
1772811028768684800,2.217684814453125,1.4164010286331177,0.24607586860656738,0.504535436630249
1772811028778565400,2.2275654296875,1.3194620609283447,0.36432012915611267,-0.16231952607631683
1772811028788446200,2.2374462890625,1.1793798208236694,0.5113264918327332,-0.8142607808113098
1772811028798326800,2.247326904296875,1.0243840217590332,0.6604633927345276,-1.3942967653274536
1772811028808207600,2.25720751953125,0.89495450258255,0.7755118608474731,-1.8827201128005981
1772811028818088200,2.267088134765625,0.8049397468566895,0.8484823703765869,-2.282193899154663
1772811028827969000,2.276968994140625,0.7543397545814514,0.9816403388977051,-2.5831308364868164
1772811028837849600,2.286849609375,0.8134618401527405,1.1776487827301025,-2.6710150241851807
1772811028847730400,2.29673046875,0.8576703071594238,1.1270488500595093,-2.7748782634735107
1772811028857611000,2.306611083984375,0.9551419019699097,1.1542130708694458,-2.8308045864105225
1772811028867491800,2.316491943359375,1.112268328666687,1.2740551233291626,-2.773813009262085
1772811028877372400,2.326372314453125,1.2784494161605835,1.3310468196868896,-2.679537296295166
1772811028887253200,2.336253173828125,1.3940304517745972,1.2777836322784424,-2.5224108695983887
1772811028897133800,2.3461337890625,1.4755231142044067,1.2367709875106812,-2.312021255493164
1772811028907014700,2.3560146484375,1.5543526411056519,1.1936278343200684,-2.054227590560913
1772811028916895200,2.365895263671875,1.6193337440490723,1.1430277824401855,-1.774595856666565
1772811028926776000,2.375776123046875,1.657683253288269,1.098819375038147,-1.4923009872436523
1772811028936656600,2.38565673828125,1.655552625656128,1.0897645950317383,-1.224387288093567
1772811028946537200,2.395537109375,1.6150726079940796,1.1004172563552856,-0.9735177159309387
1772811028956418000,2.40541796875,1.545830488204956,1.1179940700531006,-0.7242460250854492
1772811028966298600,2.415298583984375,1.4584789276123047,1.1675288677215576,-0.45793014764785767
1772811028976179500,2.425179443359375,1.3785841464996338,1.24955415725708,-0.16604794561862946
1772811028986060000,2.43506005859375,1.3258535861968994,1.3283835649490356,0.13222584128379822
1772811028995940900,2.44494091796875,1.293363094329834,1.3614068031311035,0.4107922613620758
1772811029005822000,2.454822021484375,1.2624704837799072,1.3789836168289185,0.6515418291091919
1772811029015702800,2.464702880859375,1.2491546869277954,1.38111412525177,0.8550071120262146
1772811029025583900,2.474583984375,1.2587419748306274,1.3379709720611572,1.0488851070404053
1772811029035465000,2.48446484375,1.3045483827590942,1.262337327003479,1.2353062629699707
1772811029045345800,2.494345703125,1.3785841464996338,1.1446256637573242,1.3966935873031616
1772811029055227000,2.504226806640625,1.4797842502593994,1.0002824068069458,1.5447652339935303
1772811029065107700,2.514107666015625,1.5937674045562744,0.8415581583976746,1.6763253211975098
1772811029074988800,2.52398876953125,1.7189358472824097,0.6684528589248657,1.7988306283950806
1772811029084870000,2.533869873046875,1.8329190015792847,0.49215173721313477,1.910683274269104
1772811029094750700,2.543750732421875,1.927727460861206,0.30306747555732727,2.033188581466675
1772811029104631800,2.5536318359375,2.0310580730438232,0.10120003670454025,2.170607566833496
1772811029114513000,2.563512939453125,2.151432752609253,-0.11238530278205872,2.2984392642974854
1772811029124393700,2.573393798828125,2.2723402976989746,-0.3206443190574646,2.3975086212158203
1772811029134274800,2.58327490234375,2.388986587524414,-0.5310338735580444,2.449706554412842
1772811029144156000,2.593156005859375,2.5003066062927246,-0.7621960639953613,2.4401192665100098
1772811029154036700,2.60303662109375,2.6153550148010254,-1.0002824068069458,2.3719422817230225
1772811029163917800,2.612917724609375,2.732001543045044,-1.2713919878005981,2.261154890060425
1772811029173799000,2.622798828125,2.8438541889190674,-1.5472952127456665,2.132258176803589
1772811029183679700,2.6326796875,2.9178898334503174,-1.8184047937393188,2.0038938522338867
1772811029193560800,2.642560791015625,2.938662528991699,-2.0799269676208496,1.897900104522705
1772811029203441700,2.652441650390625,2.8736815452575684,-2.335590362548828,1.796700119972229
1772811029213322800,2.66232275390625,2.7288057804107666,-2.6461145877838135,1.6779232025146484
1772811029223203800,2.672203857421875,2.553037166595459,-2.940659999847412,1.5330473184585571
1772811029233085000,2.6820849609375,2.3612897396087646,-3.183540105819702,1.330114722251892
1772811029242965800,2.6919658203125,2.1588897705078125,-3.357710599899292,1.0771145820617676
1772811029252846800,2.701846923828125,1.93039071559906,-3.416832685470581,0.7783081531524658
1772811029262727700,2.711727783203125,1.692836880683899,-3.3704938888549805,0.4534027874469757
1772811029272608800,2.72160888671875,1.449424147605896,-3.2250852584838867,0.1279647797346115
1772811029282489900,2.73148974609375,1.1703251600265503,-3.00510835647583,-0.1926795393228531
1772811029292370700,2.74137060546875,0.8033418655395508,-2.718019962310791,-0.506932258605957
1772811029302251800,2.751251708984375,0.3255711793899536,-2.3787333965301514,-0.8052060604095459
1772811029312132900,2.7611328125,-0.2613890469074249,-2.024533271789551,-1.0693913698196411
1772811029322013700,2.771013671875,-0.9298418760299683,-1.6953668594360352,-1.301086187362671
1772811029331894800,2.780894775390625,-1.61800217628479,-1.4247899055480957,-1.4986926317214966
1772811029341776000,2.79077587890625,-2.2459750175476074,-1.1984214782714844,-1.6515579223632812
1772811029351656700,2.80065673828125,-2.7658236026763916,-0.9677919149398804,-1.7591495513916016
1772811029361537800,2.810537841796875,-3.164764881134033,-0.7403581738471985,-1.8475663661956787
1772811029371419000,2.8204189453125,-3.4646365642547607,-0.5251749157905579,-1.9311896562576294
1772811029381299700,2.8302998046875,-3.6995270252227783,-0.3249053657054901,-2.0313243865966797
1772811029391180800,2.840180908203125,-3.895535469055176,-0.1225053071975708,-2.1575582027435303
1772811029401061600,2.8500615234375,-4.052661895751953,0.07723160833120346,-2.297640323638916
1772811029410942700,2.859942626953125,-4.160786151885986,0.2508695721626282,-2.42067813873291
1772811029420823800,2.86982373046875,-4.233223915100098,0.38456013798713684,-2.486724615097046
1772811029430704600,2.87970458984375,-4.258257865905762,0.48735806345939636,-2.4995076656341553
1772811029440585700,2.889585693359375,-4.238550186157227,0.5496760010719299,-2.4638214111328125
1772811029450466800,2.899466796875,-4.177830219268799,0.5651223063468933,-2.3897855281829834
1772811029460347600,2.90934765625,-4.0808916091918945,0.5310338735580444,-2.2752697467803955
1772811029470228700,2.919228759765625,-3.939211368560791,0.415452778339386,-2.1362528800964355
1772811029480109800,2.92910986328125,-3.750127077102661,0.23276008665561676,-1.9711370468139648
1772811029489990700,2.93899072265625,-3.503518581390381,0.026098955422639847,-1.782052755355835
1772811029499871700,2.948871826171875,-3.2382678985595703,-0.1784316450357437,-1.5700652599334717
1772811029509753000,2.958753173828125,-2.996985673904419,-0.41651803255081177,-1.3367725610733032
1772811029519634200,2.96863427734375,-2.787661552429199,-0.6663223505020142,-1.0789787769317627
1772811029529515300,2.978515380859375,-2.6017730236053467,-0.906539261341095,-0.7993471026420593
1772811029539396600,2.988396728515625,-2.432396173477173,-1.1190593242645264,-0.5063996315002441
1772811029549277700,2.998277587890625,-2.27793288230896,-1.2852404117584229,-0.21291954815387726
1772811029559159000,3.008158935546875,-2.139448642730713,-1.405615210533142,0.06617949903011322
1772811029569040100,3.0180400390625,-2.024932861328125,-1.5180004835128784,0.3207774758338928
1772811029578921200,3.027921142578125,-1.938113808631897,-1.6138741970062256,0.550341784954071
1772811029588802600,3.037802490234375,-1.8896443843841553,-1.642103672027588,0.7372955083847046
1772811029598683600,3.04768359375,-1.8747305870056152,-1.612276315689087,0.8763124346733093
1772811029608564700,3.057564697265625,-1.8944380283355713,-1.532381534576416,0.9801756143569946
1772811029618446000,3.067446044921875,-1.937581181526184,-1.4120068550109863,1.0723209381103516
1772811029628327200,3.0773271484375,-1.963147521018982,-1.2745877504348755,1.1527483463287354
1772811029638208500,3.08720849609375,-1.9711370468139648,-1.1424951553344727,1.1996198892593384
1772811029648089600,3.097089599609375,-1.9620822668075562,-1.0231856107711792,1.206011414527893
1772811029657970700,3.106970703125,-1.938113808631897,-0.897484540939331,1.1649987697601318
1772811029667852000,3.11685205078125,-1.8869811296463013,-0.7669897079467773,1.087767243385315
1772811029677733000,3.126733154296875,-1.8150758743286133,-0.6519412994384766,0.9982850551605225
1772811029687614500,3.136614501953125,-1.7303874492645264,-0.5555348992347717,0.9135966300964355
1772811029697495600,3.14649560546875,-1.6414378881454468,-0.4761728048324585,0.8278428912162781
1772811029707376600,3.156376708984375,-1.5466294288635254,-0.4063980281352997,0.7548723816871643
1772811029717258000,3.166258056640625,-1.4582126140594482,-0.34727591276168823,0.6925544738769531
1772811029727139000,3.17613916015625,-1.3788504600524902,-0.30360010266304016,0.6424870491027832
1772811029737020200,3.186020263671875,-1.3138693571090698,-0.2545979917049408,0.5961480736732483
1772811029746901500,3.195901611328125,-1.2611387968063354,-0.2024000734090805,0.5412870049476624
1772811029756782600,3.205782470703125,-1.2147998809814453,-0.16351795196533203,0.4784364700317383
1772811029766664000,3.215663818359375,-1.1780482530593872,-0.13475583493709564,0.405998557806015
1772811029776545000,3.225544921875,-1.1386336088180542,-0.0990695059299469,0.3218427300453186
1772811029786426000,3.235426025390625,-1.0960229635238647,-0.04154527932405472,0.23395849764347076
1772811029796307500,3.245307373046875,-1.027313470840454,0.039414748549461365,0.13968268036842346
1772811029806188500,3.2551884765625,-0.9170587658882141,0.12303793430328369,0.032091062515974045
1772811029816070000,3.26506982421875,-0.7764439582824707,0.2071937620639801,-0.09467529505491257
1772811029825951000,3.274950927734375,-0.6235786080360413,0.316915899515152,-0.24274691939353943
1772811029835832300,3.284832275390625,-0.4707133173942566,0.4442148804664612,-0.42543962597846985
1772811029845713400,3.29471337890625,-0.3231743276119232,0.5837644338607788,-0.6267744302749634
1772811029855594500,3.304594482421875,-0.1878858506679535,0.7313033938407898,-0.8211849927902222
1772811029865475800,3.314475830078125,-0.06538055092096329,0.8820381760597229,-0.9745829701423645
1772811029875357000,3.32435693359375,0.03262369707226753,1.0167940855026245,-1.094957709312439
1772811029885238000,3.334238037109375,0.10133319348096848,1.1361035108566284,-1.2265177965164185
1772811029895119400,3.344119384765625,0.17963005602359772,1.2436951398849487,-1.4054820537567139
1772811029905000400,3.35400048828125,0.29041746258735657,1.3438299894332886,-1.5966968536376953
1772811029914881800,3.3638818359375,0.4400869905948639,1.4466278553009033,-1.7687369585037231
1772811029924763000,3.373762939453125,0.6382260322570801,1.528120517730713,-1.9232001304626465
1772811029934644000,3.38364404296875,0.8885629177093506,1.5739268064498901,-2.03878116607666
1772811029944525300,3.393525390625,1.1660641431808472,1.5686005353927612,-2.060086488723755
1772811029954406400,3.403406494140625,1.4558157920837402,1.4881731271743774,-1.9727349281311035
1772811029964287700,3.413287841796875,1.7508937120437622,1.3187962770462036,-1.774595856666565
1772811029974168800,3.4231689453125,2.047037124633789,1.103613018989563,-1.4880399703979492
1772811029984050000,3.4330498046875,2.3330602645874023,0.8900277018547058,-1.1178609132766724
1772811029993931300,3.44293115234375,2.611626625061035,0.6876276135444641,-0.6949512958526611
1772811030003811800,3.452811767578125,2.8571698665618896,0.4335622489452362,-0.28802061080932617
1772811030013692400,3.4626923828125,3.01855731010437,0.14008215069770813,0.09174582362174988
1772811030023573200,3.4725732421875,3.0814077854156494,-0.15446321666240692,0.4672512114048004
1772811030033453800,3.482453857421875,3.049449920654297,-0.42610540986061096,0.8571376800537109
1772811030043334400,3.49233447265625,2.934934139251709,-0.6636591553688049,1.2630031108856201
1772811030053215000,3.502215087890625,2.745849847793579,-0.8692550659179688,1.674727439880371
1772811030063095800,3.512095703125,2.507230758666992,-1.0689918994903564,2.0795276165008545
1772811030072976400,3.521976318359375,2.266481399536133,-1.267130970954895,2.4411845207214355
1772811030082857000,3.53185693359375,2.057157039642334,-1.4333120584487915,2.72560977935791
1772811030092737500,3.541737548828125,1.8904433250427246,-1.5387731790542603,2.9264121055603027
1772811030102618000,3.5516181640625,1.7530243396759033,-1.5563499927520752,3.0377321243286133
1772811030112498700,3.561498779296875,1.6299864053726196,-1.4876405000686646,3.0569069385528564
1772811030122379500,3.571379638671875,1.5245252847671509,-1.3502215147018433,2.974349021911621
1772811030132260000,3.581260009765625,1.4222599267959595,-1.140897274017334,2.8081676959991455
1772811030142140700,3.591140625,1.3088093996047974,-0.8777771592140198,2.572744607925415
1772811030152021200,3.601021240234375,1.2102725505828857,-0.5896233320236206,2.26967716217041
1772811030161902000,3.610902099609375,1.1149314641952515,-0.30306747555732727,1.9048243761062622
1772811030171782700,3.62078271484375,1.0094703435897827,-0.027164220809936523,1.492034673690796
1772811030181663200,3.630663330078125,0.8874976634979248,0.24394534528255463,1.043026089668274
1772811030191543800,3.640543701171875,0.7665902376174927,0.5006738305091858,0.5737775564193726
1772811030201424400,3.65042431640625,0.6536723375320435,0.7238465547561646,0.10825740545988083
1772811030211305200,3.66030517578125,0.5551354289054871,0.9230508208274841,-0.3226417005062103
1772811030221185800,3.670185791015625,0.47470805048942566,1.1068087816238403,-0.7029407620429993
1772811030231066400,3.68006640625,0.4012048840522766,1.2367709875106812,-1.0145303010940552
1772811030240947000,3.689947021484375,0.3420827388763428,1.3283835649490356,-1.2611387968063354
1772811030250827800,3.699827880859375,0.2984069585800171,1.4024194478988647,-1.4571473598480225
1772811030260708400,3.709708251953125,0.273905873298645,1.4397037029266357,-1.6142736673355103
1772811030270589000,3.7195888671875,0.2696448266506195,1.4215941429138184,-1.7378442287445068
1772811030280469500,3.729469482421875,0.27710166573524475,1.3662004470825195,-1.8299895524978638
1772811030290350300,3.739350341796875,0.29095008969306946,1.2889689207077026,-1.8805896043777466
1772811030300231000,3.74923095703125,0.32397326827049255,1.207476258277893,-1.8901770114898682
1772811030310111500,3.759111572265625,0.37191012501716614,1.1046782732009888,-1.861414909362793
1772811030319992000,3.768991943359375,0.4432827830314636,1.0199898481369019,-1.794303297996521
1772811030329872600,3.77887255859375,0.5364933609962463,0.9816403388977051,-1.6835157871246338
1772811030339753500,3.78875341796875,0.6547375917434692,0.9757813811302185,-1.5413031578063965
1772811030349634000,3.798634033203125,0.7969502806663513,0.9864340424537659,-1.3831114768981934
1772811030359514600,3.8085146484375,0.9519461393356323,1.0167940855026245,-1.2179956436157227
1772811030369395200,3.818395263671875,1.1032135486602783,1.0514150857925415,-1.0566082000732422
1772811030379275800,3.82827587890625,1.221457839012146,1.0886993408203125,-0.913862943649292
1772811030389156600,3.838156494140625,1.3125377893447876,1.1217224597930908,-0.7764439582824707
1772811030399037200,3.848037109375,1.3966935873031616,1.1345056295394897,-0.6230459809303284
1772811030408917800,3.857917724609375,1.479251503944397,1.1275814771652222,-0.42650488018989563
1772811030418798300,3.86779833984375,1.5607441663742065,1.1052109003067017,-0.1868205964565277
1772811030428679000,3.877678955078125,1.632649540901184,1.0434256792068481,0.09760477393865585
1772811030438559700,3.887559814453125,1.7040221691131592,0.9502150416374207,0.4155859351158142
1772811030448440300,3.8974404296875,1.776992678642273,0.8202528953552246,0.7500786781311035
1772811030458321000,3.90732080078125,1.833984375,0.6519412994384766,1.092028260231018
1772811030468201500,3.917201416015625,1.868605375289917,0.4522043764591217,1.4211946725845337
1772811030478082300,3.927082275390625,1.8872474431991577,0.22796639800071716,1.7237294912338257
1772811030487963000,3.936962890625,1.8829864263534546,0.051665280014276505,1.9735338687896729
1772811030497843500,3.946843505859375,1.8648769855499268,-0.11984214931726456,2.1498348712921143
1772811030507724500,3.956724609375,1.8648769855499268,-0.32224223017692566,2.2920477390289307
1772811030517605400,3.96660546875,1.8749970197677612,-0.5203812122344971,2.3964433670043945
1772811030527486500,3.976486572265625,1.8829864263534546,-0.6801707744598389,2.442782402038574
1772811030537367300,3.9863671875,1.8835190534591675,-0.7749792337417603,2.3975086212158203
1772811030547248400,3.996248291015625,1.8702032566070557,-0.8191876411437988,2.266481399536133
1772811030557129200,4.006129150390625,1.8355822563171387,-0.8245139718055725,2.0459718704223633
1772811030567010300,4.01601025390625,1.7578179836273193,-0.7957518696784973,1.764209508895874
1772811030576891100,4.02589111328125,1.6022895574569702,-0.7701855301856995,1.3982915878295898
1772811030586772200,4.035772216796875,1.4403694868087769,-0.7659244537353516,0.9354345202445984
1772811030596653000,4.045653076171875,1.2864388227462769,-0.6998781561851501,0.4251733124256134
1772811030606534100,4.0555341796875,1.121855616569519,-0.6231791377067566,-0.06325002014636993
1772811030616415000,4.0654150390625,0.9540766477584839,-0.5278380513191223,-0.4659196436405182
1772811030626296000,4.075296142578125,0.8081355690956116,-0.43729066848754883,-0.774846076965332
1772811030636177000,4.085177001953125,0.6749776005744934,-0.34674328565597534,-1.0097366571426392
1772811030646058000,4.09505810546875,0.5279712080955505,-0.2583264112472534,-1.1908314228057861
1772811030655938800,4.104938720703125,0.3420827388763428,-0.19920428097248077,-1.3373051881790161
1772811030665820000,4.11481982421875,0.09494160860776901,-0.1422126740217209,-1.4443641901016235
1772811030675700700,4.12470068359375,-0.22303955256938934,-0.1038631945848465,-1.5157368183135986
1772811030685581800,4.134581787109375,-0.5980123281478882,-0.10173266381025314,-1.5327810049057007
1772811030695462700,4.144462646484375,-0.9873661398887634,-0.1086568832397461,-1.496562123298645
1772811030705343700,4.15434375,-1.3436968326568604,-0.10492845624685287,-1.429450511932373
1772811030715224600,4.164224609375,-1.630252718925476,-0.08309055864810944,-1.362338900566101
1772811030725105700,4.174105712890625,-1.8438379764556885,-0.011717898771166801,-1.315999984741211
1772811030734986500,4.183986572265625,-1.9988338947296143,0.05379580706357956,-1.308543086051941
1772811030744867600,4.19386767578125,-2.0973706245422363,0.09480845183134079,-1.320793628692627
1772811030754748400,4.20374853515625,-2.137850761413574,0.14753900468349457,-1.3389030694961548
1772811030764629500,4.21362939453125,-2.1271982192993164,0.21944428980350494,-1.3735241889953613
1772811030774510300,4.22351025390625,-2.098968505859375,0.26418536901474,-1.4161347150802612
1772811030784391400,4.233391357421875,-2.089913845062256,0.2838927209377289,-1.4363746643066406
1772811030794272300,4.243272216796875,-2.114947557449341,0.2881537973880768,-1.4193304777145386
1772811030804153300,4.2531533203125,-2.147970676422119,0.2689790427684784,-1.3767199516296387
1772811030814034200,4.2630341796875,-2.193244457244873,0.2450106143951416,-1.315999984741211
1772811030823915300,4.272915283203125,-2.252899169921875,0.21358533203601837,-1.2419641017913818
1772811030833796000,4.282796142578125,-2.321608781814575,0.17630110681056976,-1.161536693572998
1772811030843677200,4.29267724609375,-2.372741460800171,0.12996214628219604,-1.0757830142974854
1772811030853558000,4.30255810546875,-2.417482376098633,0.04420843720436096,-0.9628650546073914
1772811030863439000,4.312439208984375,-2.461690902709961,-0.08735160529613495,-0.8211849927902222
1772811030873320000,4.32231982421875,-2.48193097114563,-0.23435798287391663,-0.6464818120002747
1772811030883201000,4.332200927734375,-2.441983461380005,-0.3680485486984253,-0.45899543166160583
1772811030893081900,4.342081787109375,-2.366349697113037,-0.511859118938446,-0.27896589040756226
1772811030902963000,4.351962890625,-2.302966594696045,-0.6727139353752136,-0.1026647686958313
1772811030912843800,4.36184375,-2.261953830718994,-0.8484823703765869,0.07416897267103195
1772811030922724900,4.371724853515625,-2.233191728591919,-1.0109350681304932,0.26165536046028137
1772811030932605700,4.381605712890625,-2.203896999359131,-1.1606045961380005,0.4810996353626251
1772811030942486800,4.39148681640625,-2.163949728012085,-1.2692614793777466,0.7420892119407654
1772811030952367600,4.40136767578125,-2.1154801845550537,-1.3385035991668701,1.032906174659729
1772811030962248700,4.411248779296875,-2.079793930053711,-1.3704615831375122,1.3205273151397705
1772811030972129500,4.421129638671875,-2.0558254718780518,-1.3731247186660767,1.5756579637527466
1772811030982010600,4.4310107421875,-2.040379047393799,-1.3608741760253906,1.7631442546844482
1772811030991891500,4.440891357421875,-2.035585403442383,-1.3667330741882324,1.8765949010849
1772811031001772300,4.450772216796875,-2.0430421829223633,-1.3630046844482422,1.9367822408676147
1772811031011652900,4.46065283203125,-2.0515644550323486,-1.3246551752090454,1.9570223093032837
1772811031021533400,4.470533447265625,-2.050499200820923,-1.2612719535827637,1.9458370208740234
1772811031031414000,4.4804140625,-2.0281286239624023,-1.1835078001022339,1.9165422916412354
1772811031041294800,4.490294921875,-1.9977686405181885,-1.0801771879196167,1.8670074939727783
1772811031051175400,4.500175537109375,-1.9647454023361206,-0.9454213976860046,1.797232747077942
1772811031061056000,4.510055908203125,-1.9338527917861938,-0.8021434545516968,1.6885758638381958
1772811031070936600,4.5199365234375,-1.9088190793991089,-0.6663223505020142,1.5527547597885132
1772811031080817200,4.529817138671875,-1.8992316722869873,-0.5219791531562805,1.402552604675293
1772811031090698000,4.539697998046875,-1.8901770114898682,-0.3669832944869995,1.2337082624435425
1772811031100578600,4.54957861328125,-1.8640780448913574,-0.22050954401493073,1.057939887046814
1772811031110459100,4.559459228515625,-1.8193368911743164,-0.08255792409181595,0.8853671550750732
1772811031120339700,4.569339599609375,-1.7532906532287598,0.0378168560564518,0.731436550617218
1772811031130220500,4.579220458984375,-1.665406346321106,0.14381057024002075,0.601474404335022
1772811031140101000,4.58910107421875,-1.5476948022842407,0.23915165662765503,0.4965459704399109
1772811031149981700,4.598981689453125,-1.4108083248138428,0.3073285222053528,0.4022701382637024
1772811031159862300,4.6088623046875,-1.266465187072754,0.34088432788848877,0.31119009852409363
1772811031169742800,4.618742919921875,-1.1349050998687744,0.3627222180366516,0.2083921730518341
1772811031179623700,4.628623779296875,-1.0065408945083618,0.34727591276168823,0.09121318906545639
1772811031189504300,4.638504150390625,-0.8835029602050781,0.283360093832016,-0.01584579423069954
1772811031199384800,4.648384765625,-0.7716502547264099,0.18961690366268158,-0.1074584573507309
1772811031209265400,4.658265380859375,-0.6635259985923767,0.10013477504253387,-0.2012016475200653
1772811031219146000,4.66814599609375,-0.5522059798240662,0.0010652635246515274,-0.29814061522483826
1772811031229026600,4.678026611328125,-0.4408859312534332,-0.1086568832397461,-0.37750276923179626
1772811031238907400,4.687907470703125,-0.3205111622810364,-0.19494321942329407,-0.43076592683792114
1772811031248788000,4.6977880859375,-0.19427743554115295,-0.2535327076911926,-0.4616585671901703
1772811031258668500,4.70766845703125,-0.0600542314350605,-0.28921905159950256,-0.47923544049263
1772811031268549000,4.717549072265625,0.07044055312871933,-0.3105243146419525,-0.47337648272514343
1772811031278429700,4.7274296875,0.2035984843969345,-0.3121222257614136,-0.42650488018989563
1772811031288310500,4.737310546875,0.3271690607070923,-0.30413272976875305,-0.3338269591331482
1772811031298191000,4.747191162109375,0.4347606897354126,-0.28602325916290283,-0.1921469122171402
1772811031308071700,4.75707177734375,0.5125249028205872,-0.2631200850009918,-0.042477384209632874
1772811031317952300,4.7669521484375,0.5849628448486328,-0.2258358597755432,0.03688475117087364
1772811031327833000,4.7768330078125,0.689358651638031,-0.1842905879020691,0.019307902082800865
1772811031337713700,4.786713623046875,0.8315713405609131,-0.12357056885957718,-0.04301001504063606
1772811031347594200,4.79659423828125,1.0073398351669312,-0.03621895983815193,-0.0930773988366127
1772811031357474800,4.806474853515625,1.226251482963562,0.0378168560564518,-0.1026647686958313
1772811031367355400,4.81635546875,1.504285216331482,0.06391581147909164,-0.057923704385757446
1772811031377236200,4.826236328125,1.8227990865707397,0.05699159950017929,0.052331071346998215
1772811031387116800,4.83611669921875,2.135986566543579,0.02503369376063347,0.23289324343204498
1772811031396997400,4.845997314453125,2.423074960708618,-0.05326317623257637,0.4773712158203125
1772811031406878000,4.8558779296875,2.661694049835205,-0.1699095368385315,0.7612639665603638
1772811031416758500,4.865758544921875,2.8470499515533447,-0.3296990692615509,1.0616682767868042
1772811031426639400,4.875639404296875,2.9828710556030273,-0.5022717714309692,1.3716599941253662
1772811031436520000,4.88552001953125,3.064363718032837,-0.6311686635017395,1.6901737451553345
1772811031446400500,4.895400390625,3.0819406509399414,-0.7190528512001038,1.9884475469589233
1772811031456281000,4.905281005859375,3.0553090572357178,-0.776044487953186,2.211620330810547
1772811031466161700,4.91516162109375,3.004176378250122,-0.7595328688621521,2.3218750953674316
1772811031476042500,4.92504248046875,2.891258478164673,-0.6194507479667664,2.2925803661346436
1772811031485923000,4.934923095703125,2.770350933074951,-0.5597959756851196,2.170074939727783
1772811031495803600,4.9448037109375,2.6941845417022705,-0.6103960275650024,2.0880496501922607
1772811031505684700,4.954684814453125,2.6004414558410645,-0.5448822975158691,2.0156116485595703
1772811031515565600,4.964565673828125,2.4321298599243164,-0.4767054319381714,1.9490327835083008
1772811031525446700,4.97444677734375,2.2568938732147217,-0.4905538558959961,1.8425064086914062
1772811031535327700,4.98432763671875,2.066744327545166,-0.575242280960083,1.6709990501403809
1772811031545208600,4.99420849609375,1.8201358318328857,-0.6332991719245911,1.4765883684158325
1772811031555089700,5.004089599609375,1.4962958097457886,-0.6641917824745178,1.2422304153442383
1772811031564970500,5.013970458984375,1.1213229894638062,-0.6940191984176636,0.9540766477584839
1772811031574851600,5.0238515625,0.7676555514335632,-0.6753770709037781,0.6344975829124451
1772811031584732400,5.033732421875,0.4906870126724243,-0.533164381980896,0.29627642035484314
1772811031594613500,5.043613525390625,0.2898848354816437,-0.24767376482486725,-0.03342264145612717
1772811031604494600,5.05349462890625,0.15459637343883514,0.08415582031011581,-0.30826061964035034
1772811031614375400,5.06337548828125,0.018242638558149338,0.4324969947338104,-0.6837660074234009
1772811031624256500,5.073256591796875,-0.11385004222393036,0.8426234722137451,-1.0752503871917725
1772811031634137300,5.083137451171875,-0.21505007147789001,1.2479562759399414,-1.4235914945602417
1772811031644018400,5.093018310546875,-0.28482484817504883,1.6463648080825806,-1.7351810932159424
1772811031653899500,5.1028994140625,-0.31678274273872375,2.0255985260009766,-1.9935075044631958
1772811031663780400,5.1127802734375,-0.3194459080696106,2.3489060401916504,-2.2060275077819824
1772811031673661400,5.122661376953125,-0.2960101068019867,2.614689350128174,-2.3642191886901855
1772811031683542300,5.132542236328125,-0.26991114020347595,2.822948455810547,-2.4696803092956543
1772811031693423400,5.14242333984375,-0.2491385042667389,2.974748373031616,-2.516551971435547
1772811031703304400,5.152304443359375,-0.2198437601327896,3.045055866241455,-2.5122909545898438
1772811031713185300,5.162185302734375,-0.1878858506679535,3.034403085708618,-2.4595603942871094
1772811031723066400,5.17206640625,-0.15166689455509186,2.971019983291626,-2.362088680267334
1772811031732947200,5.181947265625,-0.12876373529434204,2.867689371109009,-2.2315938472747803
1772811031742828300,5.191828369140625,-0.11757846176624298,2.707899808883667,-2.0771307945251465
1772811031752709000,5.201709228515625,-0.09574055671691895,2.518815517425537,-1.902960181236267
1772811031762590200,5.211590087890625,-0.06271739304065704,2.3244049549102783,-1.7287895679473877
1772811031772471300,5.22147119140625,-0.021172111853957176,2.143310308456421,-1.5674021244049072
1772811031782352100,5.23135205078125,0.019307902082800865,1.9702048301696777,-1.434776782989502
1772811031792233200,5.241233154296875,0.06351634114980698,1.8120132684707642,-1.3170652389526367
1772811031802114300,5.2511142578125,0.12743215262889862,1.6767247915267944,-1.204147219657898
1772811031811995100,5.2609951171875,0.2174469232559204,1.5558173656463623,-1.0757830142974854
1772811031821876200,5.270876220703125,0.31971222162246704,1.4535521268844604,-0.917591392993927
1772811031831757000,5.280757080078125,0.4347606897354126,1.3571457862854004,-0.7210502624511719
1772811031841638100,5.29063818359375,0.5695165395736694,1.254347801208496,-0.47657227516174316
1772811031851519000,5.30051904296875,0.7090660333633423,1.1483540534973145,-0.19321216642856598
1772811031861400000,5.310400146484375,0.8470176458358765,1.0226529836654663,0.1237037256360054
1772811031871281200,5.32028125,0.9764471650123596,0.8612655401229858,0.46618595719337463
1772811031881162000,5.330161865234375,1.1010830402374268,0.6849644184112549,0.8086681962013245
1772811031891043000,5.34004296875,1.2097399234771729,0.491086483001709,1.117594599723816
1772811031900924000,5.349923828125,1.3077441453933716,0.30945906043052673,1.3892368078231812
1772811031910805000,5.359804931640625,1.407346248626709,0.14807163178920746,1.620931625366211
1772811031920686000,5.36968603515625,1.494165301322937,0.00426105409860611,1.8275927305221558
1772811031930567000,5.37956689453125,1.5639400482177734,-0.11504846066236496,2.01188325881958
1772811031940448000,5.389447998046875,1.6214642524719238,-0.2215748131275177,2.1727380752563477
1772811031950328800,5.399328857421875,1.6816515922546387,-0.3073285222053528,2.3128201961517334
1772811031960210000,5.4092099609375,1.7684706449508667,-0.3621895909309387,2.419879198074341
1772811031970091000,5.419091064453125,1.8819211721420288,-0.38988643884658813,2.4720771312713623
1772811031979971800,5.428971923828125,1.994839072227478,-0.4016043543815613,2.4672834873199463
1772811031989853000,5.43885302734375,2.072070598602295,-0.4005391001701355,2.404433012008667
1772811031999733800,5.448733642578125,2.106159210205078,-0.3771032989025116,2.299504518508911
1772811032009614300,5.4586142578125,2.106691837310791,-0.34674328565597534,2.1493022441864014
1772811032019495000,5.468494873046875,2.052363395690918,-0.3296990692615509,1.9644790887832642
1772811032029375500,5.47837548828125,1.9287927150726318,-0.3057306408882141,1.7562201023101807
1772811032039256000,5.488256103515625,1.78391695022583,-0.29081693291664124,1.5261231660842896
1772811032049136600,5.49813671875,1.6406389474868774,-0.28602325916290283,1.2033482789993286
1772811032059017200,5.508017333984375,1.5271884202957153,-0.2556632459163666,0.8054723739624023
1772811032068897800,5.517897705078125,1.4339778423309326,-0.21997691690921783,0.36285537481307983
1772811032078778400,5.5277783203125,1.3578115701675415,-0.17736637592315674,-0.07177212834358215
1772811032088659000,5.537658935546875,1.2816451787948608,-0.1368863582611084,-0.44514700770378113
1772811032098539800,5.547539794921875,1.1884346008300781,-0.13795162737369537,-0.7380944490432739
1772811032108420000,5.557420166015625,1.0563418865203857,-0.1890842765569687,-0.9516798257827759
1772811032118301000,5.567301025390625,0.8560724258422852,-0.24820640683174133,-1.0938924551010132
1772811032128181500,5.577181396484375,0.5854954719543457,-0.2828274667263031,-1.1647324562072754
1772811032138062000,5.58706201171875,0.26325324177742004,-0.30839377641677856,-1.181776762008667
1772811032147942700,5.596942626953125,-0.08508792519569397,-0.3105243146419525,-1.1556777954101562
1772811032157823200,5.6068232421875,-0.4510059356689453,-0.2870885133743286,-1.107740879058838
1772811032167703800,5.616703857421875,-0.800944983959198,-0.26152220368385315,-1.0544776916503906
1772811032177584400,5.62658447265625,-1.1061429977416992,-0.2535327076911926,-1.006008267402649
1772811032187465000,5.63646484375,-1.3319789171218872,-0.23861902952194214,-0.9607345461845398
1772811032197345500,5.646345458984375,-1.4662021398544312,-0.19973690807819366,-0.9293092489242554
1772811032207226000,5.65622607421875,-1.543433666229248,-0.1608547866344452,-0.922385036945343
1772811032217107000,5.66610693359375,-1.5828484296798706,-0.1699095368385315,-0.9330376982688904
1772811032226987500,5.675987548828125,-1.6094800233840942,-0.22370533645153046,-0.9522124528884888
1772811032236868000,5.6858681640625,-1.6472969055175781,-0.30466535687446594,-0.9719198346138
1772811032246748700,5.695748779296875,-1.6931031942367554,-0.43675804138183594,-0.9793766736984253
1772811032256629200,5.705629150390625,-1.7405074834823608,-0.6231791377067566,-0.9660608768463135
1772811032266509800,5.715509765625,-1.781520128250122,-0.8404929041862488,-0.9186566472053528
1772811032276390400,5.725390380859375,-1.8001621961593628,-1.0583393573760986,-0.8281092047691345
1772811032286271000,5.73527099609375,-1.7964338064193726,-1.3028173446655273,-0.7029407620429993
1772811032296151600,5.745151611328125,-1.781520128250122,-1.5600783824920654,-0.5436838865280151
1772811032306032000,5.7550322265625,-1.757551670074463,-1.7976322174072266,-0.3625890612602234
1772811032315912700,5.76491259765625,-1.7213326692581177,-2.014413356781006,-0.19587533175945282
1772811032325793300,5.774793212890625,-1.6803200244903564,-2.197106122970581,-0.06697844713926315
1772811032335673900,5.784673828125,-1.643568515777588,-2.3393187522888184,0.006524738855659962
1772811032345554700,5.7945546875,-1.6089473962783813,-2.4437146186828613,0.012383688241243362
1772811032355435300,5.804435302734375,-1.5839136838912964,-2.5129566192626953,-0.022237375378608704
1772811032365315800,5.81431591796875,-1.5695326328277588,-2.549175500869751,-0.06910897046327591
1772811032375196400,5.824196533203125,-1.5695326328277588,-2.5358598232269287,-0.09893634915351868
1772811032385077000,5.834076904296875,-1.5674021244049072,-2.4676828384399414,-0.11757846176624298
1772811032394957600,5.84395751953125,-1.551423192024231,-2.331329107284546,-0.14900372922420502
1772811032404838100,5.853838134765625,-1.531715750694275,-2.127331256866455,-0.2012016475200653
1772811032414718700,5.86371875,-1.5295852422714233,-1.8812553882598877,-0.2731069326400757
1772811032424599300,5.873599365234375,-1.5540863275527954,-1.6037542819976807,-0.35886064171791077
1772811032434479900,5.88347998046875,-1.6036211252212524,-1.2932299375534058,-0.44035330414772034
1772811032444360700,5.893360595703125,-1.672863245010376,-0.9491497874259949,-0.5138564705848694
1772811032454241300,5.9032412109375,-1.7548885345458984,-0.5960149168968201,-0.5783049464225769
1772811032464121900,5.913121826171875,-1.841174840927124,-0.27110958099365234,-0.6299701929092407
1772811032474002400,5.92300244140625,-1.9237327575683594,0.00852210819721222,-0.6645912528038025
1772811032483883000,5.932883056640625,-1.9855180978775024,0.2695116698741913,-0.7050712704658508
1772811032493763600,5.942763671875,-2.029193878173828,0.5086633563041687,-0.7609976530075073
1772811032503644400,5.95264453125,-2.0670106410980225,0.688160240650177,-0.8195871114730835
1772811032513525200,5.962525146484375,-2.1058928966522217,0.8080024123191833,-0.8616650104522705
1772811032523406000,5.972406005859375,-2.1415791511535645,0.8804402947425842,-0.8739155530929565
1772811032533287200,5.982287109375,-2.1618192195892334,0.9082702994346619,-0.8536755442619324
1772811032543168000,5.99216796875,-2.1751348972320557,0.89495450258255,-0.8094671368598938
1772811032553048800,6.002048828125,-2.1708738803863525,0.8420908451080322,-0.7428881525993347
1772811032562929700,6.0119296875,-2.1463727951049805,0.7605981826782227,-0.6624607443809509
1772811032572810500,6.021810546875,-2.0973706245422363,0.6625939011573792,-0.5793702006340027
1772811032582691600,6.031691650390625,-2.029726505279541,0.5427517890930176,-0.4941491186618805
1772811032592572400,6.041572509765625,-1.955690622329712,0.42290961742401123,-0.41159120202064514
1772811032602453200,6.051453369140625,-1.8752633333206177,0.31372010707855225,-0.3386206328868866
1772811032612334000,6.061333984375,-1.779389500617981,0.21411797404289246,-0.2677806317806244
1772811032632096000,6.081095947265625,-1.5418357849121094,0.06657896935939789,-0.1495363712310791
1772811032641976800,6.090976806640625,-1.4113410711288452,0.026098955422639847,-0.12503530085086823
1772811032651857700,6.100857666015625,-1.2765852212905884,0.023435797542333603,-0.13462267816066742
1772811032661738500,6.110738525390625,-1.1338398456573486,0.04900212213397026,-0.182559534907341
1772811032671619300,6.120619384765625,-0.9820398092269897,0.09534108638763428,-0.25073641538619995
1772811032681500400,6.13050048828125,-0.8142607808113098,0.17683374881744385,-0.3231743276119232
1772811032691381200,6.14038134765625,-0.6400902271270752,0.2865558862686157,-0.39294907450675964
1772811032701262000,6.150261962890625,-0.4557996392250061,0.3861580193042755,-0.4557996392250061
1772811032711143000,6.160142822265625,-0.26565009355545044,0.46871596574783325,-0.5005406737327576
1772811032721023700,6.170023681640625,-0.07177212834358215,0.5411538481712341,-0.528237521648407
1772811032730904600,6.179904541015625,0.11251845955848694,0.5848296880722046,-0.5500754714012146
1772811032740785700,6.18978564453125,0.27284061908721924,0.5853623151779175,-0.5671196579933167
1772811032750666500,6.19966650390625,0.4028027653694153,0.5677854418754578,-0.6022733449935913
1772811032760547300,6.20954736328125,0.5311670303344727,0.5496760010719299,-0.6725807785987854
1772811032770428200,6.21942822265625,0.6882933974266052,0.5102612376213074,-0.7631281614303589
1772811032780309200,6.229309326171875,0.8725839853286743,0.4612590968608856,-0.8568713665008545
1772811032790190000,6.239190185546875,1.099485158920288,0.39894118905067444,-0.9293092489242554
1772811032800071000,6.24907080078125,1.3705947399139404,0.3296990692615509,-0.9538103342056274
1772811032809951700,6.25895166015625,1.675260066986084,0.240216925740242,-0.9080039858818054
1772811032819832600,6.26883251953125,1.9889801740646362,0.14913690090179443,-0.7769765853881836
1772811032829713700,6.278713623046875,2.3037655353546143,0.07829686999320984,-0.5665870308876038
1772811032839594500,6.288594482421875,2.6238772869110107,0.06657896935939789,-0.29334694147109985
1772811032849475300,6.298475341796875,2.9322710037231445,0.066046342253685,-0.014780531637370586
1772811032859356200,6.308356201171875,3.1889994144439697,0.039414748549461365,0.2222405970096588
1772811032869237000,6.318237060546875,3.362637519836426,-0.00852210819721222,0.41345539689064026
1772811032879118000,6.3281181640625,3.416433334350586,-0.08362318575382233,0.5945501923561096
1772811032888999000,6.3379990234375,3.310972213745117,-0.15872426331043243,0.8438218832015991
1772811032898879700,6.347879638671875,3.1160290241241455,-0.20825901627540588,1.1825757026672363
1772811032908760600,6.357760498046875,2.9312057495117188,-0.27110958099365234,1.558613657951355
1772811032918641400,6.367641357421875,2.762361526489258,-0.35153695940971375,1.9138790369033813
1772811032928522500,6.3775224609375,2.551971912384033,-0.446878045797348,2.1833908557891846
1772811032938403300,6.3874033203125,2.2723402976989746,-0.5534043908119202,2.369279146194458
1772811032948284200,6.3972841796875,1.935716986656189,-0.6604633927345276,2.493382453918457
1772811032958165000,6.4071650390625,1.5964305400848389,-0.7643265724182129,2.5551676750183105
1772811032968045800,6.4170458984375,1.2864388227462769,-0.8325034379959106,2.5269381999969482
1772811032977927000,6.426927001953125,1.0259819030761719,-0.8575371503829956,2.3831276893615723
1772811032987807700,6.436807861328125,0.8129292130470276,-0.8655266165733337,2.106691837310791
1772811032997688600,6.4466884765625,0.6451502442359924,-0.8676571249961853,1.716805338859558
1772811033007569700,6.456569580078125,0.4954806864261627,-0.827177107334137,1.250752568244934
1772811033017451000,6.466450927734375,0.3458111584186554,-0.7371623516082764,0.7474155426025391
1772811033027332000,6.47633203125,0.18655426800251007,-0.6151896715164185,0.24035008251667023
1772811033037213200,6.486213134765625,0.018775269389152527,-0.4799012243747711,-0.23262691497802734
1772811033047094300,6.49609423828125,-0.15113426744937897,-0.30892643332481384,-0.641155481338501
1772811033056975400,6.505975341796875,-0.3061301112174988,-0.11238530278205872,-0.9841703176498413
1772811033066856400,6.5158564453125,-0.4328964650630951,0.11558109521865845,-1.2760525941848755
1772811033076737800,6.52573779296875,-0.523443877696991,0.3685811758041382,-1.5221284627914429
1772811033086619000,6.535618896484375,-0.5708481073379517,0.6364949345588684,-1.7357137203216553
1772811033096500000,6.5455,-0.5857617855072021,0.9214529395103455,-1.913612723350525
1772811033106381000,6.555381103515625,-0.5793702006340027,1.2165309190750122,-2.0680758953094482
1772811033116262100,6.56526220703125,-0.5564670562744141,1.4892383813858032,-2.193777084350586
1772811033126143200,6.575143310546875,-0.5239765048027039,1.7390427589416504,-2.298172950744629
1772811033136024300,6.5850244140625,-0.5005406737327576,1.9473017454147339,-2.372741460800171
1772811033145905700,6.59490576171875,-0.489888072013855,2.1145482063293457,-2.411623477935791
1772811033155786800,6.604786865234375,-0.4930838644504547,2.2333250045776367,-2.397242307662964
1772811033165667800,6.614667724609375,-0.48615965247154236,2.361689329147339,-2.301901340484619
1772811033175549000,6.624548828125,-0.33595749735832214,2.6423861980438232,-1.8731327056884766
1772811033185430000,6.634429931640625,-0.3237069547176361,2.420811414718628,-1.6425031423568726
1772811033195311400,6.644311279296875,-0.34447959065437317,2.4623565673828125,-1.5152041912078857
1772811033205192400,6.6541923828125,-0.2773679792881012,2.649310350418091,-1.3447620868682861
1772811033215073500,6.664073486328125,-0.21345217525959015,2.7441189289093018,-1.2046798467636108
1772811033224954600,6.67395458984375,-0.1543300598859787,2.7611629962921143,-1.1610040664672852
1772811033234835700,6.683835693359375,-0.07709844410419464,2.8431882858276367,-1.1887009143829346
1772811033244716800,6.693716796875,0.003328948514536023,2.9529104232788086,-1.2819114923477173
1772811033254598100,6.70359814453125,0.08322371542453766,3.009369373321533,-1.4560821056365967
1772811033264479200,6.713479248046875,0.1663142740726471,2.9720852375030518,-1.6861790418624878
1772811033274360300,6.7233603515625,0.24887219071388245,2.876744031906128,-1.9295917749404907
1772811033294122500,6.74312255859375,0.45659857988357544,2.5507736206054688,-2.207625389099121
1772811033304003600,6.753003662109375,0.6094638705253601,2.290849208831787,-2.134654998779297
1772811033313885000,6.762885009765625,0.7878955602645874,1.9696722030639648,-1.921069622039795
1772811033323766000,6.77276611328125,0.9562071561813354,1.5691331624984741,-1.598294734954834
1772811033333647000,6.782647216796875,1.104278802871704,1.0881667137145996,-1.2014840841293335
1772811033343528200,6.792528076171875,1.2353062629699707,0.5571328401565552,-0.7439534068107605
1772811033353409300,6.8024091796875,1.3551483154296875,0.001597895286977291,-0.2480732500553131
1772811033363290400,6.812290283203125,1.4664684534072876,-0.52837073802948,0.2552637755870819
1772811033373171500,6.82217138671875,1.583114743232727,-0.9981518983840942,0.7245123386383057
1772811033383052800,6.832052734375,1.6965652704238892,-1.4215941429138184,1.1266493797302246
1772811033392934000,6.841933837890625,1.808950662612915,-1.7789900302886963,1.4632725715637207
1772811033402815000,6.85181494140625,1.927727460861206,-2.0516974925994873,1.7434369325637817
1772811033412696000,6.861696044921875,2.056624412536621,-2.236520767211914,1.9799253940582275
1772811033422577200,6.8715771484375,2.176466464996338,-2.345710277557373,2.1727380752563477
1772811033432458200,6.881458251953125,2.2723402976989746,-2.386190414428711,2.290449619293213
1772811033442339600,6.891339599609375,2.3186793327331543,-2.381396532058716,2.309091806411743
1772811033452220700,6.901220703125,2.3122875690460205,-2.2887187004089355,2.220674991607666
1772811033462101800,6.911101806640625,2.310689687728882,-2.1454408168792725,2.0251991748809814
1772811033471982800,6.92098291015625,2.359691858291626,-1.9984344244003296,1.7487632036209106
1772811033491745000,6.9407451171875,2.47900128364563,-1.7353142499923706,1.1857714653015137
1772811033501625900,6.9506259765625,2.5098941326141357,-1.6218637228012085,0.995621919631958
1772811033511506200,6.960506103515625,2.5216119289398193,-1.5547521114349365,0.8885629177093506
1772811033521386500,6.970386474609375,2.4901866912841797,-1.510011076927185,0.8651271462440491
1772811033531267000,6.98026708984375,2.3825950622558594,-1.47752046585083,0.9045419096946716
1772811033541147400,6.9901474609375,2.1881844997406006,-1.4705963134765625,0.9732514023780823
1772811033551027700,7.00002783203125,1.9176075458526611,-1.4658026695251465,1.0462219715118408
1772811033560908300,7.009908203125,1.5873757600784302,-1.448225736618042,1.110137701034546
1772811033570788600,7.01978857421875,1.188967227935791,-1.410408854484558,1.1426283121109009
1772811033580669000,7.0296689453125,0.7463502287864685,-1.3427646160125732,1.117061972618103
1772811033590549500,7.039549560546875,0.31385326385498047,-1.2325098514556885,1.0094703435897827
1772811033600429800,7.049429931640625,-0.07496792078018188,-1.0732530355453491,0.8076028823852539
1772811033610310400,7.059310302734375,-0.4190480411052704,-0.8671244978904724,0.5183838605880737
1772811033620190700,7.069190673828125,-0.7279744744300842,-0.6455497145652771,0.15992268919944763
1772811033630071000,7.079071044921875,-0.998018741607666,-0.44528016448020935,-0.2251700758934021
1772811033639951600,7.08895166015625,-1.2302461862564087,-0.26258745789527893,-0.595349133014679
1772811033649832000,7.09883203125,-1.4326462745666504,-0.09747160971164703,-0.9314398169517517
1772811033659712300,7.108712158203125,-1.6094800233840942,0.027696851640939713,-1.2174630165100098
1772811033669592800,7.1185927734375,-1.769269585609436,0.11930951476097107,-1.4379725456237793
1772811033679473200,7.12847314453125,-1.9184064865112305,0.17310532927513123,-1.5871094465255737
1772811033689353500,7.138353515625,-2.0515644550323486,0.18482321500778198,-1.6627432107925415
1772811033699234000,7.148234130859375,-2.17779803276062,0.15819163620471954,-1.6680694818496704
1772811033709114400,7.1581142578125,-2.2944445610046387,0.11185266822576523,-1.611077904701233
1772811033718994700,7.16799462890625,-2.412688732147217,0.04420843720436096,-1.5146715641021729
1772811033728875300,7.177875244140625,-2.5138888359069824,-0.0564589649438858,-1.4102756977081299
1772811033738755600,7.187755615234375,-2.600175142288208,-0.17523585259914398,-1.3144019842147827
1772811033748636000,7.197635986328125,-2.6624929904937744,-0.2966758906841278,-1.233974575996399
1772811033758516500,7.2075166015625,-2.7008426189422607,-0.42237699031829834,-1.1668630838394165
1772811033768396800,7.217396728515625,-2.718419313430786,-0.5326317548751831,-1.0960229635238647
1772811033778277400,7.22727734375,-2.715223550796509,-0.6194507479667664,-1.018258810043335
1772811033788157700,7.23715771484375,-2.689657211303711,-0.696682333946228,-0.9367660880088806
1772811033798038000,7.2470380859375,-2.653970956802368,-0.755271852016449,-0.8488819003105164
1772811033807918600,7.256918701171875,-2.6076319217681885,-0.7882950305938721,-0.7514102458953857
1772811033817799000,7.266798828125,-2.5469119548797607,-0.8064044713973999,-0.6512755155563354
1772811033827679200,7.27667919921875,-2.480332851409912,-0.8064044713973999,-0.5431512594223022
1772811033837559800,7.286559814453125,-2.4142866134643555,-0.8000128865242004,-0.4238417148590088
1772811033847440100,7.296440185546875,-2.3503708839416504,-0.7744466066360474,-0.2954774796962738
1772811033857320400,7.306320556640625,-2.293911933898926,-0.7233139276504517,-0.16498269140720367
1772811033867201000,7.316200927734375,-2.2406487464904785,-0.6530065536499023,-0.03555316850543022
1772811033877081300,7.326081298828125,-2.1857876777648926,-0.5656549334526062,0.09653950482606888
1772811033886961700,7.335961669921875,-2.133589744567871,-0.46072646975517273,0.2222405970096588
1772811033896842200,7.34584228515625,-2.079793930053711,-0.3344927430152893,0.3559311628341675
1772811033906722600,7.35572265625,-2.015345335006714,-0.1976063847541809,0.4917522668838501
1772811033916603100,7.36560302734375,-1.9471685886383057,-0.0756337121129036,0.6121270656585693
1772811033926483500,7.3754833984375,-1.870469570159912,0.034621063619852066,0.7058702707290649
1772811033936363800,7.38536376953125,-1.7889769077301025,0.14008215069770813,0.7724491953849792
1772811033946244400,7.395244384765625,-1.6915053129196167,0.21784639358520508,0.8166576623916626
1772811033956124700,7.405124755859375,-1.5828484296798706,0.26152220368385315,0.8454197645187378
1772811033966005000,7.4150048828125,-1.4736589193344116,0.2775011360645294,0.8635292649269104
1772811033975885600,7.424885498046875,-1.3681977987289429,0.2689790427684784,0.8896281719207764
1772811033985766000,7.434765869140625,-1.2675304412841797,0.22743375599384308,0.9253145456314087
1772811033995646200,7.444646240234375,-1.1641998291015625,0.17310532927513123,0.9769797921180725
1772811034005527300,7.45452734375,-1.0566082000732422,0.11611372232437134,1.0345040559768677
1772811034015408000,7.464408203125,-0.9580714106559753,0.030360009521245956,1.0861693620681763
1772811034025289200,7.474289306640625,-0.8696545362472534,-0.06231791526079178,1.1309103965759277
1772811034035170000,7.484170166015625,-0.7918902635574341,-0.13422320783138275,1.1532809734344482
1772811034045051100,7.494051025390625,-0.7263765931129456,-0.18642111122608185,1.1351714134216309
1772811034054932200,7.50393212890625,-0.6693849563598633,-0.2221074402332306,1.0819082260131836
1772811034064813000,7.51381298828125,-0.6171870827674866,-0.2450106143951416,1.000948190689087
1772811034074694100,7.523694091796875,-0.5665870308876038,-0.2407495528459549,0.8874976634979248
1772811034084575000,7.533574951171875,-0.5111933350563049,-0.2221074402332306,0.7394260168075562
1772811034094456000,7.5434560546875,-0.43982067704200745,-0.2024000734090805,0.5604617595672607
1772811034104337000,7.5533369140625,-0.3439469635486603,-0.17736637592315674,0.3772364556789398
1772811034114218000,7.563218017578125,-0.2304963916540146,-0.1315600425004959,0.1945437490940094
1772811034124098800,7.573098876953125,-0.10532793402671814,-0.07137265801429749,0.011851056478917599
1772811034133980000,7.58297998046875,0.023036323487758636,-0.022903166711330414,-0.16498269140720367
1772811034143860700,7.59286083984375,0.1428784728050232,0.019174743443727493,-0.313586950302124
1772811034153741800,7.602741943359375,0.26325324177742004,0.054861072450876236,-0.4051996171474457
1772811034163623000,7.612622802734375,0.3735080361366272,0.07297055423259735,-0.445679634809494
1772811034173503700,7.622503662109375,0.4443480372428894,0.07297055423259735,-0.4595280587673187
1772811034183384800,7.632384765625,0.4821648895740509,0.07297055423259735,-0.49574699997901917
1772811034193265700,7.642265625,0.5242428183555603,0.06657896935939789,-0.5772396922111511
1772811034203146800,7.652146728515625,0.5934849381446838,0.04527369886636734,-0.6693849563598633
1772811034213027600,7.662027587890625,0.6925544738769531,0.017576847225427628,-0.7396923303604126
1772811034222908700,7.67190869140625,0.832103967666626,-0.007456844672560692,-0.7604650259017944
1772811034232789500,7.68178955078125,1.0227861404418945,-0.038882117718458176,-0.7178544402122498
1772811034242670600,7.691670654296875,1.2656662464141846,-0.05752423033118248,-0.5799028277397156
1772811034252551400,7.701551513671875,1.5522221326828003,-0.07030738890171051,-0.34607750177383423
1772811034262432500,7.7114326171875,1.8542243242263794,-0.11877688020467758,-0.017443690448999405
1772811034272313600,7.721313720703125,2.1487696170806885,-0.1890842765569687,0.383095383644104
1772811034282194400,7.7311943359375,2.410291910171509,-0.28016430139541626,0.810798704624176
1772811034292075500,7.741075439453125,2.613224506378174,-0.37976643443107605,1.2246536016464233
1772811034301956400,7.750956298828125,2.750643491744995,-0.4756401777267456,1.5916368961334229
1772811034311837400,7.76083740234375,2.8390605449676514,-0.5459475517272949,1.9096180200576782
1772811034321718300,7.77071826171875,2.900313138961792,-0.5880254507064819,2.1892497539520264
1772811034331599400,7.780599365234375,2.938662528991699,-0.600275993347168,2.4326624870300293
1772811034341480200,7.790480224609375,2.9413256645202637,-0.5901560187339783,2.642519235610962
1772811034351361300,7.800361328125,2.904574155807495,-0.5709812641143799,2.79059100151062
1772811034361242000,7.8102421875,2.8332014083862305,-0.5129243731498718,2.8640942573547363
1772811034371123200,7.820123291015625,2.720816135406494,-0.373374879360199,2.8241467475891113
1772811034381004300,7.83000439453125,2.5945825576782227,-0.21092218160629272,2.67181396484375
1772811034390885000,7.839885009765625,2.4651529788970947,-0.07297055423259735,2.419346570968628
1772811034400766200,7.84976611328125,2.31974458694458,0.04154527932405472,2.0901801586151123
1772811034410647000,7.85964697265625,2.1391823291778564,0.1656484752893448,1.6896411180496216
1772811034420528000,7.869528076171875,1.9010958671569824,0.28549063205718994,1.2411651611328125
1772811034430409000,7.879408935546875,1.5682010650634766,0.3579285442829132,0.7340997457504272
1772811034440290000,7.8892900390625,1.1703251600265503,0.39787593483924866,0.1988048106431961
1772811034450171000,7.8991708984375,0.7287734150886536,0.41332224011421204,-0.35939326882362366
1772811034460052000,7.909052001953125,0.2643185257911682,0.4234422445297241,-0.9037429690361023
1772811034469932800,7.918932861328125,-0.21291954815387726,0.4431496262550354,-1.3836441040039062
1772811034479814000,7.92881396484375,-0.6858965754508972,0.491086483001709,-1.7948359251022339
1772811034489695000,7.938695068359375,-1.106675624847412,0.5832318067550659,-2.163417100906372
1772811034499575800,7.948575927734375,-1.454484224319458,0.7206507921218872,-2.4995076656341553
1772811034509456600,7.95845654296875,-1.7053537368774414,0.9070718884468079,-2.8052382469177246
1772811034529218000,7.978218017578125,-1.9524948596954346,1.4444973468780518,-3.2973899841308594
1772811034539099000,7.988098876953125,-1.9940401315689087,1.7912405729293823,-3.4768869876861572
1772811034548979700,7.997979736328125,-2.005758047103882,2.136385917663574,-3.6041860580444336
1772811034558860500,8.007860595703125,-1.9743328094482422,2.455432415008545,-3.690472364425659
1772811034568741400,8.017741455078125,-1.8944380283355713,2.7489125728607178,-3.735213279724121
1772811034578622200,8.027622314453126,-1.769269585609436,3.009902000427246,-3.726158618927002
1772811034588503000,8.0375029296875,-1.6068168878555298,3.238401174545288,-3.661710262298584
1772811034598383900,8.0473837890625,-1.404949426651001,3.432279109954834,-3.541867971420288
1772811034608264700,8.0572646484375,-1.1855051517486572,3.5574474334716797,-3.3767521381378174
1772811034618145500,8.0671455078125,-0.9713871479034424,3.5947318077087402,-3.1732869148254395
1772811034628026000,8.077026123046876,-0.7732481360435486,3.5143043994903564,-2.9394614696502686
1772811034637907000,8.086906982421874,-0.5820333361625671,3.3443949222564697,-2.684863567352295
1772811034647787800,8.096787841796875,-0.38868802785873413,3.1228201389312744,-2.396177053451538
1772811034657668600,8.106668701171875,-0.17137427628040314,2.8341336250305176,-2.0723369121551514
1772811034667549400,8.116549560546876,0.07257107645273209,2.485259771347046,-1.7266590595245361
1772811034677430300,8.12643017578125,0.32503852248191833,2.1001670360565186,-1.375654697418213
1772811034687311000,8.13631103515625,0.5546028017997742,1.6831163167953491,-1.0384987592697144
1772811034697192000,8.14619189453125,0.7575355172157288,1.2735224962234497,-0.7274418473243713
1772811034707072800,8.15607275390625,0.9333040118217468,0.9012129306793213,-0.4829638600349426
1772811034716953600,8.16595361328125,1.087767243385315,0.5896233320236206,-0.3098585307598114
1772811034726834200,8.175834228515624,1.2294472455978394,0.33289486169815063,-0.19534270465373993
1772811034746595800,8.195595947265625,1.5074810981750488,-0.08735160529613495,-0.04301001504063606
1772811034756476700,8.2054765625,1.658215880393982,-0.23489060997962952,0.024634219706058502
1772811034766357500,8.215357421875,1.7945696115493774,-0.3344927430152893,0.07843002676963806
1772811034776238300,8.22523828125,1.9101506471633911,-0.41758328676223755,0.11518161743879318
1772811034786119200,8.235119140625,2.0097527503967285,-0.4724443852901459,0.1514005810022354
1772811034796000000,8.245,2.0992348194122314,-0.5022717714309692,0.1849563866853714
1772811034805880800,8.254880859375,2.186053991317749,-0.511859118938446,0.21425113081932068
1772811034815761700,8.26476171875,2.261154890060425,-0.5086633563041687,0.24248060584068298
1772811034825642500,8.274642578125,2.3229403495788574,-0.4809664785861969,0.2696448266506195
1772811034835523000,8.284523193359375,2.368746519088745,-0.4287685751914978,0.2797648310661316
1772811034845404000,8.29440380859375,2.398041248321533,-0.3808317184448242,0.27603641152381897
1772811034855284700,8.30428466796875,2.419879198074341,-0.3217095732688904,0.24993745982646942
1772811034865165600,8.31416552734375,2.4108245372772217,-0.2844253480434418,0.18602164089679718
1772811034875046400,8.32404638671875,2.3367886543273926,-0.27537062764167786,0.0624510757625103
1772811034884927200,8.33392724609375,2.195108652114868,-0.2508695721626282,-0.11757846176624298
1772811034894808000,8.34380810546875,2.0544939041137695,-0.21518322825431824,-0.30399957299232483
1772811034904689000,8.35368896484375,1.9543590545654297,-0.174170583486557,-0.4424838423728943
1772811034914569700,8.36356982421875,1.8915085792541504,-0.13582110404968262,-0.48615965247154236
1772811034924450600,8.373450439453125,1.8616812229156494,-0.10439582169055939,-0.4312985837459564
1772811034934331400,8.383331298828125,1.8403759002685547,-0.09001477062702179,-0.29334694147109985
1772811034944212200,8.393212158203125,1.8148095607757568,-0.10226529836654663,-0.09840371459722519
1772811034954092800,8.4030927734375,1.7684706449508667,-0.15659373998641968,0.13116057217121124
1772811034963973600,8.4129736328125,1.6891084909439087,-0.25246745347976685,0.36711645126342773
1772811034973854500,8.4228544921875,1.5596789121627808,-0.3723095953464508,0.5892238616943359
1772811034983735300,8.4327353515625,1.3753883838653564,-0.5017391443252563,0.7921565771102905
1772811034993616100,8.4426162109375,1.1442261934280396,-0.6279728412628174,0.9641966223716736
1772811035003497000,8.4524970703125,0.8805734515190125,-0.7435539364814758,1.0936261415481567
1772811035013377500,8.46237744140625,0.6009417772293091,-0.8426234722137451,1.1831083297729492
1772811035023258400,8.47225830078125,0.330364853143692,-0.9113329648971558,1.2246536016464233
1772811035033139200,8.48213916015625,0.07416897267103195,-0.9725856184959412,1.2129356861114502
1772811035043019800,8.492019775390625,-0.17936374247074127,-1.044490933418274,1.1564767360687256
1772811035052900600,8.501900634765626,-0.4467448890209198,-1.111602544784546,1.0488851070404053
1772811035062781200,8.51178125,-0.7471492290496826,-1.1781814098358154,0.8837692737579346
1772811035072662000,8.521662109375,-1.0544776916503906,-1.2138677835464478,0.6579334139823914
1772811035082542800,8.53154296875,-1.3239893913269043,-1.208008885383606,0.39055225253105164
1772811035092423400,8.54142333984375,-1.563141107559204,-1.1435604095458984,0.09121318906545639
1772811035102304300,8.55130419921875,-1.7879116535186768,-1.0077393054962158,-0.2432795614004135
1772811035112185000,8.56118505859375,-1.9860507249832153,-0.8447539806365967,-0.6107954978942871
1772811035122065700,8.571065673828125,-2.138383388519287,-0.663126528263092,-0.9740503430366516
1772811035131946500,8.580946533203125,-2.258758068084717,-0.4767054319381714,-1.2994883060455322
1772811035141827300,8.590827392578126,-2.3791329860687256,-0.27643588185310364,-1.5652716159820557
1772811035151708000,8.6007080078125,-2.5037686824798584,-0.07137265801429749,-1.7516926527023315
1772811035161588700,8.610588623046874,-2.62094783782959,0.12836425006389618,-1.8454358577728271
1772811035171469300,8.62046923828125,-2.714690923690796,0.306263267993927,-1.8406422138214111
1772811035181350100,8.63035009765625,-2.7871289253234863,0.46924859285354614,-1.7458337545394897
1772811035191231000,8.64023095703125,-2.838794231414795,0.6109286546707153,-1.5828484296798706
1772811035201111600,8.650111572265626,-2.86382794380188,0.7142592072486877,-1.3788504600524902
1772811035210992400,8.659992431640624,-2.839326858520508,0.7542065978050232,-1.1583409309387207
1772811035220873000,8.669873046875,-2.7578341960906982,0.7382276058197021,-0.926113486289978
1772811035230753800,8.67975390625,-2.628937244415283,0.6647244691848755,-0.6864292025566101
1772811035240634600,8.689634521484376,-2.4643540382385254,0.5374254584312439,-0.445679634809494
1772811035250515200,8.69951513671875,-2.268878221511841,0.38349485397338867,-0.19853848218917847
1772811035260396000,8.70939599609375,-2.0409116744995117,0.21944428980350494,0.05020054429769516
1772811035270276900,8.71927685546875,-1.791107416152954,0.043143171817064285,0.29893958568573
1772811035280157400,8.729157470703125,-1.5423684120178223,-0.14913690090179443,0.5338301658630371
1772811035290038300,8.739038330078126,-1.3261198997497559,-0.3488737940788269,0.7303712964057922
1772811035299919000,8.748919189453124,-1.168993592262268,-0.5177180767059326,0.8869650363922119
1772811035309799700,8.758799560546874,-1.0768482685089111,-0.654604434967041,1.000948190689087
1772811035319680500,8.768680419921875,-1.0470209121704102,-0.7595328688621521,1.070723056793213
1772811035329561000,8.77856103515625,-1.073119878768921,-0.8133286833763123,1.0941587686538696
1772811035339442000,8.78844189453125,-1.149286150932312,-0.8154592514038086,1.0733861923217773
1772811035349322800,8.79832275390625,-1.265932559967041,-0.7659244537353516,1.0174598693847656
1772811035359203300,8.808203369140625,-1.4022862911224365,-0.6902907490730286,0.9375650882720947
1772811035369084200,8.818084228515625,-1.551423192024231,-0.587492823600769,0.8209186792373657
1772811035378965000,8.827965087890625,-1.5919032096862793,-0.40213698148727417,0.6669881343841553
1772811035388845600,8.837845458984376,-1.5769895315170288,-0.13209268450737,0.49761122465133667
1772811035398726400,8.847726318359374,-1.635578989982605,0.2162484973669052,0.3559311628341675
1772811035408607200,8.857607177734375,-1.7128106355667114,0.5390233397483826,0.24833956360816956
1772811035418487800,8.86748779296875,-1.749029517173767,0.830905556678772,0.13968268036842346
1772811035428368600,8.87736865234375,-1.7554211616516113,1.1606045961380005,-0.008388950489461422
1772811035438249200,8.887249267578126,-1.7783242464065552,1.5877752304077148,-0.23848587274551392
1772811035448130000,8.897130126953124,-1.8124127388000488,1.956356406211853,-0.5309007167816162
1772811035458011000,8.907010986328125,-1.8885791301727295,2.4735419750213623,-0.8195871114730835
1772811035467891500,8.916891357421875,-2.033987522125244,3.0626325607299805,-1.040096640586853
1772811035477772300,8.926772216796875,-2.1469054222106934,3.377418041229248,-1.1285135746002197
1772811035487653000,8.936653076171876,-2.228930711746216,3.6831486225128174,-1.1157304048538208
1772811035497533700,8.94653369140625,-2.252899169921875,3.9212350845336914,-1.0315746068954468
1772811035507414800,8.956414794921875,-2.1996359825134277,4.122037410736084,-0.9325050711631775
1772811035517295600,8.966295654296875,-2.1010992527008057,4.386754989624023,-0.771117627620697
1772811035527176400,8.976176513671875,-2.0318570137023926,4.716986656188965,-0.5159870386123657
1772811035537057500,8.9860576171875,-1.8454358577728271,4.691953182220459,-0.21451744437217712
1772811035546938400,8.9959384765625,-1.6387747526168823,4.86079740524292,0.09440898150205612
1772811035556819200,9.005819091796875,-1.4992252588272095,5.099949359893799,0.30053746700286865
1772811035566700000,9.015699951171875,-1.4230588674545288,5.482378959655762,0.48908910155296326
1772811035576581000,9.0255810546875,-1.3303810358047485,5.552153587341309,0.710663914680481
1772811035586462000,9.0354619140625,-1.3271851539611816,5.668799877166748,0.7980155348777771
1772811035596342800,9.0453427734375,-1.3634041547775269,5.8301873207092285,0.8076028823852539
1772811035606223600,9.0552236328125,-1.4230588674545288,5.956953525543213,0.8422240018844604
1772811035616104700,9.065104736328125,-1.489637851715088,5.6544189453125,0.9402282238006592
1772811035625985500,9.074985595703126,-1.5535537004470825,5.159071445465088,1.0765819549560547
1772811035635866400,9.084866455078124,-1.6323832273483276,4.796881675720215,1.1676620244979858
1772811035645747200,9.094747314453125,-1.6089473962783813,4.504467010498047,1.2145335674285889
1772811035655628300,9.104628173828125,-1.464604139328003,4.082622528076172,1.263535737991333
1772811035665509000,9.114509033203126,-1.3218588829040527,3.5984601974487305,1.276318907737732
1772811035675390000,9.124389892578124,-1.2201261520385742,3.204845428466797,1.2235883474349976
1772811035685270800,9.134270751953125,-1.1029472351074219,2.8991146087646484,1.125051498413086
1772811035695151900,9.14415185546875,-0.9697892665863037,2.6610283851623535,1.0169272422790527
1772811035705032700,9.15403271484375,-0.8563387393951416,2.4266703128814697,0.9610008597373962
1772811035714913500,9.16391357421875,-0.7609976530075073,2.226933479309082,1.0233187675476074
1772811035724794400,9.17379443359375,-0.6502102017402649,2.1337227821350098,1.1926956176757812
1772811035734675500,9.183675537109375,-0.5037364959716797,2.1891164779663086,1.3956283330917358
1772811035744556300,9.193556396484375,-0.313586950302124,2.602971315383911,1.5852452516555786
1772811035754437000,9.20343701171875,-0.029161589220166206,3.1574411392211914,1.7817864418029785
1772811035764318200,9.213318115234374,0.2829606235027313,3.852525472640991,1.9623485803604126
1772811035774199000,9.223198974609375,0.5743101835250854,4.547609806060791,2.0795276165008545
1772811035784080000,9.233079833984375,0.7426218390464783,4.314317226409912,1.6917716264724731
1772811035793960700,9.242960693359375,0.8337018489837646,3.2128348350524902,0.907737672328949
1772811035803841800,9.252841796875,1.0472872257232666,2.5960471630096436,0.47097963094711304
1772811035813722600,9.26272265625,1.2949609756469727,2.617885112762451,0.4352933168411255
1772811035823603500,9.272603515625,1.4190641641616821,2.8794074058532715,0.47097963094711304
1772811035833484300,9.282484375,1.2843083143234253,3.0077714920043945,0.3447459042072296
1772811035843365400,9.292365478515626,0.8454197645187378,2.747847318649292,0.11677951365709305
1772811035853246200,9.30224609375,0.23928481340408325,1.9819227457046509,-0.04407527670264244
1772811035863127000,9.312126953125,-0.34714275598526,1.2415646314620972,-0.016911057755351067
1772811035873007900,9.3220078125,-0.7860313057899475,1.2101393938064575,0.27710166573524475
1772811035882889000,9.331888916015625,-0.9207871556282043,1.3416993618011475,0.7356976270675659
1772811035892769800,9.341769775390626,-0.922385036945343,1.3496888875961304,1.1729882955551147
1772811035902650600,9.351650634765624,-0.9676587581634521,1.0588719844818115,1.3663336038589478
1772811035912531500,9.361531494140625,-1.0715219974517822,0.7797728776931763,1.378051519393921
1772811035922412500,9.37141259765625,-1.1338398456573486,0.7126613259315491,1.4142705202102661
1772811035932293400,9.38129345703125,-1.1338398456573486,0.6205160021781921,1.4211946725845337
1772811035942174200,9.39117431640625,-1.077380895614624,0.48256438970565796,1.3998894691467285
1772811035952055300,9.40105517578125,-0.9724524617195129,0.38029909133911133,1.4030852317810059
1772811035961936100,9.41093603515625,-0.8099997639656067,0.31265485286712646,1.424390435218811
1772811035971817000,9.42081689453125,-0.6028059720993042,0.33182957768440247,1.432379961013794
1772811035981697800,9.43069775390625,-0.3609911799430847,0.43569278717041016,1.3658009767532349
1772811035991579000,9.440578857421874,-0.08881634473800659,0.5113264918327332,1.2518178224563599
1772811036001459700,9.450459716796875,0.07044055312871933,0.6061349511146545,1.1261167526245117
1772811036011340500,9.460340576171875,0.012383688241243362,0.7584676146507263,0.9823061227798462
1772811036021221400,9.470221435546875,-0.14740583300590515,1.0881667137145996,0.8219839930534363
1772811036031102200,9.480102294921876,-0.225702702999115,1.2522172927856445,0.6355628371238708
1772811036040983000,9.489983154296874,-0.2390184998512268,1.2261183261871338,0.46032699942588806
1772811036050863900,9.49986376953125,-0.23102903366088867,1.0530129671096802,0.3490069508552551
1772811036060744700,9.50974462890625,-0.23102903366088867,0.7531412839889526,0.3367564380168915
1772811036070625500,9.51962548828125,-0.21771323680877686,0.4010717272758484,0.4342280328273773
1772811036080506400,9.52950634765625,-0.17457005381584167,0.08628634363412857,0.6163880825042725
1772811036090387200,9.53938720703125,-0.079228974878788,-0.24607586860656738,0.8592681884765625
1772811036100268000,9.54926806640625,0.004926843568682671,-0.5640570521354675,1.1756514310836792
1772811036110149000,9.559149169921875,0.018775269389152527,-0.7307707667350769,1.5176010131835938
1772811036120030000,9.569030029296876,-0.03555316850543022,-0.7819034457206726,1.7988306283950806
1772811036129910800,9.578910888671874,-0.06644581258296967,-0.8996150493621826,1.9453043937683105
1772811036139791600,9.58879150390625,-0.08402266353368759,-1.0966887474060059,1.9975022077560425
1772811036149672400,9.59867236328125,-0.16977638006210327,-1.024250864982605,1.97300124168396
1772811036159553300,9.60855322265625,-0.1777658462524414,-0.8500803112983704,1.8030916452407837
1772811036169434000,9.61843408203125,-0.09147950261831284,-0.549143373966217,1.5735273361206055
1772811036179315000,9.62831494140625,0.031025800853967667,-0.20133480429649353,1.3391693830490112
1772811036189195800,9.63819580078125,0.16844479739665985,0.11238530278205872,1.1234534978866577
1772811036199076600,9.64807666015625,0.30586379766464233,0.3627222180366516,0.9572724103927612
1772811036208957700,9.657957763671876,0.44275015592575073,0.5518065094947815,0.8475502729415894
1772811036218838500,9.667838623046874,0.5657880902290344,0.7478150129318237,0.7639271020889282
1772811036228719400,9.67771923828125,0.6664555072784424,0.9033434391021729,0.7223818302154541
1772811036238600200,9.68760009765625,0.7511439323425293,0.9864340424537659,0.773514449596405
1772811036248481000,9.69748095703125,0.8092008233070374,0.9384971857070923,0.882703959941864
1772811036258361900,9.70736181640625,0.8470176458358765,0.805871844291687,0.9668598175048828
1772811036268242700,9.71724267578125,0.8672576546669006,0.6487454771995544,0.974849283695221
1772811036278123500,9.72712353515625,0.8832366466522217,0.49801069498062134,0.9269124269485474
1772811036288004600,9.737004638671875,0.8869650363922119,0.36165696382522583,0.865659773349762
1772811036297885400,9.746885498046876,0.8438218832015991,0.23915165662765503,0.790026068687439
1772811036307766300,9.756766357421874,0.7799060344696045,0.14540846645832062,0.726642906665802
1772811036317647000,9.766647216796875,0.7159902453422546,0.07137265801429749,0.68083655834198
1772811036327528000,9.77652783203125,0.6675207614898682,0.03675159066915512,0.6733797192573547
1772811036337408800,9.78640869140625,0.6424870491027832,0,0.7181207537651062
1772811036347289600,9.79628955078125,0.6179860234260559,-0.055393703281879425,0.7831018567085266
1772811036357170400,9.80617041015625,0.6291712522506714,0.043143171817064285,0.8587355613708496
1772811036367051300,9.81605126953125,0.5769733786582947,0.2450106143951416,0.8512787222862244
1772811036376932000,9.82593212890625,0.5231775641441345,0.358993798494339,0.6819018125534058
1772811036386813000,9.83581298828125,0.5460807085037231,0.42770329117774963,0.49281755089759827
1772811036396694000,9.845694091796876,0.45659857988357544,0.5113264918327332,0.3394196033477783
1772811036406574800,9.855574951171874,0.37191012501716614,0.642353892326355,0.1940111219882965
1772811036416455700,9.86545556640625,0.32876694202423096,0.7371623516082764,0.08961529284715652
1772811036426336500,9.87533642578125,0.27284061908721924,0.7488802671432495,0.0720384493470192
1772811036436217300,9.88521728515625,0.21904481947422028,0.6865623593330383,0.17270584404468536
1772811036446098200,9.89509814453125,0.22117534279823303,0.5635244250297546,0.37563854455947876
1772811036455979000,9.90497900390625,0.25739431381225586,0.42237699031829834,0.6078659892082214
1772811036465859800,9.91485986328125,0.30107009410858154,0.27696850895881653,0.7767102718353271
1772811036475740700,9.92474072265625,0.3500722348690033,0.16192005574703217,0.8811060786247253
1772811036485621500,9.93462158203125,0.3697795867919922,0.08841687440872192,0.9333040118217468
1772811036495502300,9.94450244140625,0.36232274770736694,0.04474106803536415,0.9167923927307129
1772811036505383000,9.9543828125,0.2643185257911682,0.16245268285274506,0.8065376281738281
1772811036515263200,9.96426318359375,0.18335849046707153,0.491086483001709,0.6392912864685059
1772811036525143800,9.974143798828125,0.17483638226985931,0.44581279158592224,0.38469329476356506
1772811036535024000,9.984024169921875,0.08535423874855042,0.42610540986061096,0.3122553825378418
1772811036544904700,9.99390478515625,-0.0014647373463958502,0.36059170961380005,0.20200060307979584
1772811036554785300,10.003785400390624,0.03262369707226753,0.4298338294029236,0.05499422922730446
1772811036564665600,10.01366552734375,0.10186582803726196,0.46019384264945984,-0.079228974878788
1772811036574546200,10.023546142578125,0.1428784728050232,0.4000064432621002,-0.21451744437217712
1772811036584426500,10.033426513671875,0.1849563866853714,0.2870885133743286,-0.33222904801368713
1772811036594306800,10.043306884765625,0.21691428124904633,0.15393057465553284,-0.43076592683792114
1772811036604187400,10.0531875,0.2467416673898697,0.05379580706357956,-0.5186501741409302
1772811036614067700,10.063067626953124,0.2563290297985077,0.038882117718458176,-0.5687175393104553
1772811036623948300,10.0729482421875,0.2595248222351074,0.11824425309896469,-0.5458143949508667
1772811036633828900,10.082828857421875,0.3122553825378418,0.1656484752893448,-0.49201858043670654
1772811036643709200,10.092709228515625,0.3511374890804291,0.1512674242258072,-0.47817015647888184
