time,seconds_elapsed,z,y,x
1772811041421049900,0.1830498046875,-0.3657848536968231,-0.3456780016422272,0.0768321305513382
1772811041430930700,0.1929306640625,-0.4882901608943939,-0.3691138029098511,-0.0696416050195694
1772811041440811500,0.2028115234375,-0.63263338804245,-0.35206958651542664,-0.24594271183013916
1772811041450692400,0.2126923828125,-0.7380944490432739,-0.2679137885570526,-0.43875542283058167
1772811041460573200,0.2225732421875,-0.7663239240646362,-0.15233267843723297,-0.5996102094650269
1772811041470454000,0.2324541015625,-0.6949512958526611,0.0026631588116288185,-0.7050712704658508
1772811041480334800,0.2423349609375,-0.5340964794158936,0.1837579607963562,-0.8089345097541809
1772811041490215700,0.252215576171875,-0.36951327323913574,0.22264008224010468,-0.9458208680152893
1772811041500096500,0.262096435546875,-0.3332943320274353,0.15819163620471954,-1.0566082000732422
1772811041509977300,0.271977294921875,-0.3801659345626831,0.060187388211488724,-1.107208251953125
1772811041519858200,0.281858154296875,-0.3950796127319336,-0.15233267843723297,-1.1412967443466187
1772811041529739000,0.291739013671875,-0.399873286485672,-0.5352949500083923,-1.1769829988479614
1772811041539619800,0.301619873046875,-0.43928804993629456,-1.0668613910675049,-1.2142672538757324
1772811041549500700,0.311500732421875,-0.48722490668296814,-1.5781879425048828,-1.2504862546920776
1772811041559381500,0.321381591796875,-0.4994754493236542,-1.9078869819641113,-1.2307788133621216
1772811041569262300,0.331262451171875,-0.4611259400844574,-2.039447069168091,-1.1460903882980347
1772811041579143200,0.34114306640625,-0.39188382029533386,-2.034653425216675,-1.040096640586853
1772811041589024300,0.351024169921875,-0.2992058992385864,-2.0053586959838867,-0.9554082155227661
1772811041598905000,0.360905029296875,-0.22357217967510223,-2.037849187850952,-0.8920250535011292
1772811041608786000,0.370785888671875,-0.19534270465373993,-2.2498364448547363,-0.8728502988815308
1772811041618666800,0.380666748046875,-0.16285216808319092,-2.702573537826538,-0.8984166383743286
1772811041628547600,0.390547607421875,-0.0696416050195694,-3.169158935546875,-0.9708545207977295
1772811041638428400,0.400428466796875,0.10559424757957458,-3.4679653644561768,-1.0795114040374756
1772811041648309200,0.410309326171875,0.31119009852409363,-3.436007499694824,-1.1673957109451294
1772811041658190000,0.420190185546875,0.4528701603412628,-3.2559778690338135,-1.2653999328613281
1772811041668071000,0.43007080078125,0.5285038948059082,-3.0120325088500977,-1.404416799545288
1772811041677951700,0.43995166015625,0.5993438959121704,-2.683398723602295,-1.568467378616333
1772811041687832600,0.44983251953125,0.6605965495109558,-2.411223888397217,-1.7884442806243896
1772811041697713400,0.45971337890625,0.668586015701294,-2.057023763656616,-2.0222697257995605
1772811041707594200,0.46959423828125,0.5263733267784119,-1.5808510780334473,-2.253431797027588
1772811041717475000,0.47947509765625,0.29095008969306946,-1.2389014959335327,-2.4877898693084717
1772811041727356000,0.48935595703125,0.156194269657135,-1.116396188735962,-2.6321330070495605
1772811041737236700,0.49923681640625,0.12423636019229889,-1.0727204084396362,-2.6427855491638184
1772811041747117600,0.50911767578125,0.17323848605155945,-1.3789836168289185,-2.479800224304199
1772811041756998400,0.518998291015625,0.34847432374954224,-1.9355838298797607,-2.1202738285064697
1772811041766879200,0.528879150390625,0.5263733267784119,-2.5704808235168457,-1.7223979234695435
1772811041776760000,0.538760009765625,0.5860280990600586,-3.318828582763672,-1.459277868270874
1772811041786641000,0.548640869140625,0.4214448928833008,-4.404332160949707,-1.42518949508667
1772811041796521700,0.558521728515625,0.15566162765026093,-5.619265079498291,-1.5498253107070923
1772811041806402600,0.568402587890625,-0.09520792961120605,-6.936995983123779,-1.5567494630813599
1772811041816283400,0.578283447265625,-0.18841849267482758,-7.490400314331055,-1.2978904247283936
1772811041826164200,0.588164306640625,-0.2113216519355774,-7.093057155609131,-0.968191385269165
1772811041836045000,0.598045166015625,-0.08295739442110062,-6.505564212799072,-0.9873661398887634
1772811041845926000,0.60792578125,0.363920658826828,-5.536174774169922,-1.7138758897781372
1772811041855806700,0.617806640625,0.9088029265403748,-3.5025863647460938,-2.9463858604431152
1772811041865687600,0.6276875,1.226251482963562,-1.7821859121322632,-3.973832368850708
1772811041875568400,0.637568359375,1.4430326223373413,-1.1270488500595093,-4.248137950897217
1772811041885449200,0.64744921875,1.6060179471969604,-0.8420908451080322,-3.9818220138549805
1772811041895330000,0.657330078125,1.692836880683899,-0.7531412839889526,-3.4220259189605713
1772811041905211000,0.6672109375,1.7812538146972656,-1.111602544784546,-2.653970956802368
1772811041915091700,0.677091796875,1.9735338687896729,-1.8184047937393188,-1.8230654001235962
1772811041924972500,0.68697265625,2.2068264484405518,-2.568882942199707,-1.2606061697006226
1772811041934853400,0.696853271484375,2.388453960418701,-2.8900599479675293,-1.2153325080871582
1772811041944734200,0.706734130859375,2.587125539779663,-2.6253418922424316,-1.5892400741577148
1772811041954615000,0.716614990234375,2.805504560470581,-1.8706027269363403,-2.178330659866333
1772811041964496000,0.726495849609375,3.0265467166900635,-0.8356992602348328,-2.892590045928955
1772811041974376700,0.736376708984375,3.238001585006714,0.08681897819042206,-3.52375864982605
1772811041984257500,0.746257568359375,3.3434627056121826,0.4559327960014343,-3.8561208248138428
1772811041994138400,0.756138427734375,3.2859385013580322,0.19973690807819366,-3.935482978820801
1772811042004019500,0.76601953125,3.0808751583099365,-0.4053327739238739,-3.8832850456237793
1772811042013900300,0.775900390625,2.757035255432129,-1.3731247186660767,-3.7277565002441406
1772811042023781400,0.785781494140625,2.418281316757202,-2.4676828384399414,-3.5402700901031494
1772811042033662200,0.795662109375,2.174868583679199,-3.4306812286376953,-3.4209606647491455
1772811042043543000,0.80554296875,2.0891149044036865,-4.179561614990234,-3.3772847652435303
1772811042053424000,0.815424072265625,2.1594223976135254,-4.695148944854736,-3.3964595794677734
1772811042063305000,0.825304931640625,2.339451789855957,-4.978508949279785,-3.458244800567627
1772811042073186000,0.83518603515625,2.5812666416168213,-5.034435272216797,-3.5253565311431885
1772811042083067000,0.84506689453125,2.8241467475891113,-4.901810169219971,-3.571695327758789
1772811042092947700,0.85494775390625,3.004176378250122,-4.699942588806152,-3.551988124847412
1772811042102828800,0.864828857421875,3.0963215827941895,-4.492216110229492,-3.432678461074829
1772811042112709600,0.874709716796875,3.083005905151367,-4.236020565032959,-3.210038423538208
1772811042122590700,0.8845908203125,2.963696241378784,-3.893538236618042,-2.8995141983032227
1772811042132471600,0.894471435546875,2.73679518699646,-3.527087450027466,-2.504833936691284
1772811042142352600,0.9043525390625,2.40496563911438,-3.1664958000183105,-2.0212044715881348
1772811042152233500,0.9142333984375,2.0262644290924072,-2.8533084392547607,-1.4619410037994385
1772811042162114600,0.924114501953125,1.6470305919647217,-2.525739908218384,-0.884035587310791
1772811042171995400,0.933995361328125,1.3114725351333618,-2.151832342147827,-0.34501221776008606
1772811042181876200,0.943876220703125,1.0222535133361816,-1.7970995903015137,0.09653950482606888
1772811042191757300,0.95375732421875,0.8028092384338379,-1.5382405519485474,0.43263015151023865
1772811042201638100,0.96363818359375,0.6504765152931213,-1.4024194478988647,0.7202513217926025
1772811042211519200,0.973519287109375,0.546613335609436,-1.4098762273788452,1.0025461912155151
1772811042221400000,0.983400146484375,0.4677838385105133,-1.5659373998641968,1.288569450378418
1772811042231281200,0.99328125,0.3585943281650543,-1.728390097618103,1.5197315216064453
1772811042241162000,1.003161865234375,0.27603641152381897,-1.976063847541809,1.712011694908142
1772811042251042800,1.013042724609375,0.28242799639701843,-2.3238723278045654,1.9623485803604126
1772811042260924000,1.022923828125,0.2936132550239563,-2.6354620456695557,2.170074939727783
1772811042270804700,1.0328046875,0.30053746700286865,-2.867156744003296,2.319211959838867
1772811042280685800,1.042685791015625,0.32397326827049255,-3.0636978149414062,2.44384765625
1772811042290566700,1.052566650390625,0.3442132771015167,-3.10524320602417,2.502437114715576
1772811042300447700,1.06244775390625,0.35273537039756775,-3.0019125938415527,2.498708724975586
1772811042310328600,1.07232861328125,0.3420827388763428,-2.7515757083892822,2.4268033504486084
1772811042320209400,1.08220947265625,0.31545117497444153,-2.548110246658325,2.350104570388794
1772811042330090500,1.092090576171875,0.24354587495326996,-2.281261920928955,2.2329254150390625
1772811042339971300,1.101971435546875,0.12743215262889862,-2.0213375091552734,2.067809581756592
1772811042349852400,1.111852294921875,-0.006258423440158367,-1.752891182899475,1.8568874597549438
1772811042359733200,1.121733154296875,-0.15273216366767883,-1.4988257884979248,1.6337147951126099
1772811042369614300,1.1316142578125,-0.2997385263442993,-1.1920298337936401,1.3796494007110596
1772811042379495200,1.1414951171875,-0.4190480411052704,-0.8905603289604187,1.1128009557724
1772811042389376000,1.1513759765625,-0.531965970993042,-0.5842970609664917,0.8539418578147888
1772811042399257000,1.161257080078125,-0.6518081426620483,-0.313586950302124,0.6158554553985596
1772811042409138000,1.171137939453125,-0.779639720916748,-0.17030900716781616,0.43263015151023865
1772811042419019000,1.18101904296875,-0.9032102823257446,-0.16018900275230408,0.3170490562915802
1772811042428899800,1.19089990234375,-1.0139976739883423,-0.26618272066116333,0.25792694091796875
1772811042438780700,1.20078076171875,-1.137035608291626,-0.41225698590278625,0.22064270079135895
1772811042448661800,1.210661865234375,-1.2771178483963013,-0.5779054760932922,0.20572902262210846
1772811042458542800,1.22054296875,-1.4326462745666504,-0.6956170797348022,0.16471637785434723
1772811042468423700,1.230423583984375,-1.5903053283691406,-0.8740487098693848,0.1940111219882965
1772811042478304500,1.240304443359375,-1.7351810932159424,-1.0775140523910522,0.2893522083759308
1772811042488185600,1.250185546875,-1.8528927564620972,-1.2745877504348755,0.4102596044540405
1772811042498066400,1.26006640625,-1.9482338428497314,-1.418931007385254,0.5263733267784119
1772811042507947000,1.269947021484375,-2.0377159118652344,-1.4721941947937012,0.6275733709335327
1772811042517827800,1.279827880859375,-2.129861354827881,-1.3779183626174927,0.6781733632087708
1772811042527708400,1.28970849609375,-2.2102887630462646,-1.2735224962234497,0.7282407879829407
1772811042537589200,1.29958935546875,-2.2907159328460693,-1.1691267490386963,0.8384955525398254
1772811042547469800,1.3094697265625,-2.3695454597473145,-1.0343708992004395,0.9711208343505859
1772811042557350700,1.3193505859375,-2.4441139698028564,-0.8442213535308838,1.0792450904846191
1772811042567231200,1.329231201171875,-2.5224108695983887,-0.6663223505020142,1.1484872102737427
1772811042577112000,1.339112060546875,-2.62094783782959,-0.5028043985366821,1.1788471937179565
1772811042586992600,1.34899267578125,-2.724278211593628,-0.3664506673812866,1.1916303634643555
1772811042596873500,1.35887353515625,-2.8196194171905518,-0.2918822169303894,1.2406325340270996
1772811042606754300,1.36875439453125,-2.8915247917175293,-0.2721748352050781,1.3359736204147339
1772811042616635000,1.378634765625,-2.942124605178833,-0.2790990471839905,1.4435652494430542
1772811042626515700,1.388515625,-2.9682235717773438,-0.32650327682495117,1.5303841829299927
1772811042636396300,1.398396240234375,-2.9607667922973633,-0.4202464520931244,1.603354811668396
1772811042646277000,1.408277099609375,-2.932004690170288,-0.5320991277694702,1.6406389474868774
1772811042656157700,1.41815771484375,-2.8915247917175293,-0.6588655114173889,1.6289210319519043
1772811042666038300,1.428038330078125,-2.8270761966705322,-0.793621301651001,1.5697989463806152
1772811042675919000,1.437919189453125,-2.748246669769287,-0.9294424057006836,1.469664216041565
1772811042685800000,1.447800048828125,-2.6582319736480713,-1.0562087297439575,1.3381041288375854
1772811042695680500,1.457680419921875,-2.566619396209717,-1.1675288677215576,1.188967227935791
1772811042705561300,1.467561279296875,-2.470212936401367,-1.2415646314620972,1.0371671915054321
1772811042715442000,1.47744189453125,-2.3743393421173096,-1.2325098514556885,0.8933566212654114
1772811042725322800,1.48732275390625,-2.2667477130889893,-1.2788488864898682,0.7500786781311035
1772811042735203300,1.497203369140625,-2.168210744857788,-1.3028173446655273,0.6046702265739441
1772811042745084200,1.507084228515625,-2.0872507095336914,-1.2958930730819702,0.45073962211608887
1772811042754964700,1.51696484375,-2.0126821994781494,-1.2655330896377563,0.2973416745662689
1772811042764845600,1.526845458984375,-1.9301244020462036,-1.2112046480178833,0.1519332081079483
1772811042774726100,1.53672607421875,-1.8251959085464478,-1.1297119855880737,0.019307902082800865
1772811042784607000,1.54660693359375,-1.6781895160675049,-1.0226529836654663,-0.09574055671691895
1772811042794487600,1.556487548828125,-1.4869747161865234,-0.9001476764678955,-0.2012016475200653
1772811042804368400,1.566368408203125,-1.2872377634048462,-0.7275750041007996,-0.3002711534500122
1772811042814249000,1.5762490234375,-1.101881980895996,-0.5890907049179077,-0.4041343629360199
1772811042824129800,1.5861298828125,-0.9580714106559753,-0.4628570079803467,-0.5165196657180786
1772811042834010400,1.59601025390625,-0.8350334167480469,-0.3217095732688904,-0.6342312693595886
1772811042843891200,1.60589111328125,-0.6976144313812256,-0.18109479546546936,-0.7237133979797363
1772811042853771800,1.615771728515625,-0.5490102171897888,-0.03142527490854263,-0.7780418395996094
1772811042863652600,1.625652587890625,-0.41159120202064514,0.1038631945848465,-0.8163913488388062
1772811042873533200,1.635533203125,-0.28802061080932617,0.21411797404289246,-0.8723176717758179
1772811042883414000,1.6454140625,-0.15752583742141724,0.3073285222053528,-0.9676587581634521
1772811042893294600,1.655294677734375,-0.0025300008710473776,0.4111917316913605,-1.082707166671753
1772811042903175400,1.665175537109375,0.20466375350952148,0.5864275693893433,-1.1982883214950562
1772811042913056300,1.67505615234375,0.49814385175704956,0.8303729295730591,-1.3144019842147827
1772811042922936800,1.684936767578125,0.8475502729415894,1.1424951553344727,-1.4273200035095215
1772811042932817700,1.694817626953125,1.221457839012146,1.5169352293014526,-1.5173346996307373
1772811042942698200,1.7046982421875,1.5996263027191162,1.8829864263534546,-1.5588799715042114
1772811042952579000,1.7145791015625,1.9799253940582275,2.1146812438964844,-1.5040189027786255
1772811042962459600,1.724459716796875,2.350104570388794,2.151965379714966,-1.308010458946228
1772811042972340500,1.734340576171875,2.6979129314422607,2.0454392433166504,-1.0033451318740845
1772811042982221000,1.744220947265625,3.0063068866729736,1.8675401210784912,-0.6507428288459778
1772811042992102000,1.754101806640625,3.2443931102752686,1.6267905235290527,-0.2960101068019867
1772811043001982500,1.763982421875,3.390334367752075,1.3444957733154297,0.04593949019908905
1772811043011863300,1.77386328125,3.4473259449005127,1.0339714288711548,0.3836280405521393
1772811043021744000,1.783744140625,3.412172317504883,0.7506113052368164,0.7069355249404907
1772811043031625000,1.793625,3.292330026626587,0.4901543855667114,0.9855019450187683
1772811043041505800,1.803505859375,3.087799549102783,0.2455432415008545,1.2203925848007202
1772811043051386600,1.81338671875,2.819885730743408,0.007456844672560692,1.4057483673095703
1772811043061267500,1.823267333984375,2.504034996032715,-0.23276008665561676,1.5399715900421143
1772811043071148300,1.833148193359375,2.150367498397827,-0.4671180546283722,1.6188011169433594
1772811043081029000,1.843029052734375,1.7929716110229492,-0.6609960198402405,1.6278557777404785
1772811043090909700,1.85290966796875,1.4350430965423584,-0.8367645144462585,1.5447652339935303
1772811043100790500,1.86279052734375,1.0819082260131836,-0.952345609664917,1.365268349647522
1772811043110671400,1.87267138671875,0.7490134239196777,-0.9661940336227417,1.0765819549560547
1772811043120552200,1.88255224609375,0.473110169172287,-0.8969519138336182,0.6882933974266052
1772811043130433000,1.89243310546875,0.24887219071388245,-0.760065495967865,0.25260061025619507
1772811043140313900,1.90231396484375,0.06298370659351349,-0.5539370179176331,-0.1916142702102661
1772811043150194700,1.912194580078125,-0.09201213717460632,-0.29028430581092834,-0.63263338804245
1772811043160075500,1.922075439453125,-0.22197428345680237,-0.01012000348418951,-1.0443577766418457
1772811043169956400,1.931956298828125,-0.33542484045028687,0.26098957657814026,-1.4076125621795654
1772811043179837000,1.9418369140625,-0.4382227957248688,0.49215173721313477,-1.7239958047866821
1772811043189717800,1.9517177734375,-0.5213133096694946,0.696682333946228,-1.9945727586746216
1772811043199598600,1.9615986328125,-0.5660544037818909,0.8809729218482971,-2.207092761993408
1772811043209479400,1.9714794921875,-0.5394228100776672,1.0098698139190674,-2.3540992736816406
1772811043219360300,1.9813603515625,-0.4094606637954712,1.1147983074188232,-2.425471782684326
1772811043229241000,1.991240966796875,-0.26991114020347595,1.2554130554199219,-2.396177053451538
1772811043239122000,2.001121826171875,-0.12077425420284271,1.3725920915603638,-2.277400255203247
1772811043249002800,2.011002685546875,0.05819002166390419,1.4823142290115356,-2.113882303237915
1772811043258883600,2.020883544921875,0.23821955919265747,1.5984278917312622,-1.9514296054840088
1772811043268764400,2.030764404296875,0.3964111804962158,1.7358468770980835,-1.7948359251022339
1772811043278645000,2.04064501953125,0.5428849458694458,1.8535585403442383,-1.630785346031189
1772811043288525800,2.05052587890625,0.6936197280883789,1.939312219619751,-1.4459620714187622
1772811043298406700,2.06040673828125,0.8645945191383362,2.00961971282959,-1.246225118637085
1772811043308287500,2.07028759765625,1.0488851070404053,2.0511648654937744,-1.0315746068954468
1772811043318168300,2.080168212890625,1.2539483308792114,2.064480781555176,-0.8179892301559448
1772811043328049200,2.090049072265625,1.4627399444580078,2.047969102859497,-0.6273070573806763
1772811043337930000,2.099929931640625,1.6608790159225464,1.9781943559646606,-0.4573975205421448
1772811043347810800,2.109810791015625,1.8361148834228516,1.867406964302063,-0.3093259036540985
1772811043367572500,2.129572509765625,2.1194748878479004,1.5840468406677246,-0.03928159177303314
1772811043377453300,2.139453369140625,2.2430455684661865,1.4375730752944946,0.09494160860776901
1772811043387334100,2.149334228515625,2.353832960128784,1.3129372596740723,0.21691428124904633
1772811043397214700,2.159214599609375,2.4576961994171143,1.165930986404419,0.35220274329185486
1772811043407095600,2.169095458984375,2.552504539489746,0.9986845254898071,0.5098617672920227
1772811043416976400,2.178976318359375,2.632399320602417,0.8021434545516968,0.6717818379402161
1772811043426857200,2.188857177734375,2.681934118270874,0.587492823600769,0.8305060863494873
1772811043436738000,2.198738037109375,2.7080330848693848,0.3601922392845154,0.9695229530334473
1772811043446619000,2.208618896484375,2.722414016723633,0.11251845955848694,1.112268328666687
1772811043456499700,2.218499755859375,2.730936288833618,-0.1356879472732544,1.2667315006256104
1772811043466380500,2.228380615234375,2.7341320514678955,-0.37856802344322205,1.4142705202102661
1772811043476261400,2.238261474609375,2.726675033569336,-0.5926859974861145,1.5277210474014282
1772811043486142200,2.24814208984375,2.7048373222351074,-0.7860313057899475,1.5787205696105957
1772811043496022800,2.258022705078125,2.677140474319458,-0.959669291973114,1.5728615522384644
1772811043505904000,2.267904052734375,2.6334645748138428,-1.1162630319595337,1.527055263519287
1772811043515785500,2.277785400390625,2.54771089553833,-1.2552798986434937,1.4487583637237549
1772811043525666600,2.28766650390625,2.4513044357299805,-1.3953620195388794,1.3411667346954346
1772811043535548000,2.2975478515625,2.363420248031616,-1.4869747161865234,1.2538151741027832
1772811043545429200,2.30742919921875,2.1636834144592285,-1.442233681678772,1.2037477493286133
1772811043555310600,2.317310546875,1.965011715888977,-1.3911010026931763,1.115863561630249
1772811043565191700,2.327191650390625,1.8174726963043213,-1.3863073587417603,1.018924593925476
1772811043575073000,2.337072998046875,1.6294537782669067,-1.3463599681854248,0.9566066265106201
1772811043584954000,2.3469541015625,1.3961609601974487,-1.2930967807769775,0.8612655401229858
1772811043594835500,2.35683544921875,1.1367692947387695,-1.2675304412841797,0.7126613259315491
1772811043604716800,2.366716796875,0.8502134680747986,-1.2275830507278442,0.5374254584312439
1772811043614598100,2.37659814453125,0.5386238694190979,-1.1519492864608765,0.33822116255760193
1772811043624479200,2.386479248046875,0.2222405970096588,-1.0502166748046875,0.12037477642297745
1772811043634360600,2.396360595703125,-0.10106687992811203,-0.9197219014167786,-0.10013477504253387
1772811043644242000,2.406241943359375,-0.42650488018989563,-0.7775092124938965,-0.31265485286712646
1772811043654123000,2.416123046875,-0.737561821937561,-0.6406228542327881,-0.511859118938446
1772811043664004400,2.42600439453125,-1.022519826889038,-0.5239765048027039,-0.705204427242279
1772811043673885700,2.4358857421875,-1.2797809839248657,-0.44834280014038086,-0.8857666254043579
1772811043683766800,2.445766845703125,-1.51413893699646,-0.4190480411052704,-1.0434256792068481
1772811043693648100,2.455648193359375,-1.7170716524124146,-0.42650488018989563,-1.1808446645736694
1772811043703529500,2.465529541015625,-1.8848506212234497,-0.45313647389411926,-1.29216468334198
1772811043713410600,2.47541064453125,-2.0233349800109863,-0.5010733008384705,-1.3699288368225098
1772811043723292000,2.4852919921875,-2.129861354827881,-0.565521776676178,-1.4194636344909668
1772811043733173200,2.49517333984375,-2.2102887630462646,-0.644883930683136,-1.4349099397659302
1772811043743054300,2.505054443359375,-2.268878221511841,-0.7306376099586487,-1.4247899055480957
1772811043752935700,2.514935791015625,-2.3003034591674805,-0.8281092047691345,-1.393364667892456
1772811043762817000,2.524817138671875,-2.3098907470703125,-0.9245156049728394,-1.3385035991668701
1772811043772698400,2.534698486328125,-2.2848570346832275,-1.0342377424240112,-1.262337327003479
1772811043782579500,2.544579345703125,-2.2406487464904785,-1.1540799140930176,-1.1739203929901123
1772811043792460800,2.554460693359375,-2.1762001514434814,-1.278183102607727,-1.0748509168624878
1772811043802342000,2.564341796875,-2.1058928966522217,-1.3953620195388794,-0.9640634655952454
1772811043812223200,2.57422314453125,-2.033987522125244,-1.5034862756729126,-0.8538087010383606
1772811043822104600,2.5841044921875,-1.9599517583847046,-1.5919032096862793,-0.7520760297775269
1772811043831986000,2.59398583984375,-1.8981664180755615,-1.639840006828308,-0.6636591553688049
1772811043841867000,2.603866943359375,-1.846501111984253,-1.660080075263977,-0.5878922939300537
1772811043851748400,2.613748291015625,-1.8156085014343262,-1.6547536849975586,-0.5229112505912781
1772811043861629700,2.623629638671875,-1.8033579587936401,-1.6217305660247803,-0.46698489785194397
1772811043871510800,2.6335107421875,-1.8076190948486328,-1.5695326328277588,-0.40626487135887146
1772811043881392000,2.64339208984375,-1.8326526880264282,-1.506149411201477,-0.334892213344574
1772811043891273500,2.6532734375,-1.8731327056884766,-1.4337115287780762,-0.2491385042667389
1772811043901154600,2.663154541015625,-1.9178738594055176,-1.3431642055511475,-0.17084163427352905
1772811043911036000,2.673035888671875,-1.987648606300354,-1.2424967288970947,-0.10799109190702438
1772811043920917200,2.682917236328125,-2.075532913208008,-1.149286150932312,-0.06804370880126953
1772811043930798300,2.69279833984375,-2.17406964302063,-1.0677934885025024,-0.0414121188223362
1772811043950561000,2.71256103515625,-2.326935052871704,-0.8856334686279297,-0.0600542314350605
1772811043960442000,2.722442138671875,-2.3833940029144287,-0.804673433303833,-0.09627319127321243
1772811043970323500,2.732323486328125,-2.43186354637146,-0.7301049828529358,-0.1351553052663803
1772811043980204800,2.742204833984375,-2.4595603942871094,-0.661928117275238,-0.1681784838438034
1772811043990086000,2.7520859375,-2.476604461669922,-0.6070670485496521,-0.1916142702102661
1772811043999967000,2.761967041015625,-2.479800224304199,-0.5548691153526306,-0.19374480843544006
1772811044009847600,2.77184765625,-2.455832004547119,-0.5005406737327576,-0.16711321473121643
1772811044019728100,2.78172802734375,-2.405764579772949,-0.4515385627746582,-0.11970898509025574
1772811044029608700,2.791608642578125,-2.3349244594573975,-0.3961448669433594,-0.07816371321678162
1772811044039489300,2.8014892578125,-2.251833915710449,-0.32743537425994873,-0.051132649183273315
1772811044049369900,2.811369873046875,-2.148503303527832,-0.2347574532032013,-0.0378168560564518
1772811044059250400,2.82125048828125,-2.040379047393799,-0.11331740766763687,-0.051665280014276505
1772811044069131000,2.831131103515625,-1.925863265991211,0.02143842913210392,-0.1081242486834526
1772811044079011600,2.841011474609375,-1.8076190948486328,0.16311848163604736,-0.19228006899356842
1772811044088892200,2.85089208984375,-1.6797873973846436,0.3037332594394684,-0.28975167870521545
1772811044098772700,2.860772705078125,-1.543966293334961,0.4496743679046631,-0.3957453966140747
1772811044108653300,2.8706533203125,-1.4081451892852783,0.5897565484046936,-0.5012065172195435
1772811044118534000,2.880533935546875,-1.270726203918457,0.7175881266593933,-0.6253097057342529
1772811044128414500,2.89041455078125,-1.143959879875183,0.8241145014762878,-0.7605981826782227
1772811044138295300,2.90029541015625,-1.0262482166290283,0.899215579032898,-0.8916255831718445
1772811044148175600,2.910175537109375,-0.9122650623321533,0.9492829442024231,-1.0146634578704834
1772811044158056200,2.92005615234375,-0.7982818484306335,0.9540766477584839,-1.1100045442581177
1772811044167936800,2.929936767578125,-0.6789723634719849,0.9205208420753479,-1.1547456979751587
1772811044177817600,2.939817626953125,-0.5703154802322388,0.861931324005127,-1.1611372232437134
1772811044187698200,2.9496982421875,-0.47657227516174316,0.7868302464485168,-1.1776487827301025
1772811044197578800,2.959578857421875,-0.37803539633750916,0.7122617959976196,-1.237303614616394
1772811044207459300,2.969459228515625,-0.25499746203422546,0.6627270579338074,-1.346493124961853
1772811044217340000,2.97933984375,-0.11864372342824936,0.6611291766166687,-1.502554178237915
1772811044227220500,2.989220458984375,0.0342215895652771,0.7005439400672913,-1.6847143173217773
1772811044237101000,2.99910107421875,0.23342587053775787,0.8033418655395508,-1.848631739616394
1772811044246981600,3.008981689453125,0.4912196397781372,0.9886977076530457,-1.9562232494354248
1772811044256862200,3.0188623046875,0.8113313317298889,1.250752568244934,-1.9860507249832153
1772811044266742800,3.02874267578125,1.1580746173858643,1.5096116065979004,-1.9168086051940918
1772811044276623400,3.038623291015625,1.481914758682251,1.6608790159225464,-1.7170716524124146
1772811044286504000,3.04850390625,1.7583506107330322,1.6411715745925903,-1.3783178329467773
1772811044296384500,3.058384521484375,1.9612833261489868,1.4377062320709229,-0.9516798257827759
1772811044306265000,3.06826513671875,2.0800602436065674,1.154346227645874,-0.48243123292922974
1772811044316145700,3.078145751953125,2.1146812438964844,0.8273102641105652,-0.014247899875044823
1772811044326026200,3.088026123046875,2.0694074630737305,0.5221123099327087,0.41824910044670105
1772811044335906800,3.09790673828125,1.9453043937683105,0.27124273777008057,0.756470263004303
1772811044345787400,3.107787353515625,1.7615463733673096,0.06831002235412598,1.0041440725326538
1772811044355668000,3.11766796875,1.5330473184585571,-0.07816371321678162,1.1825757026672363
1772811044365548500,3.127548583984375,1.2944283485412598,-0.22250692546367645,1.3322452306747437
1772811044385310000,3.14731005859375,0.8837692737579346,-0.43875542283058167,1.4845778942108154
1772811044395190500,3.1571904296875,0.7511439323425293,-0.42064592242240906,1.4760557413101196
1772811044405071000,3.167071044921875,0.6648576259613037,-0.3482080101966858,1.4030852317810059
1772811044414951700,3.17695166015625,0.625975489616394,-0.23688797652721405,1.2571440935134888
1772811044424832300,3.186832275390625,0.617453396320343,-0.0930773988366127,1.015861988067627
1772811044434712800,3.196712890625,0.6057354807853699,0.047537386417388916,0.6929539442062378
1772811044444593400,3.206593505859375,0.5791038870811462,0.17749953269958496,0.3190464377403259
1772811044454474000,3.216473876953125,0.5391564965248108,0.2941458821296692,-0.043675802648067474
1772811044464354600,3.2263544921875,0.49867647886276245,0.41398802399635315,-0.3451453745365143
1772811044474235100,3.236235107421875,0.4683164656162262,0.5306344032287598,-0.575242280960083
1772811044484115700,3.24611572265625,0.45713120698928833,0.6334323287010193,-0.7739139795303345
1772811044493996300,3.255996337890625,0.448076456785202,0.7271755337715149,-0.9656614065170288
1772811044503877000,3.265877197265625,0.43742382526397705,0.8118639588356018,-1.1595393419265747
1772811044513758000,3.275758056640625,0.43263015151023865,0.8757797479629517,-1.3438299894332886
1772811044523638800,3.285638671875,0.44647857546806335,0.9119987487792969,-1.4998910427093506
1772811044533519600,3.29551953125,0.4715122580528259,0.9279776811599731,-1.6026890277862549
1772811044543400700,3.305400634765625,0.5098617672920227,0.9146618843078613,-1.6580827236175537
1772811044553281500,3.315281494140625,0.5609943866729736,0.8912261128425598,-1.6698005199432373
1772811044563162400,3.325162353515625,0.6147902011871338,0.8512787222862244,-1.6452995538711548
1772811044573043200,3.335043212890625,0.6717818379402161,0.7884281873703003,-1.5787205696105957
1772811044582924000,3.344924072265625,0.7309039235115051,0.7165228724479675,-1.468465805053711
1772811044592804900,3.354804931640625,0.8012113571166992,0.6297038793563843,-1.3182636499404907
1772811044602685700,3.364685791015625,0.8922913670539856,0.5274385809898376,-1.1201245784759521
1772811044612566500,3.37456640625,0.9865671992301941,0.42357540130615234,-0.8996150493621826
1772811044622447400,3.384447265625,1.0781798362731934,0.3170490562915802,-0.6721813082695007
1772811044632328200,3.394328125,1.1745861768722534,0.21425113081932068,-0.4538022577762604
1772811044642209000,3.404208984375,1.2821778059005737,0.1519332081079483,-0.25672850012779236
1772811044652090000,3.414090087890625,1.395095705986023,0.10239845514297485,-0.08894950151443481
1772811044661971000,3.423970947265625,1.4984263181686401,0.04114580526947975,0.059122126549482346
1772811044671851800,3.433851806640625,1.5927021503448486,-0.00519315991550684,0.19014954566955566
1772811044681732600,3.443732666015625,1.6779232025146484,-0.03129211440682411,0.2934800982475281
1772811044691613400,3.453613525390625,1.7588832378387451,-0.04886896535754204,0.373374879360199
1772811044701494300,3.463494384765625,1.8334516286849976,-0.07177212834358215,0.4431496262550354
1772811044711375000,3.473375,1.8973674774169922,-0.10053424537181854,0.5044022798538208
1772811044721256000,3.483255859375,1.9458370208740234,-0.12503530085086823,0.5587307214736938
1772811044731136800,3.49313671875,1.977794885635376,-0.13781847059726715,0.5997433662414551
1772811044741017600,3.503017578125,2.0108180046081543,-0.15326479077339172,0.6407560110092163
1772811044750898400,3.5128984375,2.042243242263794,-0.17243953049182892,0.6961497068405151
1772811044760779500,3.522779541015625,2.0694074630737305,-0.19534270465373993,0.767522394657135
1772811044770660400,3.532660400390625,2.091245412826538,-0.22357217967510223,0.8639287352561951
1772811044780541200,3.542541259765625,2.092310667037964,-0.26085641980171204,0.9752487540245056
1772811044790422000,3.552422119140625,2.0688748359680176,-0.28802061080932617,1.091362476348877
1772811044800302800,3.562302734375,2.037449598312378,-0.2954774796962738,1.192562460899353
1772811044810183700,3.57218359375,2.0044264793395996,-0.2779006361961365,1.260206699371338
1772811044820064500,3.582064453125,1.9703381061553955,-0.24274691939353943,1.2820446491241455
1772811044829945300,3.5919453125,1.9069548845291138,-0.20333217084407806,1.2191940546035767
1772811044839826200,3.601826171875,1.8121464252471924,-0.1495363712310791,1.0636656284332275
1772811044849707300,3.611707275390625,1.7109463214874268,-0.08934897929430008,0.8277097344398499
1772811044859588000,3.621588134765625,1.620398998260498,-0.029694220051169395,0.5406212210655212
1772811044869469000,3.631468994140625,1.5495589971542358,0.044874224811792374,0.24447797238826752
1772811044879349800,3.641349853515625,1.4925673007965088,0.16844479739665985,0
1772811044889230600,3.651230712890625,1.4504894018173218,0.30905959010124207,-0.15020215511322021
1772811044899111400,3.661111328125,1.4185315370559692,0.42836910486221313,-0.2306295484304428
1772811044908992300,3.6709921875,1.3753883838653564,0.5189164876937866,-0.2929474711418152
1772811044918873000,3.680873046875,1.306146264076233,0.583897590637207,-0.36432012915611267
1772811044928754000,3.69075390625,1.2108051776885986,0.6105291843414307,-0.4298338294029236
1772811044938634800,3.700634765625,1.066994547843933,0.6110618114471436,-0.46445488929748535
1772811044948515600,3.710515625,0.8768450617790222,0.5833649635314941,-0.4447475075721741
1772811044958396700,3.720396728515625,0.6462154984474182,0.5514070391654968,-0.371244341135025
1772811044968277500,3.730277587890625,0.3825627565383911,0.5141227841377258,-0.2647179961204529
1772811044978158300,3.740158447265625,0.09707213938236237,0.4539354145526886,-0.13888372480869293
1772811044988039200,3.7500390625,-0.18362480401992798,0.3681817054748535,-0.008921582251787186
1772811044997919700,3.759919677734375,-0.4328964650630951,0.24993745982646942,0.11731214821338654
1772811045007800600,3.769800537109375,-0.6651239395141602,0.09707213938236237,0.18176059424877167
1772811045017681200,3.77968115234375,-0.8819050192832947,-0.08189213275909424,0.18602164089679718
1772811045027561700,3.789561767578125,-1.0805766582489014,-0.2635195553302765,0.1423458456993103
1772811045037442600,3.799442626953125,-1.253149390220642,-0.44035330414772034,0.04846949130296707
1772811045047323100,3.8093232421875,-1.3895031213760376,-0.6118607521057129,-0.08202528953552246
1772811045057203700,3.81920361328125,-1.4821810722351074,-0.7684544920921326,-0.23702113330364227
1772811045067084500,3.82908447265625,-1.5444989204406738,-0.8877639770507812,-0.40799593925476074
1772811045076965000,3.838965087890625,-1.5817831754684448,-0.96446293592453,-0.587492823600769
1772811045086845700,3.848845703125,-1.5956315994262695,-0.9985513687133789,-0.7520760297775269
1772811045096726500,3.8587265625,-1.6020231246948242,-0.9788440465927124,-0.897484540939331
1772811045106607000,3.868607177734375,-1.6318506002426147,-0.922385036945343,-1.0279792547225952
1772811045116487700,3.87848779296875,-1.6872442960739136,-0.8675239682197571,-1.1387667655944824
1772811045126368500,3.888368408203125,-1.7644758224487305,-0.8142607808113098,-1.2064108848571777
1772811045136249000,3.8982490234375,-1.823598027229309,-0.7956187129020691,-1.2458256483078003
1772811045146129700,3.908129638671875,-1.9365159273147583,-0.7002776265144348,-1.2325098514556885
1772811045156010500,3.918010498046875,-2.1074907779693604,-0.5388901829719543,-1.1771161556243896
1772811045165891000,3.92789111328125,-2.223604440689087,-0.42916804552078247,-1.1094719171524048
1772811045175771600,3.937771728515625,-2.291781425476074,-0.3482080101966858,-1.0104024410247803
1772811045185652500,3.947652587890625,-2.3439791202545166,-0.248605877161026,-0.8735160827636719
1772811045195533000,3.957532958984375,-2.361023426055908,-0.1447426825761795,-0.7243791818618774
1772811045205413600,3.96741357421875,-2.3343918323516846,-0.058456335216760635,-0.578970730304718
1772811045215294500,3.97729443359375,-2.278465509414673,0.004926843568682671,-0.438355952501297
1772811045225175000,3.987175048828125,-2.208158016204834,0.0390152782201767,-0.3073285222053528
1772811045235055600,3.9970556640625,-2.129328727722168,0.048602648079395294,-0.1789642721414566
1772811045244936200,4.006936279296875,-2.048901319503784,0.024634219706058502,-0.046871595084667206
1772811045254817000,4.016817138671875,-1.9743328094482422,-0.03874896094202995,0.09001477062702179
1772811045264697600,4.026697509765625,-1.90349280834198,-0.1351553052663803,0.2269011288881302
1772811045274578200,4.036578125,-1.8374464511871338,-0.2677806317806244,0.3531348705291748
1772811045284459000,4.046458984375,-1.774063229560852,-0.422776460647583,0.4772380590438843
1772811045294339600,4.056339599609375,-1.7053537368774414,-0.5878922939300537,0.6029391288757324
1772811045304220200,4.06622021484375,-1.630252718925476,-0.7508776187896729,0.7115960121154785
1772811045314101000,4.07610107421875,-1.551423192024231,-0.9133303165435791,0.809600293636322
1772811045323981600,4.085981689453125,-1.4560821056365967,-1.0582062005996704,0.9012129306793213
1772811045333862100,4.095862060546875,-1.3394356966018677,-1.1588735580444336,0.9795098304748535
1772811045343743000,4.105742919921875,-1.2094736099243164,-1.2297135591506958,1.031707763671875
1772811045353623600,4.11562353515625,-1.077380895614624,-1.2728567123413086,1.0572741031646729
1772811045363504000,4.125504150390625,-0.9617998003959656,-1.2936294078826904,1.0673940181732178
1772811045373385000,4.135385009765625,-0.8659260869026184,-1.2771178483963013,1.0514150857925415
1772811045383265500,4.145265625,-0.7828355431556702,-1.2467577457427979,0.9954887628555298
1772811045393146000,4.15514599609375,-0.7189196944236755,-1.2004188299179077,0.9118655920028687
1772811045403027000,4.16502685546875,-0.6699175834655762,-1.13224196434021,0.8149266242980957
1772811045412907500,4.174907470703125,-0.6257091760635376,-1.0443577766418457,0.709465503692627
1772811045422788000,4.1847880859375,-0.5852291584014893,-0.9490166306495667,0.5965476036071777
1772811045432669000,4.1946689453125,-0.5436838865280151,-0.84675133228302,0.4719117283821106
1772811045442549500,4.204549560546875,-0.5037364959716797,-0.7402250170707703,0.3312969505786896
1772811045452430000,4.21443017578125,-0.46272385120391846,-0.6219807267189026,0.17789900302886963
1772811045462310700,4.224310546875,-0.4174501299858093,-0.4936164915561676,0.018109479919075966
1772811045472191500,4.23419140625,-0.366317480802536,-0.3530017137527466,-0.12357056885957718
1772811045482072000,4.244072021484375,-0.30666273832321167,-0.20812585949897766,-0.2306295484304428
1772811045491952600,4.25395263671875,-0.24647535383701324,-0.07070686668157578,-0.2886864244937897
1772811045501833700,4.263833740234375,-0.18522270023822784,0.06777739524841309,-0.30413272976875305
1772811045511714800,4.27371484375,-0.13888372480869293,0.1988048106431961,-0.2817622125148773
1772811045521596200,4.28359619140625,-0.11065424978733063,0.30053746700286865,-0.23169481754302979
1772811045531477200,4.293477294921875,-0.10106687992811203,0.3591269552707672,-0.16724637150764465
1772811045541358600,4.303358642578125,-0.1165132001042366,0.37563854455947876,-0.13795162737369537
1772811045551239700,4.31323974609375,-0.1303616166114807,0.3820301294326782,-0.18482321500778198
1772811045561121000,4.32312109375,-0.10000161081552505,0.38575854897499084,-0.26684850454330444
1772811045571002000,4.333002197265625,-0.007856318727135658,0.3820301294326782,-0.31798115372657776
1772811045580883200,4.34288330078125,0.12583425641059875,0.3788343369960785,-0.3057306408882141
1772811045590764500,4.3527646484375,0.2893522083759308,0.3655185401439667,-0.2396842986345291
1772811045600645600,4.362645751953125,0.4997417628765106,0.341017484664917,-0.10546109080314636
1772811045610526700,4.372526611328125,0.7340997457504272,0.31438589096069336,0.1038631945848465
1772811045620408000,4.382407958984375,0.9588703513145447,0.2786995768547058,0.373374879360199
1772811045630289200,4.3922890625,1.1575419902801514,0.2227732390165329,0.6593981385231018
1772811045640170500,4.40217041015625,1.298689365386963,0.16524900496006012,0.9214529395103455
1772811045650051600,4.412051513671875,1.3679314851760864,0.133291095495224,1.1590067148208618
1772811045659932700,4.4219326171875,1.3865736722946167,0.12530162930488586,1.370994210243225
1772811045669814000,4.43181396484375,1.3759210109710693,0.12689951062202454,1.5627416372299194
1772811045679695000,4.441695068359375,1.3365062475204468,0.13435636460781097,1.7299879789352417
1772811045689576400,4.451576416015625,1.256078839302063,0.14394372701644897,1.86687433719635
1772811045699457500,4.46145751953125,1.1452914476394653,0.14074794948101044,1.969139575958252
1772811045709338600,4.471338623046875,1.025449275970459,0.14341109991073608,2.0367839336395264
1772811045719220000,4.481219970703125,0.9034766554832458,0.156194269657135,2.062882900238037
1772811045729101000,4.49110107421875,0.7889608144760132,0.1759016364812851,2.0405123233795166
1772811045738982400,4.500982421875,0.6803039312362671,0.199337437748909,1.9510301351547241
1772811045748863500,4.510863525390625,0.5822996497154236,0.22011007368564606,1.7859143018722534
1772811045758744600,4.52074462890625,0.47896912693977356,0.23875218629837036,1.5425015687942505
1772811045768626000,4.5306259765625,0.3676490783691406,0.25792694091796875,1.2154656648635864
1772811045778507000,4.540507080078125,0.2595248222351074,0.21957744657993317,0.8207855224609375
1772811045788388400,4.550388427734375,0.15512900054454803,0.16418373584747314,0.4042675197124481
1772811045798269400,4.56026953125,0.03368895873427391,0.09867003560066223,-0.026098955422639847
1772811045808150500,4.570150634765625,-0.08721844851970673,0.032091062515974045,-0.45486751198768616
1772811045818031900,4.580031982421875,-0.20812585949897766,-0.021172111853957176,-0.8617981672286987
1772811045827913000,4.589912841796875,-0.324239581823349,-0.04034685716032982,-1.2309119701385498
1772811045837794300,4.599794189453125,-0.41105857491493225,-0.025433165952563286,-1.5675352811813354
1772811045847675400,4.60967529296875,-0.46698489785194397,0.02197105996310711,-1.8652764558792114
1772811045857556500,4.619556396484375,-0.49627965688705444,0.11092056334018707,-2.1252007484436035
1772811045867437800,4.629437744140625,-0.502138614654541,0.24780692160129547,-2.351036548614502
1772811045877319000,4.63931884765625,-0.4744417369365692,0.40440067648887634,-2.533729314804077
1772811045887200000,4.649199951171875,-0.42117857933044434,0.5673859715461731,-2.668485164642334
1772811045897081300,4.659081298828125,-0.3583280146121979,0.7271755337715149,-2.7558367252349854
1772811045906962400,4.66896240234375,-0.28802061080932617,0.8720513582229614,-2.783000946044922
1772811045916843800,4.67884375,-0.21398481726646423,0.9998829960823059,-2.7350640296936035
1772811045926724900,4.688724853515625,-0.13728584349155426,1.1138662099838257,-2.6200156211853027
1772811045936606200,4.698606201171875,-0.05632580816745758,1.221457839012146,-2.4586281776428223
1772811045946487300,4.7084873046875,0.020373165607452393,1.3162662982940674,-2.265815496444702
1772811045956368400,4.718368408203125,0.08269108086824417,1.3759210109710693,-2.0500996112823486
1772811045966249700,4.728249755859375,0.1428784728050232,1.3993568420410156,-1.8152090311050415
1772811045976130800,4.738130859375,0.20519638061523438,1.39456307888031,-1.5531542301177979
1772811045986012200,4.74801220703125,0.28455850481987,1.364735722541809,-1.2538151741027832
1772811045995893200,4.757893310546875,0.3788343369960785,1.3024178743362427,-0.9379645586013794
1772811046005774300,4.7677744140625,0.48536068201065063,1.2070767879486084,-0.630103349685669
1772811046015655400,4.777655517578125,0.6046702265739441,1.0952240228652954,-0.34248220920562744
1772811046025536500,4.78753662109375,0.7239797115325928,0.9583377242088318,-0.08681897819042206
1772811046035417300,4.797417236328125,0.8363650441169739,0.8044071197509766,0.14008215069770813
1772811046045298400,4.80729833984375,0.9551419019699097,0.6371607184410095,0.33822116255760193
1772811046055179800,4.8171796875,1.0691250562667847,0.48056700825691223,0.5075980424880981
1772811046065060600,4.827060546875,1.183640956878662,0.3399522304534912,0.6551370620727539
1772811046074941700,4.836941650390625,1.2954936027526855,0.2270342856645584,0.7792402505874634
1772811046084822800,4.84682275390625,1.3966935873031616,0.14873741567134857,0.897484540939331
1772811046094703900,4.856703857421875,1.4925673007965088,0.07150581479072571,1.011467695236206
1772811046104585000,4.8665849609375,1.5772558450698853,0.001731053227558732,1.1302446126937866
1772811046114466000,4.876466064453125,1.6560852527618408,-0.06697844713926315,1.254880428314209
1772811046124347100,4.88634716796875,1.7274580001831055,-0.1308942586183548,1.389103651046753
1772811046134228200,4.896228271484375,1.7951022386550903,-0.19054901599884033,1.528120517730713
1772811046144109300,4.906109375,1.851028561592102,-0.2347574532032013,1.6634089946746826
1772811046153990400,4.915990478515625,1.8968348503112793,-0.2917490601539612,1.787512183189392
1772811046163871500,4.92587158203125,1.943173885345459,-0.35033854842185974,1.904158592224121
1772811046173752600,4.935752685546875,1.9889801740646362,-0.39188382029533386,2.0112175941467285
1772811046183633700,4.945633544921875,2.0401127338409424,-0.41691750288009644,2.087916612625122
1772811046193514800,4.9555146484375,2.0885822772979736,-0.43076592683792114,2.1353206634521484
1772811046203395800,4.965395751953125,2.146639108657837,-0.43076592683792114,2.1603543758392334
1772811046213277000,4.97527685546875,2.205761194229126,-0.41585224866867065,2.1512997150421143
1772811046223158000,4.985157958984375,2.250502347946167,-0.39774277806282043,2.09856915473938
1772811046233039000,4.9950390625,2.2686119079589844,-0.3764374852180481,2.002695322036743
1772811046242920200,5.004920166015625,2.249437093734741,-0.366317480802536,1.8461016416549683
1772811046252801300,5.01480126953125,2.1684770584106445,-0.35033854842185974,1.6149394512176514
1772811046262682400,5.024682373046875,2.0390474796295166,-0.32637012004852295,1.3251878023147583
1772811046272563500,5.0345634765625,1.8947043418884277,-0.29760798811912537,0.9981518983840942
1772811046282444500,5.044444580078125,1.7567527294158936,-0.27044376730918884,0.6663223505020142
1772811046292325400,5.054325439453125,1.6219968795776367,-0.24061639606952667,0.33768853545188904
1772811046302206500,5.06420654296875,1.5026873350143433,-0.16658058762550354,0.027696851640939713
1772811046312087600,5.074087646484375,1.4014873504638672,-0.08135949820280075,-0.24820640683174133
1772811046321968600,5.08396875,1.293363094329834,0.022503692656755447,-0.4916191101074219
1772811046331849700,5.093849609375,1.154346227645874,0.12050793319940567,-0.7211834192276001
1772811046341730800,5.103730712890625,0.962066113948822,0.1998700648546219,-0.9390298128128052
1772811046351612000,5.11361181640625,0.7239797115325928,0.2595248222351074,-1.1371687650680542
1772811046361493000,5.123492919921875,0.4358259439468384,0.29627642035484314,-1.3060131072998047
1772811046371374000,5.1333740234375,0.11624687910079956,0.32876694202423096,-1.43118155002594
1772811046381255200,5.143255126953125,-0.20865848660469055,0.35646381974220276,-1.5084131956100464
1772811046391136300,5.15313623046875,-0.5165196657180786,0.383095383644104,-1.5313162803649902
1772811046401017300,5.163017333984375,-0.7886945009231567,0.41824910044670105,-1.4993584156036377
1772811046410898400,5.1728984375,-1.0113345384597778,0.4342280328273773,-1.4413015842437744
1772811046420779500,5.182779541015625,-1.1902987957000732,0.4171838164329529,-1.376320481300354
1772811046430660600,5.19266064453125,-1.3341094255447388,0.38469329476356506,-1.3198615312576294
1772811046440541700,5.202541748046875,-1.4523537158966064,0.34368064999580383,-1.2745877504348755
1772811046450422800,5.2124228515625,-1.5476948022842407,0.2786995768547058,-1.2341078519821167
1772811046460304000,5.222303955078125,-1.6334484815597534,0.19827216863632202,-1.1936278343200684
1772811046470185000,5.23218505859375,-1.695233702659607,0.13009530305862427,-1.1552783250808716
1772811046480066000,5.242066162109375,-1.7431706190109253,0.06777739524841309,-1.1238529682159424
1772811046489947100,5.251947021484375,-1.7772589921951294,0.0011984214652329683,-1.0966887474060059
1772811046499828000,5.261827880859375,-1.8065537214279175,-0.06431528180837631,-1.0652635097503662
1772811046509709000,5.271708984375,-1.8294569253921509,-0.12716583907604218,-1.0215877294540405
1772811046519590000,5.28158984375,-1.8507622480392456,-0.19853848218917847,-0.9587371945381165
1772811046529471000,5.291470947265625,-1.8678064346313477,-0.2874879837036133,-0.8793750405311584
1772811046539352000,5.30135205078125,-1.8891117572784424,-0.4131890833377838,-0.7856318354606628
1772811046549233000,5.31123291015625,-1.9157432317733765,-0.5697828531265259,-0.663126528263092
1772811046559114000,5.321114013671875,-1.945038080215454,-0.7657912969589233,-0.5097286105155945
1772811046568994800,5.330994873046875,-1.979659080505371,-0.9964208602905273,-0.3121222257614136
1772811046578876000,5.3408759765625,-1.9988338947296143,-1.2249199151992798,-0.06444844603538513
1772811046588756700,5.3507568359375,-1.9908443689346313,-1.4156020879745483,0.22050954401493073
1772811046598637800,5.360637939453125,-1.9482338428497314,-1.5945663452148438,0.5384907126426697
1772811046608518700,5.3705185546875,-1.8853832483291626,-1.7154737710952759,0.876711905002594
1772811046618399700,5.380399658203125,-1.8177390098571777,-1.7927052974700928,1.1946930885314941
1772811046628280600,5.390280517578125,-1.7554211616516113,-1.8321200609207153,1.4567478895187378
1772811046638161700,5.40016162109375,-1.7117453813552856,-1.8406422138214111,1.6341142654418945
1772811046648042500,5.41004248046875,-1.6819179058074951,-1.8097496032714844,1.7299879789352417
1772811046657923600,5.419923583984375,-1.6643410921096802,-1.7378442287445068,1.7566195726394653
1772811046667804400,5.429804443359375,-1.647829532623291,-1.6419705152511597,1.7358468770980835
1772811046677685500,5.439685546875,-1.630252718925476,-1.5397052764892578,1.678855299949646
1772811046687566300,5.44956640625,-1.6206653118133545,-1.4374399185180664,1.599493145942688
1772811046697447400,5.459447509765625,-1.6164042949676514,-1.345827341079712,1.497760534286499
1772811046707328300,5.469328369140625,-1.6206653118133545,-1.2717914581298828,1.3859078884124756
1772811046717209300,5.479209228515625,-1.6329158544540405,-1.2174630165100098,1.2761857509613037
1772811046727090200,5.489090087890625,-1.6515579223632812,-1.1780482530593872,1.182442545890808
1772811046736971300,5.49897119140625,-1.6744611263275146,-1.1482208967208862,1.1009498834609985
1772811046746852000,5.50885205078125,-1.6920379400253296,-1.1135998964309692,1.0162614583969116
1772811046766614000,5.528614013671875,-1.6867116689682007,-1.0219871997833252,0.7696529030799866
1772811046776495000,5.5384951171875,-1.6595474481582642,-0.9570060968399048,0.6050696969032288
1772811046786376000,5.5483759765625,-1.6142736673355103,-0.8861660957336426,0.415452778339386
1772811046796257000,5.558257080078125,-1.5546189546585083,-0.8099997639656067,0.21305270493030548
1772811046806137900,5.568137939453125,-1.4864420890808105,-0.7194523811340332,0.0005326317623257637
1772811046816019000,5.57801904296875,-1.4203957319259644,-0.6017407178878784,-0.22477060556411743
1772811046825900000,5.587900146484375,-1.3559472560882568,-0.47817015647888184,-0.45486751198768616
1772811046835780900,5.59778076171875,-1.282976746559143,-0.3530017137527466,-0.6753770709037781
1772811046845662000,5.607661865234375,-1.2009514570236206,-0.216115340590477,-0.864461362361908
1772811046855542800,5.617542724609375,-1.1120020151138306,-0.07017423212528229,-1.0295772552490234
1772811046865424000,5.627423828125,-1.0171935558319092,0.05552686005830765,-1.182975172996521
1772811046875304700,5.6373046875,-0.9159934520721436,0.1609879434108734,-1.3134698867797852
1772811046885185800,5.647185791015625,-0.8163913488388062,0.2515353560447693,-1.4173331260681152
1772811046895066600,5.657066650390625,-0.7135934233665466,0.32024484872817993,-1.4887057542800903
1772811046904947700,5.66694775390625,-0.6044039130210876,0.3601922392845154,-1.5158699750900269
1772811046914828500,5.67682861328125,-0.4930838644504547,0.3788343369960785,-1.493499517440796
1772811046924709600,5.686709716796875,-0.37856802344322205,0.3884217143058777,-1.4253226518630981
1772811046934590500,5.696590576171875,-0.2768353521823883,0.36232274770736694,-1.3289161920547485
1772811046944471600,5.706471435546875,-0.20226691663265228,0.3021353781223297,-1.2271835803985596
1772811046954352400,5.716352294921875,-0.15166689455509186,0.2376869171857834,-1.1653982400894165
1772811046964233500,5.7262333984375,-0.08455529063940048,0.19347849488258362,-1.1574088335037231
1772811046974114300,5.7361142578125,0.011851056478917599,0.18122795224189758,-1.1446256637573242
1772811046983995400,5.745995361328125,0.13968268036842346,0.18815216422080994,-1.0705899000167847
1772811046993876200,5.755876220703125,0.3037332594394684,0.19827216863632202,-0.9219855666160583
1772811047003756800,5.7657568359375,0.5002743601799011,0.19720691442489624,-0.6929539442062378
1772811047013637000,5.77563720703125,0.7319691777229309,0.20572902262210846,-0.3691138029098511
1772811047023517400,5.785517333984375,0.978577733039856,0.23502376675605774,0.05432844161987305
1772811047043278000,5.805278076171875,1.3141356706619263,0.27284061908721924,1.024250864982605
1772811047053158400,5.815158447265625,1.3013525009155273,0.3420827388763428,1.418398380279541
1772811047063038700,5.825038818359375,1.2044135332107544,0.35167011618614197,1.6607458591461182
1772811047072919000,5.8349189453125,1.0696576833724976,0.2659164071083069,1.7353142499923706
1772811047082799400,5.84479931640625,0.9167923927307129,0.15033531188964844,1.6559520959854126
1772811047092679700,5.8546796875,0.7841671109199524,0.03475422412157059,1.5009562969207764
1772811047102560000,5.86456005859375,0.6861628890037537,-0.06857633590698242,1.3305141925811768
1772811047112440300,5.8744404296875,0.6211817860603333,-0.16018900275230408,1.1920298337936401
1772811047122320600,5.884320556640625,0.5609943866729736,-0.23156166076660156,1.0817750692367554
1772811047132201200,5.894201171875,0.4826975464820862,-0.2683132588863373,0.982172966003418
1772811047142081500,5.90408154296875,0.3772364556789398,-0.2757700979709625,0.897484540939331
1772811047151961900,5.9139619140625,0.25260061025619507,-0.24647535383701324,0.8037413358688354
1772811047161842200,5.92384228515625,0.13169319927692413,-0.19108164310455322,0.6753770709037781
1772811047171722500,5.933722412109375,0.03795001283288002,-0.11385004222393036,0.4953475296497345
1772811047181602800,5.943602783203125,-0.02756369300186634,0.004394211806356907,0.26525062322616577
1772811047191483100,5.953483154296875,-0.054195281118154526,0.16258583962917328,0.003728422336280346
1772811047201363500,5.963363525390625,-0.05153212323784828,0.34847432374954224,-0.27537062764167786
1772811047211243800,5.973243896484375,-0.03715106472373009,0.5407543778419495,-0.5608612298965454
1772811047221124000,5.9831240234375,-0.022237375378608704,0.7303712964057922,-0.8330360651016235
1772811047231004400,5.99300439453125,-0.00519315991550684,0.8960197567939758,-1.0647308826446533
1772811047240884700,6.002884765625,0.013981583528220654,1.0366345643997192,-1.2351731061935425
1772811047250765000,6.01276513671875,0.03688475117087364,1.1586072444915771,-1.3491562604904175
1772811047260645400,6.022645263671875,0.06564686447381973,1.2475566864013672,-1.4173331260681152
1772811047270525700,6.032525634765625,0.09174582362174988,1.30561363697052,-1.4572805166244507
1772811047280406000,6.042406005859375,0.11624687910079956,1.3397020101547241,-1.4689984321594238
1772811047290286300,6.052286376953125,0.13701951503753662,1.3492894172668457,-1.4503562450408936
1772811047300167000,6.0621669921875,0.15353110432624817,1.340234637260437,-1.4098762273788452
1772811047310047000,6.072046875,0.15939006209373474,1.306146264076233,-1.3534172773361206
1772811047319927300,6.08192724609375,0.16045531630516052,1.2464914321899414,-1.284175157546997
1772811047329808000,6.091807861328125,0.15832479298114777,1.1815104484558105,-1.217063546180725
1772811047339688200,6.101688232421875,0.15779216587543488,1.1069419384002686,-1.1648656129837036
1772811047349568500,6.111568603515625,0.1705753207206726,1.0211882591247559,-1.1275814771652222
1772811047359448800,6.12144873046875,0.19773954153060913,0.9508808255195618,-1.1014825105667114
1772811047369329200,6.1313291015625,0.254731148481369,0.8896281719207764,-1.083372950553894
1772811047379209500,6.14120947265625,0.33409327268600464,0.8347671031951904,-1.0673940181732178
1772811047389089800,6.15108984375,0.43156489729881287,0.8044071197509766,-1.0514150857925415
1772811047398970000,6.16097021484375,0.5402217507362366,0.7884281873703003,-1.0359687805175781
1772811047408850400,6.170850341796875,0.6584660410881042,0.7777755260467529,-1.0050761699676514
1772811047418730800,6.180730712890625,0.7841671109199524,0.77724289894104,-0.9539434909820557
1772811047428611000,6.190611083984375,0.9258471727371216,0.7783081531524658,-0.8851008415222168
1772811047438491400,6.200491455078125,1.0739188194274902,0.7815039753913879,-0.793621301651001
1772811047448371700,6.210371826171875,1.220925211906433,0.7857649922370911,-0.684431791305542
1772811047458252000,6.220251953125,1.369529366493225,0.7905586957931519,-0.5624591112136841
1772811047468132400,6.23013232421875,1.516535758972168,0.7793734073638916,-0.4293012022972107
1772811047478012700,6.2400126953125,1.6560852527618408,0.752741813659668,-0.2780337929725647
1772811047487893200,6.249893310546875,1.7903084754943848,0.7207839488983154,-0.11717899143695831
1772811047497773600,6.259773681640625,1.918672800064087,0.6760428547859192,0.04048001393675804
1772811047507654400,6.269654296875,2.0401127338409424,0.6041375994682312,0.18535585701465607
1772811047517535000,6.279534912109375,2.1429107189178467,0.5087965130805969,0.33182957768440247
1772811047527415800,6.289415771484375,2.239849805831909,0.40386801958084106,0.48842331767082214
1772811047537296600,6.299296630859375,2.3319950103759766,0.2925480008125305,0.6593981385231018
1772811047547177200,6.30917724609375,2.424672842025757,0.1705753207206726,0.8570045232772827
1772811047557058000,6.31905810546875,2.517883539199829,0.04221106693148613,1.0801771879196167
1772811047566939000,6.32893896484375,2.6094961166381836,-0.09041424095630646,1.326253056526184
1772811047576819500,6.3388193359375,2.6856625080108643,-0.23848587274551392,1.5765900611877441
1772811047586700300,6.3487001953125,2.7442519664764404,-0.3849596083164215,1.830788493156433
1772811047596581000,6.3585810546875,2.78686261177063,-0.5037364959716797,2.0800602436065674
1772811047606462000,6.3684619140625,2.8092331886291504,-0.6065344214439392,2.3037655353546143
1772811047616342500,6.378342529296875,2.806037187576294,-0.6842986345291138,2.472609758377075
1772811047626223400,6.388223388671875,2.779938220977783,-0.7348986864089966,2.569016218185425
1772811047636104200,6.398104248046875,2.717620372772217,-0.762595534324646,2.5608935356140137
1772811047645984800,6.40798486328125,2.598843574523926,-0.7418228983879089,2.430931329727173
1772811047655865600,6.417865478515625,2.4560983180999756,-0.6640586256980896,2.198171377182007
1772811047665746400,6.427746337890625,2.3181467056274414,-0.5372923016548157,1.9158765077590942
1772811047675627000,6.437626953125,2.2174792289733887,-0.3423490524291992,1.6383752822875977
1772811047685507800,6.4475078125,2.161552906036377,-0.10586056113243103,1.3880383968353271
1772811047695388700,6.457388671875,2.1194748878479004,0.13701951503753662,1.1542130708694458
1772811047705269500,6.46726953125,2.056091785430908,0.36605116724967957,0.9054740071296692
1772811047715150000,6.477150146484375,1.9538264274597168,0.5636575818061829,0.6306359767913818
1772811047725031000,6.487031005859375,1.7785905599594116,0.7325018048286438,0.34621065855026245
1772811047734911700,6.496911865234375,1.5154705047607422,0.8534092307090759,0.06977476179599762
1772811047744792300,6.506792236328125,1.164466142654419,0.9130640029907227,-0.1794968992471695
1772811047754673200,6.516673095703125,0.7463502287864685,0.9290429353713989,-0.38456013798713684
1772811047764554000,6.526553955078125,0.2925480008125305,0.9231839776039124,-0.5464801788330078
1772811047774434600,6.5364345703125,-0.13888372480869293,0.9018787145614624,-0.675909698009491
1772811047784315400,6.5463154296875,-0.5138564705848694,0.8709861040115356,-0.7966839671134949
1772811047794196200,6.5561962890625,-0.7972165942192078,0.8518113493919373,-0.9309071898460388
1772811047804076800,6.566076904296875,-0.998018741607666,0.8464850187301636,-1.0747177600860596
1772811047813957600,6.57595751953125,-1.1349050998687744,0.8283755779266357,-1.2265177965164185
1772811047823838500,6.58583837890625,-1.2270504236221313,0.7708513140678406,-1.3740568161010742
1772811047833719300,6.59571923828125,-1.3090757131576538,0.6776407361030579,-1.5137394666671753
1772811047843600000,6.605599853515625,-1.3990905284881592,0.5673859715461731,-1.6335816383361816
1772811047853480700,6.615480712890625,-1.5024210214614868,0.44647857546806335,-1.7342489957809448
1772811047863361500,6.625361572265625,-1.6089473962783813,0.31971222162246704,-1.8072196245193481
1772811047873242000,6.6352421875,-1.7165390253067017,0.20572902262210846,-1.8391774892807007
1772811047883123000,6.645123046875,-1.8214675188064575,0.12210582941770554,-1.8391774892807007
1772811047893003800,6.655003662109375,-1.9184064865112305,0.052863702178001404,-1.8263943195343018
1772811047902884400,6.66488427734375,-2.0126821994781494,0.009720529429614544,-1.7986974716186523
1772811047912765200,6.67476513671875,-2.094174861907959,0.006524738855659962,-1.7550216913223267
1772811047922646000,6.68464599609375,-2.1511664390563965,0.027297377586364746,-1.699095368385315
1772811047932526600,6.694526611328125,-2.183657169342041,0.05925528332591057,-1.6378426551818848
1772811047942407400,6.704407470703125,-2.1905813217163086,0.09600687772035599,-1.5957647562026978
1772811047952288300,6.714288330078125,-2.1698086261749268,0.13009530305862427,-1.574459433555603
1772811047962169000,6.724169189453125,-2.1319918632507324,0.1519332081079483,-1.5627416372299194
1772811047972049700,6.734049560546875,-2.0728697776794434,0.14500899612903595,-1.5238595008850098
1772811047981930500,6.743930419921875,-1.9887138605117798,0.11518161743879318,-1.4365078210830688
1772811047991811300,6.753811279296875,-1.8891117572784424,0.06191844120621681,-1.29216468334198
1772811048001692200,6.763692138671875,-1.781520128250122,-0.028628956526517868,-1.0844383239746094
1772811048011573200,6.7735732421875,-1.6659389734268188,-0.11385004222393036,-0.8218508362770081
1772811048021454600,6.78345458984375,-1.5626084804534912,-0.21824586391448975,-0.5241096615791321
1772811048031335700,6.793335693359375,-1.4986926317214966,-0.35087117552757263,-0.2024000734090805
1772811048051097900,6.813097900390625,-1.4949642419815063,-0.661928117275238,0.4340948760509491
1772811048060979000,6.82297900390625,-1.5572820901870728,-0.8174566030502319,0.7286402583122253
1772811048070860300,6.8328603515625,-1.6542210578918457,-0.9633976817131042,1.0008150339126587
1772811048080741400,6.842741455078125,-1.7660738229751587,-1.094425082206726,1.2389014959335327
1772811048090622500,6.85262255859375,-1.8672738075256348,-1.2004188299179077,1.430648922920227
1772811048100503600,6.862503662109375,-1.9477012157440186,-1.2968251705169678,1.5627416372299194
1772811048110384600,6.872384521484375,-2.0014970302581787,-1.3719263076782227,1.644234299659729
1772811048130147000,6.89214697265625,-2.0414443016052246,-1.4678000211715698,1.6708658933639526
1772811048140028200,6.902028076171875,-2.03505277633667,-1.484311580657959,1.6554194688796997
1772811048149909200,6.9119091796875,-2.019606590270996,-1.47152841091156,1.636777400970459
1772811048159790300,6.921790283203125,-1.9903117418289185,-1.4411684274673462,1.599493145942688
1772811048169671400,6.93167138671875,-1.9487664699554443,-1.404416799545288,1.5440994501113892
1772811048179552800,6.941552734375,-1.8869811296463013,-1.3420988321304321,1.4535521268844604
1772811048189433900,6.951433837890625,-1.8033579587936401,-1.2632694244384766,1.3305141925811768
1772811048199315000,6.96131494140625,-1.6984295845031738,-1.1801788806915283,1.1914972066879272
1772811048209196000,6.971196044921875,-1.5769895315170288,-1.0933598279953003,1.0343708992004395
1772811048219077000,6.9810771484375,-1.4315810203552246,-0.9942903518676758,0.851678192615509
1772811048228958500,6.99095849609375,-1.2760525941848755,-0.8856334686279297,0.6396907567977905
1772811048238839600,7.000839599609375,-1.1162630319595337,-0.7966839671134949,0.4017375111579895
1772811048248720600,7.010720703125,-0.968191385269165,-0.7162565588951111,0.1572595238685608
1772811048258601700,7.020601806640625,-0.8451534509658813,-0.6443513035774231,-0.07709844410419464
1772811048268482800,7.03048291015625,-0.7428881525993347,-0.59002286195755,-0.29281431436538696
1772811048278364000,7.040364013671875,-0.6597976088523865,-0.5532712340354919,-0.4845617413520813
1772811048288245200,7.050245361328125,-0.59002286195755,-0.5186501741409302,-0.6427533626556396
1772811048298126300,7.060126220703125,-0.5165196657180786,-0.4840291142463684,-0.7716502547264099
1772811048308007400,7.07000732421875,-0.4414185583591461,-0.4426169991493225,-0.8707197904586792
1772811048317888500,7.079888427734375,-0.35886064171791077,-0.3962780237197876,-0.9426250457763672
1772811048327769600,7.08976953125,-0.27097639441490173,-0.3339601159095764,-0.99322509765625
1772811048337651000,7.09965087890625,-0.17030900716781616,-0.2631200850009918,-1.027313470840454
1772811048347532000,7.109531982421875,-0.06697844713926315,-0.1784316450357437,-1.0416945219039917
1772811048357413000,7.1194130859375,0.03741738200187683,-0.07510107755661011,-1.027313470840454
1772811048367294200,7.129294189453125,0.13488899171352386,0.025566324591636658,-0.9783113598823547
1772811048377175300,7.13917529296875,0.20626164972782135,0.0942758247256279,-0.9090692400932312
1772811048387056600,7.149056640625,0.2462090253829956,0.13741900026798248,-0.8749808073043823
1772811048396937700,7.158937744140625,0.27763429284095764,0.1747032105922699,-0.888829231262207
1772811048406818800,7.16881884765625,0.3319627344608307,0.22317270934581757,-0.892557680606842
1772811048416700000,7.178699951171875,0.4267711937427521,0.3057306408882141,-0.8211849927902222
1772811048426581000,7.1885810546875,0.5711144208908081,0.41705065965652466,-0.661928117275238
1772811048436462000,7.198462158203125,0.7591333985328674,0.525840699672699,-0.42916804552078247
1772811048446343400,7.208343505859375,0.9961545467376709,0.6068007349967957,-0.15646058320999146
1772811048456224500,7.218224609375,1.2502199411392212,0.672314465045929,0.13116057217121124
1772811048466105600,7.228105712890625,1.486708402633667,0.7170554995536804,0.405998557806015
1772811048475986700,7.237986572265625,1.6907063722610474,0.7468829154968262,0.6430196762084961
1772811048485867800,7.24786767578125,1.8488980531692505,0.786297619342804,0.8496808409690857
1772811048495748900,7.257748779296875,1.9564895629882812,0.8305060863494873,1.0345040559768677
1772811048505630200,7.267630126953125,2.0108180046081543,0.8795081973075867,1.2118704319000244
1772811048515511300,7.27751123046875,2.007089614868164,0.9354345202445984,1.389769434928894
1772811048525392400,7.287392333984375,1.9495654106140137,0.9679250717163086,1.587908387184143
1772811048535273500,7.2972734375,1.8552895784378052,0.9604682326316833,1.7988306283950806
1772811048545154600,7.307154541015625,1.7498284578323364,0.8922913670539856,2.011350631713867
1772811048555035600,7.31703564453125,1.6385084390640259,0.7639271020889282,2.2132182121276855
1772811048564916700,7.326916748046875,1.5325146913528442,0.5854954719543457,2.3820624351501465
1772811048574798000,7.336798095703125,1.4307820796966553,0.3889543414115906,2.4923171997070312
1772811048584679200,7.34667919921875,1.3263862133026123,0.199337437748909,2.5349276065826416
1772811048594560300,7.356560302734375,1.226251482963562,0.027297377586364746,2.473675012588501
1772811048604441300,7.36644140625,1.1362366676330566,-0.11278477311134338,2.2935123443603516
1772811048614322400,7.376322509765625,1.054744005203247,-0.24221429228782654,1.9883143901824951
1772811048624203500,7.38620361328125,0.9775124192237854,-0.3492732644081116,1.5808510780334473
1772811048634084600,7.396084716796875,0.8960197567939758,-0.44035330414772034,1.1025477647781372
1772811048643966000,7.405966064453125,0.7964176535606384,-0.5229112505912781,0.5668533444404602
1772811048653847000,7.415846923828125,0.65953129529953,-0.5628586411476135,0.015046847052872181
1772811048663728000,7.42572802734375,0.4880238473415375,-0.5639238953590393,-0.49255120754241943
1772811048673609200,7.435609130859375,0.3223753869533539,-0.5159870386123657,-0.9239829778671265
1772811048683490300,7.445490234375,0.17909742891788483,-0.4099932909011841,-1.2824441194534302
1772811048693371400,7.455371337890625,0.05020054429769516,-0.25553008913993835,-1.5924358367919922
1772811048703252500,7.46525244140625,-0.033955276012420654,-0.050466857850551605,-1.8773938417434692
1772811048713133800,7.4751337890625,-0.07337002456188202,0.1998700648546219,-2.149568557739258
1772811048723015000,7.485014892578125,-0.08721844851970673,0.48362964391708374,-2.4105582237243652
1772811048732896000,7.49489599609375,-0.09361003339290619,0.8037413358688354,-2.6411876678466797
1772811048742777000,7.504777099609375,-0.09041424095630646,1.145158290863037,-2.8110973834991455
1772811048752658200,7.514658203125,-0.06857633590698242,1.4519541263580322,-2.8995141983032227
1772811048762539300,7.524539306640625,-0.029694220051169395,1.6932363510131836,-2.9011120796203613
1772811048772420400,7.53442041015625,0.005459475331008434,1.892440676689148,-2.8366637229919434
1772811048782301400,7.544301513671875,0.03741738200187683,2.0596871376037598,-2.7274742126464844
1772811048792182800,7.554182861328125,0.07097318023443222,2.2003018856048584,-2.591120481491089
1772811048802064000,7.56406396484375,0.10932266712188721,2.296708106994629,-2.4297330379486084
1772811048811945000,7.573945068359375,0.15353110432624817,2.3276007175445557,-2.2459750175476074
1772811048821826000,7.583825927734375,0.2174469232559204,2.316948175430298,-2.0425095558166504
1772811048831707100,7.59370703125,0.30053746700286865,2.2727396488189697,-1.8156085014343262
1772811048841588200,7.603588134765625,0.39907434582710266,2.1758008003234863,-1.5668694972991943
1772811048851469300,7.61346923828125,0.5034701824188232,2.028261661529541,-1.303216814994812
1772811048861350700,7.6233505859375,0.6105291843414307,1.8610153198242188,-1.0448904037475586
1772811048871231700,7.633231689453125,0.7064028978347778,1.6756595373153687,-0.8137281537055969
1772811048881112800,7.64311279296875,0.786297619342804,1.4711289405822754,-0.5926859974861145
1772811048890994000,7.652993896484375,0.8661924004554749,1.2479562759399414,-0.3764374852180481
1772811048900875000,7.662875,0.9514135122299194,1.0263813734054565,-0.16711321473121643
1772811048910756000,7.672756103515625,1.0345040559768677,0.8207855224609375,0.019840532913804054
1772811048920637200,7.68263720703125,1.1207903623580933,0.6498107314109802,0.17483638226985931
1772811048930518300,7.692518310546875,1.2070767879486084,0.5070654153823853,0.3085269629955292
1772811048940399600,7.702399658203125,1.2891020774841309,0.38882118463516235,0.4342280328273773
1772811048950280700,7.71228076171875,1.3684641122817993,0.2695116698741913,0.5727123022079468
1772811048960161800,7.722161865234375,1.449424147605896,0.14700636267662048,0.7356976270675659
1772811048970043000,7.73204296875,1.5213295221328735,0.043675802648067474,0.9018787145614624
1772811048979924000,7.741924072265625,1.5809842348098755,-0.04154527932405472,1.0590051412582397
1772811048989805000,7.75180517578125,1.6417042016983032,-0.12410320341587067,1.2129356861114502
1772811048999686100,7.76168603515625,1.6965652704238892,-0.19547586143016815,1.359942078590393
1772811049009566700,7.771566650390625,1.7450348138809204,-0.2535327076911926,1.4904367923736572
1772811049019447600,7.781447509765625,1.7961674928665161,-0.2876211404800415,1.600691556930542
1772811049029328100,7.791328125,1.8430390357971191,-0.3020022213459015,1.6821842193603516
1772811049039209000,7.801208984375,1.888845443725586,-0.30466535687446594,1.7365126609802246
1772811049049089800,7.81108984375,1.9149442911148071,-0.30040431022644043,1.751958966255188
1772811049058970400,7.820970458984375,1.9218685626983643,-0.2775011360645294,1.7274580001831055
1772811049068851200,7.830851318359375,1.9192054271697998,-0.24447797238826752,1.6635421514511108
1772811049078731800,7.840731689453125,1.905357003211975,-0.22956429421901703,1.5564831495285034
1772811049088612600,7.850612548828125,1.855822205543518,-0.25726112723350525,1.3918999433517456
1772811049098493200,7.8604931640625,1.7551548480987549,-0.3105243146419525,1.134106159210205
1772811049108374000,7.8703740234375,1.6070832014083862,-0.3829622268676758,0.8081355690956116
1772811049118254800,7.8802548828125,1.436640977859497,-0.4676506817340851,0.473110169172287
1772811049128135400,7.890135498046875,1.2779167890548706,-0.5528717637062073,0.19560901820659637
1772811049138016300,7.900016357421875,1.164466142654419,-0.612526535987854,0.012916320003569126
1772811049147896800,7.909896728515625,1.0936261415481567,-0.654604434967041,-0.08988160640001297
1772811049157777700,7.919777587890625,1.0361019372940063,-0.679638147354126,-0.14580795168876648
1772811049167658500,7.929658447265625,0.970588207244873,-0.6988128423690796,-0.19321216642856598
1772811049177539000,7.9395390625,0.8816387057304382,-0.7190528512001038,-0.2528669238090515
1772811049187420000,7.949419921875,0.7447523474693298,-0.7265097498893738,-0.3343595862388611
1772811049197300500,7.959300537109375,0.546613335609436,-0.7153244614601135,-0.4179827868938446
1772811049207181300,7.969181396484375,0.28615641593933105,-0.6833665370941162,-0.47763752937316895
1772811049226942700,7.988942626953125,-0.35566484928131104,-0.6029391288757324,-0.45260384678840637
1772811049236823600,7.998823486328125,-0.6715154647827148,-0.5917539000511169,-0.3705785572528839
1772811049246704000,8.0087041015625,-0.9362334609031677,-0.5938844084739685,-0.25979113578796387
1772811049256585000,8.0185849609375,-1.1359703540802002,-0.5938844084739685,-0.16498269140720367
1772811049266465500,8.028465576171875,-1.2888357639312744,-0.6135917901992798,-0.1170458272099495
1772811049276346400,8.038346435546876,-1.4177325963974,-0.6492781043052673,-0.111719511449337
1772811049286227200,8.048227294921874,-1.5242589712142944,-0.7084002494812012,-0.15166689455509186
1772811049296107800,8.058107666015625,-1.611077904701233,-0.7744466066360474,-0.22144165635108948
1772811049305988600,8.067988525390625,-1.685646414756775,-0.827177107334137,-0.3050648272037506
1772811049315869200,8.077869140625,-1.74956214427948,-0.8692550659179688,-0.39188382029533386
1772811049325750000,8.08775,-1.8097496032714844,-0.8958866000175476,-0.475506991147995
1772811049335630800,8.097630859375,-1.8699369430541992,-0.9108003377914429,-0.5351617336273193
1772811049345511400,8.107511474609375,-1.9247980117797852,-0.9390298128128052,-0.5761744379997253
1772811049355392300,8.117392333984375,-1.9700716733932495,-0.9789772033691406,-0.607599675655365
1772811049365272800,8.12727294921875,-2.0036275386810303,-1.0162614583969116,-0.6390249729156494
1772811049375153700,8.137153564453126,-2.014812707901001,-1.078579306602478,-0.6613954901695251
1772811049385034500,8.147034423828124,-1.99244225025177,-1.1962909698486328,-0.6795049905776978
1772811049394915000,8.1569150390625,-1.945038080215454,-1.3869731426239014,-0.7125281691551208
1772811049404796000,8.1667958984375,-1.8986990451812744,-1.619733214378357,-0.774846076965332
1772811049414676500,8.176676513671875,-1.8576864004135132,-1.8881795406341553,-0.8126628994941711
1772811049424557300,8.186557373046876,-1.8395769596099854,-2.166213274002075,-0.7631281614303589
1772811049434438000,8.19643798828125,-1.85342538356781,-2.4330618381500244,-0.6049365401268005
1772811049444318700,8.206318603515625,-1.9045580625534058,-2.6754093170166016,-0.3860248625278473
1772811049454199600,8.216199462890625,-2.0014970302581787,-2.8351988792419434,-0.14900372922420502
1772811049464080100,8.226080078125,-2.1261327266693115,-2.8943209648132324,0.10080055892467499
1772811049473961000,8.2359609375,-2.2555623054504395,-2.857569456100464,0.36072486639022827
1772811049483841500,8.245841552734374,-2.3706107139587402,-2.752640962600708,0.6004091501235962
1772811049493722400,8.255722412109375,-2.4334614276885986,-2.5672850608825684,0.780971348285675
1772811049503603000,8.26560302734375,-2.426004409790039,-2.3185460567474365,0.8837692737579346
1772811049513483500,8.2754833984375,-2.3588929176330566,-2.0197396278381348,0.9066724181175232
1772811049523364400,8.2853642578125,-2.233191728591919,-1.6767247915267944,0.8688555359840393
1772811049533245000,8.295244873046874,-2.0611517429351807,-1.291632056236267,0.7841671109199524
1772811049543125500,8.30512548828125,-1.866208553314209,-0.9022781848907471,0.672314465045929
1772811049553006000,8.315006103515625,-1.685113787651062,-0.5443496704101562,0.5556681156158447
1772811049562886700,8.32488671875,-1.5572820901870728,-0.21411797404289246,0.44754382967948914
1772811049572767200,8.334767333984376,-1.4608757495880127,0.09267792850732803,0.34687644243240356
1772811049582648000,8.34464794921875,-1.3591431379318237,0.3637875020503998,0.24248060584068298
1772811049592528600,8.354528564453124,-1.248888373374939,0.5848296880722046,0.11305109411478043
1772811049602409200,8.3644091796875,-1.1546125411987305,0.7685876488685608,-0.0696416050195694
1772811049612289800,8.374289794921875,-1.107740879058838,0.9230508208274841,-0.3045322000980377
1772811049622170400,8.38417041015625,-1.1359703540802002,1.0391645431518555,-0.5703154802322388
1772811049632051000,8.394051025390626,-1.23610520362854,1.0801771879196167,-0.8414250016212463
1772811049641931800,8.403931884765624,-1.3815135955810547,1.1078740358352661,-1.0880335569381714
1772811049651812400,8.413812255859375,-1.5247915983200073,1.195225715637207,-1.3181304931640625
1772811049661693000,8.42369287109375,-1.6584821939468384,1.376853108406067,-1.5333136320114136
1772811049671573500,8.433573486328125,-1.7847158908843994,1.641571044921875,-1.7266590595245361
1772811049681454000,8.4434541015625,-1.8971011638641357,1.9329206943511963,-1.891242265701294
1772811049691335000,8.4533349609375,-1.9892464876174927,2.212019681930542,-2.0164105892181396
1772811049701215500,8.463215576171875,-2.073935031890869,2.439985990524292,-2.0867180824279785
1772811049711096000,8.473095947265625,-2.143177032470703,2.5853946208953857,-2.1021645069122314
1772811049720976600,8.4829765625,-2.1815264225006104,2.6770071983337402,-2.0712716579437256
1772811049730857200,8.492857177734376,-2.1671454906463623,2.793120861053467,-2.010551691055298
1772811049740738000,8.502738037109374,-2.122936964035034,2.9944558143615723,-1.9514296054840088
1772811049750618600,8.51261865234375,-2.065412759780884,3.253847360610962,-1.9120148420333862
1772811049760499200,8.522499267578125,-1.9913769960403442,3.575556993484497,-1.9088190793991089
1772811049770379800,8.5323798828125,-1.8896443843841553,3.908451795578003,-1.9572886228561401
1772811049780260400,8.54226025390625,-1.7953685522079468,4.215247631072998,-2.0414443016052246
1772811049790141000,8.552140869140626,-1.7213326692581177,4.429898262023926,-2.1122844219207764
1772811049800021800,8.562021728515624,-1.677124261856079,4.555599689483643,-2.1511664390563965
1772811049809902300,8.57190234375,-1.690440058708191,4.618982791900635,-2.1202738285064697
1772811049819783000,8.581782958984375,-1.7559537887573242,4.657331943511963,-1.99244225025177
1772811049829663500,8.59166357421875,-1.8454358577728271,4.701540470123291,-1.8134779930114746
1772811049839544000,8.6015439453125,-1.9397116899490356,4.757466793060303,-1.6622105836868286
1772811049849424600,8.611424560546874,-1.8923075199127197,4.664256572723389,-1.46407151222229
1772811049859305500,8.621305419921875,-1.8395769596099854,4.616852283477783,-1.248888373374939
1772811049869186000,8.63118603515625,-1.8108148574829102,4.437355041503906,-0.9969534873962402
1772811049879066600,8.641066650390625,-1.90349280834198,4.457062721252441,-0.7604650259017944
1772811049888947200,8.650947265625,-2.015345335006714,4.260521411895752,-0.498410165309906
1772811049898827800,8.660827880859374,-2.074467658996582,3.903125524520874,-0.1351553052663803
1772811049908708600,8.67070849609375,-2.119741201400757,3.641603469848633,0.31438589096069336
1772811049918589200,8.680589111328125,-2.168210744857788,3.3545148372650146,0.7490134239196777
1772811049928469800,8.6904697265625,-2.1916465759277344,2.986466407775879,1.0643314123153687
1772811049938350300,8.700350341796875,-2.169275999069214,2.7643587589263916,1.2278493642807007
1772811049948231000,8.71023095703125,-2.08884859085083,2.7808704376220703,1.2789820432662964
1772811049958111700,8.72011181640625,-1.9668759107589722,2.892190456390381,1.2566114664077759
1772811049967992300,8.729992431640625,-1.8081517219543457,2.986999034881592,1.1085398197174072
1772811049977873000,8.739872802734375,-1.627589464187622,2.9539756774902344,0.7820366024971008
1772811049987753500,8.74975341796875,-1.4507557153701782,2.8900599479675293,0.3740406632423401
1772811049997634000,8.759634033203126,-1.258475661277771,2.931605339050293,0.03368895873427391
1772811050007514600,8.7695146484375,-1.1029472351074219,3.015761137008667,-0.15379741787910461
1772811050017395200,8.779395263671875,-1.0363682508468628,3.0466537475585938,-0.20066902041435242
1772811050027275800,8.78927587890625,-1.0209219455718994,3.1830074787139893,-0.13195951282978058
1772811050037156000,8.799156005859375,-0.9953556060791016,3.456247568130493,-0.013182636350393295
1772811050047036700,8.80903662109375,-0.9410271644592285,3.8413403034210205,0.024634219706058502
1772811050056917200,8.818917236328126,-0.8419576287269592,4.020837306976318,-0.08508792519569397
1772811050066797800,8.8287978515625,-0.7210502624511719,4.052794933319092,-0.32690274715423584
1772811050076678400,8.838678466796875,-0.5554017424583435,3.8551886081695557,-0.5889575481414795
1772811050086559000,8.84855908203125,-0.3769701421260834,3.5441317558288574,-0.8030755519866943
1772811050096439600,8.858439453125,-0.20865848660469055,3.347058057785034,-0.9548755884170532
1772811050106320100,8.868320068359376,-0.09627319127321243,3.2298789024353027,-1.052879810333252
1772811050126081000,8.8880810546875,-0.15699321031570435,3.0929925441741943,-1.1013493537902832
1772811050135961600,8.897961669921875,-0.2805637717247009,2.996053695678711,-0.9591366648674011
1772811050145842200,8.90784228515625,-0.41691750288009644,2.82720947265625,-0.6853639483451843
1772811050155722800,8.91772265625,-0.5298354625701904,2.500173568725586,-0.35087117552757263
1772811050165603300,8.927603271484376,-0.6022733449935913,2.0458385944366455,-0.017443690448999405
1772811050175483600,8.937483642578124,-0.6336986422538757,1.644766926765442,0.2936132550239563
1772811050185364200,8.9473642578125,-0.6336986422538757,1.3331773281097412,0.5567333698272705
1772811050195244800,8.957244873046875,-0.5836312770843506,1.0897645950317383,0.7165228724479675
1772811050205125400,8.96712548828125,-0.4696480631828308,0.9118655920028687,0.7362302541732788
1772811050215006000,8.977005859375,-0.30399957299232483,0.8724508285522461,0.6611291766166687
1772811050224886500,8.986886474609374,-0.111719511449337,0.9060066342353821,0.5130575299263
1772811050234767000,8.99676708984375,0.10399635136127472,0.9970866441726685,0.3079943060874939
1772811050244647700,9.006647705078125,0.31491851806640625,1.1861709356307983,0.11038793623447418
1772811050254528300,9.0165283203125,0.45713120698928833,1.418398380279541,-0.0696416050195694
1772811050264408600,9.02640869140625,0.5130575299263,1.745966911315918,-0.27949851751327515
1772811050274289200,9.0362890625,0.49335017800331116,2.1443755626678467,-0.5309007167816162
1772811050284169700,9.046169677734374,0.4539354145526886,2.5236093997955322,-0.838229238986969
1772811050294050300,9.05605029296875,0.4390217363834381,2.8788747787475586,-1.1828420162200928
1772811050303931000,9.065930908203125,0.45127224922180176,3.180344343185425,-1.5498253107070923
1772811050313811500,9.0758115234375,0.47097963094711304,3.3603737354278564,-1.9311896562576294
1772811050323691800,9.08569189453125,0.4768385887145996,3.4056475162506104,-2.323206663131714
1772811050333572400,9.095572265625,0.47950175404548645,3.218161106109619,-2.7130930423736572
1772811050343453000,9.105452880859374,0.5205143690109253,2.6796703338623047,-3.075282573699951
1772811050353333500,9.11533349609375,0.6158554553985596,1.7347816228866577,-3.347990036010742
1772811050363214000,9.125214111328125,0.6089312434196472,0.7265097498893738,-3.399122714996338
1772811050373094700,9.1350947265625,0.3420827388763428,0.09374319016933441,-3.1024467945098877
1772811050382975200,9.144975341796876,-0.08934897929430008,0.02450106106698513,-2.5644888877868652
1772811050392855800,9.154855712890624,-0.5735112428665161,0.23276008665561676,-1.861414909362793
1772811050402736400,9.164736328125,-0.8563387393951416,0.3781685531139374,-1.1423619985580444
1772811050412616700,9.17461669921875,-0.9234502911567688,0.5496760010719299,-0.43023329973220825
1772811050422497300,9.184497314453125,-0.9005471467971802,0.49215173721313477,0.25845956802368164
1772811050432377900,9.1943779296875,-0.9548755884170532,0.42557278275489807,0.8017439842224121
1772811050442258400,9.204258544921874,-1.0704567432403564,0.3536674976348877,1.117594599723816
1772811050452139000,9.214138916015624,-1.1908314228057861,0.21305270493030548,1.2353062629699707
1772811050462019600,9.22401953125,-1.240898847579956,0.018109479919075966,1.2486220598220825
1772811050471900000,9.23389990234375,-1.115197777748108,-0.24820640683174133,1.3327778577804565
1772811050481780500,9.243780517578125,-0.8451534509658813,-0.37497276067733765,1.5431673526763916
1772811050491661000,9.2536611328125,-0.5090628266334534,-0.38029909133911133,1.8643443584442139
1772811050501541600,9.263541748046874,-0.19853848218917847,-0.1890842765569687,2.2126855850219727
1772811050511422200,9.273422119140625,0.052331071346998215,0.15819163620471954,2.4853930473327637
1772811050521302800,9.283302734375,0.26804694533348083,0.44581279158592224,2.6142897605895996
1772811050531183400,9.293183349609375,0.4906870126724243,0.4996086061000824,2.5849950313568115
1772811050541064200,9.303064208984376,0.6488786339759827,0.5624591112136841,2.385258197784424
1772811050550944800,9.31294482421875,0.7298386693000793,0.5278380513191223,2.066211700439453
1772811050560825300,9.322825439453124,0.7500786781311035,0.3808317184448242,1.6800537109375
1772811050570706000,9.332705810546875,0.7005439400672913,0.21145480871200562,1.2864388227462769
1772811050580586500,9.34258642578125,0.6046702265739441,0.04846949130296707,0.9530113935470581
1772811050590467000,9.352467041015625,0.5412870049476624,-0.06338317692279816,0.7330344915390015
1772811050600347600,9.36234765625,0.5386238694190979,-0.07403581589460373,0.6339649558067322
1772811050610228200,9.372228271484374,0.559396505355835,0.0010652635246515274,0.6360954642295837
1772811050620108800,9.38210888671875,0.5844302177429199,0.12197267264127731,0.7287734150886536
1772811050629989400,9.3919892578125,0.5902891755104065,0.2732400894165039,0.8661924004554749
1772811050639870000,9.401869873046875,0.5769733786582947,0.41758328676223755,0.9972198009490967
1772811050649750500,9.41175048828125,0.5577986240386963,0.4937496483325958,1.0835061073303223
1772811050659631000,9.421631103515624,0.5210469961166382,0.4772380590438843,1.0909630060195923
1772811050669511700,9.43151171875,0.4667185842990875,0.36538538336753845,1.0318409204483032
1772811050679392300,9.441392333984375,0.39907434582710266,0.2354232370853424,0.9396955966949463
1772811050689272800,9.45127294921875,0.33409327268600464,0.14008215069770813,0.8640618920326233
1772811050699153400,9.4611533203125,0.2829606235027313,0.0612526535987854,0.8379629254341125
1772811050709034200,9.4710341796875,0.24940481781959534,-0.013315794058144093,0.8613986968994141
1772811050718914800,9.480914794921874,0.23395849764347076,-0.06498107314109802,0.9455545544624329
1772811050728795400,9.49079541015625,0.22809955477714539,-0.02876211516559124,1.0595377683639526
1772811050738676000,9.500676025390625,0.24088270962238312,0.054861072450876236,1.1660641431808472
1772811050748556500,9.510556640625,0.27124273777008057,0.1267663538455963,1.213468313217163
1772811050758437000,9.52043701171875,0.3213101029396057,0.1656484752893448,1.1905651092529297
1772811050768317700,9.530317626953124,0.39055225253105164,0.15446321666240692,1.1069419384002686
1772811050778198300,9.5401982421875,0.45073962211608887,0.08628634363412857,0.9812408685684204
1772811050788078800,9.550078857421875,0.48962175846099854,-0.0026631588116288185,0.8582029342651367
1772811050797959400,9.55995947265625,0.4874912202358246,-0.04420843720436096,0.7639271020889282
1772811050807840000,9.569840087890626,0.4544680416584015,-0.02077263966202736,0.6872281432151794
1772811050817720600,9.579720458984376,0.4054659307003021,0.0005326317623257637,0.601474404335022
1772811050827601200,9.58960107421875,0.3633880317211151,-0.012783162295818329,0.47896912693977356
1772811050837481700,9.599481689453125,0.32876694202423096,-0.06231791526079178,0.33462589979171753
1772811050847362300,9.6093623046875,0.2936132550239563,-0.12463583052158356,0.18335849046707153
1772811050857243000,9.619242919921875,0.2643185257911682,-0.21997691690921783,0.04221106693148613
1772811050867123700,9.629123779296876,0.2419479787349701,-0.33768853545188904,-0.08615318685770035
1772811050877004300,9.63900439453125,0.20679427683353424,-0.4287685751914978,-0.1964079588651657
1772811050886884900,9.648884765625,0.18335849046707153,-0.44954121112823486,-0.2629869282245636
1772811050896765400,9.658765380859375,0.18389111757278442,-0.4394212067127228,-0.2949448525905609
1772811050906646000,9.66864599609375,0.19188059866428375,-0.42610540986061096,-0.3194459080696106
1772811050916526600,9.678526611328126,0.20200060307979584,-0.38456013798713684,-0.34607750177383423
1772811050926407200,9.6884072265625,0.23289324343204498,-0.26205483078956604,-0.36791539192199707
1772811050936287700,9.698287841796875,0.3021353781223297,-0.15446321666240692,-0.36844801902770996
1772811050946168300,9.708168212890625,0.4006722569465637,-0.09747160971164703,-0.35513222217559814
1772811050956049000,9.718048828125,0.4965459704399109,-0.051132649183273315,-0.34607750177383423
1772811050965929500,9.727929443359375,0.5732449293136597,-0.04900212213397026,-0.3061301112174988
1772811050975810000,9.73781005859375,0.6169207096099854,-0.026098955422639847,-0.22783324122428894
1772811050985690600,9.747690673828124,0.613724946975708,0.051132649183273315,-0.10426266491413116
1772811050995571200,9.7575712890625,0.5588638782501221,0.12037477642297745,0.04167843610048294
1772811051005452000,9.7674521484375,0.49920910596847534,0.17683374881744385,0.19720691442489624
1772811051015333000,9.7773330078125,0.4629901647567749,0.2450106143951416,0.3277016878128052
1772811051025214000,9.7872138671875,0.43156489729881287,0.2972085177898407,0.40386801958084106
1772811051035094800,9.7970947265625,0.30533117055892944,0.3904190957546234,0.3798995912075043
1772811051044975600,9.8069755859375,0.1514005810022354,0.46924859285354614,0.29148274660110474
1772811051054856400,9.8168564453125,0.07097318023443222,0.558198094367981,0.20626164972782135
1772811051064737300,9.8267373046875,0.028895273804664612,0.6439517736434937,0.15779216587543488
1772811051074618000,9.8366181640625,-0.04301001504063606,0.6487454771995544,0.13382373750209808
1772811051084499000,9.8464990234375,-0.12876373529434204,0.5613938570022583,0.14500899612903595
1772811051094379800,9.8563798828125,-0.1820269078016281,0.4724443852901459,0.17270584404468536
1772811051104260900,9.8662607421875,-0.2107890248298645,0.4005391001701355,0.20732691884040833
1772811051114141700,9.8761416015625,-0.22676797211170197,0.3249053657054901,0.24035008251667023
1772811051124022500,9.8860224609375,-0.23315955698490143,0.24288007616996765,0.27763429284095764
1772811051133903400,9.8959033203125,-0.22783324122428894,0.10599371790885925,0.33302801847457886
1772811051143784200,9.9057841796875,-0.23848587274551392,0.02077263966202736,0.39001959562301636
1772811051153665000,9.9156650390625,-0.2677806317806244,-0.050600018352270126,0.4411522448062897
1772811051163545900,9.9255458984375,-0.3290332853794098,-0.14008215069770813,0.48056700825691223
1772811051173426700,9.9354267578125,-0.4174501299858093,-0.22423797845840454,0.4954806864261627
1772811051183307500,9.9453076171875,-0.5117259621620178,-0.2817622125148773,0.46512067317962646
1772811051193188400,9.955188232421875,-0.6251765489578247,-0.3190464377403259,0.36658382415771484
1772811051203069200,9.965069091796876,-0.7141260504722595,-0.3808317184448242,0.20146796107292175
1772811051212950000,9.974949951171874,-0.7333008050918579,-0.4335622489452362,0.023036323487758636
1772811051222831000,9.9848310546875,-0.7072018384933472,-0.4197138249874115,-0.1266331970691681
1772811051232712000,9.9947119140625,-0.6693849563598633,-0.3355579972267151,-0.22250692546367645
1772811051242592800,10.0045927734375,-0.6139912605285645,-0.207726389169693,-0.2619216740131378
1772811051252473600,10.0144736328125,-0.531965970993042,-0.054861072450876236,-0.2523342967033386
1772811051262354400,10.0243544921875,-0.4328964650630951,0.1038631945848465,-0.21345217525959015
1772811051272235300,10.0342353515625,-0.33116379380226135,0.24181482195854187,-0.16711321473121643
1772811051282116000,10.0441162109375,-0.23742060363292694,0.3392864465713501,-0.1351553052663803
1772811051291997000,10.053996826171876,-0.16125427186489105,0.40266960859298706,-0.09574055671691895
1772811051301877800,10.063877685546874,-0.11385004222393036,0.38828855752944946,0.04593949019908905
1772811051311758600,10.073758544921875,-0.08775108307600021,0.2071937620639801,0.20519638061523438
1772811051321639400,10.083639404296875,-0.05952160060405731,0.04420843720436096,0.37191012501716614
1772811051331520500,10.0935205078125,-0.03235737979412079,-0.07776423543691635,0.5274385809898376
1772811051341401300,10.1034013671875,-0.03129211440682411,-0.18482321500778198,0.6563354730606079
1772811051351282200,10.1132822265625,-0.04780369997024536,-0.2593916654586792,0.7490134239196777
1772811051361163000,10.1231630859375,-0.07070686668157578,-0.3105243146419525,0.7905586957931519
1772811051371043800,10.1330439453125,-0.09467529505491257,-0.35526537895202637,0.7644597291946411
1772811051380924700,10.142924560546875,-0.12077425420284271,-0.38988643884658813,0.6872281432151794
1772811051390805500,10.152805419921876,-0.15273216366767883,-0.40213698148727417,0.5881586074829102
1772811051400686300,10.162686279296874,-0.1830921620130539,-0.37923380732536316,0.4858933389186859
1772811051410567200,10.172567138671875,-0.20386481285095215,-0.32863378524780273,0.383095383644104
1772811051420448300,10.1824482421875,-0.21505007147789001,-0.2732400894165039,0.28722167015075684
1772811051430329000,10.1923291015625,-0.22144165635108948,-0.21145480871200562,0.21212059259414673
1772811051440210000,10.2022099609375,-0.20439743995666504,-0.14700636267662048,0.17963005602359772
