time,seconds_elapsed,z,y,x
1772811089214633500,0.180633544921875,-0.6342312693595886,-1.8454358577728271,0.1699095368385315
1772811089224515000,0.19051513671875,-0.8563387393951416,-2.2118866443634033,0.3334274888038635
1772811089234396700,0.200396728515625,-1.0379661321640015,-2.57088041305542,0.5811012387275696
1772811089244278300,0.2102783203125,-1.119458794593811,-2.7130930423736572,0.8527434468269348
1772811089254159600,0.22015966796875,-1.1487535238265991,-2.5836634635925293,1.096156120300293
1772811089264041200,0.230041259765625,-1.1040124893188477,-2.2795307636260986,1.2639352083206177
1772811089273922800,0.2399228515625,-0.9117324352264404,-1.9738001823425293,1.3725920915603638
1772811089283804400,0.249804443359375,-0.7024081349372864,-1.5753916501998901,1.3741899728775024
1772811089293686000,0.25968603515625,-0.5500754714012146,-1.501355767250061,1.237836241722107
1772811089303567600,0.269567626953125,-0.39667749404907227,-1.6036211252212524,1.0018802881240845
1772811089313449200,0.27944921875,-0.3055974841117859,-1.9098843336105347,0.7360970973968506
1772811089323330800,0.289330810546875,-0.4707133173942566,-2.3285329341888428,0.4580633044242859
1772811089333212200,0.299212158203125,-0.8973513841629028,-2.9852678775787354,0.1411474198102951
1772811089343094000,0.309093994140625,-1.5413031578063965,-3.551455497741699,-0.2162484973669052
1772811089352975400,0.318975341796875,-2.298705577850342,-3.864642858505249,-0.7195855379104614
1772811089362857000,0.32885693359375,-3.0241498947143555,-4.625241279602051,-1.8274595737457275
1772811089372738600,0.338738525390625,-3.7181692123413086,-4.387154579162598,-3.7577171325683594
1772811089382620200,0.3486201171875,-4.173036575317383,-3.8316197395324707,-5.262401580810547
1772811089392501800,0.358501708984375,-4.329630374908447,-3.6430680751800537,-6.329263210296631
1772811089412265000,0.378264892578125,-3.4310805797576904,-3.774628162384033,-7.66776704788208
1772811089422146600,0.388146484375,-2.3903181552886963,-3.265432119369507,-7.590002536773682
1772811089432028000,0.39802783203125,-1.2776504755020142,-1.9066885709762573,-6.872547626495361
1772811089441909500,0.407909423828125,-0.2757700979709625,-1.2281156778335571,-5.411005973815918
1772811089451791000,0.417791015625,0.3159838020801544,-1.8006948232650757,-3.8301548957824707
1772811089461672700,0.427672607421875,0.3175816833972931,-2.362088680267334,-2.672746181488037
1772811089471554300,0.43755419921875,-0.40147119760513306,-2.684863567352295,-1.8631459474563599
1772811089481436000,0.447435791015625,-1.4017536640167236,-2.7663562297821045,-1.1776487827301025
1772811089491317500,0.4573173828125,-2.1032297611236572,-2.8249456882476807,-0.6231791377067566
1772811089501198300,0.4671982421875,-2.3306634426116943,-2.9453206062316895,-0.2743053436279297
1772811089511079000,0.477078857421875,-2.262486457824707,-2.749311923980713,-0.08522108197212219
1772811089520959500,0.48695947265625,-1.9967032670974731,-2.506431818008423,-0.07350318133831024
1772811089530840000,0.496840087890625,-1.6243937015533447,-2.351436138153076,-0.20825901627540588
1772811089540720600,0.506720703125,-1.253682017326355,-2.2497034072875977,-0.42663803696632385
1772811089550601200,0.516601318359375,-0.9415597915649414,-2.3546319007873535,-0.6908233761787415
1772811089560481800,0.526481689453125,-0.7034733891487122,-2.565554141998291,-0.927311897277832
1772811089570362600,0.536362548828125,-0.5703154802322388,-2.5442488193511963,-1.073785662651062
1772811089580243200,0.5462431640625,-0.4270375072956085,-2.2268002033233643,-1.066328763961792
1772811089590123800,0.556123779296875,-0.04780369997024536,-1.3042820692062378,-0.9480845332145691
1772811089600004400,0.56600439453125,0.4688491225242615,-1.312804102897644,-0.9006803035736084
1772811089609885000,0.575885009765625,0.7298386693000793,-1.9727349281311035,-1.0780466794967651
1772811089619765500,0.585765625,0.6584660410881042,-2.307227611541748,-1.2820446491241455
1772811089629646000,0.59564599609375,0.4528701603412628,-2.7210824489593506,-1.4620741605758667
1772811089639526700,0.605526611328125,0.2083921730518341,-3.5152363777160645,-1.5765900611877441
1772811089649407200,0.6154072265625,-0.04940159618854523,-4.2838239669799805,-1.6282552480697632
1772811089659287800,0.625287841796875,-0.24754060804843903,-4.816988468170166,-1.6090805530548096
1772811089669168400,0.63516845703125,-0.34181642532348633,-5.278780460357666,-1.4370404481887817
1772811089679049000,0.645049072265625,-0.37803539633750916,-5.580782413482666,-1.1345056295394897
1772811089688929800,0.6549296875,-0.33169642090797424,-5.624990940093994,-0.7627286911010742
1772811089698810400,0.664810302734375,-0.2954774796962738,-5.638839244842529,-0.32330748438835144
1772811089708691000,0.67469091796875,-0.35939326882362366,-5.798628807067871,0.17683374881744385
1772811089718571500,0.684571533203125,-0.46485435962677,-6.036182403564453,0.6492781043052673
1772811089728452000,0.6944521484375,-0.4882901608943939,-6.453233242034912,1.1371687650680542
1772811089738332700,0.704332763671875,-0.3466101288795471,-6.918753623962402,1.720933198928833
1772811089748213200,0.714213134765625,0.052331071346998215,-7.1557745933532715,2.1603543758392334
1772811089758093800,0.72409375,0.7937544584274292,-6.980006217956543,2.2588913440704346
1772811089767974400,0.733974365234375,1.860615849494934,-6.397839546203613,2.062350273132324
1772811089777855000,0.74385498046875,3.0973868370056152,-5.558412075042725,1.6096131801605225
1772811089787735600,0.753735595703125,4.3314948081970215,-4.758931636810303,0.9257140159606934
1772811089797616000,0.7636162109375,5.356810569763184,-4.217777729034424,0.10279793292284012
1772811089807496700,0.77349658203125,6.000229835510254,-3.934417724609375,-0.6689854860305786
1772811089817377300,0.783377197265625,6.18878173828125,-3.770899772644043,-1.1845730543136597
1772811089827258000,0.793258056640625,5.991707801818848,-3.6547861099243164,-1.4647372961044312
1772811089837138700,0.803138671875,5.458543300628662,-3.591402769088745,-1.581916332244873
1772811089847019300,0.813019287109375,4.482761859893799,-3.4401354789733887,-1.5297183990478516
1772811089856899800,0.82289990234375,3.3099069595336914,-3.1099038124084473,-1.3273183107376099
1772811089866780400,0.832780517578125,2.3383865356445312,-2.5985772609710693,-1.0929603576660156
1772811089876661000,0.842660888671875,1.570864200592041,-1.871534824371338,-1.0104024410247803
1772811089886541600,0.85254150390625,0.9615334868431091,-1.0283787250518799,-1.0945582389831543
1772811089896422100,0.862422119140625,0.5093291401863098,-0.2294311374425888,-1.2884361743927002
1772811089906302700,0.872302734375,0.22809955477714539,0.43742382526397705,-1.4711289405822754
1772811089916183300,0.882183349609375,0.10293108969926834,0.9130640029907227,-1.5345121622085571
1772811089926063900,0.89206396484375,0.09707213938236237,1.1996198892593384,-1.4583457708358765
1772811089935944400,0.9019443359375,0.13435636460781097,1.3471589088439941,-1.2729898691177368
1772811089945825000,0.911824951171875,0.1711079478263855,1.3684641122817993,-1.0247834920883179
1772811089955705600,0.92170556640625,0.17377111315727234,1.2965588569641113,-0.7579349875450134
1772811089965586400,0.93158642578125,0.14554162323474884,1.1868367195129395,-0.4990759491920471
1772811089975467000,0.941467041015625,0.10719214379787445,1.0265145301818848,-0.2631200850009918
1772811089985347600,0.95134765625,0.07416897267103195,0.8113313317298889,-0.047936856746673584
1772811089995228200,0.961228271484375,0.02623211406171322,0.5412870049476624,0.1507347822189331
1772811090005109200,0.971109130859375,-0.045673172920942307,0.23129534721374512,0.33182957768440247
1772811090014990300,0.980990234375,-0.14207951724529266,-0.13355740904808044,0.48682543635368347
1772811090024871400,0.990871337890625,-0.2810963988304138,-0.49627965688705444,0.6072002053260803
1772811090034752300,1.000752197265625,-0.4408859312534332,-0.9452882409095764,0.717987596988678
1772811090044633600,1.010633544921875,-0.5815007090568542,-1.4816484451293945,0.872983455657959
1772811090054514400,1.020514404296875,-0.6965491771697998,-2.0377159118652344,1.0769814252853394
1772811090064395500,1.0303955078125,-0.7785744667053223,-2.5788698196411133,1.3012193441390991
1772811090074276600,1.040276611328125,-0.8329029083251953,-3.0103015899658203,1.4913688898086548
1772811090084157700,1.05015771484375,-0.8542081713676453,-3.2920637130737305,1.602156400680542
1772811090094038800,1.060038818359375,-0.8339681625366211,-3.438004970550537,1.6341142654418945
1772811090103919900,1.069919921875,-0.774846076965332,-3.428417444229126,1.6133415699005127
1772811090113801000,1.079801025390625,-0.6789723634719849,-3.2862048149108887,1.552621603012085
1772811090133563100,1.099563232421875,-0.42064592242240906,-2.634796142578125,1.3283835649490356
1772811090143444200,1.1094443359375,-0.27949851751327515,-2.1266653537750244,1.1898993253707886
1772811090153325300,1.1193251953125,-0.14314478635787964,-1.5157368183135986,1.05674147605896
1772811090163206400,1.129206298828125,-0.014780531637370586,-0.8302397727966309,0.9518129825592041
1772811090173087200,1.139087158203125,0.12104056775569916,-0.08721844851970673,0.8878971338272095
1772811090182968300,1.14896826171875,0.27763429284095764,0.6536723375320435,0.8575371503829956
1772811090192849400,1.158849365234375,0.45979437232017517,1.3460936546325684,0.8191876411437988
1772811090202730500,1.16873046875,0.6504765152931213,1.9836537837982178,0.7350318431854248
1772811090212611600,1.178611572265625,0.8523439764976501,2.564222574234009,0.5992107391357422
1772811090222492700,1.18849267578125,1.0563418865203857,3.0558416843414307,0.4207790791988373
1772811090242254800,1.2082548828125,1.5186662673950195,3.6406712532043457,0.06178528442978859
1772811090252136000,1.218135986328125,1.7615463733673096,3.8159070014953613,-0.07137265801429749
1772811090262017000,1.22801708984375,2.0102853775024414,3.872898817062378,-0.15659373998641968
1772811090271898000,1.237898193359375,2.2339906692504883,3.8404080867767334,-0.18216006457805634
1772811090281779200,1.247779296875,2.424140214920044,3.692869186401367,-0.14700636267662048
1772811090291660000,1.257659912109375,2.5897886753082275,3.4041826725006104,-0.058589495718479156
1772811090301541000,1.267541015625,2.7090983390808105,2.9812731742858887,0.09534108638763428
1772811090311422200,1.277422119140625,2.7943193912506104,2.45876145362854,0.3206443190574646
1772811090321303300,1.28730322265625,2.875279426574707,1.844104290008545,0.6173202395439148
1772811090331184400,1.297184326171875,2.949847936630249,1.1809778213500977,0.9747161269187927
1772811090341065500,1.3070654296875,2.994588851928711,0.4826975464820862,1.370994210243225
1772811090350946600,1.316946533203125,3.0009806156158447,-0.21664796769618988,1.7550216913223267
1772811090360827600,1.32682763671875,2.9812731742858887,-0.8819050192832947,2.1054933071136475
1772811090370708700,1.336708740234375,2.963696241378784,-1.4821810722351074,2.400571346282959
1772811090380589800,1.34658984375,2.9610331058502197,-1.9855180978775024,2.6322662830352783
1772811090390471000,1.356470947265625,2.9727511405944824,-2.381263494491577,2.7909903526306152
1772811090400351700,1.366351806640625,2.998317241668701,-2.6331982612609863,2.8533084392547607
1772811090410232800,1.37623291015625,3.0265467166900635,-2.708832025527954,2.791522979736328
1772811090420114000,1.386114013671875,3.0771467685699463,-2.7455835342407227,2.598177671432495
1772811090429995000,1.3959951171875,3.1005825996398926,-2.6635582447052,2.277533531188965
1772811090439876000,1.4058759765625,3.0771467685699463,-2.516551971435547,1.8540911674499512
1772811090449757200,1.415757080078125,2.9610331058502197,-2.3759372234344482,1.3406341075897217
1772811090459638300,1.42563818359375,2.7549047470092773,-2.253964424133301,0.7680550217628479
1772811090469519400,1.435519287109375,2.498708724975586,-2.139981269836426,0.18588848412036896
1772811090479400400,1.445400390625,2.2228055000305176,-2.0313243865966797,-0.32224223017692566
1772811090489281500,1.455281494140625,1.935184359550476,-1.9311896562576294,-0.7036065459251404
1772811090499162600,1.46516259765625,1.6353126764297485,-1.8299895524978638,-0.9651287794113159
1772811090509044000,1.4750439453125,1.3881715536117554,-1.7500947713851929,-1.1574088335037231
1772811090518925300,1.48492529296875,1.054744005203247,-1.5924358367919922,-1.2852404117584229
1772811090528806700,1.494806640625,0.6238449811935425,-1.3245220184326172,-1.3757878541946411
1772811090538688000,1.50468798828125,0.2174469232559204,-1.0992188453674316,-1.4929667711257935
1772811090548569300,1.5145693359375,-0.13355740904808044,-0.9314398169517517,-1.6234616041183472
1772811090558450700,1.52445068359375,-0.46858277916908264,-0.7183870673179626,-1.7219984531402588
1772811090568332000,1.53433203125,-0.7908250093460083,-0.46378910541534424,-1.795501708984375
1772811090578213400,1.54421337890625,-1.1045451164245605,-0.21238692104816437,-1.8530259132385254
1772811090588094500,1.554094482421875,-1.4187978506088257,-0.0014647373463958502,-1.8775269985198975
1772811090597975800,1.563975830078125,-1.6920379400253296,0.20785954594612122,-1.8476996421813965
1772811090607857200,1.573857177734375,-1.8726000785827637,0.43635857105255127,-1.7864469289779663
1772811090617738500,1.583738525390625,-1.9759306907653809,0.6281059980392456,-1.7496953010559082
1772811090627619800,1.593619873046875,-2.045705556869507,0.7857649922370911,-1.7619458436965942
1772811090637501200,1.603501220703125,-2.133589744567871,0.9242492914199829,-1.8221333026885986
1772811090647382500,1.613382568359375,-2.243311882019043,1.0563418865203857,-1.8929733037948608
1772811090657263900,1.623263916015625,-2.36688232421875,1.167129397392273,-1.9494322538375854
1772811090667145200,1.633145263671875,-2.4941813945770264,1.2411651611328125,-1.9670090675354004
1772811090677026600,1.643026611328125,-2.640655040740967,1.2603398561477661,-1.9494322538375854
1772811090686908000,1.652907958984375,-2.823880434036255,1.2331756353378296,-1.8732658624649048
1772811090696789200,1.662789306640625,-3.0044426918029785,1.1724556684494019,-1.7246615886688232
1772811090706670600,1.672670654296875,-3.116295337677002,1.0781798362731934,-1.527587890625
1772811090716552000,1.682552001953125,-3.164764881134033,0.9519461393356323,-1.3507541418075562
1772811090726433300,1.692433349609375,-3.19938588142395,0.7692534327507019,-1.2309119701385498
1772811090736314600,1.702314697265625,-3.2270827293395996,0.5396891236305237,-1.1622024774551392
1772811090746196000,1.712196044921875,-3.2180280685424805,0.29095008969306946,-1.1174614429473877
1772811090756077300,1.722077392578125,-3.179678440093994,0.05073317512869835,-1.0556761026382446
1772811090765958400,1.73195849609375,-3.115230083465576,-0.18096163868904114,-0.9496824145317078
1772811090775840000,1.741840087890625,-3.0246825218200684,-0.4190480411052704,-0.7898929119110107
1772811090785721000,1.75172119140625,-2.9027099609375,-0.6603302359580994,-0.5725791454315186
1772811090795602400,1.7616025390625,-2.754105567932129,-0.8819050192832947,-0.2881537973880768
1772811090805483800,1.77148388671875,-2.5873918533325195,-1.0970882177352905,0.009587371721863747
1772811090815365000,1.781365234375,-2.4829962253570557,-1.2675304412841797,0.32650327682495117
1772811090825246500,1.79124658203125,-2.387122392654419,-1.380448341369629,0.6471475958824158
1772811090835127800,1.8011279296875,-2.2885854244232178,-1.4784525632858276,0.9267792701721191
1772811090845009200,1.811009033203125,-2.227332830429077,-1.5114758014678955,1.182975172996521
1772811090854890500,1.820890380859375,-2.2118866443634033,-1.4954968690872192,1.4157352447509766
1772811090864771800,1.830771728515625,-2.2299959659576416,-1.4475599527359009,1.6170700788497925
1772811090884534500,1.850534423828125,-2.338120222091675,-1.27125883102417,1.8903101682662964
1772811090894416000,1.860415771484375,-2.3945791721343994,-1.181244134902954,1.9707375764846802
1772811090904297200,1.870297119140625,-2.431330919265747,-1.1189261674880981,2.0351860523223877
1772811090914178600,1.880178466796875,-2.4339940547943115,-1.0789787769317627,2.128396511077881
1772811090924060000,1.890059814453125,-2.406297206878662,-1.0443577766418457,2.265815496444702
1772811090933941200,1.899941162109375,-2.3583602905273438,-1.015595555305481,2.435724973678589
1772811090943822600,1.909822509765625,-2.3003034591674805,-0.977246105670929,2.5976450443267822
1772811090953704000,1.919703857421875,-2.2363877296447754,-0.9442229270935059,2.7196178436279297
1772811090963585000,1.9295849609375,-2.1703412532806396,-0.9202545285224915,2.787794589996338
1772811090973466400,1.93946630859375,-2.1005666255950928,-0.8515450358390808,2.7739462852478027
1772811090983347700,1.94934765625,-2.0270633697509766,-0.7695197463035583,2.6604957580566406
1772811090993229000,1.95922900390625,-1.9120148420333862,-0.6981470584869385,2.489520788192749
1772811091003109600,1.969109619140625,-1.761812686920166,-0.6097301840782166,2.282327175140381
1772811091012990200,1.978990234375,-1.6041537523269653,-0.48615965247154236,2.0303921699523926
1772811091032750800,1.998750732421875,-1.357545256614685,-0.14900372922420502,1.3928320407867432
1772811091042631200,2.008631103515625,-1.2552798986434937,0.031025800853967667,1.037034034729004
1772811091052511700,2.01851171875,-1.1434272527694702,0.18282584846019745,0.6849644184112549
1772811091062392000,2.02839208984375,-1.0203893184661865,0.2984069585800171,0.3446127474308014
1772811091072272400,2.0382724609375,-0.8962860703468323,0.39960697293281555,0.025566324591636658
1772811091082153000,2.048153076171875,-0.7812376618385315,0.4438154101371765,-0.26578325033187866
1772811091092033300,2.058033203125,-0.6853639483451843,0.42836910486221313,-0.5182507038116455
1772811091101913600,2.06791357421875,-0.6102628707885742,0.3783017098903656,-0.7121286392211914
1772811091111794000,2.0777939453125,-0.5458143949508667,0.3170490562915802,-0.8426234722137451
1772811091121674500,2.087674560546875,-0.4845617413520813,0.24833956360816956,-0.91026771068573
1772811091131554800,2.097554931640625,-0.42064592242240906,0.18229322135448456,-0.9219855666160583
1772811091141435100,2.10743505859375,-0.35459959506988525,0.13116057217121124,-0.8740487098693848
1772811091151315700,2.117315673828125,-0.2874879837036133,0.06404896825551987,-0.767522394657135
1772811091161196000,2.127196044921875,-0.23635534942150116,-0.01957421749830246,-0.6492781043052673
1772811091171076400,2.137076416015625,-0.17403742671012878,-0.0739026591181755,-0.5651223063468933
1772811091180956700,2.146956787109375,-0.06058686226606369,-0.11065424978733063,-0.5443496704101562
1772811091190837200,2.156837158203125,0.10080055892467499,-0.1170458272099495,-0.5512738823890686
1772811091200717600,2.166717529296875,0.3069290518760681,-0.09467529505491257,-0.5571328401565552
1772811091210598000,2.176597900390625,0.5583312511444092,-0.057923704385757446,-0.5219791531562805
1772811091220478500,2.186478515625,0.8555397391319275,-0.006258423440158367,-0.41332224011421204
1772811091230358800,2.19635888671875,1.188967227935791,0.07789739221334457,-0.22050954401493073
1772811091240239000,2.206239013671875,1.553287386894226,0.18602164089679718,0.04048001393675804
1772811091250119400,2.216119384765625,1.9490327835083008,0.3021353781223297,0.31318747997283936
1772811091260000000,2.226,2.3335928916931152,0.43209752440452576,0.5821664929389954
1772811091269880300,2.23588037109375,2.6537046432495117,0.559396505355835,0.8251797556877136
1772811091279760600,2.2457607421875,2.8816709518432617,0.6408891677856445,1.0275797843933105
1772811091289641000,2.255640869140625,3.0270795822143555,0.6526070833206177,1.1990872621536255
1772811091299521500,2.265521484375,3.088864803314209,0.592952311038971,1.353017807006836
1772811091309401900,2.27540185546875,3.069157361984253,0.48855647444725037,1.49469792842865
1772811091319282200,2.2852822265625,2.980740547180176,0.3969438076019287,1.5889737606048584
1772811091329162800,2.295162841796875,2.8571698665618896,0.2707100808620453,1.645432710647583
1772811091339043000,2.30504296875,2.741588830947876,0.14447636902332306,1.6864453554153442
1772811091348923400,2.31492333984375,2.626540422439575,0.06351634114980698,1.7056200504302979
1772811091358803700,2.3248037109375,2.5013718605041504,0.02090579643845558,1.6688684225082397
1772811091368684300,2.334684326171875,2.344245433807373,-0.0030626326333731413,1.546363115310669
1772811091378564600,2.344564697265625,2.1397149562835693,-0.035153694450855255,1.3466262817382812
1772811091388445000,2.35444482421875,1.8851169347763062,-0.08415582031011581,1.0861693620681763
1772811091398325500,2.364325439453125,1.6012241840362549,-0.1368863582611084,0.7831018567085266
1772811091408205800,2.374205810546875,1.2992219924926758,-0.1560611128807068,0.4496743679046631
1772811091418086100,2.384086181640625,0.9753819108009338,-0.14008215069770813,0.06458160281181335
1772811091427966700,2.393966796875,0.6414217948913574,-0.10159950703382492,-0.36485275626182556
1772811091447727400,2.413727294921875,0.022503692656755447,0.05446159839630127,-1.2900341749191284
1772811091467488300,2.43348828125,-0.39241644740104675,0.30586379766464233,-2.1214723587036133
1772811091477368600,2.44336865234375,-0.4994754493236542,0.47950175404548645,-2.4469103813171387
1772811091487249000,2.453248779296875,-0.5468796491622925,0.6744449734687805,-2.7094976902008057
1772811091497129500,2.46312939453125,-0.5559344291687012,0.8645945191383362,-2.917224168777466
1772811091507010000,2.473010009765625,-0.5436838865280151,1.0488851070404053,-3.079676866531372
1772811091516890600,2.482890625,-0.5250417590141296,1.2251862287521362,-3.208041191101074
1772811091526771200,2.492771240234375,-0.5101280808448792,1.3812472820281982,-3.3049800395965576
1772811091536652000,2.502652099609375,-0.48615965247154236,1.5074810981750488,-3.362504243850708
1772811091546532600,2.51253271484375,-0.4414185583591461,1.613474726676941,-3.391266345977783
1772811091556413200,2.5224130859375,-0.3817638158798218,1.7088158130645752,-3.3710265159606934
1772811091576174600,2.542174560546875,-0.23742060363292694,1.8371801376342773,-3.2154979705810547
1772811091586055200,2.55205517578125,-0.11118687689304352,1.868072748184204,-3.0775463581085205
1772811091595935700,2.561935791015625,0.05552686005830765,1.8840516805648804,-2.896984100341797
1772811091605816300,2.57181640625,0.24088270962238312,1.861148476600647,-2.6871273517608643
1772811091615697200,2.581697265625,0.45713120698928833,1.8164074420928955,-2.4431819915771484
1772811091625577700,2.59157763671875,0.7122617959976196,1.7572853565216064,-2.1710071563720703
1772811091635458300,2.601458251953125,0.9849692583084106,1.675260066986084,-1.880190134048462
1772811091645339000,2.6113388671875,1.2363715171813965,1.578853726387024,-1.5829815864562988
1772811091655219700,2.6212197265625,1.4520872831344604,1.4877736568450928,-1.2926973104476929
1772811091665100300,2.631100341796875,1.6358453035354614,1.39456307888031,-1.0173267126083374
1772811091674980900,2.64098095703125,1.789243221282959,1.3002872467041016,-0.7472823858261108
1772811091684861400,2.650861328125,1.9021612405776978,1.213468313217163,-0.4703138470649719
1772811091694742300,2.6607421875,1.9873822927474976,1.1080071926116943,-0.1782984882593155
1772811091704622800,2.670622802734375,2.076331853866577,0.9855019450187683,0.13648688793182373
1772811091714503400,2.68050341796875,2.1796622276306152,0.8640618920326233,0.4720448851585388
1772811091724384000,2.690384033203125,2.275536060333252,0.7250449657440186,0.8198534250259399
1772811091734264800,2.700264892578125,2.3474414348602295,0.5641902089118958,1.1660641431808472
1772811091744145400,2.7101455078125,2.39005184173584,0.3916175067424774,1.4877736568450928
1772811091754026000,2.72002587890625,2.4108245372772217,0.2371542900800705,1.7743295431137085
1772811091763906800,2.72990673828125,2.418813943862915,0.10612688213586807,2.0038938522338867
1772811091773787400,2.739787353515625,2.4406518936157227,-0.07976160943508148,2.2291970252990723
1772811091783668000,2.74966796875,2.4965782165527344,-0.27417218685150146,2.4752728939056396
1772811091793548500,2.759548583984375,2.6004414558410645,-0.4371575117111206,2.7240118980407715
1772811091803429400,2.769429443359375,2.735729932785034,-0.5511407256126404,2.909367799758911
1772811091813310000,2.77931005859375,2.82574462890625,-0.6454165577888489,2.944521427154541
1772811091823190500,2.7891904296875,2.8369300365448,-0.7169223427772522,2.792188882827759
1772811091833071000,2.799071044921875,2.8039066791534424,-0.7739139795303345,2.482729911804199
1772811091842951700,2.80895166015625,2.7549047470092773,-0.7925560474395752,2.106691837310791
1772811091852832500,2.81883251953125,2.6995108127593994,-0.7978823781013489,1.73012113571167
1772811091862713000,2.828713134765625,2.648378372192383,-0.7957518696784973,1.3391693830490112
1772811091872593700,2.83859375,2.618018388748169,-0.7845665812492371,0.9950892925262451
1772811091882474500,2.848474609375,2.5977783203125,-0.7483476400375366,0.714392364025116
1772811091892355000,2.85835498046875,2.583397150039673,-0.7025412917137146,0.4736427962779999
1772811091902235600,2.868235595703125,2.5258729457855225,-0.6652570962905884,0.2275669276714325
1772811091912116200,2.8781162109375,2.3767361640930176,-0.6492781043052673,-0.038216330111026764
1772811091921997000,2.8879970703125,2.1136159896850586,-0.621048629283905,-0.29441219568252563
1772811091931877600,2.897877685546875,1.7498284578323364,-0.5470128059387207,-0.49148595333099365
1772811091941758200,2.90775830078125,1.3050810098648071,-0.45433488488197327,-0.6118607521057129
1772811091951638800,2.917638671875,0.8017439842224121,-0.34141695499420166,-0.6427533626556396
1772811091961519600,2.92751953125,0.2749711573123932,-0.2311621904373169,-0.6070670485496521
1772811091971400200,2.937400146484375,-0.24274691939353943,-0.14913690090179443,-0.5372923016548157
1772811091981280800,2.94728076171875,-0.7130607962608337,-0.10759161412715912,-0.46698489785194397
1772811091991161300,2.957161376953125,-1.0928272008895874,-0.09161266684532166,-0.4286354184150696
1772811092001042200,2.967042236328125,-1.379915714263916,-0.07882949709892273,-0.44514700770378113
1772811092010923000,2.976923095703125,-1.6025558710098267,-0.07243791967630386,-0.5037364959716797
1772811092020803800,2.986803955078125,-1.7628779411315918,-0.08096002787351608,-0.5692501664161682
1772811092030684700,2.9966845703125,-1.858751654624939,-0.1170458272099495,-0.621048629283905
1772811092040565200,3.006565185546875,-1.9114822149276733,-0.20865848660469055,-0.637560248374939
1772811092050446000,3.016446044921875,-1.9306570291519165,-0.3567301332950592,-0.6173202395439148
1772811092060327000,3.026326904296875,-1.9232001304626465,-0.5516733527183533,-0.5811012387275696
1772811092070207700,3.036207763671875,-1.8986990451812744,-0.8163913488388062,-0.5507412552833557
1772811092080088600,3.046088623046875,-1.883785367012024,-1.137035608291626,-0.5262401700019836
1772811092089969400,3.055969482421875,-1.8965685367584229,-1.4859094619750977,-0.5022717714309692
1772811092099850200,3.065850341796875,-1.9263958930969238,-1.8177390098571777,-0.4628570079803467
1772811092109730800,3.075730712890625,-1.9711370468139648,-2.1362528800964355,-0.39840856194496155
1772811092119611600,3.085611572265625,-2.019073963165283,-2.426537036895752,-0.29507800936698914
1772811092129492500,3.095492431640625,-2.0765981674194336,-2.659297227859497,-0.14274531602859497
1772811092139373300,3.105373291015625,-2.1410465240478516,-2.828141450881958,0.03249053657054901
1772811092149254100,3.115254150390625,-2.2001686096191406,-2.9240152835845947,0.20932428538799286
1772811092169015800,3.135015869140625,-2.307760238647461,-2.9240152835845947,0.5422191619873047
1772811092178896400,3.144896484375,-2.3642191886901855,-2.842522621154785,0.6865623593330383
1772811092188777200,3.154777099609375,-2.4036340713500977,-2.709364652633667,0.8000128865242004
1772811092198658000,3.164657958984375,-2.4281351566314697,-2.541585683822632,0.88150554895401
1772811092208539000,3.174538818359375,-2.4297330379486084,-2.3445117473602295,0.9331708550453186
1772811092218419700,3.184419677734375,-2.425471782684326,-2.133589744567871,0.9512803554534912
1772811092228300500,3.194300537109375,-2.417482376098633,-1.9295917749404907,0.9299750328063965
1772811092238181400,3.204181396484375,-2.4185476303100586,-1.752225399017334,0.8671244978904724
1772811092248062000,3.21406201171875,-2.4292004108428955,-1.6036211252212524,0.7728486657142639
1772811092257942800,3.22394287109375,-2.436657190322876,-1.4800505638122559,0.6647244691848755
1772811092267823600,3.23382373046875,-2.4382550716400146,-1.3911010026931763,0.5486106872558594
1772811092277704400,3.243704345703125,-2.436124563217163,-1.3367725610733032,0.43622541427612305
1772811092287585300,3.253585205078125,-2.43186354637146,-1.303749442100525,0.3312969505786896
1772811092297466000,3.263466064453125,-2.4153518676757812,-1.2872377634048462,0.22477060556411743
1772811092307347000,3.273346923828125,-2.4036340713500977,-1.2792483568191528,0.11824425309896469
1772811092317227500,3.2832275390625,-2.4451792240142822,-1.186570405960083,0.05326317623257637
1772811092327108400,3.2931083984375,-2.4398529529571533,-1.0997514724731445,-0.015446321107447147
1772811092336989200,3.3029892578125,-2.392448663711548,-1.0587388277053833,-0.09108003228902817
1772811092346870000,3.3128701171875,-2.3253371715545654,-0.99322509765625,-0.16618111729621887
1772811092356750800,3.322750732421875,-2.23905086517334,-0.8957534432411194,-0.26578325033187866
1772811092366631700,3.332631591796875,-2.1469054222106934,-0.7636607885360718,-0.4101264476776123
1772811092376512500,3.342512451171875,-2.0606191158294678,-0.6017407178878784,-0.5992107391357422
1772811092386393000,3.35239306640625,-1.9860507249832153,-0.40679749846458435,-0.7994802594184875
1772811092396274000,3.36227392578125,-1.8965685367584229,-0.20013637840747833,-0.9864340424537659
1772811092406154800,3.37215478515625,-1.791640043258667,0.012383688241243362,-1.1291793584823608
1772811092416035600,3.38203564453125,-1.672863245010376,0.21425113081932068,-1.2261183261871338
1772811092425916400,3.39191650390625,-1.5503579378128052,0.39854171872138977,-1.2788488864898682
1772811092435797200,3.40179736328125,-1.4273200035095215,0.558198094367981,-1.301086187362671
1772811092445678000,3.411677978515625,-1.3101409673690796,0.684431791305542,-1.300553560256958
1772811092455559000,3.421558837890625,-1.204147219657898,0.7744466066360474,-1.2685956954956055
1772811092465439700,3.431439697265625,-1.0986862182617188,0.8351665735244751,-1.2094736099243164
1772811092485201200,3.451201171875,-0.8749808073043823,0.8665918707847595,-0.9799093008041382
1772811092495082000,3.46108203125,-0.7599323391914368,0.8282423615455627,-0.8036081790924072
1772811092504963300,3.47096337890625,-0.6725807785987854,0.7318360209465027,-0.6001428365707397
1772811092514844400,3.480844482421875,-0.6193175911903381,0.6045370697975159,-0.40679749846458435
1772811092524725800,3.490725830078125,-0.5585975646972656,0.4761728048324585,-0.2672479748725891
1772811092534607000,3.500607177734375,-0.45313647389411926,0.3430148661136627,-0.13888372480869293
1772811092544488200,3.51048828125,-0.3061301112174988,0.20612849295139313,0.03795001283288002
1772811092554369500,3.52036962890625,-0.1122521460056305,0.06924212723970413,0.26698166131973267
1772811092564251000,3.5302509765625,0.12476898729801178,-0.042610540986061096,0.5194491147994995
1772811092574132200,3.54013232421875,0.3964111804962158,-0.13795162737369537,0.7761776447296143
1772811092584013300,3.550013427734375,0.677108108997345,-0.23489060997962952,1.0366345643997192
1772811092593894700,3.559894775390625,0.9215860962867737,-0.3334274888038635,1.2917652130126953
1772811092603776000,3.56977587890625,1.1229208707809448,-0.4676506817340851,1.5421020984649658
1772811092613657300,3.5796572265625,1.2752536535263062,-0.5901560187339783,1.8110811710357666
1772811092623538400,3.589538330078125,1.3679314851760864,-0.6695181131362915,2.071537971496582
1772811092633419800,3.599419677734375,1.4142705202102661,-0.7396923303604126,2.2973740100860596
1772811092643301000,3.609301025390625,1.420129418373108,-0.8158587217330933,2.483795166015625
1772811092653182200,3.61918212890625,1.3844431638717651,-0.8733829259872437,2.6206815242767334
1772811092663063600,3.6290634765625,1.315733551979065,-0.9010797739028931,2.6888582706451416
1772811092672945000,3.63894482421875,1.2129356861114502,-0.8968187570571899,2.6620936393737793
1772811092682826000,3.648825927734375,1.0930935144424438,-0.859534502029419,2.5466456413269043
1772811092692707300,3.658707275390625,0.9796429872512817,-0.8041408061981201,2.3632872104644775
1772811092702588700,3.668588623046875,0.8752471208572388,-0.7263765931129456,2.132124900817871
1772811092712470000,3.678469970703125,0.7586007714271545,-0.6155891418457031,1.8578195571899414
1772811092722351000,3.68835107421875,0.6163880825042725,-0.4850943684577942,1.552088975906372
1772811092732232400,3.698232421875,0.43795645236968994,-0.32210904359817505,1.2223899364471436
1772811092742113800,3.70811376953125,0.2467416673898697,-0.14101426303386688,0.8649939894676208
1772811092751995000,3.717994873046875,0.06884265691041946,0.047537386417388916,0.46072646975517273
1772811092761876200,3.727876220703125,-0.0786963403224945,0.2504700720310211,0.003728422336280346
1772811092771757600,3.737757568359375,-0.18362480401992798,0.4810996353626251,-0.4937496483325958
1772811092781639000,3.747638916015625,-0.24754060804843903,0.7319691777229309,-0.9912276864051819
1772811092791520000,3.75752001953125,-0.271509051322937,0.9823061227798462,-1.4689984321594238
1772811092801401300,3.7674013671875,-0.2432795614004135,1.2464914321899414,-1.9036259651184082
1772811092811282700,3.77728271484375,-0.1591237336397171,1.5500916242599487,-2.2583587169647217
1772811092821163800,3.787163818359375,-0.03502053767442703,1.8622138500213623,-2.5315988063812256
1772811092831045000,3.797045166015625,0.12104056775569916,2.1540958881378174,-2.72853946685791
1772811092840926500,3.806926513671875,0.3122553825378418,2.40496563911438,-2.86755633354187
1772811092850807800,3.816807861328125,0.517318606376648,2.6057677268981934,-2.9463858604431152
1772811092860689000,3.82668896484375,0.7149249911308289,2.751708745956421,-2.9687561988830566
1772811092870570200,3.8365703125,0.9008134603500366,2.820418357849121,-2.936798334121704
1772811092880451600,3.84645166015625,1.0691250562667847,2.800178289413452,-2.853707790374756
1772811092890332700,3.856332763671875,1.2113378047943115,2.6893908977508545,-2.714690923690796
1772811092900214000,3.866214111328125,1.3205273151397705,2.5146877765655518,-2.5319981575012207
1772811092910095400,3.876095458984375,1.4009547233581543,2.2835254669189453,-2.3189456462860107
1772811092919976700,3.885976806640625,1.4531526565551758,2.0038938522338867,-2.069141149520874
1772811092929857800,3.89585791015625,1.4962958097457886,1.6933695077896118,-1.7831180095672607
1772811092939739100,3.9057392578125,1.5447652339935303,1.3594094514846802,-1.4747241735458374
1772811092949620500,3.915620361328125,1.5985610485076904,1.000415563583374,-1.1535472869873047
1772811092959501600,3.92550146484375,1.662476897239685,0.6206491589546204,-0.8211849927902222
1772811092969383000,3.9353828125,1.7407737970352173,0.2701774537563324,-0.4850943684577942
1772811092989145300,3.955145263671875,1.8915085792541504,-0.315717488527298,0.07470160722732544
1772811092999026700,3.965026611328125,1.9293253421783447,-0.5447491407394409,0.28562378883361816
1772811093008907800,3.97490771484375,1.9543590545654297,-0.7034733891487122,0.4683164656162262
1772811093018788900,3.984788818359375,1.9889801740646362,-0.8094671368598938,0.6275733709335327
1772811093028670000,3.994669921875,2.0305254459381104,-0.8675239682197571,0.7633944749832153
1772811093038551000,4.004551025390625,2.0789949893951416,-0.8787092566490173,0.8906934857368469
1772811093048432000,4.01443212890625,2.1386497020721436,-0.8440881967544556,1.003078818321228
1772811093058313200,4.024313232421875,2.195641279220581,-0.7700523734092712,1.0989525318145752
1772811093068194300,4.0341943359375,2.2339906692504883,-0.6667218208312988,1.1697925329208374
1772811093078075400,4.044075439453125,2.255828619003296,-0.5388901829719543,1.2166640758514404
1772811093087956700,4.053956787109375,2.2579591274261475,-0.410525918006897,1.2400999069213867
1772811093097837800,4.063837890625,2.2430455684661865,-0.2805637717247009,1.2598072290420532
1772811093107719000,4.073718994140625,2.2382519245147705,-0.1356879472732544,1.285906195640564
1772811093117600000,4.08360009765625,2.2536981105804443,0.004394211806356907,1.327451467514038
1772811093127481000,4.093481201171875,2.2739381790161133,0.14128057658672333,1.365268349647522
1772811093137362200,4.103362060546875,2.2739381790161133,0.26272061467170715,1.3732578754425049
1772811093147243300,4.1132431640625,2.246241331100464,0.36658382415771484,1.334908366203308
1772811093157124400,4.123124267578125,2.1988370418548584,0.4528701603412628,1.2443609237670898
1772811093167005400,4.13300537109375,2.1375844478607178,0.5146554112434387,1.1335735321044922
1772811093176886500,4.142886474609375,2.0507655143737793,0.5267727971076965,1.0068072080612183
1772811093186767600,4.152767578125,1.9138790369033813,0.5044022798538208,0.8395608067512512
1772811093196649000,4.16264892578125,1.7263927459716797,0.4858933389186859,0.6078659892082214
1772811093206530000,4.172530029296875,1.5394389629364014,0.3664506673812866,0.3596596121788025
1772811093216411100,4.1824111328125,1.3631378412246704,0.22050954401493073,0.10559424757957458
1772811093226292200,4.192292236328125,1.2219904661178589,0.13542161881923676,-0.15219952166080475
1772811093236173300,4.20217333984375,1.1261167526245117,0.06884265691041946,-0.3668501377105713
1772811093246054400,4.212054443359375,1.0403629541397095,0.010253161191940308,-0.5218459963798523
1772811093255935500,4.221935546875,0.962066113948822,-0.03874896094202995,-0.6225133538246155
1772811093265816600,4.231816650390625,0.8613986968994141,-0.06591317802667618,-0.699212372303009
1772811093275697700,4.24169775390625,0.7186533808708191,-0.08082687109708786,-0.7780418395996094
1772811093285578800,4.251578857421875,0.5167859792709351,-0.079228974878788,-0.859534502029419
1772811093295459800,4.2614599609375,0.27124273777008057,-0.0696416050195694,-0.9277113676071167
1772811093305341000,4.2713408203125,-0.011584741063416004,-0.03981422260403633,-0.9676587581634521
1772811093315222000,4.281221923828125,-0.3141195774078369,0.007590002380311489,-0.9900292754173279
1772811093325103000,4.29110302734375,-0.6139912605285645,0.07097318023443222,-0.9964208602905273
1772811093334984400,4.300984375,-0.8914924263954163,0.13595426082611084,-0.9788440465927124
1772811093344865500,4.310865478515625,-1.12478506565094,0.20999006927013397,-0.9277113676071167
1772811093354746600,4.32074658203125,-1.2819114923477173,0.27710166573524475,-0.8600671291351318
1772811093364627700,4.330627685546875,-1.3729915618896484,0.31385326385498047,-0.7934881448745728
1772811093374508800,4.3405087890625,-1.4310483932495117,0.3261038064956665,-0.7471492290496826
1772811093384390000,4.350389892578125,-1.466734766960144,0.3037332594394684,-0.7210502624511719
1772811093394271000,4.36027099609375,-1.4954968690872192,0.2414153516292572,-0.7173218131065369
1772811093404152000,4.370152099609375,-1.5333136320114136,0.14927005767822266,-0.7221155166625977
1772811093414033200,4.380033203125,-1.5791200399398804,0.03262369707226753,-0.7237133979797363
1772811093423914200,4.389914306640625,-1.6382421255111694,-0.11811109632253647,-0.7045386433601379
1772811093433795300,4.39979541015625,-1.7085494995117188,-0.30040431022644043,-0.6624607443809509
1772811093443676700,4.4096767578125,-1.7889769077301025,-0.49694544076919556,-0.5996102094650269
1772811093453557800,4.419557861328125,-1.8805896043777466,-0.7105307579040527,-0.5250417590141296
1772811093463438800,4.42943896484375,-1.9807243347167969,-0.9422255754470825,-0.4360922574996948
1772811093473320000,4.43931982421875,-2.083522319793701,-1.1781814098358154,-0.32690274715423584
1772811093483201000,4.449200927734375,-2.187918186187744,-1.4040173292160034,-0.19427743554115295
1772811093493082000,4.45908203125,-2.2885854244232178,-1.607482671737671,-0.04407527670264244
1772811093502962700,4.468962646484375,-2.3786003589630127,-1.7853816747665405,0.10719214379787445
1772811093512843500,4.478843505859375,-2.4494402408599854,-1.9164091348648071,0.24461114406585693
1772811093522724000,4.48872412109375,-2.495779275894165,-1.989379644393921,0.3676490783691406
1772811093532605000,4.49860498046875,-2.530932903289795,-2.00961971282959,0.47524067759513855
1772811093542485500,4.508485595703125,-2.5623581409454346,-1.9755312204360962,0.5796365141868591
1772811093552366000,4.518365966796875,-2.5937836170196533,-1.8993648290634155,0.6824344396591187
1772811093562247000,4.528246826171875,-2.635328769683838,-1.7896426916122437,0.7751123905181885
1772811093572127500,4.53812744140625,-2.690189838409424,-1.6634089946746826,0.8326365947723389
1772811093582008300,4.54800830078125,-2.749311923980713,-1.5132068395614624,0.8337018489837646
1772811093591889000,4.557888916015625,-2.797781467437744,-1.3608741760253906,0.8017439842224121
1772811093601769500,4.56776953125,-2.823880434036255,-1.2191940546035767,0.760198712348938
1772811093611650300,4.577650390625,-2.823347806930542,-1.09562349319458,0.7415565848350525
1772811093621531000,4.58753076171875,-2.7871289253234863,-0.9896298050880432,0.7665902376174927
1772811093631411700,4.59741162109375,-2.7178866863250732,-0.9012129306793213,0.8368976712226868
1772811093641292300,4.607292236328125,-2.6316003799438477,-0.8442213535308838,0.9396955966949463
1772811093651172900,4.6171728515625,-2.5383899211883545,-0.8186550140380859,1.0685924291610718
1772811093661053700,4.6270537109375,-2.445711851119995,-0.8101329207420349,1.2171967029571533
1772811093670934300,4.636934326171875,-2.371143341064453,-0.8127960562705994,1.3615399599075317
1772811093680815000,4.646815185546875,-2.316282272338867,-0.8122634291648865,1.4851105213165283
1772811093690695700,4.65669580078125,-2.2747371196746826,-0.7946866154670715,1.5799189805984497
1772811093700576300,4.666576171875,-2.2417140007019043,-0.7701855301856995,1.6299864053726196
1772811093710457000,4.67645703125,-2.212951898574829,-0.7281076312065125,1.6363779306411743
1772811093720337700,4.686337646484375,-2.1809937953948975,-0.6599307656288147,1.5969631671905518
1772811093730218500,4.696218505859375,-2.133057117462158,-0.5635244250297546,1.5298515558242798
1772811093740099000,4.70609912109375,-2.0606191158294678,-0.4426169991493225,1.4451631307601929
1772811093749979600,4.715979736328125,-1.967408537864685,-0.2977411448955536,1.3471589088439941
1772811093759860200,4.725860107421875,-1.8427727222442627,-0.16405057907104492,1.2273167371749878
1772811093769741000,4.735740966796875,-1.690440058708191,-0.04207791015505791,1.0776472091674805
1772811093779621600,4.74562158203125,-1.5178673267364502,0.07616633921861649,0.9013460874557495
1772811093789502500,4.75550244140625,-1.3346420526504517,0.20080217719078064,0.6904239058494568
1772811093799383000,4.765383056640625,-1.131709337234497,0.314785361289978,0.448076456785202
1772811093809263600,4.775263671875,-0.9239829778671265,0.392549604177475,0.19188059866428375
1772811093819144400,4.78514453125,-0.7141260504722595,0.4388885796070099,-0.054195281118154526
1772811093829025000,4.79502490234375,-0.5229112505912781,0.4617917239665985,-0.2491385042667389
1772811093838905900,4.80490576171875,-0.3439469635486603,0.44954121112823486,-0.3721764385700226
1772811093848786400,4.814786376953125,-0.19321216642856598,0.4111917316913605,-0.422776460647583
1772811093858667000,4.8246669921875,-0.06751107424497604,0.37923380732536316,-0.4051996171474457
1772811093868547800,4.8345478515625,0.027830010280013084,0.33768853545188904,-0.3439469635486603
1772811093878428400,4.844428466796875,0.07736476510763168,0.26631587743759155,-0.25553008913993835
1772811093888309200,4.854309326171875,0.08855003118515015,0.18748638033866882,-0.17457005381584167
1772811093898189800,4.86418994140625,0.12104056775569916,0.13262531161308289,-0.13462267816066742
1772811093908070400,4.8740703125,0.199337437748909,0.09640634804964066,-0.1074584573507309
1772811093917951200,4.883951171875,0.33728906512260437,0.055926334112882614,-0.03981422260403633
1772811093927831800,4.893831787109375,0.5375586152076721,-0.002130527049303055,0.09920266270637512
1772811093937712600,4.903712646484375,0.786297619342804,-0.07723160833120346,0.318114310503006
1772811093947593200,4.91359326171875,1.0680598020553589,-0.17097479104995728,0.6211817860603333
1772811093957473800,4.923473876953125,1.3391693830490112,-0.33182957768440247,0.9663271903991699
1772811093967354600,4.933354736328125,1.5570157766342163,-0.5779054760932922,1.3397020101547241
1772811093977235200,4.943235107421875,1.699761152267456,-0.8564718961715698,1.7290558815002441
1772811093987116000,4.953115966796875,1.751958966255188,-1.1243855953216553,2.125333786010742
1772811093996996600,4.96299658203125,1.7189358472824097,-1.362871527671814,2.5104267597198486
1772811094006877700,4.972877685546875,1.6156052350997925,-1.5748589038848877,2.846517324447632
1772811094016758500,4.982758544921875,1.456881046295166,-1.737311601638794,3.088864803314209
1772811094026639400,4.992639404296875,1.268329381942749,-1.8076190948486328,3.202847957611084
1772811094036520400,5.0025205078125,1.0723209381103516,-1.7651416063308716,3.1746184825897217
1772811094046401300,5.0124013671875,0.886432409286499,-1.649027943611145,3.01482892036438
1772811094056282400,5.022282470703125,0.7218492031097412,-1.4498236179351807,2.7346646785736084
1772811094066163200,5.0321630859375,0.5918870568275452,-1.1717898845672607,2.35489821434021
1772811094076044300,5.042044189453125,0.5098617672920227,-0.8548739552497864,1.8877800703048706
1772811094085925000,5.051925048828125,0.4725775420665741,-0.5310338735580444,1.360474705696106
1772811094095806200,5.06180615234375,0.46032699942588806,-0.2210421860218048,0.8001460433006287
1772811094105687000,5.07168701171875,0.45180490612983704,0.06444844603538513,0.23555639386177063
1772811094115568000,5.081568115234375,0.4262385666370392,0.3158506453037262,-0.290683776140213
1772811094125449000,5.091448974609375,0.3788343369960785,0.5262401700019836,-0.7551386952400208
1772811094135330000,5.101330078125,0.30107009410858154,0.7163897156715393,-1.149818778038025
1772811094145211000,5.1112109375,0.20093533396720886,0.8868318796157837,-1.4853768348693848
1772811094155092000,5.121092041015625,0.09920266270637512,1.0402297973632812,-1.7751284837722778
1772811094164972800,5.130972900390625,0.016112111508846283,1.1909645795822144,-2.039313793182373
1772811094174854000,5.14085400390625,-0.04460791125893593,1.3619394302368164,-2.282726526260376
1772811094184734700,5.150734619140625,-0.0786963403224945,1.527055263519287,-2.5128235816955566
1772811094194615800,5.16061572265625,-0.07763107866048813,1.6745942831039429,-2.718951940536499
1772811094204496600,5.17049658203125,-0.037683695554733276,1.8311879634857178,-2.9000468254089355
1772811094214377700,5.180377685546875,0.03848264366388321,1.9915101528167725,-3.0582385063171387
1772811094224258600,5.190258544921875,0.13222584128379822,2.1342554092407227,-3.1871352195739746
1772811094234139400,5.200139404296875,0.21957744657993317,2.2487711906433105,-3.2760848999023438
1772811094244020500,5.2100205078125,0.3021353781223297,2.3430471420288086,-3.3309459686279297
1772811094253901600,5.219901611328125,0.3697795867919922,2.4186809062957764,-3.3469247817993164
1772811094263782400,5.229782470703125,0.42730382084846497,2.4485082626342773,-3.308575391769409
1772811094273663500,5.23966357421875,0.4720448851585388,2.429333448410034,-3.205777406692505
1772811094283544300,5.24954443359375,0.5066659450531006,2.3734071254730225,-3.0427920818328857
1772811094293425200,5.259425048828125,0.5386238694190979,2.2892513275146484,-2.842522621154785
1772811094303306200,5.26930615234375,0.5695165395736694,2.1811270713806152,-2.619882583618164
1772811094313187000,5.27918701171875,0.6025396585464478,2.0495669841766357,-2.401503562927246
1772811094323068200,5.289068115234375,0.6334323287010193,1.8956364393234253,-2.1868529319763184
1772811094332949000,5.298948974609375,0.6872281432151794,1.7140090465545654,-1.9695390462875366
1772811094342830000,5.308830078125,0.7660576105117798,1.5217289924621582,-1.737311601638794
1772811094352711000,5.3187109375,0.8725839853286743,1.3161331415176392,-1.4773873090744019
1772811094362592000,5.328592041015625,0.995621919631958,1.0924277305603027,-1.1769829988479614
1772811094372472800,5.338472900390625,1.1436935663223267,0.8793750405311584,-0.8462187051773071
1772811094382354000,5.34835400390625,1.315200924873352,0.684431791305542,-0.5079975724220276
1772811094392234800,5.35823486328125,1.4872410297393799,0.5022717714309692,-0.18948374688625336
1772811094402115800,5.36811572265625,1.6406389474868774,0.329166442155838,0.09121318906545639
1772811094411996700,5.37799658203125,1.7732642889022827,0.17204006016254425,0.3261038064956665
1772811094421877800,5.387877685546875,1.8835190534591675,0.03408843278884888,0.5237101912498474
1772811094431758600,5.397758544921875,1.9815232753753662,-0.07616633921861649,0.6866955161094666
1772811094441639700,5.4076396484375,2.0699400901794434,-0.16671374440193176,0.8315713405609131
1772811094451520500,5.4175205078125,2.1493022441864014,-0.23009692132472992,0.9716535210609436
1772811094461401600,5.427401611328125,2.2190771102905273,-0.27110958099365234,1.1080071926116943
1772811094471282400,5.437282470703125,2.276068687438965,-0.29028430581092834,1.2374367713928223
1772811094481163500,5.44716357421875,2.3080265522003174,-0.306263267993927,1.3668662309646606
1772811094500925000,5.466925048828125,2.344245433807373,-0.33236223459243774,1.6145399808883667
1772811094510805200,5.47680517578125,2.338919162750244,-0.3446127474308014,1.7306537628173828
1772811094520685600,5.486685546875,2.3330602645874023,-0.35100433230400085,1.8425064086914062
1772811094530566000,5.49656591796875,2.325603485107422,-0.33768853545188904,1.9239990711212158
1772811094540446200,5.5064462890625,2.3261361122131348,-0.31318747997283936,1.9580875635147095
1772811094550326500,5.516326416015625,2.3282666206359863,-0.2689790427684784,1.9293253421783447
1772811094560206800,5.526206787109375,2.3160159587860107,-0.2034653276205063,1.834517002105713
1772811094570087400,5.53608740234375,2.2638182640075684,-0.1555284708738327,1.6715316772460938
1772811094579967700,5.5459677734375,2.156226634979248,-0.10120003670454025,1.4259884357452393
1772811094589848000,5.55584814453125,2.0150790214538574,-0.03195790573954582,1.1016156673431396
1772811094599728400,5.565728271484375,1.8829864263534546,0.01704421639442444,0.7298386693000793
1772811094609608700,5.575608642578125,1.7828516960144043,0.0612526535987854,0.38575854897499084
1772811094619489000,5.585489013671875,1.7386432886123657,0.11877688020467758,0.14021530747413635
1772811094629369300,5.595369384765625,1.7311863899230957,0.16724637150764465,-0.007856318727135658
1772811094649130000,5.6151298828125,1.6725969314575195,0.19600848853588104,-0.1633847951889038
1772811094659010300,5.62501025390625,1.5570157766342163,0.15819163620471954,-0.2251700758934021
1772811094668891000,5.634890869140625,1.352485179901123,0.0756337121129036,-0.27949851751327515
1772811094678771200,5.644771240234375,1.0488851070404053,-0.034621063619852066,-0.3151848316192627
1772811094688651500,5.654651611328125,0.6653902530670166,-0.13848425447940826,-0.32637012004852295
1772811094698531800,5.66453173828125,0.23821955919265747,-0.23808640241622925,-0.30346694588661194
1772811094708412200,5.674412109375,-0.19374480843544006,-0.3302316963672638,-0.259258508682251
1772811094718292500,5.68429248046875,-0.5815007090568542,-0.4111917316913605,-0.2198437601327896
1772811094728172800,5.6941728515625,-0.8898945450782776,-0.47777068614959717,-0.20013637840747833
1772811094738053000,5.70405322265625,-1.1093387603759766,-0.5171854496002197,-0.21451744437217712
1772811094747933400,5.713933349609375,-1.2558125257492065,-0.5603286027908325,-0.25553008913993835
1772811094757813800,5.723813720703125,-1.3410335779190063,-0.6237117648124695,-0.315717488527298
1772811094767694000,5.733694091796875,-1.3911010026931763,-0.7126613259315491,-0.366317480802536
1772811094777574400,5.743574462890625,-1.4203957319259644,-0.8436887264251709,-0.4089280366897583
1772811094787455000,5.753455078125,-1.4507557153701782,-1.023718237876892,-0.42490699887275696
1772811094797335300,5.763335205078125,-1.4869747161865234,-1.24209725856781,-0.4137217104434967
1772811094807215600,5.773215576171875,-1.5397052764892578,-1.5009562969207764,-0.3844269812107086
1772811094817096000,5.783095947265625,-1.6174695491790771,-1.771000623703003,-0.3572627604007721
1772811094826976300,5.792976318359375,-1.7160063982009888,-2.0415775775909424,-0.34607750177383423
1772811094836856600,5.802856689453125,-1.8299895524978638,-2.3089587688446045,-0.35406696796417236
1772811094846737000,5.81273681640625,-1.950896978378296,-2.5411860942840576,-0.36951327323913574
1772811094856617200,5.8226171875,-2.048901319503784,-2.713758945465088,-0.37856802344322205
1772811094866497500,5.83249755859375,-2.118143320083618,-2.8085672855377197,-0.370045930147171
1772811094876377900,5.8423779296875,-2.1762001514434814,-2.8202850818634033,-0.3332943320274353
1772811094886258400,5.852258544921875,-2.218278169631958,-2.7446515560150146,-0.2810963988304138
1772811094896138800,5.862138671875,-2.2603559494018555,-2.5864598751068115,-0.2251700758934021
1772811094906019000,5.87201904296875,-2.2992382049560547,-2.3638198375701904,-0.1639174222946167
1772811094915899400,5.8818994140625,-2.348240375518799,-2.0964386463165283,-0.09467529505491257
1772811094925779700,5.89177978515625,-2.3940465450286865,-1.787512183189392,-0.021704744547605515
1772811094935660000,5.901659912109375,-2.4238739013671875,-1.4514214992523193,0.048602648079395294
1772811094945540400,5.911540283203125,-2.4244065284729004,-1.107208251953125,0.11198582500219345
1772811094955420700,5.921420654296875,-2.3988401889801025,-0.779639720916748,0.1620532125234604
1772811094965301000,5.931301025390625,-2.357827663421631,-0.4946817457675934,0.19241322576999664
1772811094975181300,5.941181396484375,-2.3056297302246094,-0.2395511418581009,0.199337437748909
1772811094985061600,5.9510615234375,-2.23905086517334,-0.030759483575820923,0.1849563866853714
1772811094994942200,5.960942138671875,-2.1607539653778076,0.11944267153739929,0.15459637343883514
1772811095004822500,5.970822509765625,-2.0813918113708496,0.21531638503074646,0.12157320231199265
1772811095014702800,5.980702880859375,-1.9967032670974731,0.2664490342140198,0.08894950151443481
1772811095024583200,5.990583251953125,-1.9098843336105347,0.27656903862953186,0.06817686557769775
1772811095034463500,6.00046337890625,-1.8299895524978638,0.22903165221214294,0.06671212613582611
1772811095044343800,6.01034375,-1.7644758224487305,0.14061477780342102,0.08428897708654404
1772811095054224100,6.02022412109375,-1.7128106355667114,0.026098955422639847,0.11784477531909943
1772811095064104400,6.0301044921875,-1.6595474481582642,-0.12516845762729645,0.16418373584747314
1772811095073984800,6.03998486328125,-1.611077904701233,-0.28495800495147705,0.20945744216442108
1772811095083865000,6.049864990234375,-1.5674021244049072,-0.44954121112823486,0.24993745982646942
1772811095093745400,6.059745361328125,-1.5247915983200073,-0.5976128578186035,0.265383780002594
1772811095103625700,6.069625732421875,-1.4805831909179688,-0.7158570885658264,0.24887219071388245
1772811095113506000,6.079506103515625,-1.434776782989502,-0.7861644625663757,0.19347849488258362
1772811095123386400,6.089386474609375,-1.3916336297988892,-0.8064044713973999,0.10293108969926834
1772811095133266700,6.0992666015625,-1.3543493747711182,-0.7797728776931763,-0.01531316339969635
1772811095143147000,6.10914697265625,-1.3106735944747925,-0.7227813005447388,-0.13622057437896729
1772811095153027600,6.119027587890625,-1.258475661277771,-0.6290380954742432,-0.2581932544708252
1772811095162908000,6.128907958984375,-1.191896677017212,-0.4958801567554474,-0.37377434968948364
1772811095172788200,6.138788330078125,-1.1162630319595337,-0.3403517007827759,-0.48615965247154236
1772811095182668500,6.14866845703125,-1.035302996635437,-0.16671374440193176,-0.5926859974861145
1772811095192548900,6.158548828125,-0.947418749332428,0.00426105409860611,-0.6789723634719849
1772811095202429200,6.16842919921875,-0.8542081713676453,0.16831164062023163,-0.7242460250854492
1772811095212309500,6.1783095703125,-0.7524755001068115,0.33182957768440247,-0.7157239317893982
1772811095222189800,6.18818994140625,-0.6406228542327881,0.48309701681137085,-0.6592649817466736
1772811095232070100,6.198070068359375,-0.5223786234855652,0.6077328324317932,-0.5745764970779419
1772811095241950500,6.207950439453125,-0.4243743419647217,0.6988128423690796,-0.47710490226745605
1772811095251830800,6.217830810546875,-0.3391532599925995,0.7664570808410645,-0.40573224425315857
1772811095261711000,6.227711181640625,-0.2443448156118393,0.8106655478477478,-0.38868802785873413
1772811095271591400,6.23759130859375,-0.12503530085086823,0.8378297686576843,-0.41691750288009644
1772811095281471700,6.2474716796875,0.015046847052872181,0.8586024045944214,-0.4600606858730316
1772811095291352000,6.25735205078125,0.1759016364812851,0.8676571249961853,-0.49201858043670654
1772811095301232400,6.267232421875,0.3553985357284546,0.8474171161651611,-0.4941491186618805
1772811095311113000,6.277113037109375,0.546613335609436,0.7861644625663757,-0.44940805435180664
1772811095320993300,6.2869931640625,0.7298386693000793,0.6902907490730286,-0.3338269591331482
1772811095330873600,6.29687353515625,0.8986829519271851,0.5613938570022583,-0.14154689013957977
1772811095340754000,6.30675390625,1.0563418865203857,0.3946801424026489,0.11358372122049332
1772811095350634200,6.31663427734375,1.2022830247879028,0.2034653276205063,0.4145206809043884
1772811095360514600,6.3265146484375,1.3381041288375854,0.018109479919075966,0.7399587035179138
1772811095370395000,6.336394775390625,1.4563484191894531,-0.15393057465553284,1.0542113780975342
1772811095380275200,6.346275146484375,1.5452978610992432,-0.3025348484516144,1.3365062475204468
1772811095390155500,6.356155517578125,1.5943000316619873,-0.4186485707759857,1.5841799974441528
1772811095400035800,6.366035888671875,1.600158929824829,-0.49854332208633423,1.7940369844436646
1772811095409916200,6.375916259765625,1.5516895055770874,-0.5336970090866089,1.9586201906204224
1772811095419796500,6.38579638671875,1.452620029449463,-0.5305012464523315,2.07686448097229
1772811095429676800,6.3956767578125,1.3290493488311768,-0.4990759491920471,2.1295950412750244
1772811095439557000,6.40555712890625,1.2076094150543213,-0.4298338294029236,2.0992348194122314
1772811095449437400,6.4154375,1.1143988370895386,-0.3339601159095764,1.9959043264389038
1772811095459317800,6.42531787109375,1.06273353099823,-0.23489060997962952,1.838778018951416
1772811095469198300,6.4351982421875,1.0355693101882935,-0.13209268450737,1.6278557777404785
1772811095479078400,6.445078369140625,1.0233187675476074,-0.02024000696837902,1.3546156883239746
1772811095488959000,6.454958984375,1.000948190689087,0.08362318575382233,1.0142639875411987
1772811095498839600,6.464839599609375,0.9503481984138489,0.17310532927513123,0.622247040271759
1772811095508721200,6.47472119140625,0.8587355613708496,0.240216925740242,0.2083921730518341
1772811095518602500,6.4846025390625,0.7474155426025391,0.29028430581092834,-0.1969406008720398
1772811095528483800,6.49448388671875,0.6323670744895935,0.36165696382522583,-0.5543364882469177
1772811095538365200,6.504365234375,0.525840699672699,0.46392226219177246,-0.8526102900505066
1772811095548246500,6.51424658203125,0.4411522448062897,0.5864275693893433,-1.107208251953125
1772811095558128000,6.524128173828125,0.38149750232696533,0.7185202240943909,-1.3479578495025635
1772811095568009500,6.534009521484375,0.34687644243240356,0.8676571249961853,-1.5876420736312866
1772811095577890800,6.543890869140625,0.330364853143692,1.012000322341919,-1.8262611627578735
1772811095587772200,6.553772216796875,0.32823431491851807,1.146223545074463,-2.044107437133789
1772811095597653500,6.563653564453125,0.3362238109111786,1.2729898691177368,-2.2209413051605225
1772811095607535000,6.57353515625,0.3543332815170288,1.3986910581588745,-2.337587594985962
1772811095617416400,6.58341650390625,0.3793669641017914,1.5185331106185913,-2.4036340713500977
1772811095627297800,6.5932978515625,0.4017375111579895,1.6213310956954956,-2.4105582237243652
1772811095637179100,6.60317919921875,0.41292276978492737,1.7246615886688232,-2.351968765258789
1772811095647060700,6.613060791015625,0.41824910044670105,1.8162742853164673,-2.2395834922790527
1772811095656942000,6.622942138671875,0.4209122359752655,1.85941743850708,-2.1021645069122314
1772811095666823400,6.632823486328125,0.4123901426792145,1.8684722185134888,-1.955157995223999
1772811095676704800,6.642704833984375,0.3926827609539032,1.867406964302063,-1.811347484588623
1772811095686586000,6.652586181640625,0.3783017098903656,1.8487648963928223,-1.6760590076446533
1772811095696467700,6.6624677734375,0.39001959562301636,1.805088996887207,-1.5301178693771362
1772811095706349000,6.67234912109375,0.4251733124256134,1.7427711486816406,-1.358077883720398
1772811095716230400,6.68223046875,0.48908910155296326,1.6804531812667847,-1.1759177446365356
1772811095726111700,6.69211181640625,0.5743101835250854,1.6037542819976807,-1.0081387758255005
1772811095735993300,6.701993408203125,0.6568681001663208,1.5020215511322021,-0.8739155530929565
1772811095745874700,6.711874755859375,0.7362302541732788,1.3997563123703003,-0.7689871191978455
1772811095755756000,6.721756103515625,0.8209186792373657,1.3156003952026367,-0.6874944567680359
1772811095765637400,6.731637451171875,0.9221187233924866,1.2207920551300049,-0.6257091760635376
1772811095775519000,6.74151904296875,1.0345040559768677,1.1275814771652222,-0.5799028277397156
1772811095785400300,6.751400390625,1.1442261934280396,1.0530129671096802,-0.5468796491622925
1772811095795281700,6.76128173828125,1.2523504495620728,0.9981518983840942,-0.5133238434791565
1772811095805163000,6.7711630859375,1.3540830612182617,0.9491497874259949,-0.4787027835845947
1772811095815044400,6.78104443359375,1.4435652494430542,0.9012129306793213,-0.4318312108516693
1772811095824926000,6.790926025390625,1.5218621492385864,0.8559392690658569,-0.37750276923179626
1772811095834807300,6.800807373046875,1.587908387184143,0.7797728776931763,-0.31305432319641113
1772811095844688600,6.810688720703125,1.6443674564361572,0.684431791305542,-0.22303955256938934
1772811095854570000,6.820570068359375,1.6976306438446045,0.5811012387275696,-0.10586056113243103
1772811095864451600,6.83045166015625,1.7476979494094849,0.47297701239585876,0.03795001283288002
1772811095874333000,6.8403330078125,1.8030916452407837,0.35526537895202637,0.2089248150587082
1772811095884214300,6.85021435546875,1.8691380023956299,0.23435798287391663,0.40013960003852844
1772811095894095600,6.860095703125,1.9367822408676147,0.11504846066236496,0.6190512776374817
1772811095903977200,6.869977294921875,2.0102853775024414,0.02077263966202736,0.8379629254341125
1772811095913858600,6.879858642578125,2.086451768875122,-0.066046342253685,1.0387650728225708
1772811095923740000,6.889739990234375,2.1594223976135254,-0.13848425447940826,1.213468313217163
1772811095933621200,6.899621337890625,2.2025654315948486,-0.2034653276205063,1.3455610275268555
1772811095953384200,6.91938427734375,2.1530306339263916,-0.31318747997283936,1.3439631462097168
1772811095963265500,6.929265625,2.1146812438964844,-0.33182957768440247,1.2257188558578491
1772811095973147000,6.93914697265625,2.1104202270507812,-0.3355579972267151,1.0787124633789062
1772811095983028200,6.9490283203125,2.1349213123321533,-0.3201116919517517,0.9439566135406494
1772811095992909800,6.958909912109375,2.1679444313049316,-0.29933905601501465,0.8209186792373657
1772811096002790700,6.968790771484375,2.190847635269165,-0.2790990471839905,0.7037397027015686
1772811096012671700,6.978671630859375,2.1791296005249023,-0.2743053436279297,0.5865607261657715
1772811096022552800,6.988552734375,2.1226706504821777,-0.2838927209377289,0.47044700384140015
1772811096032434000,6.998433837890625,2.02306866645813,-0.3243727385997772,0.35646381974220276
1772811096042314800,7.008314697265625,1.8584853410720825,-0.38882118463516235,0.2504700720310211
1772811096052195800,7.01819580078125,1.6219968795776367,-0.4538022577762604,0.1476721614599228
1772811096062077000,7.028076904296875,1.3311799764633179,-0.5241096615791321,0.05392896756529808
1772811096071958000,7.0379580078125,0.9844366312026978,-0.5949496626853943,-0.02756369300186634
1772811096081838800,7.0478388671875,0.5860280990600586,-0.6396907567977905,-0.10479529947042465
1772811096091720000,7.057719970703125,0.1759016364812851,-0.6663223505020142,-0.18415743112564087
1772811096101601000,7.06760107421875,-0.21931113302707672,-0.6902907490730286,-0.27044376730918884
1772811096111481900,7.07748193359375,-0.595349133014679,-0.7329013347625732,-0.3439469635486603
1772811096121363000,7.087363037109375,-0.9479513764381409,-0.7669897079467773,-0.4004059135913849
1772811096131244000,7.097244140625,-1.2568777799606323,-0.7866970896720886,-0.45473435521125793
1772811096141125000,7.107125,-1.50668203830719,-0.8064044713973999,-0.5255743861198425
1772811096151006000,7.117005859375,-1.7170716524124146,-0.8245139718055725,-0.6123933792114258
1772811096160887000,7.126886962890625,-1.891242265701294,-0.8372971415519714,-0.6981470584869385
1772811096170768100,7.13676806640625,-2.029726505279541,-0.8410255312919617,-0.7689871191978455
1772811096190530000,7.156530029296875,-2.2252023220062256,-0.8420908451080322,-0.816923975944519
1772811096200411100,7.1664111328125,-2.2859222888946533,-0.8612655401229858,-0.792422890663147
1772811096210292200,7.176292236328125,-2.3311960697174072,-0.9108003377914429,-0.7317028641700745
1772811096220173000,7.186173095703125,-2.3535666465759277,-0.9848361015319824,-0.6395576000213623
1772811096230054100,7.19605419921875,-2.3503708839416504,-1.0918951034545898,-0.5239765048027039
1772811096239935200,7.205935302734375,-2.332793951034546,-1.2351731061935425,-0.40573224425315857
1772811096249816000,7.215816162109375,-2.302433967590332,-1.3986910581588745,-0.29441219568252563
1772811096259697200,7.225697265625,-2.252899169921875,-1.5600783824920654,-0.19534270465373993
1772811096269578200,7.235578125,-2.1799285411834717,-1.715606927871704,-0.09893634915351868
1772811096279459300,7.245459228515625,-2.0728697776794434,-1.8562216758728027,0.001731053227558732
1772811096289340400,7.25534033203125,-1.942907452583313,-1.9558237791061401,0.10239845514297485
1772811096299221200,7.26522119140625,-1.803890585899353,-2.018674373626709,0.19241322576999664
1772811096309102300,7.275102294921875,-1.6803200244903564,-2.043708086013794,0.2707100808620453
1772811096318983400,7.2849833984375,-1.5892400741577148,-2.0255985260009766,0.3356911540031433
1772811096328864300,7.2948642578125,-1.5338462591171265,-1.9675416946411133,0.3873564600944519
1772811096338745300,7.304745361328125,-1.5040189027786255,-1.872733235359192,0.41931435465812683
1772811096348626400,7.31462646484375,-1.5008231401443481,-1.737977385520935,0.4257059395313263
1772811096358507300,7.32450732421875,-1.531183123588562,-1.564339518547058,0.40812909603118896
1772811096368388400,7.334388427734375,-1.5865768194198608,-1.3502215147018433,0.36232274770736694
1772811096378269400,7.34426953125,-1.6563515663146973,-1.1227877140045166,0.2984069585800171
1772811096388150500,7.354150634765625,-1.731985330581665,-0.9017455577850342,0.22650165855884552
1772811096398031600,7.364031494140625,-1.80708646774292,-0.6940191984176636,0.15566162765026093
1772811096407912400,7.373912353515625,-1.8646106719970703,-0.5091959834098816,0.09600687772035599
1772811096417793500,7.38379345703125,-1.9061559438705444,-0.36059170961380005,0.05392896756529808
1772811096427674600,7.393674560546875,-1.9279937744140625,-0.25193482637405396,0.0294279046356678
1772811096437555500,7.403555419921875,-1.9439728260040283,-0.16724637150764465,0.02143842913210392
1772811096447436500,7.4134365234375,-1.9487664699554443,-0.10120003670454025,0.023036323487758636
1772811096457317600,7.423317626953125,-1.950364351272583,-0.06391581147909164,0.031025800853967667
1772811096467198500,7.433198486328125,-1.9445054531097412,-0.05379580706357956,0.044341593980789185
1772811096477079600,7.44307958984375,-1.9317222833633423,-0.043143171817064285,0.05978791415691376
1772811096486960600,7.452960693359375,-1.907753825187683,-0.030892642214894295,0.06990791857242584
1772811096496841500,7.462841552734375,-1.866208553314209,-0.03994738310575485,0.07736476510763168
1772811096506722300,7.472722412109375,-1.8124127388000488,-0.05752423033118248,0.09494160860776901
1772811096516603100,7.48260302734375,-1.7500947713851929,-0.07190528512001038,0.11145319789648056
1772811096526484000,7.49248388671875,-1.695233702659607,-0.06551370769739151,0.10719214379787445
1772811096536364800,7.50236474609375,-1.6462316513061523,-0.052197910845279694,0.09014792740345001
1772811096546245600,7.51224560546875,-1.592968463897705,-0.023435797542333603,0.07044055312871933
1772811096556126200,7.522126220703125,-1.5274547338485718,0.03355580195784569,0.052863702178001404
1772811096566007000,7.532007080078125,-1.4411684274673462,0.10599371790885925,0.03848264366388321
1772811096575888000,7.541887939453125,-1.3314462900161743,0.18269269168376923,0.028895273804664612
1772811096585768700,7.551768798828125,-1.1892335414886475,0.2599242925643921,0.01344895176589489
1772811096595649500,7.5616494140625,-1.0326398611068726,0.3355579972267151,-0.010519477538764477
1772811096605530400,7.5715302734375,-0.8675239682197571,0.4005391001701355,-0.042477384209632874
1772811096615411000,7.581410888671875,-0.6976144313812256,0.44581279158592224,-0.07603318244218826
1772811096625291800,7.591291748046875,-0.5303680896759033,0.4772380590438843,-0.09946898370981216
1772811096635172600,7.601172607421875,-0.3721764385700226,0.5081307291984558,-0.10053424537181854
1772811096654934300,7.620934326171875,-0.10213214159011841,0.5464801788330078,-0.02010684832930565
1772811096664815000,7.630815185546875,-0.017443690448999405,0.5251749157905579,0.05339633300900459
1772811096674695700,7.64069580078125,0.0294279046356678,0.49215173721313477,0.08162581920623779
1772811096684576500,7.650576416015625,0.08056055754423141,0.4612590968608856,0.03795001283288002
1772811096694457300,7.660457275390625,0.17696690559387207,0.41651803255081177,-0.04034685716032982
1772811096704338200,7.670338134765625,0.3447459042072296,0.37071171402931213,-0.09201213717460632
1772811096714219000,7.680218994140625,0.5567333698272705,0.32810115814208984,-0.09094687551259995
1772811096724099800,7.690099853515625,0.786297619342804,0.27110958099365234,-0.04940159618854523
1772811096733980400,7.69998046875,1.0174598693847656,0.1842905879020691,0.027830010280013084
1772811096743861200,7.709861328125,1.2395672798156738,0.066046342253685,0.1524658352136612
1772811096753742000,7.7197421875,1.44463050365448,-0.07829686999320984,0.34314802289009094
1772811096763623000,7.729622802734375,1.620931625366211,-0.2551306188106537,0.5945501923561096
1772811096773503700,7.739503662109375,1.759415864944458,-0.43675804138183594,0.8848345279693604
1772811096783384300,7.74938427734375,1.855822205543518,-0.6072002053260803,1.1937609910964966
1772811096793265200,7.75926513671875,1.9096180200576782,-0.7398255467414856,1.5064157247543335
1772811096803146000,7.76914599609375,1.9314559698104858,-0.8351665735244751,1.818537950515747
1772811096813026800,7.77902685546875,1.9128137826919556,-0.8926908373832703,2.1082897186279297
1772811096822907600,7.78890771484375,1.8579527139663696,-0.9038761258125305,2.3421149253845215
1772811096832788500,7.79878857421875,1.7636768817901611,-0.8745813369750977,2.4901866912841797
1772811096842669000,7.8086689453125,1.642769455909729,-0.8053392171859741,2.5311992168426514
1772811096852550000,7.8185498046875,1.5213295221328735,-0.6993455290794373,2.4624898433685303
1772811096862430700,7.8284306640625,1.4142705202102661,-0.5432844161987305,2.2883191108703613
1772811096872311600,7.8383115234375,1.3327778577804565,-0.35526537895202637,2.0188076496124268
1772811096882192400,7.8481923828125,1.2693946361541748,-0.1507347822189331,1.6688684225082397
1772811096892073200,7.8580732421875,1.2108051776885986,0.06977476179599762,1.2331756353378296
1772811096901953800,7.867953857421875,1.1309103965759277,0.2822948396205902,0.7175881266593933
1772811096911834600,7.877834716796875,1.0233187675476074,0.4442148804664612,0.15939006209373474
1772811096921715500,7.887715576171875,0.874181866645813,0.5613938570022583,-0.3988080322742462
1772811096931596300,7.89759619140625,0.7005439400672913,0.6514086723327637,-0.901612401008606
1772811096941477000,7.90747705078125,0.5226449370384216,0.7163897156715393,-1.3154672384262085
1772811096951358000,7.91735791015625,0.3591269552707672,0.772316038608551,-1.6552863121032715
1772811096961238500,7.927238525390625,0.20466375350952148,0.814393937587738,-1.945038080215454
1772811096971119400,7.937119384765625,0.08855003118515015,0.872983455657959,-2.2097561359405518
1772811096981000200,7.947000244140625,0.02197105996310711,0.9507476687431335,-2.441450834274292
1772811096990881000,7.956881103515625,0.008122634142637253,1.0551434755325317,-2.633730888366699
1772811097000761900,7.966761962890625,0.044341593980789185,1.1808446645736694,-2.778606653213501
1772811097010642700,7.976642578125,0.11145319789648056,1.3177310228347778,-2.8766109943389893
1772811097020523500,7.9865234375,0.19720691442489624,1.4572805166244507,-2.9261457920074463
1772811097030404400,7.996404296875,0.27337324619293213,1.5856447219848633,-2.9288089275360107
1772811097040285400,8.006285400390626,0.3356911540031433,1.6969647407531738,-2.8846004009246826
1772811097050166300,8.016166259765624,0.3873564600944519,1.7608805894851685,-2.7903246879577637
1772811097060047000,8.026047119140625,0.41931435465812683,1.795501708984375,-2.640655040740967
1772811097069928000,8.035927978515625,0.4384891092777252,1.8269269466400146,-2.4478423595428467
1772811097089689900,8.05568994140625,0.4400869905948639,1.838112235069275,-1.9785938262939453
1772811097099570700,8.06557080078125,0.4347606897354126,1.8093501329421997,-1.7042884826660156
1772811097109451500,8.075451416015625,0.44594594836235046,1.766206979751587,-1.4246567487716675
1772811097119332600,8.08533251953125,0.47470805048942566,1.703356385231018,-1.1647324562072754
1772811097129213400,8.09521337890625,0.5093291401863098,1.6128089427947998,-0.9410271644592285
1772811097139094300,8.10509423828125,0.5460807085037231,1.5014889240264893,-0.7439534068107605
1772811097148975000,8.11497509765625,0.5998765230178833,1.3789836168289185,-0.5548691153526306
1772811097158856000,8.12485595703125,0.6845649480819702,1.2650004625320435,-0.3625890612602234
1772811097168737000,8.134737060546875,0.7846997380256653,1.1270488500595093,-0.1591237336397171
1772811097178617900,8.144617919921876,0.89495450258255,0.9805750846862793,0.04540685936808586
1772811097188498700,8.154498779296874,1.007872462272644,0.8410255312919617,0.231827974319458
1772811097198379500,8.164379638671875,1.1085398197174072,0.7062697410583496,0.3772364556789398
1772811097208260600,8.174260498046875,1.184706211090088,0.5848296880722046,0.49920910596847534
1772811097218141400,8.184141357421876,1.2544809579849243,0.48416227102279663,0.6211817860603333
1772811097228022300,8.194022216796874,1.3162662982940674,0.4186485707759857,0.7628618478775024
1772811097237903000,8.203903076171875,1.3817799091339111,0.33822116255760193,0.9269124269485474
1772811097247784200,8.2137841796875,1.4510220289230347,0.25726112723350525,1.1197251081466675
1772811097257665000,8.2236650390625,1.5191988945007324,0.1784316450357437,1.3269188404083252
1772811097267545900,8.2335458984375,1.5841799974441528,0.10492845624685287,1.5325146913528442
1772811097277426700,8.2434267578125,1.6417042016983032,0.027164220809936523,1.7391759157180786
1772811097287307500,8.2533076171875,1.6981632709503174,-0.047404225915670395,1.9410432577133179
1772811097297188600,8.263188720703125,1.7492958307266235,-0.13741900026798248,2.1391823291778564
1772811097307069400,8.2730693359375,1.7998958826065063,-0.22956429421901703,2.3362560272216797
1772811097316950300,8.2829501953125,1.876062273979187,-0.3211769461631775,2.533329725265503
1772811097326831000,8.2928310546875,1.9719359874725342,-0.38988643884658813,2.6947171688079834
1772811097336712200,8.302712158203125,2.0885822772979736,-0.4516717195510864,2.8044393062591553
1772811097346593000,8.312593017578125,2.2142834663391113,-0.5182507038116455,2.859300374984741
1772811097356473900,8.322473876953126,2.34371280670166,-0.5826991200447083,2.855571985244751
1772811097376235800,8.34223583984375,2.5940499305725098,-0.6189181208610535,2.6361277103424072
1772811097386116600,8.35211669921875,2.672879457473755,-0.6503433585166931,2.4161508083343506
1772811097395997400,8.36199755859375,2.691521406173706,-0.7089328765869141,2.150367498397827
1772811097405878300,8.371878173828126,2.672879457473755,-0.7824360728263855,1.861148476600647
1772811097415759000,8.381759033203124,2.661694049835205,-0.8458192348480225,1.5804516077041626
1772811097425640200,8.39164013671875,2.6260077953338623,-0.9427582025527954,1.2970914840698242
1772811097435521000,8.40152099609375,2.533329725265503,-1.1078740358352661,1.0014808177947998
1772811097445401900,8.41140185546875,2.359159231185913,-1.3459604978561401,0.7420892119407654
1772811097455282700,8.42128271484375,2.100832939147949,-1.5888406038284302,0.5498091578483582
1772811097465163800,8.431163818359375,1.7871127128601074,-1.800295352935791,0.42304277420043945
1772811097475044600,8.441044677734375,1.439304232597351,-1.976063847541809,0.31491851806640625
1772811097484925400,8.450925537109375,1.042493462562561,-2.107623815536499,0.19560901820659637
1772811097494806300,8.46080615234375,0.5988112688064575,-2.1800618171691895,0.03475422412157059
1772811097504687000,8.47068701171875,0.12050793319940567,-2.176333427429199,-0.17084163427352905
1772811097514568000,8.48056787109375,-0.3615238070487976,-2.073002815246582,-0.4089280366897583
1772811097524448500,8.490448486328125,-0.8227829337120056,-1.897234320640564,-0.670982837677002
1772811097534329300,8.500329345703125,-1.2377030849456787,-1.6623437404632568,-0.9522124528884888
1772811097544210200,8.510210205078126,-1.5919032096862793,-1.4098762273788452,-1.248355746269226
1772811097554090800,8.5200908203125,-1.883252739906311,-1.162735104560852,-1.5413031578063965
1772811097563971600,8.5299716796875,-2.1058928966522217,-0.918789803981781,-1.8108148574829102
1772811097573852400,8.539852294921875,-2.292314052581787,-0.6823012828826904,-2.054760217666626
1772811097583733200,8.549733154296876,-2.476604461669922,-0.46019384264945984,-2.2507686614990234
1772811097593613800,8.55961376953125,-2.675808906555176,-0.2498043030500412,-2.3951117992401123
1772811097603494700,8.56949462890625,-2.8803393840789795,-0.07723160833120346,-2.4947140216827393
1772811097613375500,8.57937548828125,-3.0582385063171387,0.043675802648067474,-2.5570318698883057
1772811097623256000,8.589256103515625,-3.1866025924682617,0.14008215069770813,-2.5783371925354004
1772811097633137000,8.599136962890626,-3.235604763031006,0.24341271817684174,-2.571413040161133
1772811097643017700,8.609017822265624,-3.2036468982696533,0.3334274888038635,-2.5373246669769287
1772811097652898300,8.618898193359374,-3.0875332355499268,0.4282359480857849,-2.466484546661377
1772811097662779100,8.628779052734375,-2.888328790664673,0.5310338735580444,-2.377002477645874
1772811097672660000,8.638659912109375,-2.645981550216675,0.663126528263092,-2.2960424423217773
1772811097682540800,8.648540771484376,-2.4094929695129395,0.7882950305938721,-2.2299959659576416
1772811097692421400,8.65842138671875,-2.2166802883148193,0.8932234644889832,-2.1650149822235107
1772811097702302200,8.66830224609375,-2.128263473510742,1.0104024410247803,-2.0973706245422363
1772811097712183000,8.67818310546875,-2.198570728302002,1.208008885383606,-1.99989914894104
1772811097722063600,8.688063720703125,-2.4201455116271973,1.4290510416030884,-1.8395769596099854
1772811097731944400,8.6979443359375,-2.7604973316192627,1.594699501991272,-1.5823158025741577
1772811097741825300,8.7078251953125,-3.1573078632354736,1.6927037239074707,-1.2472903728485107
1772811097751705900,8.717705810546875,-3.516834259033203,1.7667396068572998,-0.8968187570571899
1772811097761586700,8.727586669921875,-3.8428049087524414,1.8588848114013672,-0.5713807344436646
1772811097771467500,8.737467529296875,-4.065977573394775,2.0655460357666016,-0.3109237849712372
1772811097781348000,8.74734814453125,-4.144274711608887,2.389918804168701,-0.1404816210269928
1772811097791229000,8.75722900390625,-4.136285305023193,2.851710557937622,-0.008388950489461422
1772811097801109800,8.76710986328125,-4.085152626037598,3.363569498062134,0.1572595238685608
1772811097810990600,8.776990478515625,-4.0702385902404785,3.923365592956543,0.3649859130382538
1772811097820871200,8.78687109375,-4.09473991394043,4.519913196563721,0.6068007349967957
1772811097830752000,8.796751953125,-4.175167083740234,5.063197612762451,0.8858997821807861
1772811097840632800,8.8066328125,-4.246007442474365,5.486639976501465,1.176716685295105
1772811097850513400,8.816513427734375,-4.2886176109313965,5.854155540466309,1.4723273515701294
1772811097860394200,8.826394287109375,-4.290748119354248,6.120471477508545,1.7157400846481323
1772811097870275000,8.836275146484375,-4.269975662231445,6.095438003540039,1.7077505588531494
1772811097880155600,8.84615576171875,-4.210853576660156,5.816339015960693,1.4414347410202026
1772811097890036500,8.856036376953124,-4.0856852531433105,5.559610366821289,1.070723056793213
1772811097899917300,8.865917236328125,-3.9908766746520996,5.57452392578125,0.8081355690956116
1772811097909798100,8.875798095703125,-3.909916639328003,5.672528266906738,0.7692534327507019
1772811097919678700,8.8856787109375,-3.800727128982544,5.643233299255371,0.8837692737579346
1772811097929559600,8.8955595703125,-3.682482957839966,5.458410263061523,1.0643314123153687
1772811097939440400,8.9054404296875,-3.597261667251587,5.210204124450684,1.2518178224563599
1772811097949321000,8.915321044921875,-3.547727108001709,4.947083950042725,1.4430326223373413
1772811097959201800,8.925201904296875,-3.503518581390381,4.643483638763428,1.6385084390640259
1772811097969082600,8.93508251953125,-3.4699628353118896,4.410723686218262,1.8291906118392944
1772811097978963200,8.944963134765626,-3.4023184776306152,4.2834248542785645,1.9985675811767578
1772811097988844000,8.954843994140624,-3.2627689838409424,4.252532005310059,2.100832939147949
1772811097998724900,8.964724853515625,-3.0332047939300537,4.265315055847168,2.0800602436065674
1772811098008605700,8.974605712890625,-2.6614277362823486,4.139614105224609,1.9160096645355225
1772811098018486500,8.984486572265626,-2.1868529319763184,4.061316967010498,1.6177358627319336
1772811098028367400,8.994367431640624,-1.7884442806243896,4.1438751220703125,1.2448935508728027
1772811098038248200,9.004248291015625,-1.5642063617706299,4.269043445587158,0.9487503170967102
1772811098048129000,9.01412890625,-1.4635388851165771,4.367580413818359,0.7170554995536804
1772811098058009900,9.024009765625,-1.3980252742767334,4.309523582458496,0.5391564965248108
1772811098067890700,9.033890625,-1.3335767984390259,4.134820461273193,0.3926827609539032
1772811098077771500,9.043771484375,-1.2526167631149292,4.001662254333496,0.26218798756599426
1772811098087652400,9.05365234375,-1.1343724727630615,3.898864507675171,0.12423636019229889
1772811098097533400,9.063533447265625,-0.9825724363327026,3.6618432998657227,-0.0739026591181755
1772811098107414300,9.073414306640625,-0.8355661034584045,3.3997886180877686,-0.3194459080696106
1772811098117295000,9.083295166015626,-0.6789723634719849,3.308708429336548,-0.519715428352356
1772811098127176000,9.093176025390624,-0.4472775161266327,3.253314733505249,-0.6507428288459778
1772811098137056800,9.103056884765625,-0.17723321914672852,3.129744291305542,-0.7572692036628723
1772811098146937600,9.1129375,0.0768321305513382,2.9348011016845703,-0.8190544843673706
1772811098156818400,9.122818359375,0.3207774758338928,2.742521047592163,-0.8094671368598938
1772811098166699300,9.13269921875,0.5599291324615479,2.63439679145813,-0.7311702370643616
1772811098176580000,9.142580078125,0.7878955602645874,2.564621925354004,-0.6065344214439392
1772811098186461000,9.1524609375,0.9732514023780823,2.485259771347046,-0.47763752937316895
1772811098196341800,9.162341796875,1.1197251081466675,2.3036322593688965,-0.34980592131614685
1772811098206222600,9.17222265625,1.2416977882385254,2.072470188140869,-0.2209090292453766
1772811098216103400,9.182103515625,1.3295820951461792,1.8210680484771729,-0.09414266049861908
1772811098225984300,9.191984375,1.3663336038589478,1.5883078575134277,0.0022636849898844957
1772811098235865000,9.201864990234375,1.3551483154296875,1.3757878541946411,0.07416897267103195
1772811098245746000,9.211745849609375,1.2901673316955566,1.1653982400894165,0.13701951503753662
1772811098255626800,9.221626708984376,1.1431609392166138,0.8447539806365967,0.22383849322795868
1772811098265507600,9.231507568359374,0.9343692660331726,0.3105243146419525,0.3404848575592041
1772811098275388400,9.241388427734375,0.7303712964057922,-0.12942951917648315,0.5119922757148743
1772811098295150000,9.261150146484376,0.3026680052280426,-0.40373486280441284,0.7516765594482422
1772811098305031000,9.271031005859374,0.1476721614599228,-0.2029327005147934,0.7676555514335632
1772811098314911700,9.280911865234375,0.08215844631195068,0.08894950151443481,0.731436550617218
1772811098324792600,9.29079248046875,0.07789739221334457,0.29987168312072754,0.710663914680481
1772811098334673700,9.300673583984375,0.0720384493470192,0.36485275626182556,0.7538071274757385
1772811098344554500,9.310554443359376,0.040080539882183075,0.26684850454330444,0.8294408321380615
1772811098354435300,9.320435302734374,-0.013182636350393295,0.08096002787351608,0.9045419096946716
1772811098364316200,9.330316162109375,-0.08775108307600021,-0.09161266684532166,0.9604682326316833
1772811098374197000,9.340197021484375,-0.1820269078016281,-0.2173137664794922,0.9727187752723694
1772811098384077800,9.350077880859375,-0.2858901023864746,-0.24714113771915436,0.9146618843078613
1772811098393958700,9.359958740234376,-0.3940143585205078,-0.16405057907104492,0.7607313394546509
1772811098403839500,9.369839599609374,-0.4749743640422821,-0.050600018352270126,0.5530049204826355
1772811098413720300,9.37972021484375,-0.47923544049263,0.02503369376063347,0.39055225253105164
1772811098423601200,9.38960107421875,-0.399873286485672,0.08681897819042206,0.3042658865451813
1772811098433482000,9.39948193359375,-0.25073641538619995,0.13901689648628235,0.2563290297985077
1772811098443362800,9.40936279296875,-0.08135949820280075,0.141680046916008,0.19667427241802216
1772811098453243600,9.41924365234375,0.060320548713207245,0.12889689207077026,0.14181320369243622
1772811098463124500,9.42912451171875,0.13701951503753662,0.12037477642297745,0.10825740545988083
1772811098473005300,9.43900537109375,0.16418373584747314,0.11185266822576523,0.07789739221334457
1772811098482886100,9.44888623046875,0.15033531188964844,0.11930951476097107,0.044874224811792374
1772811098492767000,9.45876708984375,0.13648688793182373,0.14487583935260773,0.0390152782201767
1772811098502647300,9.468647216796874,0.1519332081079483,0.11611372232437134,0.06671212613582611
1772811098512527600,9.478527587890625,0.17696690559387207,0.03675159066915512,0.10612688213586807
1772811098522407700,9.48840771484375,0.18868480622768402,0.006924212910234928,0.1237037256360054
1772811098532288000,9.4982880859375,0.17217321693897247,0.07243791967630386,0.1380847841501236
1772811098542168000,9.50816796875,0.12530162930488586,0.12623372673988342,0.18868480622768402
1772811098552048000,9.518048095703126,0.05392896756529808,0.16618111729621887,0.2520679831504822
1772811098561928400,9.527928466796874,-0.02756369300186634,0.17630110681056976,0.29041746258735657
1772811098571808500,9.53780859375,-0.07177212834358215,0.23861902952194214,0.3021353781223297
1772811098581688800,9.547688720703125,-0.06058686226606369,0.27057692408561707,0.32024484872817993
1772811098591569000,9.55756884765625,0.005459475331008434,0.2119874358177185,0.33835431933403015
1772811098601449200,9.56744921875,0.08002792298793793,0.12303793430328369,0.36125749349594116
