time,seconds_elapsed,z,y,x
1772811122559931400,0.350931396484375,1.5864543914794922,-0.8615026473999023,0.9167293906211853
1772811122579693600,0.370693603515625,2.0938720703125,-0.6689491271972656,1.003008246421814
1772811122599455700,0.390455810546875,1.5014276504516602,-0.4789586067199707,1.1898539066314697
1772811122619218000,0.410218017578125,0.6120338439941406,-0.4047985076904297,0.6454611420631409
1772811122638980000,0.42997998046875,0.12288379669189453,-0.7200288772583008,0.44608402252197266
1772811122658742300,0.4497421875,-1.2210993766784668,-1.4032526016235352,1.6880621910095215
1772811122678504400,0.46950439453125,-3.4932947158813477,-1.4607014656066895,1.8230425119400024
1772811122698266400,0.489266357421875,-5.247776985168457,2.0129265785217285,-4.515374183654785
1772811122718028500,0.509028564453125,-1.4803709983825684,8.228113174438477,-13.057001113891602
1772811122737790700,0.528790771484375,0.3440113067626953,-3.0162220001220703,-1.96490478515625
1772811122757553000,0.548552978515625,-3.592665672302246,-1.2533230781555176,-2.623405933380127
1772811122777315000,0.568315185546875,-4.090161323547363,-1.8652124404907227,0.2994225025177002
1772811122797077200,0.5880771484375,-1.0996179580688477,-1.2376971244812012,-0.15711092948913574
1772811122816839400,0.60783935546875,0.5531306266784668,-1.0641145706176758,-0.17016005516052246
1772811122836601600,0.6276015625,-1.4482955932617188,-1.1916356086730957,1.1841020584106445
1772811122856363500,0.647363525390625,-3.358126640319824,-1.8759870529174805,2.1615123748779297
1772811122876125700,0.667125732421875,-4.06308650970459,-0.5008068084716797,0.7243313789367676
1772811122895888000,0.686887939453125,-3.81282114982605,-0.42421627044677734,-0.021718502044677734
1772811122915650000,0.706650146484375,-3.0659234523773193,-0.2503671646118164,-2.705253839492798
1772811122935412200,0.726412109375,-3.1434905529022217,-0.6871228218078613,-3.3704583644866943
1772811122955174400,0.74617431640625,-4.396271705627441,-0.9155175685882568,-2.281918525695801
1772811122974936600,0.7659365234375,-7.295277118682861,-1.404146671295166,-1.2096953392028809
1772811122994698500,0.785698486328125,-8.005016326904297,-2.546694040298462,-0.07536840438842773
1772811123014459400,0.80545947265625,-5.1201171875,-3.5003600120544434,0.49410343170166016
1772811123034220500,0.825220458984375,-2.7228176593780518,-5.803774833679199,0.49945831298828125
1772811123053981400,0.8449814453125,-1.1389005184173584,-7.803003311157227,0.22653579711914062
1772811123073742600,0.86474267578125,-0.9459598064422607,-8.757418632507324,0.2858085632324219
1772811123093503500,0.88450341796875,-1.4661927223205566,-10.255003929138184,0.04140663146972656
1772811123113264600,0.9042646484375,0.11326980590820312,-10.903861999511719,-0.450286865234375
1772811123133025500,0.924025634765625,1.5395232439041138,-10.910884857177734,-0.26172637939453125
1772811123152786700,0.94378662109375,1.4662877321243286,-10.92440128326416,0.16428470611572266
1772811123172547600,0.963547607421875,0.3999077081680298,-11.062512397766113,0.4855947494506836
1772811123192308700,0.983308837890625,0.12492617219686508,-10.646476745605469,0.8402318954467773
1772811123212069600,1.003069580078125,0.2830694913864136,-9.846260070800781,1.3247404098510742
1772811123231830800,1.022830810546875,-0.36103737354278564,-8.569673538208008,1.1971149444580078
1772811123251591700,1.042591796875,-1.0968879461288452,-6.6336774826049805,1.0208749771118164
1772811123271352600,1.0623525390625,-2.0101962089538574,-4.749580383300781,1.265829086303711
1772811123291113700,1.08211376953125,-2.762661933898926,-3.034315586090088,1.4735093116760254
1772811123310874600,1.10187451171875,-3.474194049835205,-1.5153803825378418,1.7983107566833496
1772811123330635800,1.1216357421875,-4.042011260986328,-0.5737957954406738,2.6008496284484863
1772811123350396700,1.141396728515625,-3.728358507156372,-0.28885602951049805,3.65144681930542
1772811123370157800,1.16115771484375,-2.735283374786377,-0.7972731590270996,3.923149585723877
1772811123389918700,1.180918701171875,-1.5933873653411865,-1.8229942321777344,3.275538444519043
1772811123409679600,1.2006796875,-0.4688291549682617,-3.092907428741455,1.65516996383667
1772811123429440800,1.220440673828125,0.6721079349517822,-3.8316574096679688,-0.26643800735473633
1772811123449201700,1.24020166015625,1.2950665950775146,-3.8206686973571777,-2.0033750534057617
1772811123468962800,1.259962890625,1.3648288249969482,-3.549502372741699,-3.1727476119995117
1772811123488723700,1.2797236328125,1.6007837057113647,-3.450380325317383,-3.5463104248046875
1772811123508484600,1.299484619140625,2.2846553325653076,-2.677685260772705,-3.4483466148376465
1772811123528245500,1.31924560546875,2.4133682250976562,-1.858464241027832,-2.7275991439819336
1772811123548006400,1.33900634765625,2.50101375579834,-1.2331781387329102,-1.9031310081481934
1772811123567767300,1.358767333984375,2.344151258468628,-0.9404802322387695,-1.2489876747131348
1772811123587528200,1.378528076171875,2.3137199878692627,-0.6037263870239258,-0.955805778503418
1772811123607288800,1.398288818359375,1.7995994091033936,-0.5904250144958496,-0.4565610885620117
1772811123627049700,1.4180498046875,0.8493764400482178,-0.6076679229736328,-0.09208011627197266
1772811123646810600,1.437810546875,-0.13684970140457153,-0.3787417411804199,0.04204559326171875
1772811123666571500,1.457571533203125,-0.7914672493934631,-0.10827064514160156,0.4665980339050293
1772811123686332400,1.47733251953125,-1.5234827995300293,-0.0770411491394043,1.3546538352966309
1772811123706093300,1.49709326171875,-2.5625898838043213,-0.014161109924316406,2.4138293266296387
1772811123725854200,1.516854248046875,-3.767937183380127,0.3512396812438965,3.275442600250244
1772811123745614800,1.53661474609375,-5.19246768951416,0.6695146560668945,4.193587779998779
1772811123765375700,1.556375732421875,-6.330119609832764,0.9363064765930176,4.824833869934082
1772811123785136600,1.57613671875,-7.04042911529541,1.172572135925293,5.442623615264893
1772811123804897500,1.5958974609375,-7.509286880493164,1.6066503524780273,5.624278545379639
1772811123824658400,1.615658447265625,-7.720758438110352,2.1050643920898438,5.985675811767578
1772811123844419300,1.63541943359375,-7.632647514343262,1.8876023292541504,6.7034912109375
1772811123864180000,1.655179931640625,-6.546092987060547,0.7896041870117188,7.028960227966309
1772811123883940900,1.67494091796875,-4.737150192260742,0.6081399917602539,6.244431018829346
1772811123903701800,1.69470166015625,-3.6503705978393555,0.020160675048828125,5.638800621032715
1772811123923462700,1.714462646484375,-2.255887269973755,-0.4896697998046875,4.787073612213135
1772811123943223600,1.7342236328125,-0.8452767729759216,-0.9846057891845703,4.322418689727783
1772811123962984400,1.753984375,0.5297339558601379,-1.5411720275878906,3.937086582183838
1772811123982745000,1.7737451171875,1.476560354232788,-2.2623372077941895,2.9800291061401367
1772811124002506200,1.79350634765625,2.4193100929260254,-2.2944159507751465,1.1178884506225586
1772811124022267600,1.813267578125,3.482635498046875,-1.9187583923339844,-0.2094249725341797
1772811124042028800,1.83302880859375,4.07748556137085,-1.7241020202636719,-0.29386425018310547
1772811124061790200,1.852790283203125,4.212398052215576,-2.267503261566162,0.17856502532958984
1772811124081551600,1.872551513671875,4.374894618988037,-2.7862515449523926,0.3516373634338379
1772811124101312800,1.892312744140625,4.418801784515381,-3.3248133659362793,-0.10030078887939453
1772811124121074200,1.91207421875,4.171324253082275,-3.7058773040771484,-0.8507981300354004
1772811124140835300,1.93183544921875,3.5804193019866943,-4.162772178649902,-1.4549288749694824
1772811124160596700,1.9515966796875,3.216017007827759,-4.601372241973877,-1.5175557136535645
1772811124180358100,1.971358154296875,3.0343916416168213,-5.058658123016357,-1.1616425514221191
1772811124200119300,1.991119384765625,2.998375654220581,-5.543299674987793,-0.5697298049926758
1772811124219880700,2.010880615234375,2.6853444576263428,-5.906983375549316,-0.025081634521484375
1772811124239641900,2.030641845703125,2.152719497680664,-5.957653999328613,0.060568809509277344
1772811124259403300,2.0504033203125,1.2534935474395752,-5.896848678588867,-0.1673879623413086
1772811124279164700,2.07016455078125,0.5462644100189209,-5.643155097961426,-0.7768878936767578
1772811124298925800,2.08992578125,0.1127464771270752,-5.194272994995117,-1.6664552688598633
1772811124318687200,2.109687255859375,-0.13508892059326172,-4.604103088378906,-2.355599880218506
1772811124338448600,2.12944873046875,-0.36792540550231934,-4.175906181335449,-2.7250924110412598
1772811124358209800,2.149209716796875,-0.4555847644805908,-3.6619207859039307,-3.203965187072754
1772811124377971200,2.16897119140625,-0.6747651100158691,-3.4534175395965576,-3.6308555603027344
1772811124397732400,2.188732421875,-0.8096835613250732,-3.47221040725708,-4.132324695587158
1772811124417493800,2.20849365234375,-1.0084943771362305,-3.5772593021392822,-4.5532755851745605
1772811124437255000,2.2282548828125,-0.8100941181182861,-3.6118059158325195,-4.874328136444092
1772811124457016300,2.248016357421875,-0.707735538482666,-3.5807764530181885,-5.039692401885986
1772811124476777700,2.26777783203125,-0.5032358169555664,-3.4523701667785645,-4.887610912322998
1772811124496539100,2.2875390625,-0.6067371368408203,-3.636570930480957,-4.3681206703186035
1772811124516301600,2.307301513671875,-0.43138623237609863,-3.9705371856689453,-3.756725788116455
1772811124536063700,2.327063720703125,0.14349365234375,-4.322338104248047,-3.495710849761963
1772811124555826000,2.346825927734375,0.7456426620483398,-4.506345272064209,-3.4751124382019043
1772811124575588400,2.36658837890625,1.2829450368881226,-4.625545501708984,-3.2447123527526855
1772811124595350500,2.3863505859375,1.1710426807403564,-5.299201011657715,-2.5929617881774902
1772811124615113000,2.406113037109375,0.9452919960021973,-6.420717239379883,-2.151333808898926
1772811124634875100,2.425875244140625,1.3315309286117554,-7.072017669677734,-2.0580220222473145
1772811124654637600,2.445637451171875,2.1517133712768555,-7.2160820960998535,-2.4516196250915527
1772811124674399700,2.465399658203125,2.7246360778808594,-6.863478183746338,-2.448728084564209
1772811124694162200,2.485162109375,2.521028518676758,-6.260185241699219,-1.8895411491394043
1772811124713924400,2.50492431640625,1.7098188400268555,-5.37570858001709,-1.275465488433838
1772811124733686500,2.5246865234375,0.6225070953369141,-3.957719087600708,-0.9727673530578613
1772811124753449000,2.544448974609375,-0.4872279167175293,-2.5371651649475098,-0.8954758644104004
1772811124773211100,2.564211181640625,-1.7058169841766357,-1.4361333847045898,-0.8722987174987793
1772811124792973600,2.5839736328125,-2.6413938999176025,-0.5619444847106934,-0.7926902770996094
1772811124812735700,2.60373583984375,-3.2040305137634277,-0.12779712677001953,-0.20985746383666992
1772811124832498200,2.623498291015625,-3.9925169944763184,0.526763916015625,-0.3638300895690918
1772811124852260400,2.64326025390625,-4.389286994934082,0.46042442321777344,-0.4864983558654785
1772811124872022800,2.663022705078125,-3.7593424320220947,-0.2799043655395508,-0.7809042930603027
1772811124891785000,2.682784912109375,-2.338139533996582,-1.3580498695373535,-1.071505069732666
1772811124911547400,2.70254736328125,-1.0753031969070435,-2.7131900787353516,-1.40907621383667
1772811124931309600,2.7223095703125,0.3015718460083008,-3.751225471496582,-2.1867451667785645
1772811124951071700,2.74207177734375,1.4223531484603882,-4.223056316375732,-2.8914074897766113
1772811124970834200,2.761834228515625,2.7578115463256836,-4.05745792388916,-3.342825412750244
1772811124990596400,2.781596435546875,3.557281017303467,-3.7976431846618652,-3.334488868713379
1772811125010358500,2.801358642578125,4.159857749938965,-3.47202730178833,-3.4260268211364746
1772811125030120700,2.82112060546875,4.369853973388672,-2.8156914710998535,-3.0925850868225098
1772811125049883000,2.8408828125,4.2052507400512695,-2.2614669799804688,-2.5012974739074707
1772811125069645300,2.860645263671875,3.2260618209838867,-1.930680274963379,-1.7531037330627441
1772811125089407500,2.880407470703125,1.8143656253814697,-1.7702884674072266,-1.4196505546569824
1772811125109169700,2.900169677734375,0.7749999761581421,-1.4512734413146973,-1.1877479553222656
1772811125128931800,2.919931884765625,-0.11049115657806396,-1.0656185150146484,-1.1308884620666504
1772811125148694000,2.939694091796875,-1.0634841918945312,-0.7267646789550781,-0.9980158805847168
1772811125168456200,2.959456298828125,-1.7869234085083008,-0.6555361747741699,-0.6726531982421875
1772811125188218400,2.97921826171875,-2.3341381549835205,-0.5890307426452637,-0.38797950744628906
1772811125207980500,2.99898046875,-2.7075233459472656,-0.6667628288269043,-0.04653358459472656
1772811125227742700,3.01874267578125,-3.019246816635132,-0.7700376510620117,0.2767219543457031
1772811125247505000,3.0385048828125,-3.3878226280212402,-0.847994327545166,0.602057933807373
1772811125267267000,3.05826708984375,-3.5998430252075195,-0.5173988342285156,0.7272782325744629
1772811125287029200,3.078029296875,-3.821423053741455,-0.34654855728149414,1.1489653587341309
1772811125306791400,3.09779150390625,-4.138375282287598,-0.6508212089538574,2.425245761871338
1772811125326553600,3.1175537109375,-4.715947151184082,-1.1880912780761719,3.8875155448913574
1772811125346315800,3.137315673828125,-4.745060920715332,-1.0561556816101074,4.20919942855835
1772811125366078000,3.157077880859375,-4.1817121505737305,-0.48642444610595703,3.989625930786133
1772811125385840000,3.176840087890625,-3.330284595489502,0.426175594329834,3.3685812950134277
1772811125405602300,3.196602294921875,-2.2022459506988525,0.9332013130187988,3.273188591003418
1772811125425364500,3.216364501953125,-1.0315349102020264,0.9068212509155273,3.459031581878662
1772811125445126700,3.236126708984375,0.25060534477233887,0.9664034843444824,2.9779367446899414
1772811125464888800,3.255888916015625,1.3508654832839966,0.9431161880493164,1.898716926574707
1772811125484651000,3.275651123046875,2.2495839595794678,1.103271484375,0.5513086318969727
1772811125504413000,3.295412841796875,2.8686604499816895,1.328620433807373,-0.49567508697509766
1772811125524174300,3.31517431640625,3.1875314712524414,0.8069634437561035,-0.5566864013671875
1772811125543936000,3.33493603515625,3.5160298347473145,0.2718348503112793,-0.46125173568725586
1772811125563697700,3.35469775390625,3.857632637023926,-0.16358041763305664,-0.588402271270752
1772811125583459000,3.374458984375,4.233480930328369,-0.3875894546508789,-0.8426456451416016
1772811125603220700,3.394220703125,4.5928874015808105,-0.7585406303405762,-0.6531343460083008
1772811125622982100,3.413982177734375,4.927561283111572,-1.7044672966003418,0.27420902252197266
1772811125642743800,3.433743896484375,4.9451003074646,-2.726682186126709,1.4543890953063965
1772811125662505200,3.453505126953125,4.175997734069824,-3.360135555267334,2.2490015029907227
1772811125682267000,3.473266845703125,3.1113734245300293,-3.3981494903564453,2.2149477005004883
1772811125702028500,3.493028564453125,1.6695325374603271,-3.2179627418518066,1.852609634399414
1772811125721790000,3.5127900390625,0.3116295337677002,-2.853545665740967,1.426724910736084
1772811125741551600,3.532551513671875,-0.8806807994842529,-2.606207847595215,1.1797914505004883
1772811125761313000,3.55231298828125,-1.6745097637176514,-2.6088199615478516,1.0737571716308594
1772811125781074700,3.57207470703125,-1.6807091236114502,-2.7760114669799805,0.9332818984985352
1772811125800836000,3.591836181640625,-1.1921157836914062,-3.139120101928711,0.576932430267334
1772811125820597800,3.61159765625,-0.2854735851287842,-3.6426587104797363,-0.00072479248046875
1772811125840359200,3.631359130859375,0.6647970676422119,-4.083595275878906,-0.9554190635681152
1772811125860120800,3.651120849609375,1.497060775756836,-4.121921539306641,-2.2185111045837402
1772811125879882500,3.670882568359375,1.692099928855896,-3.9208147525787354,-3.3738012313842773
1772811125899644000,3.690643798828125,1.6865853071212769,-3.7456109523773193,-4.026444911956787
1772811125919405600,3.710405517578125,1.3786284923553467,-3.7891528606414795,-4.30704927444458
1772811125939167000,3.7301669921875,1.2475461959838867,-4.009509086608887,-4.376387119293213
1772811125958928600,3.7499287109375,1.3957843780517578,-4.219445705413818,-4.468398094177246
1772811125978690000,3.76968994140625,1.7915133237838745,-4.307839870452881,-4.453650951385498
1772811125998451700,3.78945166015625,2.0078535079956055,-4.455241680145264,-4.175906658172607
1772811126018214000,3.8092138671875,2.315274238586426,-4.500838279724121,-3.641538143157959
1772811126037976000,3.82897607421875,2.478994369506836,-5.205202579498291,-2.679382801055908
1772811126057738200,3.84873828125,2.164276599884033,-6.444270133972168,-2.021963596343994
1772811126077500200,3.868500244140625,2.379258871078491,-6.751213550567627,-2.275233745574951
1772811126097262300,3.888262451171875,2.858605146408081,-6.694046497344971,-2.4727377891540527
1772811126117024500,3.9080244140625,2.7972869873046875,-6.141142845153809,-2.9245357513427734
1772811126136786700,3.92778662109375,2.2224302291870117,-5.6740264892578125,-2.9307608604431152
1772811126156548600,3.947548583984375,1.7524549961090088,-5.171693801879883,-2.9356303215026855
1772811126176310800,3.967310791015625,1.6079258918762207,-4.319058418273926,-3.1973071098327637
1772811126196073000,3.987072998046875,1.1097133159637451,-3.3938753604888916,-3.444305896759033
1772811126215835100,4.006835205078125,0.15021061897277832,-2.5488481521606445,-3.501842975616455
1772811126235597000,4.02659716796875,-0.6592543125152588,-1.747849464416504,-3.401458740234375
1772811126255359200,4.046359130859375,-1.367988109588623,-1.0727944374084473,-2.8619866371154785
1772811126275121400,4.066121337890625,-1.9746336936950684,-0.7541904449462891,-2.1628127098083496
1772811126294883600,4.085883544921875,-2.2623369693756104,-0.4619426727294922,-1.5979065895080566
1772811126314645800,4.105645751953125,-2.161224842071533,-0.3356480598449707,-1.1802549362182617
1772811126334407700,4.12540771484375,-1.6628048419952393,-0.8450675010681152,-0.4510979652404785
1772811126354169900,4.145169921875,-0.7752809524536133,-1.4819412231445312,0.0024166107177734375
1772811126373932000,4.16493212890625,-0.030072927474975586,-2.2569851875305176,0.37009429931640625
1772811126393694200,4.184694091796875,0.7255463600158691,-3.1361193656921387,0.5573272705078125
1772811126413456100,4.2044560546875,1.4136182069778442,-3.5254621505737305,0.20721721649169922
1772811126433218300,4.22421826171875,2.198960304260254,-3.7454662322998047,-0.33757877349853516
1772811126452980500,4.24398046875,2.9067840576171875,-3.563993453979492,-1.5124220848083496
1772811126472742700,4.26374267578125,2.739471197128296,-3.1599297523498535,-2.8752102851867676
1772811126492504600,4.283504638671875,1.8637802600860596,-2.861286163330078,-3.671715259552002
1772811126512265500,4.303265380859375,1.2295010089874268,-2.672478199005127,-3.4941391944885254
1772811126532025900,4.32302587890625,1.2816109657287598,-2.258190631866455,-3.07356595993042
1772811126551786800,4.342786865234375,1.2422502040863037,-1.9076452255249023,-2.5726380348205566
1772811126571547400,4.36254736328125,0.6560977697372437,-1.4831228256225586,-2.401881694793701
1772811126591308000,4.38230810546875,-0.5888850688934326,-1.2085332870483398,-2.449429512023926
1772811126611068700,4.402068603515625,-1.584854006767273,-0.9183387756347656,-2.278653144836426
1772811126630829300,4.421829345703125,-1.7102978229522705,-0.6706657409667969,-1.916968822479248
1772811126650590000,4.44158984375,-1.5052142143249512,-0.3776969909667969,-1.950390338897705
1772811126670350600,4.4613505859375,-1.668457269668579,-0.5384325981140137,-1.6587285995483398
1772811126690111500,4.481111572265625,-1.583949327468872,-0.8634886741638184,-0.8278617858886719
1772811126709872000,4.5008720703125,-1.3006372451782227,-1.0702424049377441,0.15538358688354492
1772811126729632800,4.5206328125,-1.3136651515960693,-1.1326894760131836,0.9050173759460449
1772811126749393400,4.540393310546875,-1.6827958822250366,-1.275498867034912,1.660545825958252
1772811126769154000,4.560154052734375,-2.546154022216797,-1.7080645561218262,2.4513769149780273
1772811126788914700,4.579914794921875,-3.0449187755584717,-1.9916090965270996,2.84307861328125
1772811126808675300,4.59967529296875,-2.4530677795410156,-1.3762307167053223,2.8460211753845215
1772811126828436200,4.619436279296875,-1.104617953300476,-0.14774227142333984,2.80106258392334
1772811126848196900,4.63919677734375,-0.3776993751525879,0.33977222442626953,3.7712464332580566
1772811126867957500,4.65895751953125,-0.464773952960968,0.2340536117553711,4.57944393157959
1772811126887718100,4.67871826171875,-0.6831142902374268,0.36052989959716797,4.580751895904541
1772811126907478800,4.698478759765625,-0.783351719379425,0.6680727005004883,4.160900592803955
1772811126927239400,4.718239501953125,-0.3753540515899658,1.3371882438659668,3.27346134185791
1772811126947000000,4.738,0.6309974789619446,1.9504804611206055,3.0700035095214844
1772811126966761000,4.757760986328125,1.5615477561950684,2.2654953002929688,3.376777172088623
1772811126986521600,4.777521484375,2.2209930419921875,2.2301788330078125,3.6808128356933594
1772811127006282500,4.797282470703125,2.4339840412139893,1.6877412796020508,3.6053667068481445
1772811127026043400,4.81704345703125,2.4111709594726562,1.009690284729004,3.115365505218506
1772811127045804300,4.83680419921875,2.3599483966827393,0.3231201171875,2.2960805892944336
1772811127065565200,4.856565185546875,2.5649867057800293,-0.41733741760253906,1.4423761367797852
1772811127085326000,4.876326171875,3.2018332481384277,-0.9760122299194336,0.8573932647705078
1772811127105087000,4.8960869140625,3.934577703475952,-1.6174249649047852,0.6596465110778809
1772811127124848000,4.91584814453125,4.321319103240967,-2.0123777389526367,0.42217206954956055
1772811127144609000,4.935609130859375,4.343053340911865,-1.9538922309875488,0.0534367561340332
1772811127164370000,4.955369873046875,4.058908462524414,-1.640221118927002,-0.1061544418334961
1772811127184130800,4.975130859375,3.7100541591644287,-1.4151034355163574,0.22367286682128906
1772811127203891700,4.9948916015625,3.3902618885040283,-1.3277854919433594,0.7895898818969727
1772811127223652600,5.014652587890625,3.2983598709106445,-1.3605217933654785,1.377511978149414
1772811127243413500,5.03441357421875,3.485586643218994,-1.5596246719360352,1.454702377319336
1772811127263174700,5.054174560546875,3.60447359085083,-1.763627529144287,0.939173698425293
1772811127282935600,5.073935546875,3.6826462745666504,-1.9583535194396973,0.44672727584838867
1772811127302696400,5.093696533203125,3.646336078643799,-2.0783982276916504,0.12711286544799805
1772811127322457300,5.113457275390625,3.544485092163086,-2.1244993209838867,0.004824161529541016
1772811127342218200,5.13321826171875,3.4435465335845947,-2.166196346282959,-0.04147529602050781
1772811127361979100,5.152979248046875,3.4456756114959717,-2.2766270637512207,-0.0416407585144043
1772811127381740300,5.172740234375,3.681797981262207,-2.3989152908325195,-0.11083078384399414
1772811127401501200,5.192501220703125,3.772834062576294,-2.5523290634155273,-0.3305182456970215
1772811127421262000,5.212261962890625,3.855374574661255,-2.6442484855651855,-0.6260018348693848
1772811127441023000,5.23202294921875,3.698211669921875,-2.6462435722351074,-0.893704891204834
1772811127460783900,5.251783935546875,3.500373601913452,-2.6121182441711426,-1.1610589027404785
1772811127480544800,5.271544677734375,3.0422582626342773,-2.574800491333008,-1.4589133262634277
1772811127500306200,5.29130615234375,2.7541284561157227,-2.6346607208251953,-1.6210074424743652
1772811127520067800,5.31106787109375,2.6679580211639404,-2.6502041816711426,-1.8190712928771973
1772811127539829500,5.33082958984375,2.8198790550231934,-2.8728504180908203,-1.8545374870300293
1772811127559591200,5.350591064453125,2.775704860687256,-3.805172920227051,-1.3394856452941895
1772811127579352800,5.370352783203125,2.6528186798095703,-4.495364189147949,-1.429664134979248
1772811127599114500,5.390114501953125,2.8008551597595215,-4.788564682006836,-1.8674721717834473
1772811127618876200,5.409876220703125,3.2720389366149902,-4.585619926452637,-2.4629054069519043
1772811127638637800,5.429637939453125,3.6795451641082764,-4.149632930755615,-2.6134142875671387
1772811127658399500,5.4493994140625,3.6421914100646973,-3.874657154083252,-2.227142333984375
1772811127678161200,5.4691611328125,3.102052688598633,-3.4886269569396973,-2.0239086151123047
1772811127697922800,5.4889228515625,2.408525228500366,-2.836251735687256,-2.140779495239258
1772811127717684500,5.5086845703125,1.3348405361175537,-2.0377392768859863,-2.1917576789855957
1772811127737446100,5.528446044921875,0.029558658599853516,-1.236670970916748,-2.0824618339538574
1772811127757207800,5.548207763671875,-1.2053866386413574,-0.5968756675720215,-1.7275691032409668
1772811127776969500,5.567969482421875,-2.4905335903167725,0.040051937103271484,-1.1830706596374512
1772811127796731100,5.587731201171875,-3.2576792240142822,0.5785384178161621,-0.6442289352416992
1772811127816492800,5.607492919921875,-3.348576307296753,0.9290566444396973,-0.18201112747192383
1772811127836254500,5.62725439453125,-2.6995041370391846,0.728236198425293,0.4666557312011719
1772811127856016100,5.64701611328125,-1.6538989543914795,-0.03204202651977539,1.1414742469787598
1772811127875777800,5.66677783203125,-0.7482266426086426,-0.730647087097168,1.1007604598999023
1772811127895539500,5.68653955078125,-0.056656837463378906,-1.3514399528503418,0.6581816673278809
1772811127915301000,5.706301025390625,0.9492027759552002,-1.9915928840637207,0.2757706642150879
1772811127935062500,5.7260625,2.251950740814209,-2.5409927368164062,0.02537393569946289
1772811127954824200,5.74582421875,3.7199416160583496,-2.5734543800354004,-0.37798166275024414
1772811127974585900,5.7655859375,4.325228691101074,-2.3015336990356445,-0.9129185676574707
1772811127994347500,5.785347412109375,4.317721843719482,-2.3050684928894043,-1.3242888450622559
1772811128014109400,5.805109375,3.930628776550293,-2.2117114067077637,-1.9191012382507324
1772811128033871000,5.82487109375,3.2499845027923584,-1.9637322425842285,-2.422506332397461
1772811128053633000,5.844633056640625,2.1850674152374268,-1.6361827850341797,-2.7999043464660645
1772811128073394700,5.864394775390625,1.2456650733947754,-1.4926905632019043,-2.8592305183410645
1772811128093156600,5.884156494140625,0.8725887537002563,-1.2527942657470703,-2.840139389038086
1772811128112918300,5.903918212890625,0.7540543079376221,-1.0901079177856445,-2.7175798416137695
1772811128132680000,5.923679931640625,0.7549488544464111,-0.926541805267334,-2.5351295471191406
1772811128152441900,5.94344189453125,0.5851861238479614,-0.9101190567016602,-2.321591854095459
1772811128172203500,5.96320361328125,0.7380771636962891,-0.7784585952758789,-2.052495002746582
1772811128191965400,5.98296533203125,0.6968721151351929,-0.6810483932495117,-1.8173532485961914
1772811128211727000,6.00272705078125,0.5711896419525146,-0.5956177711486816,-1.4117469787597656
1772811128231488800,6.02248876953125,0.2373058795928955,-0.6085543632507324,-0.8123011589050293
1772811128251250700,6.042250732421875,-0.18106842041015625,-0.6651782989501953,0.010863304138183594
1772811128271012400,6.062012451171875,-0.7377164363861084,-0.5259528160095215,0.8033618927001953
1772811128290774300,6.081774169921875,-1.3601033687591553,-0.07546567916870117,1.5591015815734863
1772811128310536000,6.101535888671875,-1.8100769519805908,0.5307879447937012,2.2903733253479004
1772811128330297900,6.1212978515625,-1.9612479209899902,1.0826120376586914,3.1731929779052734
1772811128350059500,6.1410595703125,-2.1443066596984863,0.8788728713989258,4.500573635101318
1772811128369821200,6.1608212890625,-1.8778644800186157,0.22121810913085938,5.29628324508667
1772811128389583000,6.1805830078125,-1.363682508468628,-0.34889650344848633,5.252770900726318
1772811128409344800,6.2003447265625,-0.10552787780761719,-0.24127864837646484,4.197506904602051
1772811128429106700,6.220106689453125,1.2306674718856812,0.4470195770263672,3.2926297187805176
1772811128448868400,6.239868408203125,1.8623144626617432,0.2772078514099121,3.372565746307373
1772811128468630000,6.259630126953125,2.4816298484802246,-0.0013208389282226562,3.6636252403259277
1772811128488392000,6.279391845703125,3.0709640979766846,-0.11542987823486328,3.386739730834961
1772811128508153300,6.2991533203125,3.6888039112091064,0.028215885162353516,2.5270047187805176
1772811128527915000,6.3189150390625,4.165789604187012,0.1754322052001953,1.5144147872924805
1772811128547676400,6.338676513671875,4.6940155029296875,0.3452596664428711,0.7529864311218262
1772811128567437800,6.358437744140625,5.080854415893555,0.4226851463317871,0.486142635345459
1772811128587199200,6.37819921875,5.074366569519043,0.30211639404296875,0.6155900955200195
1772811128606961000,6.3979609375,4.655808925628662,-0.026946544647216797,0.8513703346252441
1772811128626722300,6.417722412109375,4.486236572265625,-0.4686403274536133,0.837761402130127
1772811128646483700,6.437483642578125,4.499552249908447,-1.02699613571167,0.8218417167663574
1772811128666245400,6.457245361328125,4.597345352172852,-1.5567593574523926,0.7688961029052734
1772811128686006800,6.4770068359375,4.562238693237305,-1.9404520988464355,0.9726104736328125
1772811128705768200,6.496768310546875,3.8348147869110107,-2.13301944732666,1.3289923667907715
1772811128725529600,6.516529541015625,3.284388542175293,-1.9111132621765137,1.5641889572143555
1772811128745291300,6.536291259765625,3.061770439147949,-1.4910879135131836,1.774019718170166
1772811128765052700,6.556052734375,2.818192720413208,-1.2253479957580566,1.9802069664001465
1772811128784814000,6.57581396484375,2.55334210395813,-1.0679774284362793,1.966041088104248
1772811128804575700,6.59557568359375,2.0743112564086914,-1.055257797241211,1.4842777252197266
1772811128824337200,6.615337158203125,2.0093984603881836,-0.9718828201293945,0.8368568420410156
1772811128844098600,6.6350986328125,2.0774073600769043,-0.9197020530700684,0.25037622451782227
1772811128863860000,6.65485986328125,1.9771580696105957,-1.0152277946472168,-0.2010502815246582
1772811128883621600,6.67462158203125,2.053618907928467,-1.281510829925537,-0.5396161079406738
1772811128903383000,6.694383056640625,2.2520928382873535,-1.551816463470459,-0.7711696624755859
1772811128923144400,6.71414453125,2.756863594055176,-1.4154987335205078,-1.1726856231689453
1772811128942906000,6.733906005859375,2.7080154418945312,-1.2762813568115234,-1.4245243072509766
1772811128962667500,6.75366748046875,2.7818703651428223,-1.2289190292358398,-1.3993206024169922
1772811128982429000,6.773428955078125,3.279719352722168,-1.1440181732177734,-1.2660202980041504
1772811129002190800,6.79319091796875,3.6313390731811523,-1.155552864074707,-1.1358580589294434
1772811129021953300,6.812953369140625,3.740109443664551,-1.2701387405395508,-1.2018842697143555
1772811129041715700,6.8327158203125,3.730408191680908,-1.357071876525879,-1.5206303596496582
1772811129061478100,6.85247802734375,3.606806993484497,-1.5669260025024414,-1.7825474739074707
1772811129081240600,6.872240478515625,3.531479835510254,-1.6735153198242188,-1.9378461837768555
1772811129101002800,6.892002685546875,3.477365255355835,-1.5528826713562012,-2.0307722091674805
1772811129120765200,6.91176513671875,3.197425603866577,-1.3616857528686523,-1.9473118782043457
1772811129140527600,6.931527587890625,2.895307779312134,-1.1803035736083984,-1.6704645156860352
1772811129160290000,6.9512900390625,2.0599374771118164,-1.5378789901733398,-0.929713249206543
1772811129180052500,6.971052490234375,1.341113805770874,-1.9246959686279297,-0.5693655014038086
1772811129199815000,6.99081494140625,0.8425781726837158,-2.436066150665283,-0.0921635627746582
1772811129219577300,7.010577392578125,1.6309301853179932,-2.6899890899658203,0.33526134490966797
1772811129239339500,7.030339599609375,2.5360820293426514,-2.531092643737793,0.7082653045654297
1772811129259102000,7.05010205078125,3.063647985458374,-2.604343891143799,1.2188539505004883
1772811129278864400,7.069864501953125,3.31850004196167,-2.1049394607543945,1.2214841842651367
1772811129298626800,7.089626708984375,3.1566123962402344,-1.3466567993164062,0.8448677062988281
1772811129318389200,7.10938916015625,2.5698578357696533,-0.5601940155029297,0.35786008834838867
1772811129338151700,7.129151611328125,2.277432918548584,0.18116426467895508,-0.08926916122436523
1772811129357914000,7.1489140625,1.9160391092300415,0.6801528930664062,-0.24782037734985352
1772811129377676300,7.16867626953125,1.0380356311798096,0.8878903388977051,-0.07088136672973633
1772811129397438700,7.188438720703125,-0.5331399440765381,1.1287016868591309,0.11495637893676758
1772811129417201200,7.208201171875,-2.078882932662964,1.487778663635254,0.2613034248352051
1772811129436963600,7.227963623046875,-2.984978675842285,1.7125883102416992,0.6598625183105469
1772811129456726000,7.24772607421875,-2.9754183292388916,1.5195069313049316,1.2430005073547363
1772811129476488400,7.267488525390625,-2.170912265777588,0.9141225814819336,1.561960220336914
1772811129496250600,7.287250732421875,-0.8914449214935303,0.01680755615234375,1.5386176109313965
1772811129516013000,7.307012939453125,0.29043102264404297,-0.8604769706726074,1.1626601219177246
1772811129535775200,7.326775146484375,1.449022650718689,-1.3193435668945312,0.3685798645019531
1772811129555537700,7.34653759765625,2.2326128482818604,-1.266993522644043,-0.4756484031677246
1772811129575299800,7.3662998046875,2.6875460147857666,-0.9973878860473633,-0.9112677574157715
1772811129595062300,7.386062255859375,2.6328840255737305,-0.5641088485717773,-1.0272669792175293
1772811129614824400,7.405824462890625,1.6643855571746826,-0.16221952438354492,-1.2323236465454102
1772811129634587000,7.4255869140625,0.501333475112915,0.0018773078918457031,-1.4627704620361328
1772811129654349000,7.44534912109375,-0.39423227310180664,0.158905029296875,-1.619401454925537
1772811129674111500,7.465111572265625,-1.0046496391296387,0.30844974517822266,-1.5826830863952637
1772811129693873700,7.484873779296875,-1.2187482118606567,0.43697166442871094,-1.320673942565918
1772811129713636000,7.504635986328125,-1.0156577825546265,0.38434886932373047,-0.9841442108154297
1772811129733398300,7.524398193359375,-0.24797451496124268,0.29000282287597656,-0.8121542930603027
1772811129753160700,7.54416064453125,0.2993052005767822,0.18291616439819336,-0.756385326385498
1772811129772923000,7.5639228515625,0.8058397769927979,0.12177419662475586,-0.7359747886657715
1772811129792685300,7.583685302734375,1.0849740505218506,0.18965578079223633,-0.7833366394042969
1772811129812447700,7.60344775390625,1.2316807508468628,0.10653209686279297,-0.2512655258178711
1772811129832210000,7.6232099609375,1.0368479490280151,0.24585819244384766,0.34542131423950195
1772811129851972000,7.64297216796875,0.6127361059188843,0.4467592239379883,0.9907054901123047
1772811129871734500,7.662734619140625,0.1663529872894287,0.28508615493774414,1.809532642364502
1772811129891497000,7.6824970703125,-0.07727992534637451,0.25625133514404297,2.5950841903686523
1772811129911259100,7.702259033203125,-0.13806068897247314,0.588254451751709,3.1841354370117188
1772811129931021600,7.722021484375,-0.46100497245788574,0.3890700340270996,4.326897621154785
1772811129950783700,7.74178369140625,-0.6690707206726074,-0.5501947402954102,5.123915195465088
1772811129970546200,7.761546142578125,-0.180908203125,-0.801152229309082,4.45918607711792
1772811129990308400,7.781308349609375,0.8114347457885742,-0.36603355407714844,3.348928451538086
1772811130010070500,7.801070556640625,1.6610077619552612,0.3116278648376465,2.5253853797912598
1772811130029833000,7.8208330078125,1.856220006942749,0.563835620880127,2.558039665222168
1772811130049595100,7.84059521484375,2.0144379138946533,0.8300380706787109,2.7051825523376465
1772811130069357300,7.860357421875,1.8657505512237549,1.3179121017456055,2.3983826637268066
1772811130089119500,7.880119384765625,1.6540074348449707,1.7174816131591797,1.8738021850585938
1772811130108882000,7.8998818359375,1.8469005823135376,1.9923248291015625,1.4563283920288086
1772811130128644000,7.91964404296875,2.364046096801758,2.196822166442871,1.3292546272277832
1772811130148406300,7.93940625,2.793574571609497,2.3088645935058594,1.320584774017334
1772811130168168400,7.95916845703125,2.927321434020996,2.059885025024414,1.4836788177490234
1772811130187931000,7.978930908203125,2.9718737602233887,1.3677330017089844,1.836967945098877
1772811130207693000,7.998693115234375,2.8855319023132324,0.34814453125,2.269723892211914
1772811130227455200,8.018455322265625,3.1942856311798096,-0.19678926467895508,2.3073601722717285
1772811130247217400,8.038217529296874,3.6298606395721436,-0.5534181594848633,2.4600892066955566
1772811130266979800,8.057979736328125,3.9293737411499023,-0.6440181732177734,2.6745986938476562
1772811130286742000,8.077741943359374,3.8564631938934326,-0.6788334846496582,2.961153984069824
1772811130306504200,8.097504150390625,3.393188714981079,-0.7454934120178223,3.164665699005127
1772811130326266400,8.117266357421874,2.676989793777466,-0.807591438293457,3.1207022666931152
1772811130346028800,8.13702880859375,2.0827975273132324,-0.795163631439209,2.802579879760742
1772811130365791000,8.156791015625,1.816404104232788,-0.785304069519043,2.394467353820801
1772811130385553200,8.17655322265625,1.8726229667663574,-0.7978506088256836,1.9392509460449219
1772811130405315300,8.1963154296875,1.9947264194488525,-0.8966617584228516,1.4834022521972656
1772811130425077800,8.216077880859375,1.9625277519226074,-1.0415468215942383,0.9459395408630371
1772811130444840000,8.23583984375,1.9199247360229492,-1.0880565643310547,0.2671175003051758
1772811130464602000,8.25560205078125,1.8946540355682373,-1.0418834686279297,-0.48746395111083984
1772811130484364300,8.2753642578125,1.8533048629760742,-0.9435925483703613,-1.18208646774292
1772811130504125700,8.295125732421875,1.8195149898529053,-0.8363380432128906,-1.6544485092163086
1772811130523886000,8.314885986328125,1.986628770828247,-0.7501120567321777,-2.004246711730957
1772811130543646700,8.334646728515626,2.138033866882324,-0.6824736595153809,-2.171487808227539
1772811130563407000,8.354406982421875,2.253981828689575,-0.6761159896850586,-2.2816543579101562
1772811130583167700,8.374167724609375,2.422605037689209,-0.5873513221740723,-2.4008002281188965
1772811130602928000,8.39392822265625,2.5579652786254883,-0.5595130920410156,-2.356278419494629
1772811130622688500,8.4136884765625,2.542583703994751,-0.654944896697998,-2.1754565238952637
1772811130642449200,8.43344921875,2.5415639877319336,-0.72125244140625,-2.0862374305725098
1772811130662209500,8.45320947265625,2.557405471801758,-0.7222728729248047,-2.0759596824645996
1772811130681970200,8.47297021484375,2.5774405002593994,-0.6375532150268555,-2.115586757659912
1772811130701730600,8.49273046875,2.657984495162964,-0.5680394172668457,-2.079592704772949
1772811130721491200,8.5124912109375,2.4500091075897217,-0.9174394607543945,-1.592968463897705
1772811130741251600,8.53225146484375,1.6304759979248047,-1.8866000175476074,-1.0897397994995117
1772811130761012200,8.55201220703125,1.310868501663208,-2.4785561561584473,-0.8906526565551758
1772811130780772600,8.571772705078125,1.3913683891296387,-3.085291862487793,-0.6352100372314453
1772811130800533200,8.591533203125,2.025479793548584,-2.905742645263672,-0.47728443145751953
1772811130820293600,8.611293701171874,2.5890040397644043,-2.5881457328796387,0.3165149688720703
1772811130840054300,8.63105419921875,2.6659629344940186,-2.1614937782287598,1.3341965675354004
1772811130859814700,8.650814697265625,2.324199676513672,-1.285344123840332,2.1736340522766113
1772811130879575000,8.670574951171876,1.624526023864746,-0.30402660369873047,2.7594170570373535
1772811130899335700,8.690335693359375,0.496645450592041,0.8221535682678223,2.516359806060791
1772811130919096000,8.710095947265625,-1.4936856031417847,1.3596882820129395,2.2199478149414062
1772811130938856700,8.729856689453126,-3.3905959129333496,1.9537544250488281,2.0277466773986816
1772811130958617000,8.7496171875,-4.945780277252197,2.5077929496765137,1.999563217163086
1772811130978377700,8.769377685546875,-5.530257225036621,2.90830659866333,2.111415386199951
1772811130998138400,8.789138427734375,-5.131685733795166,2.929488182067871,2.4146199226379395
1772811131017899800,8.808899658203124,-4.055582046508789,2.453731060028076,2.8305349349975586
1772811131037661200,8.8286611328125,-2.5282087326049805,1.4530973434448242,3.1478538513183594
1772811131057422600,8.848422607421876,-1.3702727556228638,0.20692825317382812,2.9258346557617188
1772811131077184000,8.86818408203125,-0.2532224655151367,-0.9147548675537109,2.2406015396118164
1772811131096945400,8.8879453125,1.0455224514007568,-1.6718063354492188,1.4407258033752441
1772811131116706800,8.907706787109374,2.5144264698028564,-1.7570652961730957,0.34642505645751953
1772811131136468200,8.92746826171875,3.4661130905151367,-1.4229936599731445,-0.6327881813049316
1772811131156229600,8.947229736328126,3.803567886352539,-1.004255771636963,-1.4387331008911133
1772811131175991000,8.966990966796875,3.780057191848755,-0.6278619766235352,-1.9982514381408691
1772811131195752400,8.98675244140625,3.2477807998657227,-0.3522377014160156,-2.2702817916870117
1772811131215513900,9.006513916015624,2.5702383518218994,-0.20614004135131836,-2.5343189239501953
1772811131235275000,9.02627490234375,1.8701589107513428,0.04832124710083008,-2.615959644317627
1772811131255036400,9.046036376953126,1.2798597812652588,0.18340778350830078,-2.4127988815307617
1772811131274797800,9.0657978515625,0.7292890548706055,0.23555803298950195,-2.085533618927002
1772811131294559200,9.085559326171875,0.20769727230072021,0.19867467880249023,-1.6692695617675781
1772811131314320600,9.105320556640624,0.05722332000732422,0.27958011627197266,-1.2622570991516113
1772811131334082000,9.12508203125,-0.008838653564453125,0.49622488021850586,-0.9859709739685059
1772811131353843500,9.144843505859376,-0.14067542552947998,0.7420182228088379,-0.7076854705810547
1772811131373604900,9.16460498046875,-0.21535003185272217,0.9921689033508301,-0.36939334869384766
1772811131393366300,9.1843662109375,-0.37701094150543213,1.1601214408874512,0.01941061019897461
1772811131413127700,9.204127685546876,-0.6397131681442261,1.1329278945922852,0.45960235595703125
1772811131432889000,9.22388916015625,-0.9684054851531982,1.2448787689208984,0.7579622268676758
1772811131452650500,9.243650390625,-1.2425013780593872,1.23944091796875,1.2983736991882324
1772811131472412000,9.263411865234374,-1.4083335399627686,1.4572696685791016,1.8001718521118164
1772811131492173300,9.28317333984375,-1.3537689447402954,1.6333961486816406,2.3755979537963867
1772811131511935000,9.30293505859375,-1.3034921884536743,1.515892505645752,3.224696636199951
1772811131531697000,9.32269677734375,-1.7130082845687866,0.2979269027709961,4.675291538238525
1772811131551458600,9.34245849609375,-1.72482430934906,-0.37235164642333984,4.986533164978027
1772811131571220500,9.362220458984375,-1.285588026046753,-0.5826215744018555,4.77681303024292
1772811131590982100,9.381982177734375,-0.363358736038208,-0.13236427307128906,4.479569435119629
1772811131610744000,9.401744140625,0.4654034376144409,0.532628059387207,5.034733295440674
1772811131630506000,9.421506103515625,0.9385619759559631,0.7031636238098145,6.490893363952637
1772811131650267600,9.441267578125,1.2827545404434204,1.0732064247131348,7.136085033416748
1772811131670029600,9.461029541015625,1.2637479305267334,1.214573860168457,6.92891788482666
1772811131689791200,9.480791259765626,1.3507914543151855,1.358320713043213,5.647392272949219
1772811131709553200,9.50055322265625,1.3917341232299805,1.3756513595581055,4.111909866333008
1772811131729314800,9.520314697265626,1.3962912559509277,1.0407028198242188,3.1923913955688477
1772811131749076700,9.54007666015625,1.5886861085891724,0.5002789497375488,2.674772262573242
1772811131768838700,9.559838623046875,1.7653701305389404,0.038166046142578125,2.2878308296203613
1772811131788600300,9.579600341796874,2.101555585861206,-0.4740276336669922,1.8429079055786133
1772811131808362200,9.5993623046875,2.5760180950164795,-0.9034848213195801,1.3478097915649414
1772811131828124200,9.619124267578124,2.9144234657287598,-1.2047080993652344,1.0467982292175293
1772811131847885800,9.6388857421875,2.963733196258545,-1.3451299667358398,0.8265695571899414
1772811131867647700,9.658647705078126,2.9512875080108643,-1.400693416595459,0.8869099617004395
1772811131887409400,9.678409423828125,2.9618399143218994,-1.5201964378356934,0.9649782180786133
1772811131907171300,9.69817138671875,3.1821646690368652,-1.5889739990234375,0.8189430236816406
1772811131926933000,9.71793310546875,3.2147159576416016,-1.421811580657959,0.7444896697998047
1772811131946695000,9.73769482421875,2.333446741104126,-1.148284912109375,1.149792194366455
1772811131966456800,9.757456787109374,1.9195852279663086,-0.8362216949462891,1.4636931419372559
1772811131986218500,9.777218505859375,2.40620756149292,-0.6545429229736328,1.5498533248901367
1772811132005979400,9.7969794921875,2.839710235595703,-0.648735523223877,1.5452051162719727
1772811132025740000,9.816739990234375,2.805130958557129,-0.7445025444030762,1.4236259460449219
1772811132045500700,9.836500732421875,2.481980323791504,-1.0014514923095703,1.0676984786987305
1772811132065261300,9.85626123046875,2.409949779510498,-0.6196513175964355,0.37651824951171875
1772811132085021700,9.876021728515624,1.1092045307159424,-0.7917728424072266,0.6858530044555664
1772811132104782300,9.8957822265625,0.5658893585205078,-0.4311184883117676,0.35657691955566406
1772811132124543000,9.91554296875,0.07224714756011963,-0.19058012962341309,0.1791515350341797
1772811132144303600,9.9353037109375,-0.0008682012557983398,-0.3087949752807617,0.4529905319213867
1772811132164064300,9.955064208984375,0.06399446725845337,-0.38174986839294434,0.8884687423706055
1772811132183824600,9.97482470703125,0.2764463424682617,-0.39106225967407227,1.3941020965576172
1772811132203585300,9.994585205078126,-0.1727083921432495,-0.4110984802246094,1.5467233657836914
1772811132223346000,10.014345947265625,-0.7346185445785522,-0.7066950798034668,1.4362306594848633
1772811132243106600,10.0341064453125,-0.6155142784118652,-1.197063684463501,1.327589988708496
1772811132262867000,10.053866943359376,0.44083571434020996,-1.2440462112426758,1.2494525909423828
1772811132282627600,10.073627685546874,0.6667780876159668,-0.8299357891082764,1.0077743530273438
1772811132302388200,10.09338818359375,-0.906233549118042,-0.4117922782897949,0.9300355911254883
1772811132322148900,10.11314892578125,-0.9077091217041016,-0.7786037921905518,0.5461091995239258
1772811132341909500,10.132909423828124,-0.4245572090148926,-1.7510141134262085,0.3554515838623047
1772811132361670100,10.152670166015625,-0.6573600769042969,-2.2334837913513184,0.4251866340637207
1772811132381430500,10.172430419921875,-0.7790260314941406,-2.123046875,0.11330413818359375
1772811132401191200,10.192191162109374,-0.054302215576171875,-1.6251195669174194,-0.5517687797546387
1772811132420951800,10.211951904296875,-0.27629995346069336,-1.1236107349395752,-0.8126301765441895
1772811132440712400,10.23171240234375,-0.838465690612793,-1.2052783966064453,-0.8812837600708008
1772811132460472800,10.251472900390626,-1.6472907066345215,-1.4171667098999023,-0.8820438385009766
1772811132480233500,10.2712333984375,-3.0847725868225098,-1.4315083026885986,-1.117727518081665
1772811132499995000,10.290994873046875,-3.230020046234131,-1.139962911605835,-1.5646018981933594
1772811132519757000,10.310757080078124,-2.525465965270996,-0.9114951491355896,-1.4861328601837158
1772811132539519500,10.33051953125,-2.1222643852233887,-1.1838299036026,-1.216606855392456
1772811132559281700,10.35028173828125,-1.7222094535827637,-1.5552388429641724,-1.027174949645996
1772811132579044000,10.370044189453125,-1.3898344039916992,-1.9867660999298096,-0.7128174304962158
1772811132598806300,10.38980615234375,-0.828948974609375,-2.4626054763793945,0.05149435997009277
1772811132618568700,10.409568603515625,-0.30886173248291016,-3.000596046447754,0.9911572933197021
1772811132638331000,10.429330810546874,0.044460296630859375,-2.964034080505371,1.158130407333374
1772811132658093300,10.44909326171875,0.5981845855712891,-2.0699687004089355,0.1947169303894043
1772811132677855500,10.46885546875,0.8396291732788086,-1.1108487844467163,-0.389707088470459
1772811132697618000,10.488617919921875,0.9608440399169922,-0.8377751111984253,-0.5263097286224365
1772811132717380400,10.50838037109375,0.5869779586791992,-0.5105385780334473,-1.3240916728973389
1772811132737142500,10.528142578125,0.367767333984375,-0.49688732624053955,-1.7356977462768555
1772811132756905000,10.547905029296874,0.4318094253540039,-0.23727524280548096,-1.6931610107421875
1772811132776667100,10.567667236328125,0.4012289047241211,-0.17104804515838623,-1.6379647254943848
1772811132796429600,10.5874296875,0.5568618774414062,-0.1503620147705078,-1.478987455368042
1772811132816191700,10.607191650390625,0.6349039077758789,-0.40015709400177,-1.1841130256652832
1772811132835954200,10.6269541015625,0.5662946701049805,-0.2814542055130005,-1.0632398128509521
1772811132855716600,10.646716552734375,0.4414405822753906,0.0694432258605957,-1.005138874053955
1772811132875478800,10.666478759765624,0.5112781524658203,0.18946385383605957,-1.1631057262420654
1772811132895241200,10.6862412109375,0.34752845764160156,0.2827160358428955,-1.44329833984375
1772811132915003400,10.70600341796875,-0.26169490814208984,0.2974355220794678,-1.6075630187988281
1772811132934765800,10.725765869140625,-1.0115079879760742,0.15269923210144043,-1.481623888015747
1772811132954528000,10.745528076171874,-1.3343920707702637,-0.00008058547973632812,-0.9717841744422913
1772811132974290400,10.76529052734375,-1.0313940048217773,0.06428909301757812,-0.7240732312202454
1772811132994052600,10.785052490234374,-0.9200124740600586,-0.1990511417388916,-0.5803179144859314
1772811133013815000,10.80481494140625,-1.0530686378479004,-0.22349953651428223,-0.6908970475196838
1772811133033577200,10.8245771484375,-1.141150951385498,0.21645116806030273,-0.8464066386222839
1772811133053339400,10.84433935546875,-1.5505824089050293,0.16842174530029297,-0.528265118598938
1772811133073101600,10.8641015625,-1.8972649574279785,0.22401762008666992,-0.19166207313537598
1772811133092863700,10.88386376953125,-1.5701513290405273,0.5449762344360352,-0.30596446990966797
1772811133112626200,10.903626220703124,-1.0737309455871582,0.47759532928466797,-0.2939751148223877
1772811133132388400,10.923388427734375,-0.6766471862792969,-0.6210556030273438,0.07777881622314453
1772811133152150500,10.943150634765624,-1.0748581886291504,-0.052951812744140625,-0.38553279638290405
1772811133171912700,10.96291259765625,-1.5774450302124023,0.005276679992675781,-0.4213024973869324
1772811133191675000,10.9826748046875,-0.776583194732666,0.317812442779541,-0.4198318123817444
1772811133211437300,11.002437255859375,-1.9561634063720703,-0.02729177474975586,0.011799454689025879
1772811133231199500,11.022199462890624,-1.380591869354248,0.0836482048034668,0.005381464958190918
1772811133250961700,11.041961669921875,-0.8871865272521973,0.17925310134887695,-0.07247525453567505
1772811133270723800,11.061723876953126,-0.6007976531982422,-0.026955127716064453,-0.2602075934410095
1772811133290486000,11.081486083984375,-0.7046046257019043,0.13722562789916992,-0.42035311460494995
