time,seconds_elapsed,z,y,x
1772811105779873800,0.156873779296875,-0.22676797211170197,-0.5534043908119202,0.31545117497444153
1772811105789754400,0.16675439453125,-0.4462122619152069,-0.6072002053260803,0.19560901820659637
1772811105799635000,0.176635009765625,-0.737561821937561,-0.5406212210655212,0.09494160860776901
1772811105809515500,0.186515625,-0.9442229270935059,-0.44954121112823486,0.019840532913804054
1772811105819396000,0.19639599609375,-1.0086714029312134,-0.3201116919517517,-0.1729721575975418
1772811105829276700,0.206276611328125,-0.8765787482261658,-0.4202464520931244,-0.5330312252044678
1772811105839157500,0.216157470703125,-0.6331660151481628,-0.8021434545516968,-0.8739155530929565
1772811105849037800,0.226037841796875,-0.5340964794158936,-1.1249182224273682,-1.1434272527694702
1772811105858918700,0.235918701171875,-0.6842986345291138,-1.5654047727584839,-1.4076125621795654
1772811105868799200,0.24579931640625,-0.9447556138038635,-1.9355838298797607,-1.670199990272522
1772811105878679800,0.2556796875,-1.1109366416931152,-2.0463712215423584,-1.803890585899353
1772811105888560400,0.265560302734375,-1.1402314901351929,-1.8556890487670898,-1.8598169088363647
1772811105898441000,0.27544091796875,-0.96446293592453,-1.426387906074524,-1.8624801635742188
1772811105908321500,0.285321533203125,-0.758867084980011,-1.602156400680542,-1.8172063827514648
1772811105918202000,0.2952021484375,-0.6672544479370117,-2.311621904373169,-1.7948359251022339
1772811105928082700,0.305082763671875,-0.7077344655990601,-3.367297887802124,-1.8108148574829102
1772811105937963300,0.31496337890625,-0.8499471545219421,-4.48262882232666,-1.8496969938278198
1772811105947843800,0.32484375,-1.0363682508468628,-5.4482903480529785,-1.8763285875320435
1772811105957724400,0.334724365234375,-1.2302461862564087,-6.138581275939941,-1.8939054012298584
1772811105967605200,0.344605224609375,-1.3729915618896484,-6.472541332244873,-1.8598169088363647
1772811105977485800,0.35448583984375,-1.4230588674545288,-6.3905158042907715,-1.7591495513916016
1772811105987366400,0.364366455078125,-1.3644694089889526,-5.436572551727295,-1.865675926208496
1772811105997247000,0.3742470703125,-0.9351682066917419,-3.8972666263580322,-2.1511664390563965
1772811106007127300,0.384127197265625,0.03741738200187683,-3.4136369228363037,-1.8779264688491821
1772811106017007900,0.3940078125,0.6675207614898682,-3.562241315841675,-1.525856852531433
1772811106026888400,0.403888427734375,0.7404913306236267,-3.343862295150757,-1.3532841205596924
1772811106036769000,0.41376904296875,0.7095986604690552,-3.135070562362671,-1.5082800388336182
1772811106046649300,0.4236494140625,0.7495460510253906,-3.452519178390503,-1.937581181526184
1772811106056530000,0.433530029296875,0.6339649558067322,-3.799794912338257,-2.600707769393921
1772811106066410500,0.443410400390625,0.46991437673568726,-4.188083648681641,-3.3224236965179443
1772811106076291000,0.453291015625,0.5231775641441345,-4.493281364440918,-3.7245607376098633
1772811106086171600,0.463171630859375,0.6094638705253601,-4.819252014160156,-3.6009902954101562
1772811106096052000,0.473052001953125,0.5950828194618225,-5.336970329284668,-3.001246929168701
1772811106105932500,0.4829326171875,0.47950175404548645,-5.883450508117676,-2.029726505279541
1772811106115813000,0.492813232421875,0.23076270520687103,-6.322339057922363,-0.8520776629447937
1772811106125693700,0.502693603515625,-0.06325002014636993,-6.67014741897583,0.37617117166519165
1772811106135574300,0.51257421875,-0.27843326330184937,-6.909832000732422,1.4925673007965088
1772811106145454800,0.522454833984375,-0.36844801902770996,-6.991324424743652,2.398041248321533
1772811106155335200,0.532335205078125,-0.3189132809638977,-7.016358375549316,3.0973868370056152
1772811106165215700,0.5422158203125,-0.0978710874915123,-7.02434778213501,3.6119091510772705
1772811106175096300,0.552096435546875,0.2925480008125305,-7.002509593963623,3.9645113945007324
1772811106184977000,0.561976806640625,0.8305060863494873,-6.936995983123779,4.101397514343262
1772811106194857200,0.571857177734375,1.511742115020752,-6.748977184295654,4.039612293243408
1772811106204737800,0.58173779296875,2.329331874847412,-6.408092498779297,3.813243865966797
1772811106214618400,0.591618408203125,3.26143741607666,-5.950562000274658,3.4771533012390137
1772811106224499000,0.6014990234375,4.19567346572876,-5.338035583496094,3.1644985675811768
1772811106234379500,0.611379638671875,5.158139228820801,-4.771847724914551,2.880073070526123
1772811106244259800,0.621259765625,6.041775226593018,-3.8669066429138184,2.5764729976654053
1772811106254140400,0.631140380859375,6.736327171325684,-2.7542388439178467,2.389519214630127
1772811106264021000,0.64102099609375,7.2774810791015625,-1.7656742334365845,2.240382432937622
1772811106273901600,0.650901611328125,7.746196746826172,-0.8016108274459839,2.0246665477752686
1772811106283782000,0.660781982421875,8.088679313659668,-0.07190528512001038,1.7327842712402344
1772811106293662500,0.670662353515625,8.29267692565918,0.43622541427612305,1.4158684015274048
1772811106303543000,0.68054296875,8.337418556213379,0.717987596988678,1.104811429977417
1772811106313423600,0.690423583984375,8.225565910339355,0.8111981749534607,0.9034766554832458
1772811106323304200,0.70030419921875,7.923030853271484,0.7142592072486877,0.9231839776039124
1772811106333184800,0.710184814453125,7.469228267669678,0.5102612376213074,1.1394325494766235
1772811106343065000,0.720065185546875,6.8801374435424805,0.23861902952194214,1.436640977859497
1772811106352945700,0.729945556640625,6.172269821166992,-0.10546109080314636,1.746632695198059
1772811106362826200,0.739826171875,5.476653099060059,-0.4527370035648346,2.0347864627838135
1772811106372706800,0.749706787109375,4.869985580444336,-0.7643265724182129,2.313885450363159
1772811106382587400,0.75958740234375,4.323505401611328,-1.0514150857925415,2.5961804389953613
1772811106392467700,0.7694677734375,3.8047218322753906,-1.334242582321167,2.850245714187622
1772811106402348300,0.779348388671875,3.365833282470703,-1.4956300258636475,3.0313405990600586
1772811106412228900,0.789228759765625,3.0329384803771973,-1.4743247032165527,3.0952563285827637
1772811106422109400,0.799109375,2.7447845935821533,-1.28470778465271,3.008437395095825
1772811106431989800,0.80898974609375,2.4667508602142334,-0.9528782367706299,2.79059100151062
1772811106441870300,0.818870361328125,2.1791296005249023,-0.5091959834098816,2.4715445041656494
1772811106451751000,0.8287509765625,1.8803232908248901,0.009587371721863747,2.066211700439453
1772811106461631500,0.838631591796875,1.5841799974441528,0.5747096538543701,1.6283884048461914
1772811106471512000,0.848511962890625,1.2960262298583984,1.0828403234481812,1.2305124998092651
1772811106481392400,0.858392333984375,1.0281124114990234,1.4402363300323486,0.9215860962867737
1772811106491273000,0.86827294921875,0.773514449596405,1.6793879270553589,0.7037397027015686
1772811106501153800,0.87815380859375,0.5354281067848206,1.8663417100906372,0.5673859715461731
1772811106511035000,0.888034912109375,0.28668904304504395,2.044240713119507,0.48536068201065063
1772811106520916000,0.897916015625,0.02516685053706169,2.2093565464019775,0.4028027653694153
1772811106530797000,0.907797119140625,-0.1351553052663803,2.133190155029297,0.363920658826828
1772811106540678100,0.91767822265625,-0.32743537425994873,2.1262660026550293,0.26165536046028137
1772811106550559200,0.927559326171875,-0.5063996315002441,2.096971273422241,0.13488899171352386
1772811106560440600,0.937440673828125,-0.6432859897613525,2.0804595947265625,-0.03555316850543022
1772811106570321700,0.94732177734375,-0.6597976088523865,1.914278507232666,-0.14687320590019226
1772811106580202800,0.95720263671875,-0.6763091683387756,1.800295352935791,-0.2970753610134125
1772811106590083800,0.967083740234375,-0.6699175834655762,1.6112110614776611,-0.39721015095710754
1772811106599965000,0.97696484375,-0.6347638964653015,1.3369057178497314,-0.4611259400844574
1772811106609846000,0.986845947265625,-0.5815007090568542,0.9784445762634277,-0.4845617413520813
1772811106619727000,0.99672705078125,-0.5058670043945312,0.4671180546283722,-0.4653870165348053
1772811106629608200,1.006608154296875,-0.4973449110984802,0.001597895286977291,-0.3615238070487976
1772811106639489300,1.0164892578125,-0.5271722674369812,-0.5933517813682556,-0.2965427339076996
1772811106649370400,1.026370361328125,-0.6145238876342773,-1.0626003742218018,-0.2304963916540146
1772811106659251500,1.03625146484375,-0.7556713223457336,-1.418931007385254,-0.18895111978054047
1772811106669132500,1.046132568359375,-0.9404945373535156,-1.6927037239074707,-0.16551531851291656
1772811106679013600,1.056013671875,-1.1013493537902832,-1.9371817111968994,-0.15805847942829132
1772811106688894700,1.065894775390625,-1.270726203918457,-2.1305270195007324,-0.1213068813085556
1772811106698775800,1.07577587890625,-1.417199969291687,-2.2491707801818848,-0.0648479163646698
1772811106708657000,1.085656982421875,-1.5082800388336182,-2.312553882598877,0.001731053227558732
1772811106718538000,1.0955380859375,-1.588707447052002,-2.3295981884002686,0.08322371542453766
1772811106728419000,1.105419189453125,-1.6371768712997437,-2.332261323928833,0.13062794506549835
1772811106738300200,1.115300048828125,-1.6792547702789307,-2.2901833057403564,0.1375521570444107
1772811106748181200,1.12518115234375,-1.7687369585037231,-2.247040271759033,0.06777739524841309
1772811106758062300,1.135062255859375,-1.9285264015197754,-2.158090829849243,-0.05685843899846077
1772811106767943400,1.144943359375,-2.1224043369293213,-2.04996657371521,-0.14580795168876648
1772811106777824500,1.154824462890625,-2.303499221801758,-1.9828548431396484,-0.20333217084407806
1772811106787705600,1.16470556640625,-2.4840614795684814,-1.8939054012298584,-0.20333217084407806
1772811106797586700,1.174586669921875,-2.650775194168091,-1.8034911155700684,-0.18575532734394073
1772811106807467800,1.1844677734375,-2.7967162132263184,-1.7097479104995728,-0.15326479077339172
1772811106817348900,1.194348876953125,-2.903775215148926,-1.6128089427947998,-0.12769846618175507
1772811106827230000,1.20422998046875,-2.9746153354644775,-1.4498236179351807,-0.16178689897060394
1772811106837111000,1.214111083984375,-3.0092363357543945,-1.2282488346099854,-0.2826943099498749
1772811106846992100,1.2239921875,-3.020954132080078,-0.9981518983840942,-0.46485435962677
1772811106856873200,1.233873291015625,-3.00284481048584,-0.7637939453125,-0.6187849640846252
1772811106866754300,1.24375439453125,-2.95277738571167,-0.5358275771141052,-0.7103976011276245
1772811106876635400,1.253635498046875,-2.8915247917175293,-0.3392864465713501,-0.7913576364517212
1772811106886516500,1.2635166015625,-2.827608823776245,-0.1693768948316574,-0.8739155530929565
1772811106896397600,1.2733974609375,-2.769551992416382,-0.04633896425366402,-0.9415597915649414
1772811106906279000,1.28327880859375,-2.71362566947937,0.02077263966202736,-0.9724524617195129
1772811106916160000,1.293159912109375,-2.654503583908081,0.04846949130296707,-0.980974555015564
1772811106926041000,1.303041015625,-2.5868592262268066,0.03408843278884888,-0.9660608768463135
1772811106935922200,1.312922119140625,-2.5224108695983887,-0.027696851640939713,-0.9314398169517517
1772811106945803300,1.32280322265625,-2.461690902709961,-0.11398319900035858,-0.8914924263954163
1772811106955684400,1.332684326171875,-2.406297206878662,-0.2173137664794922,-0.8696545362472534
1772811106965565400,1.3425654296875,-2.356762409210205,-0.3115895688533783,-0.8637955784797668
1772811106975446500,1.352446533203125,-2.3200109004974365,-0.3946801424026489,-0.8824376463890076
1772811106985327600,1.36232763671875,-2.2992382049560547,-0.46019384264945984,-0.9394292831420898
1772811106995208700,1.372208740234375,-2.2795307636260986,-0.5012065172195435,-1.030509352684021
1772811107005089300,1.38208935546875,-2.2294633388519287,-0.47297701239585876,-1.1354377269744873
1772811107014969900,1.391969970703125,-2.143709659576416,-0.4111917316913605,-1.2739219665527344
1772811107024850400,1.401850341796875,-2.0169432163238525,-0.35206958651542664,-1.3990905284881592
1772811107034731000,1.41173095703125,-1.8768612146377563,-0.2886864244937897,-1.479517936706543
1772811107044611600,1.421611572265625,-1.7335832118988037,-0.1842905879020691,-1.5231937170028687
1772811107054492400,1.431492431640625,-1.5647389888763428,-0.07829686999320984,-1.5413031578063965
1772811107064373000,1.441373046875,-1.3942967653274536,0.007989476434886456,-1.5237263441085815
1772811107074253600,1.451253662109375,-1.215865135192871,0.08255792409181595,-1.4816484451293945
1772811107084134100,1.461134033203125,-1.0757830142974854,0.12996214628219604,-1.441701054573059
1772811107094014700,1.4710146484375,-0.9676587581634521,0.15233267843723297,-1.4528863430023193
1772811107103895300,1.480895263671875,-0.8158587217330933,0.1747032105922699,-1.4992252588272095
1772811107113776000,1.490776123046875,-0.6294375658035278,0.1784316450357437,-1.5295852422714233
1772811107123656700,1.50065673828125,-0.39667749404907227,0.13901689648628235,-1.5327810049057007
1772811107133537300,1.510537353515625,-0.10053424537181854,0.12410320341587067,-1.5098779201507568
1772811107143417900,1.52041796875,0.24780692160129547,0.11504846066236496,-1.4369072914123535
1772811107153298400,1.53029833984375,0.6627270579338074,0.15872426331043243,-1.3101409673690796
1772811107163179000,1.540178955078125,1.1128009557724,0.240216925740242,-1.1466230154037476
1772811107173059800,1.550059814453125,1.558613657951355,0.26098957657814026,-0.9777787327766418
1772811107182940400,1.5599404296875,1.9543590545654297,0.2508695721626282,-0.7934881448745728
1772811107192821000,1.569821044921875,2.285123348236084,0.1890842765569687,-0.5687175393104553
1772811107202701600,1.57970166015625,2.5498414039611816,0.05805686116218567,-0.30826061964035034
1772811107212582100,1.58958203125,2.711761474609375,-0.12037477642297745,-0.007856318727135658
1772811107222462700,1.599462646484375,2.8124289512634277,-0.3669832944869995,0.2984069585800171
1772811107232343300,1.60934326171875,2.859300374984741,-0.6263749599456787,0.6046702265739441
1772811107242223900,1.619223876953125,2.810298442840576,-0.860732913017273,0.9364997744560242
1772811107252104700,1.629104736328125,2.6829993724823,-1.0929603576660156,1.2097399234771729
1772811107261985300,1.6389853515625,2.498708724975586,-1.2607393264770508,1.4084115028381348
1772811107271865900,1.648865966796875,2.2899169921875,-1.363537311553955,1.5197315216064453
1772811107281746400,1.658746337890625,2.0736687183380127,-1.410941481590271,1.5399715900421143
1772811107291627000,1.668626953125,1.8473000526428223,-1.3954951763153076,1.486708402633667
1772811107301507600,1.678507568359375,1.6246600151062012,-1.304947853088379,1.3791167736053467
1772811107311388400,1.688388427734375,1.3924325704574585,-1.1595393419265747,1.2347736358642578
1772811107321269000,1.69826904296875,1.1490198373794556,-0.9954887628555298,1.0568746328353882
1772811107331149600,1.708149658203125,0.8832366466522217,-0.8042739629745483,0.8507460951805115
1772811107341030100,1.718030029296875,0.6313018202781677,-0.5784381031990051,0.6131923198699951
1772811107350910700,1.72791064453125,0.39055225253105164,-0.32863378524780273,0.34368064999580383
1772811107360791300,1.737791259765625,0.1663142740726471,-0.055926334112882614,0.06298370659351349
1772811107370672000,1.747672119140625,-0.037683695554733276,0.26205483078956604,-0.21824586391448975
1772811107380552700,1.757552734375,-0.22303955256938934,0.6412886381149292,-0.4856269955635071
1772811107390433300,1.767433349609375,-0.366317480802536,1.050482988357544,-0.7572692036628723
1772811107400313900,1.77731396484375,-0.4744417369365692,1.4749904870986938,-1.0498172044754028
1772811107410194400,1.7871943359375,-0.5538038611412048,1.9149442911148071,-1.3416993618011475
1772811107420075000,1.797074951171875,-0.5857617855072021,2.3586266040802,-1.6170700788497925
1772811107429955600,1.80695556640625,-0.561793327331543,2.7543721199035645,-1.847166895866394
1772811107439836400,1.81683642578125,-0.48669227957725525,3.084603786468506,-2.0213375091552734
1772811107449717000,1.826717041015625,-0.3764374852180481,3.3482563495635986,-2.157691240310669
1772811107459597600,1.83659765625,-0.24700798094272614,3.5282859802246094,-2.2493038177490234
1772811107469478100,1.84647802734375,-0.111719511449337,3.6220290660858154,-2.290849208831787
1772811107479358700,1.856358642578125,0.026764746755361557,3.6167027950286865,-2.2743375301361084
1772811107489239300,1.8662392578125,0.15353110432624817,3.5282859802246094,-2.1955082416534424
1772811107499120000,1.8761201171875,0.28615641593933105,3.365833282470703,-2.0602197647094727
1772811107509000700,1.886000732421875,0.42730382084846497,3.137866973876953,-1.8791248798370361
1772811107518881500,1.895881591796875,0.571647047996521,2.844919443130493,-1.6719311475753784
1772811107528762400,1.905762451171875,0.7197186946868896,2.5061655044555664,-1.442899465560913
1772811107538643000,1.915642822265625,0.8752471208572388,2.137051820755005,-1.2149330377578735
1772811107548523800,1.925523681640625,1.0478198528289795,1.7626116275787354,-0.9970866441726685
1772811107558404600,1.935404541015625,1.2299798727035522,1.3892368078231812,-0.8037413358688354
1772811107568285400,1.945285400390625,1.4169336557388306,1.015861988067627,-0.6183854937553406
1772811107578166000,1.955166015625,1.6145399808883667,0.6952176094055176,-0.46392226219177246
1772811107588046800,1.965046875,1.8126790523529053,0.43209752440452576,-0.34621065855026245
1772811107597927700,1.974927734375,2.0001654624938965,0.20666112005710602,-0.2539321780204773
1772811107607808300,1.984808349609375,2.1887171268463135,0.02876211516559124,-0.16711321473121643
1772811107617689000,1.994689208984375,2.368746519088745,-0.1081242486834526,-0.08775108307600021
1772811107627570000,2.00456982421875,2.5397214889526367,-0.20080217719078064,-0.008388950489461422
1772811107637450800,2.01445068359375,2.7293384075164795,-0.26525062322616577,0.051798440515995026
1772811107647331300,2.024331298828125,2.9759469032287598,-0.35047170519828796,0.07736476510763168
1772811107657212200,2.034212158203125,3.127214193344116,-0.33822116255760193,0.1663142740726471
1772811107667093000,2.044093017578125,3.1991195678710938,-0.2700442969799042,0.24354587495326996
1772811107676973600,2.0539736328125,3.2896668910980225,-0.19441059231758118,0.27710166573524475
1772811107686854400,2.0638544921875,3.356778621673584,-0.1081242486834526,0.31864693760871887
1772811107696735200,2.0737353515625,3.3695616722106934,-0.006924212910234928,0.3964111804962158
1772811107706616000,2.083615966796875,3.4031174182891846,0.06391581147909164,0.4534027874469757
1772811107716496600,2.09349658203125,3.441467046737671,0.14327794313430786,0.48855647444725037
1772811107726377500,2.10337744140625,3.4425323009490967,0.22050954401493073,0.5098617672920227
1772811107736258300,2.11325830078125,3.4222922325134277,0.2647179961204529,0.5109270215034485
1772811107746139000,2.123138916015625,3.3679637908935547,0.29028430581092834,0.5018723011016846
1772811107756019700,2.133019775390625,3.27262282371521,0.30040431022644043,0.4858933389186859
1772811107765900500,2.142900634765625,3.118159532546997,0.26152220368385315,0.4384891092777252
1772811107775781400,2.152781494140625,2.899780511856079,0.1928126960992813,0.3394196033477783
1772811107785662000,2.162661865234375,2.665955066680908,0.0894821360707283,0.2371542900800705
1772811107795542800,2.172542724609375,2.4800665378570557,-0.059654757380485535,0.16418373584747314
1772811107805423600,2.182423583984375,2.393247604370117,-0.27643588185310364,0.11518161743879318
1772811107815304200,2.19230419921875,2.418813943862915,-0.5049349069595337,0.09494160860776901
1772811107825185000,2.20218505859375,2.363420248031616,-0.7147918343544006,0.14128057658672333
1772811107835065900,2.21206591796875,2.240382432937622,-0.9470192790031433,0.18868480622768402
1772811107844946700,2.22194677734375,2.06195068359375,-1.1467561721801758,0.26272061467170715
1772811107854827300,2.2318271484375,1.8622138500213623,-1.3544825315475464,0.36179012060165405
1772811107864708000,2.2417080078125,1.6859127283096313,-1.5611436367034912,0.4539354145526886
1772811107874589000,2.2515888671875,1.402552604675293,-1.7129437923431396,0.56312495470047
1772811107884469500,2.261469482421875,1.007872462272644,-1.7811206579208374,0.6542049646377563
1772811107894350300,2.271350341796875,0.5620596408843994,-1.7800554037094116,0.7080007791519165
1772811107904231200,2.281231201171875,0.09653950482606888,-1.703356385231018,0.7255775928497314
1772811107914112000,2.291112060546875,-0.34128379821777344,-1.5606110095977783,0.6866955161094666
1772811107923992600,2.30099267578125,-0.7269092202186584,-1.3773857355117798,0.5791038870811462
1772811107933873400,2.310873291015625,-1.0576735734939575,-1.18830144405365,0.405998557806015
1772811107943754200,2.320754150390625,-1.3602083921432495,-1.0162614583969116,0.199337437748909
1772811107953634800,2.330634765625,-1.627589464187622,-0.8910929560661316,-0.014247899875044823
1772811107963515600,2.340515625,-1.8699369430541992,-0.8069370985031128,-0.19960375130176544
1772811107973396500,2.350396484375,-2.0781960487365723,-0.7728486657142639,-0.3332943320274353
1772811107983277300,2.36027734375,-2.257692813873291,-0.793621301651001,-0.42011329531669617
1772811107993158000,2.370157958984375,-2.4142866134643555,-0.8708529472351074,-0.4691154360771179
1772811108003038700,2.380038818359375,-2.5570318698883057,-1.0013476610183716,-0.48669227957725525
1772811108012919600,2.38991943359375,-2.684863567352295,-1.1781814098358154,-0.4834964871406555
1772811108022800100,2.399800048828125,-2.7972488403320312,-1.3667330741882324,-0.4707133173942566
1772811108032681000,2.409680908203125,-2.882469892501831,-1.5664700269699097,-0.456332266330719
1772811108042561800,2.419561767578125,-2.9389288425445557,-1.7715332508087158,-0.4467448890209198
1772811108052442400,2.4294423828125,-2.9650278091430664,-1.981390118598938,-0.4323638379573822
1772811108062323200,2.4393232421875,-2.937330961227417,-2.2040302753448486,-0.4238417148590088
1772811108072204000,2.4492041015625,-2.80257511138916,-2.4767377376556396,-0.4312985837459564
1772811108082084600,2.459084716796875,-2.81376051902771,-2.6182847023010254,-0.36418697237968445
1772811108091965400,2.46896533203125,-2.8702194690704346,-2.7361292839050293,-0.324239581823349
1772811108101846300,2.47884619140625,-2.764758348464966,-2.8297393321990967,-0.36365434527397156
1772811108111727000,2.48872705078125,-2.6417202949523926,-2.861830472946167,-0.3583280146121979
1772811108121607700,2.498607666015625,-2.5431835651397705,-2.857436180114746,-0.3423490524291992
1772811108131488500,2.508488525390625,-2.441450834274292,-2.8020424842834473,-0.3386206328868866
1772811108141369300,2.518369384765625,-2.3642191886901855,-2.6827330589294434,-0.3247722089290619
1772811108151250000,2.52825,-2.317347526550293,-2.521878242492676,-0.3002711534500122
1772811108161130800,2.538130859375,-2.3003034591674805,-2.3285329341888428,-0.26458483934402466
1772811108171011600,2.548011474609375,-2.3242719173431396,-2.105360269546509,-0.22836586833000183
1772811108180892200,2.55789208984375,-2.3881876468658447,-1.8512948751449585,-0.2059953361749649
1772811108190773000,2.56777294921875,-2.48193097114563,-1.5664700269699097,-0.20226691663265228
1772811108200653800,2.57765380859375,-2.5879244804382324,-1.2586088180541992,-0.21664796769618988
1772811108210534400,2.587534423828125,-2.693918228149414,-0.9422255754470825,-0.25659534335136414
1772811108220415200,2.597415283203125,-2.773813009262085,-0.6482128500938416,-0.3290332853794098
1772811108230296000,2.607296142578125,-2.8297393321990967,-0.3824295997619629,-0.4147869944572449
1772811108240177000,2.617177001953125,-2.8590340614318848,-0.1267663538455963,-0.4994754493236542
1772811108250057500,2.627057373046875,-2.8664910793304443,0.1086568832397461,-0.5719133615493774
1772811108259938300,2.636938232421875,-2.8558382987976074,0.2881537973880768,-0.6193175911903381
1772811108269819100,2.646819091796875,-2.837728977203369,0.42717066407203674,-0.6368944048881531
1772811108279699700,2.65669970703125,-2.8121626377105713,0.5480780601501465,-0.6193175911903381
1772811108289580500,2.66658056640625,-2.7620952129364014,0.62477707862854,-0.5841639041900635
1772811108299461400,2.67646142578125,-2.693918228149414,0.6562023162841797,-0.5495428442955017
1772811108309342000,2.686342041015625,-2.6118929386138916,0.6727139353752136,-0.5229112505912781
1772811108319222800,2.696222900390625,-2.511225700378418,0.679638147354126,-0.5245091319084167
1772811108329103600,2.706103515625,-2.3988401889801025,0.6615286469459534,-0.5554017424583435
1772811108338984400,2.715984375,-2.2912487983703613,0.6274402141571045,-0.5921533703804016
1772811108348865000,2.725864990234375,-2.172471761703491,0.5997433662414551,-0.6246439218521118
1772811108358745900,2.735745849609375,-2.0430421829223633,0.5784381031990051,-0.6459491848945618
1772811108368626700,2.745626708984375,-1.8917748928070068,0.545414924621582,-0.6475470662117004
1772811108378507300,2.75550732421875,-1.7303874492645264,0.5038696527481079,-0.628372311592102
1772811108388388000,2.76538818359375,-1.5567494630813599,0.4612590968608856,-0.6038712859153748
1772811108398269000,2.77526904296875,-1.3735241889953613,0.4143875241279602,-0.5799028277397156
1772811108408149500,2.7851494140625,-1.186570405960083,0.37870118021965027,-0.5596628189086914
1772811108418030300,2.7950302734375,-0.9942903518676758,0.36005908250808716,-0.5394228100776672
1772811108427911200,2.8049111328125,-0.7988144755363464,0.36964643001556396,-0.5122585892677307
1772811108437791700,2.814791748046875,-0.6081323027610779,0.3728422224521637,-0.4850943684577942
1772811108447672600,2.824672607421875,-0.445679634809494,0.3547327518463135,-0.4850943684577942
1772811108457553400,2.834553466796875,-0.2720416784286499,0.30306747555732727,-0.5490102171897888
1772811108467434200,2.844434326171875,-0.12929636240005493,0.2721748352050781,-0.6523407697677612
1772811108477314800,2.854314697265625,-0.04780369997024536,0.2972085177898407,-0.7807050347328186
1772811108487195600,2.864195556640625,0.044341593980789185,0.35100433230400085,-0.9548755884170532
1772811108497076200,2.874076171875,0.18442374467849731,0.39894118905067444,-1.0747177600860596
1772811108506956800,2.883956787109375,0.39587855339050293,0.40320223569869995,-1.0811092853546143
1772811108516837400,2.89383740234375,0.638758659362793,0.38828855752944946,-0.9420924186706543
1772811108526718000,2.903718017578125,0.9157271385192871,0.43516016006469727,-0.7178544402122498
1772811108536598500,2.9135986328125,1.2630031108856201,0.6242444515228271,-0.46698489785194397
1772811108546479000,2.92347900390625,1.6891084909439087,0.9384971857070923,-0.2523342967033386
1772811108556359700,2.933359619140625,2.1200075149536133,1.2603398561477661,-0.10319740325212479
1772811108566240300,2.943240234375,2.492849826812744,1.494165301322937,-0.016378426924347878
1772811108576120800,2.953120849609375,2.7538392543792725,1.5724620819091797,0.03475422412157059
1772811108586001400,2.96300146484375,2.9040415287017822,1.506948471069336,0.11251845955848694
1772811108595882000,2.972882080078125,2.9429235458374023,1.3113393783569336,0.28562378883361816
1772811108605762600,2.982762451171875,2.8587677478790283,0.9736508727073669,0.5423523187637329
1772811108615643100,2.99264306640625,2.6686182022094727,0.5800359845161438,0.865659773349762
1772811108625523700,3.002523681640625,2.359159231185913,0.37923380732536316,1.110137701034546
1772811108635404300,3.012404296875,2.176999092102051,-0.03994738310575485,1.4520872831344604
1772811108645284900,3.022284912109375,2.037449598312378,-0.5134570002555847,1.8425064086914062
1772811108655165400,3.03216552734375,1.886182188987732,-0.9699224233627319,2.151432752609253
1772811108665046000,3.0420458984375,1.717337965965271,-1.2367709875106812,2.329864501953125
1772811108674926600,3.051926513671875,1.5176010131835938,-1.3374383449554443,2.3724749088287354
1772811108684807200,3.06180712890625,1.3205273151397705,-1.3486236333847046,2.271275043487549
1772811108694687700,3.071687744140625,1.1793798208236694,-1.3821793794631958,2.090712785720825
1772811108704568300,3.081568359375,1.0781798362731934,-1.3656678199768066,1.8153421878814697
1772811108714449000,3.091448974609375,0.8981503248214722,-1.2772510051727295,1.478718876838684
1772811108724329500,3.10132958984375,0.7165228724479675,-1.1366361379623413,1.0914956331253052
1772811108734210000,3.1112099609375,0.5641902089118958,-0.9741834998130798,0.6728470921516418
1772811108744090600,3.121090576171875,0.4544680416584015,-0.8016108274459839,0.26272061467170715
1772811108753971200,3.13097119140625,0.40812909603118896,-0.6327665448188782,-0.08402266353368759
1772811108763851800,3.140851806640625,0.397476464509964,-0.4612590968608856,-0.34128379821777344
1772811108773732400,3.150732421875,0.4150533080101013,-0.3051980137825012,-0.5367596745491028
1772811108783613000,3.160613037109375,0.45979437232017517,-0.17097479104995728,-0.6858965754508972
1772811108793493500,3.170493408203125,0.5247754454612732,-0.03142527490854263,-0.7870965600013733
1772811108803374000,3.1803740234375,0.6078659892082214,0.09587371349334717,-0.8414250016212463
1772811108813254700,3.190254638671875,0.7048049569129944,0.20133480429649353,-0.8653934597969055
1772811108823135200,3.20013525390625,0.8086681962013245,0.29401272535324097,-0.8835029602050781
1772811108833015800,3.210015869140625,0.9205208420753479,0.39894118905067444,-0.9127976894378662
1772811108842896400,3.219896484375,1.01266610622406,0.4948149025440216,-0.9543429613113403
1772811108852776700,3.229776611328125,1.096821904182434,0.578970730304718,-0.9751155972480774
1772811108862657300,3.2396572265625,1.1735209226608276,0.6428865194320679,-0.9639303088188171
1772811108872537900,3.249537841796875,1.2528830766677856,0.6956170797348022,-0.9186566472053528
1772811108882418400,3.25941845703125,1.3290493488311768,0.7254444360733032,-0.8371639847755432
1772811108892299000,3.269299072265625,1.3998894691467285,0.7403581738471985,-0.7125281691551208
1772811108902179600,3.2791796875,1.4712620973587036,0.7388933897018433,-0.5314333438873291
1772811108912060200,3.28906005859375,1.5570157766342163,0.7372955083847046,-0.3008037805557251
1772811108921940700,3.298940673828125,1.6614116430282593,0.7202513217926025,-0.04407527670264244
1772811108931821300,3.3088212890625,1.766872763633728,0.6898912787437439,0.2126532346010208
1772811108941702000,3.318701904296875,1.8536916971206665,0.6499438881874084,0.428901731967926
1772811108951582500,3.32858251953125,1.9266622066497803,0.6233122944831848,0.6131923198699951
1772811108961463000,3.338463134765625,1.9932411909103394,0.6089312434196472,0.7777755260467529
1772811108971343600,3.348343505859375,2.062483310699463,0.6115944385528564,0.9242492914199829
1772811108981224200,3.35822412109375,2.1333234310150146,0.6275733709335327,1.045689344406128
1772811108991104800,3.368104736328125,2.195108652114868,0.6487454771995544,1.1559441089630127
1772811109000985900,3.37798583984375,2.2521002292633057,0.6823012828826904,1.2502199411392212
1772811109010867500,3.387867431640625,2.310157060623169,0.7147918343544006,1.334908366203308
1772811109020748800,3.397748779296875,2.35489821434021,0.7350318431854248,1.4185315370559692
1772811109030630100,3.407630126953125,2.394312858581543,0.7882950305938721,1.4632725715637207
1772811109040511700,3.41751171875,2.488056182861328,0.7456844449043274,1.5048178434371948
1772811109050393000,3.42739306640625,2.5796687602996826,0.6801707744598389,1.595897912979126
1772811109060274700,3.437274658203125,2.58659291267395,0.6780402064323425,1.6763253211975098
1772811109070156000,3.447156005859375,2.573277235031128,0.6876276135444641,1.7210663557052612
1772811109080037600,3.45703759765625,2.616952896118164,0.6540718078613281,1.705087423324585
1772811109089919000,3.4669189453125,2.676607847213745,0.6322339177131653,1.6843148469924927
1772811109099800600,3.476800537109375,2.722414016723633,0.6801707744598389,1.6534221172332764
1772811109109682000,3.486681884765625,2.7900583744049072,0.7222486734390259,1.5751253366470337
1772811109119563300,3.496563232421875,2.84065842628479,0.7110633850097656,1.406813621520996
1772811109129444900,3.50644482421875,2.7650246620178223,0.6711159944534302,1.1538136005401611
1772811109139326200,3.516326171875,2.5796687602996826,0.6162549257278442,0.8400934338569641
1772811109149207800,3.526207763671875,2.3730077743530273,0.5086633563041687,0.5396891236305237
1772811109159089200,3.536089111328125,2.1796622276306152,0.37017908692359924,0.2898848354816437
1772811109168970500,3.545970458984375,1.960218071937561,0.1981390118598938,0.0762995034456253
1772811109178852000,3.55585205078125,1.7029569149017334,0.003728422336280346,-0.12823109328746796
1772811109188733400,3.5657333984375,1.4249231815338135,-0.1938779652118683,-0.34128379821777344
1772811109198615000,3.575614990234375,1.1303777694702148,-0.36485275626182556,-0.5516733527183533
1772811109208496400,3.585496337890625,0.7990807890892029,-0.5054675340652466,-0.7476818561553955
1772811109218377700,3.595377685546875,0.4102596044540405,-0.6162549257278442,-0.917591392993927
1772811109228259300,3.60525927734375,-0.049934227019548416,-0.7110633850097656,-1.0390313863754272
1772811109238140700,3.615140625,-0.5479449033737183,-0.7877624034881592,-1.1061429977416992
1772811109248022300,3.625022216796875,-1.082707166671753,-0.8277097344398499,-1.1098713874816895
1772811109257903600,3.634903564453125,-1.5998926162719727,-0.8452866077423096,-1.0986862182617188
1772811109267785200,3.64478515625,-2.055292844772339,-0.8463518619537354,-1.107740879058838
1772811109277666600,3.65466650390625,-2.430798292160034,-0.8197202682495117,-1.1519492864608765
1772811109287548000,3.6645478515625,-2.714158296585083,-0.7526086568832397,-1.2078757286071777
1772811109297429500,3.674429443359375,-2.908036231994629,-0.6476802229881287,-1.266465187072754
1772811109307310800,3.684310791015625,-3.0284111499786377,-0.536892831325531,-1.313336730003357
1772811109317192400,3.6941923828125,-3.0976531505584717,-0.446878045797348,-1.338370442390442
1772811109327073800,3.70407373046875,-3.1184258460998535,-0.39894118905067444,-1.3234567642211914
1772811109336955400,3.713955322265625,-3.100316286087036,-0.4069306552410126,-1.2717914581298828
1772811109346836700,3.723836669921875,-3.066227912902832,-0.491086483001709,-1.1876356601715088
1772811109356718300,3.73371826171875,-3.025747776031494,-0.6487454771995544,-1.0789787769317627
1772811109366599700,3.743599609375,-2.9879310131073,-0.8186550140380859,-0.9607345461845398
1772811109376481000,3.75348095703125,-2.912297248840332,-1.0327730178833008,-0.8217176795005798
1772811109386362600,3.763362548828125,-2.8015098571777344,-1.2813788652420044,-0.6363617777824402
1772811109396244000,3.773243896484375,-2.684863567352295,-1.5205305814743042,-0.4328964650630951
1772811109406125600,3.78312548828125,-2.580467700958252,-1.7644758224487305,-0.21664796769618988
1772811109416007000,3.7930068359375,-2.4824635982513428,-1.9759306907653809,0.02143842913210392
1772811109425888300,3.80288818359375,-2.412688732147217,-2.149568557739258,0.28615641593933105
1772811109435769900,3.812769775390625,-2.3503708839416504,-2.282726526260376,0.5476785898208618
1772811109445651200,3.822651123046875,-2.3003034591674805,-2.3487730026245117,0.773514449596405
1772811109455532800,3.83253271484375,-2.268345594406128,-2.3599581718444824,0.949815571308136
1772811109465414100,3.8424140625,-2.247572898864746,-2.323206663131714,1.0856367349624634
1772811109475295500,3.85229541015625,-2.2347896099090576,-2.2347896099090576,1.1905651092529297
1772811109485177000,3.862177001953125,-2.2262675762176514,-2.1074907779693604,1.2534157037734985
1772811109495058400,3.872058349609375,-2.2241370677948,-1.9652780294418335,1.2693946361541748
1772811109504939500,3.881939453125,-2.232659101486206,-1.799096941947937,1.2454261779785156
1772811109514820600,3.891820556640625,-2.237452983856201,-1.592968463897705,1.1777819395065308
1772811109524701400,3.901701416015625,-2.24277925491333,-1.379915714263916,1.0696576833724976
1772811109534582500,3.91158251953125,-2.251833915710449,-1.1881682872772217,0.941293478012085
1772811109544463600,3.921463623046875,-2.268878221511841,-1.0203893184661865,0.8138613104820251
1772811109554344700,3.9313447265625,-2.2944445610046387,-0.8643282055854797,0.6870949864387512
1772811109564225500,3.9412255859375,-2.3258697986602783,-0.7157239317893982,0.558198094367981
1772811109574106600,3.951106689453125,-2.3540992736816406,-0.5601954460144043,0.4303664565086365
1772811109583987700,3.96098779296875,-2.3509035110473633,-0.44514700770378113,0.34248220920562744
1772811109593868800,3.970868896484375,-2.3301308155059814,-0.3573959171772003,0.2893522083759308
1772811109603749600,3.98074951171875,-2.2907159328460693,-0.2881537973880768,0.22490376234054565
1772811109613630700,3.990630615234375,-2.23905086517334,-0.2269011288881302,0.11518161743879318
1772811109623511800,4.00051171875,-2.17779803276062,-0.15872426331043243,-0.03289001062512398
1772811109633392600,4.010392578125,-2.1074907779693604,-0.09853687882423401,-0.22623534500598907
1772811109643273700,4.020273681640625,-2.0419769287109375,-0.0612526535987854,-0.4504733085632324
1772811109653154800,4.03015478515625,-1.9817895889282227,-0.03355580195784569,-0.678439736366272
1772811109663035600,4.04003564453125,-1.9263958930969238,-0.009587371721863747,-0.8808397650718689
1772811109672916700,4.049916748046875,-1.8747305870056152,0.027164220809936523,-1.040629267692566
1772811109682797800,4.0597978515625,-1.8214675188064575,0.06924212723970413,-1.1663304567337036
1772811109692679000,4.069678955078125,-1.7724653482437134,0.11877688020467758,-1.2675304412841797
1772811109702559700,4.079559814453125,-1.7186695337295532,0.18535585701465607,-1.345827341079712
1772811109712440800,4.08944091796875,-1.6462316513061523,0.27963167428970337,-1.4076125621795654
1772811109722322000,4.099322021484375,-1.5492926836013794,0.3717769682407379,-1.4614083766937256
1772811109732203000,4.109203125,-1.4523537158966064,0.4580633044242859,-1.5040189027786255
1772811109742083800,4.119083740234375,-1.3410335779190063,0.5475454330444336,-1.5322483777999878
1772811109751965000,4.12896484375,-1.2142672538757324,0.6439517736434937,-1.5322483777999878
1772811109761846000,4.138845947265625,-1.0752503871917725,0.7403581738471985,-1.4954968690872192
1772811109771726800,4.148726806640625,-0.9372987151145935,0.8287750482559204,-1.4241241216659546
1772811109781608000,4.15860791015625,-0.8201197385787964,0.8969519138336182,-1.325587272644043
1772811109791489000,4.168489013671875,-0.716789186000824,0.9502150416374207,-1.2307788133621216
1772811109801369900,4.178369873046875,-0.5937512516975403,0.9976192712783813,-1.149286150932312
1772811109811251000,4.1882509765625,-0.42064592242240906,1.044490933418274,-1.0763156414031982
1772811109821132000,4.198132080078125,-0.20066902041435242,1.0828403234481812,-0.9889640212059021
1772811109831013000,4.20801318359375,0.08056055754423141,1.0950908660888672,-0.8712524175643921
1772811109840894000,4.21789404296875,0.439554363489151,1.0626003742218018,-0.7151913046836853
1772811109850775000,4.227775146484375,0.8763124346733093,0.9986845254898071,-0.4973449110984802
1772811109860656000,4.23765625,1.3796494007110596,0.9177245497703552,-0.24594271183013916
1772811109870537200,4.247537109375,1.9250643253326416,0.7456844449043274,0.05339633300900459
1772811109880418000,4.25741796875,2.468348741531372,0.4846948981285095,0.40972697734832764
1772811109890299100,4.267299072265625,2.9684898853302,0.22264008224010468,0.7777755260467529
1772811109900180200,4.27718017578125,3.4095091819763184,-0.009587371721863747,1.1074745655059814
1772811109910061000,4.28706103515625,3.7669050693511963,-0.21038953959941864,1.390302062034607
1772811109919942100,4.296942138671875,4.018307209014893,-0.4202464520931244,1.6283884048461914
1772811109929823200,4.3068232421875,4.179694652557373,-0.5933517813682556,1.8451695442199707
1772811109939704300,4.316704345703125,4.2563934326171875,-0.7089328765869141,2.056091785430908
1772811109949585200,4.326585205078125,4.233490467071533,-0.8117308020591736,2.255295991897583
1772811109959466200,4.33646630859375,4.095005989074707,-0.9086697697639465,2.4513044357299805
1772811109969347300,4.346347412109375,3.871833324432373,-1.0173267126083374,2.6196162700653076
1772811109979228200,4.356228271484375,3.628420829772949,-1.1291793584823608,2.7197508811950684
1772811109989109200,4.366109130859375,3.3732900619506836,-1.2239878177642822,2.7298710346221924
1772811109998990000,4.375989990234375,3.108572006225586,-1.2559456825256348,2.667020320892334
1772811110008870400,4.385870361328125,2.8321361541748047,-1.2154656648635864,2.533862352371216
1772811110018750700,4.395750732421875,2.578603506088257,-1.108406662940979,2.320277214050293
1772811110028631000,4.405631103515625,2.3564960956573486,-0.9225181937217712,1.998034954071045
1772811110038511400,4.415511474609375,2.1540958881378174,-0.6615286469459534,1.5474283695220947
1772811110048391700,4.4253916015625,1.9245316982269287,-0.39361485838890076,0.9684576988220215
1772811110058272000,4.43527197265625,1.6262578964233398,-0.13741900026798248,0.2749711573123932
1772811110068152300,4.44515234375,1.2970914840698242,0.17097479104995728,-0.422776460647583
1772811110078032600,4.45503271484375,0.9892303347587585,0.5225117802619934,-1.022519826889038
1772811110087913000,4.464912841796875,0.7261102795600891,0.8836361169815063,-1.4917683601379395
1772811110097793300,4.474793212890625,0.5103943943977356,1.2335751056671143,-1.8512948751449585
1772811110107673600,4.484673583984375,0.32876694202423096,1.5712636709213257,-2.1106865406036377
1772811110117554000,4.494553955078125,0.19081532955169678,1.922268033027649,-2.2656824588775635
1772811110127434200,4.504434326171875,0.09973529726266861,2.257826089859009,-2.322674036026001
1772811110137314600,4.514314453125,0.06831002235412598,2.5465123653411865,-2.293379306793213
1772811110147195000,4.52419482421875,0.09014792740345001,2.7654240131378174,-2.2108213901519775
1772811110157075200,4.5340751953125,0.13701951503753662,2.916691541671753,-2.105360269546509
1772811110166955500,4.54395556640625,0.19081532955169678,2.9976515769958496,-1.997235894203186
1772811110176835800,4.5538359375,0.23821955919265747,2.9843356609344482,-1.8901770114898682
1772811110186716200,4.563716064453125,0.27656903862953186,2.909367799758911,-1.7756611108779907
1772811110196596500,4.573596435546875,0.32024484872817993,2.819885730743408,-1.6441011428833008
1772811110206476800,4.583476806640625,0.37031224370002747,2.7048373222351074,-1.513606309890747
1772811110216357000,4.593357177734375,0.4352933168411255,2.5205466747283936,-1.3484904766082764
1772811110226237400,4.603237548828125,0.5040028095245361,2.3117549419403076,-1.1673957109451294
1772811110236117800,4.61311767578125,0.5695165395736694,2.0933759212493896,-1.0022798776626587
1772811110245998000,4.622998046875,0.6275733709335327,1.9080201387405396,-0.86805659532547
1772811110255878400,4.63287841796875,0.6845649480819702,1.7578179836273193,-0.7551386952400208
1772811110265758700,4.6427587890625,0.7495460510253906,1.6512916088104248,-0.6842986345291138
1772811110275639000,4.65263916015625,0.8187881708145142,1.5687336921691895,-0.649677574634552
1772811110285519400,4.662519287109375,0.8715187311172485,1.5138726234436035,-0.6294375658035278
1772811110295399700,4.672399658203125,0.916259765625,1.4931000471115112,-0.5980123281478882
1772811110305280000,4.682280029296875,0.9625987410545349,1.5032199621200562,-0.5580649375915527
1772811110315160300,4.692160400390625,1.0041440725326538,1.4888389110565186,-0.4994754493236542
1772811110325040600,4.70204052734375,1.0222535133361816,1.4579463005065918,-0.414254367351532
1772811110334921000,4.7119208984375,1.0222535133361816,1.4137378931045532,-0.30826061964035034
1772811110344801300,4.72180126953125,1.02012300491333,1.3668662309646606,-0.1921469122171402
1772811110354681600,4.731681640625,1.007872462272644,1.3327778577804565,-0.08668582141399384
1772811110364562000,4.74156201171875,0.9892303347587585,1.2875040769577026,0.0006657897029072046
1772811110374442200,4.751442138671875,0.995621919631958,1.1910977363586426,0.10186582803726196
1772811110394203000,4.771202880859375,1.0606030225753784,0.9945566654205322,0.3175816833972931
1772811110404083200,4.781083251953125,1.1026809215545654,0.8885629177093506,0.3926827609539032
1772811110413963500,4.790963623046875,1.1319756507873535,0.8086681962013245,0.42730382084846497
1772811110423843800,4.80084375,1.1484872102737427,0.7431544661521912,0.41665118932724
1772811110433724200,4.81072412109375,1.1213229894638062,0.668053388595581,0.374573290348053
1772811110443604500,4.8206044921875,1.020655632019043,0.5609943866729736,0.2829606235027313
1772811110453484800,4.83048486328125,0.8933566212654114,0.4784364700317383,0.1279647797346115
1772811110463365000,4.840365234375,0.7815039753913879,0.41345539689064026,-0.08881634473800659
1772811110473245400,4.850245361328125,0.7101312875747681,0.36179012060165405,-0.31198906898498535
1772811110483125800,4.860125732421875,0.5977460145950317,0.3351585268974304,-0.5143890976905823
1772811110493006000,4.870006103515625,0.56312495470047,0.3229080140590668,-0.7098649740219116
1772811110502887000,4.879886962890625,0.580169141292572,0.3223753869533539,-0.8574039936065674
1772811110512767500,4.889767578125,0.5918870568275452,0.33462589979171753,-0.9420924186706543
1772811110522648300,4.8996484375,0.5737775564193726,0.31065747141838074,-1.0246503353118896
1772811110532529200,4.909529052734375,0.5194491147994995,0.25792694091796875,-1.1167956590652466
1772811110542410000,4.919409912109375,0.4150533080101013,0.19560901820659637,-1.1982883214950562
1772811110552290800,4.929290771484375,0.2595248222351074,0.11997530609369278,-1.2393009662628174
1772811110562171600,4.939171630859375,0.06351634114980698,0.035286854952573776,-1.2371704578399658
1772811110572052500,4.949052490234375,-0.1681784838438034,-0.05632580816745758,-1.1898993253707886
1772811110581933300,4.958933349609375,-0.4099932909011841,-0.1639174222946167,-1.108406662940979
1772811110591814100,4.968814208984375,-0.6475470662117004,-0.2828274667263031,-0.9793766736984253
1772811110601694700,4.97869482421875,-0.8366313576698303,-0.36005908250808716,-0.8147934675216675
1772811110611575600,4.988575439453125,-0.9649956226348877,-0.39947381615638733,-0.6693849563598633
1772811110621456400,4.998456298828125,-1.0922945737838745,-0.4245075285434723,-0.5692501664161682
1772811110631337200,5.008337158203125,-1.2398335933685303,-0.43196436762809753,-0.5277048945426941
1772811110641218000,5.018218017578125,-1.3990905284881592,-0.4042675197124481,-0.5330312252044678
1772811110651099000,5.028098876953125,-1.5583473443984985,-0.339819073677063,-0.5612607002258301
1772811110660979700,5.037979736328125,-1.7117453813552856,-0.2588590383529663,-0.5767070651054382
1772811110670860500,5.047860595703125,-1.849164366722107,-0.1603221595287323,-0.5548691153526306
1772811110680741000,5.0577412109375,-1.9546253681182861,-0.0612526535987854,-0.4930838644504547
1772811110690622000,5.0676220703125,-2.024400234222412,0.03355580195784569,-0.39667749404907227
1772811110700502800,5.077502685546875,-2.083522319793701,0.08894950151443481,-0.2635195553302765
1772811110710383600,5.087383544921875,-2.1250674724578857,0.08202528953552246,-0.1074584573507309
1772811110720264400,5.097264404296875,-2.143709659576416,0.004793685860931873,0.06191844120621681
1772811110730145300,5.107145263671875,-2.149568557739258,-0.13582110404968262,0.23076270520687103
1772811110740026000,5.117026123046875,-2.139448642730713,-0.31798115372657776,0.38096487522125244
1772811110749907000,5.126906982421875,-2.1160128116607666,-0.5336970090866089,0.49920910596847534
1772811110759787500,5.13678759765625,-2.074467658996582,-0.7744466066360474,0.588691234588623
1772811110769668400,5.14666845703125,-2.0084211826324463,-1.0082719326019287,0.6675207614898682
1772811110779549200,5.156549072265625,-1.9152106046676636,-1.217063546180725,0.7431544661521912
1772811110789430000,5.166429931640625,-1.803890585899353,-1.3827120065689087,0.8145270943641663
1772811110799310800,5.176310791015625,-1.7032232284545898,-1.4887057542800903,0.8715187311172485
1772811110809191700,5.186191650390625,-1.6190674304962158,-1.5371752977371216,0.907737672328949
1772811110819072500,5.196072509765625,-1.555684208869934,-1.5547521114349365,0.941293478012085
1772811110828953300,5.205953369140625,-1.496562123298645,-1.5467625856399536,0.9950892925262451
1772811110838834200,5.215834228515625,-1.4491578340530396,-1.532381534576416,1.0696576833724976
1772811110848714800,5.22571484375,-1.4193304777145386,-1.5116089582443237,1.1612703800201416
1772811110858595600,5.235595703125,-1.4134715795516968,-1.480183720588684,1.256078839302063
1772811110868476400,5.245476318359375,-1.4241241216659546,-1.4221267700195312,1.3466262817382812
1772811110878357200,5.255357177734375,-1.447027325630188,-1.3448952436447144,1.4206620454788208
1772811110888238000,5.265238037109375,-1.4853768348693848,-1.259141445159912,1.4685989618301392
1772811110898119000,5.275118896484375,-1.5221284627914429,-1.170192003250122,1.492034673690796
1772811110907999700,5.284999755859375,-1.5503579378128052,-1.0801771879196167,1.4925673007965088
1772811110917880600,5.294880615234375,-1.5705978870391846,-0.9992172122001648,1.4664684534072876
1772811110927761400,5.304761474609375,-1.5945663452148438,-0.9257140159606934,1.4078788757324219
1772811110937642200,5.314642333984375,-1.611077904701233,-0.8916255831718445,1.3199946880340576
1772811110947522800,5.324522705078125,-1.6238610744476318,-0.8905603289604187,1.2283819913864136
1772811110957403600,5.334403564453125,-1.628122091293335,-0.9017455577850342,1.1452914476394653
1772811110967284500,5.344284423828125,-1.6265242099761963,-0.91026771068573,1.0685924291610718
1772811110977165300,5.354165283203125,-1.6089473962783813,-0.9171919226646423,0.9977524280548096
1772811110987046100,5.364046142578125,-1.5674021244049072,-0.926113486289978,0.9279776811599731
1772811110996927000,5.373927001953125,-1.5152041912078857,-0.9410271644592285,0.8448871374130249
1772811111006807800,5.383807861328125,-1.4741915464401245,-0.947418749332428,0.7346323728561401
1772811111016688600,5.393688720703125,-1.4432989358901978,-0.9516798257827759,0.6025396585464478
1772811111026569500,5.403569580078125,-1.4193304777145386,-0.9282439947128296,0.4411522448062897
1772811111036450600,5.413450439453125,-1.387905240058899,-0.8739155530929565,0.2648511528968811
1772811111046331400,5.423331298828125,-1.3410335779190063,-0.8004123568534851,0.10133319348096848
1772811111056212200,5.433212158203125,-1.2733893394470215,-0.6949512958526611,-0.01904158480465412
1772811111066093000,5.443093017578125,-1.1849725246429443,-0.5548691153526306,-0.1122521460056305
1772811111075974000,5.452973876953125,-1.0859030485153198,-0.39188382029533386,-0.20493006706237793
1772811111085855000,5.46285498046875,-0.9873661398887634,-0.23795324563980103,-0.3050648272037506
1772811111095735800,5.47273583984375,-0.8866987228393555,-0.10053424537181854,-0.3956122398376465
1772811111105616600,5.48261669921875,-0.7913576364517212,0.023568956181406975,-0.4600606858730316
1772811111115497500,5.49249755859375,-0.7002776265144348,0.13062794506549835,-0.49255120754241943
1772811111125378600,5.502378662109375,-0.6134586334228516,0.21691428124904633,-0.4946817457675934
1772811111135259400,5.51225927734375,-0.5298354625701904,0.28189536929130554,-0.4739091098308563
1772811111145140200,5.52214013671875,-0.48722490668296814,0.3079943060874939,-0.4724443852901459
1772811111155021000,5.53202099609375,-0.4701806902885437,0.33782169222831726,-0.5443496704101562
1772811111164902000,5.54190185546875,-0.4131890833377838,0.3921501338481903,-0.6636591553688049
1772811111174783000,5.551782958984375,-0.30186906456947327,0.4667185842990875,-0.7776423692703247
1772811111184663800,5.561663818359375,-0.16551531851291656,0.5279712080955505,-0.8697876930236816
1772811111194544600,5.571544677734375,0.003328948514536023,0.580169141292572,-0.9479513764381409
1772811111204425500,5.581425537109375,0.2185121774673462,0.6201165318489075,-0.9857682585716248
1772811111214306600,5.591306640625,0.4645880460739136,0.6456828713417053,-0.9591366648674011
1772811111224187400,5.6011875,0.7340997457504272,0.6376934051513672,-0.8744481801986694
1772811111234068200,5.611068115234375,1.015861988067627,0.5870933532714844,-0.7386270761489868
1772811111243949000,5.620948974609375,1.3077441453933716,0.5370259881019592,-0.5633912682533264
1772811111253830000,5.630829833984375,1.6150726079940796,0.4496743679046631,-0.3561974763870239
1772811111263711000,5.6407109375,1.918140172958374,0.3032006323337555,-0.12823109328746796
1772811111273591800,5.650591796875,2.210555076599121,0.14074794948101044,0.10665950924158096
1772811111283472600,5.66047265625,2.458228826522827,-0.011584741063416004,0.3261038064956665
1772811111293353500,5.670353515625,2.6494436264038086,-0.1351553052663803,0.5193159580230713
1772811111303234600,5.680234619140625,2.7772750854492188,-0.2683132588863373,0.7099981307983398
1772811111313115400,5.690115478515625,2.860365629196167,-0.45473435521125793,0.9651287794113159
1772811111322996200,5.699996337890625,2.885931968688965,-0.6566017866134644,1.2767183780670166
1772811111332877000,5.709876953125,2.8582351207733154,-0.8584692478179932,1.612276315689087
1772811111342758000,5.7197578125,2.766622543334961,-1.052879810333252,1.9313228130340576
1772811111352639000,5.729638916015625,2.613224506378174,-1.2137346267700195,2.201367139816284
1772811111362519800,5.739519775390625,2.448641300201416,-1.3836441040039062,2.400038719177246
1772811111372400600,5.749400634765625,2.2835254669189453,-1.531183123588562,2.5060324668884277
1772811111382281500,5.759281494140625,2.09710431098938,-1.6270568370819092,2.4964451789855957
1772811111392162300,5.769162353515625,1.8797906637191772,-1.654354214668274,2.363952875137329
1772811111402043400,5.77904345703125,1.633182168006897,-1.594166874885559,2.1152138710021973
1772811111411924200,5.78892431640625,1.3865736722946167,-1.448225736618042,1.7828516960144043
1772811111421805000,5.79880517578125,1.1149314641952515,-1.2522172927856445,1.389769434928894
1772811111431686100,5.80868603515625,0.8241145014762878,-0.973118245601654,0.9359671473503113
1772811111441567000,5.81856689453125,0.5332975387573242,-0.621048629283905,0.4406196177005768
1772811111451447800,5.82844775390625,0.23928481340408325,-0.21784639358520508,-0.06644581258296967
1772811111461328600,5.83832861328125,-0.041944749653339386,0.24447797238826752,-0.5516733527183533
1772811111471209500,5.84820947265625,-0.3045322000980377,0.7451518177986145,-1.0161283016204834
1772811111481090600,5.858090576171875,-0.5399554371833801,1.24209725856781,-1.459810495376587
1772811111490971400,5.867971435546875,-0.7562039494514465,1.7177374362945557,-1.8475663661956787
1772811111500852200,5.877852294921875,-0.9564734697341919,2.1752681732177734,-2.1303939819335938
1772811111510733300,5.8877333984375,-1.114665150642395,2.628005027770996,-2.297640323638916
1772811111520614100,5.8976142578125,-1.204147219657898,3.0439906120300293,-2.377002477645874
1772811111530495200,5.9074951171875,-1.2153325080871582,3.407245397567749,-2.406829833984375
1772811111540376000,5.9173759765625,-1.1721893548965454,3.705519199371338,-2.4185476303100586
1772811111550257200,5.927257080078125,-1.101881980895996,3.9201698303222656,-2.4238739013671875
1772811111560138200,5.93713818359375,-1.0337051153182983,4.042142391204834,-2.4190802574157715
1772811111570019000,5.94701904296875,-0.9649956226348877,4.068241596221924,-2.3892529010772705
1772811111579900200,5.956900146484375,-0.8930903077125549,3.9856834411621094,-2.323206663131714
1772811111589781200,5.96678125,-0.792422890663147,3.822298765182495,-2.2034976482391357
1772811111599662000,5.976662109375,-0.6667218208312988,3.5927343368530273,-2.034653425216675
1772811111609543200,5.986543212890625,-0.5175849199295044,3.2886016368865967,-1.8338510990142822
1772811111619424000,5.996424072265625,-0.3524690568447113,2.934934139251709,-1.6186679601669312
1772811111629305000,6.00630517578125,-0.18149426579475403,2.553569793701172,-1.401354193687439
1772811111639186000,6.01618603515625,-0.013715268112719059,2.1535632610321045,-1.2064108848571777
1772811111649067000,6.02606689453125,0.15033531188964844,1.7450348138809204,-1.0396971702575684
1772811111658948000,6.035947998046875,0.32344064116477966,1.3796494007110596,-0.8985497951507568
1772811111668829000,6.045828857421875,0.5071985721588135,1.0361019372940063,-0.7765771150588989
1772811111678710000,6.0557099609375,0.7080007791519165,0.7346323728561401,-0.6519412994384766
1772811111688590800,6.0655908203125,0.928510308265686,0.5087965130805969,-0.5422191619873047
1772811111698472000,6.075471923828125,1.1522157192230225,0.33302801847457886,-0.45859596133232117
1772811111708353000,6.08535302734375,1.3428977727890015,0.17377111315727234,-0.3861580193042755
1772811111718233900,6.09523388671875,1.5096116065979004,0.024634219706058502,-0.30892643332481384
1772811111728115000,6.105114990234375,1.6603463888168335,-0.08881634473800659,-0.2221074402332306
1772811111737995800,6.114995849609375,1.7935043573379517,-0.1868205964565277,-0.12516845762729645
1772811111747876900,6.124876953125,1.92293381690979,-0.2768353521823883,-0.009587371721863747
1772811111757758000,6.134758056640625,2.072070598602295,-0.36525222659111023,0.1225053071975708
1772811111767638800,6.144638671875,2.245176076889038,-0.45473435521125793,0.27110958099365234
1772811111777519900,6.154519775390625,2.4204118251800537,-0.5362270474433899,0.4436822533607483
1772811111787400700,6.164400634765625,2.5892560482025146,-0.6235786080360413,0.6279728412628174
1772811111797281800,6.17428173828125,2.7538392543792725,-0.730238139629364,0.8225166201591492
1772811111807162600,6.18416259765625,2.9114983081817627,-0.8127960562705994,1.0217208862304688
1772811111817043700,6.194043701171875,3.0473194122314453,-0.8793750405311584,1.2155988216400146
1772811111826924800,6.2039248046875,3.1197574138641357,-0.9667266607284546,1.3716599941253662
1772811111836805600,6.2138056640625,3.1213552951812744,-1.048751950263977,1.4483588933944702
1772811111846686700,6.223686767578125,3.1149637699127197,-1.0998846292495728,1.4307820796966553
1772811111856567800,6.23356787109375,3.1112353801727295,-1.1185266971588135,1.352485179901123
1772811111866448600,6.24344873046875,3.0920605659484863,-1.1259835958480835,1.2550135850906372
1772811111876329700,6.253329833984375,3.0515804290771484,-1.1153309345245361,1.1602051258087158
1772811111886210600,6.26321044921875,2.988729953765869,-1.096156120300293,1.070723056793213
1772811111896091600,6.273091552734375,2.910433053970337,-1.061535120010376,1.003078818321228
1772811111905972500,6.282972412109375,2.7985804080963135,-1.0226529836654663,0.949815571308136
1772811111915853600,6.292853515625,2.6292035579681396,-1.0002824068069458,0.8954871296882629
1772811111925734700,6.302734619140625,2.388986587524414,-0.9773792624473572,0.8363650441169739
1772811111935615500,6.312615478515625,2.072070598602295,-0.9353013634681702,0.768720805644989
1772811111945496600,6.32249658203125,1.6859127283096313,-0.8878971338272095,0.6994786858558655
1772811111955377400,6.33237744140625,1.238502025604248,-0.8341013193130493,0.6355628371238708
1772811111965258500,6.342258544921875,0.7729818224906921,-0.7419560551643372,0.5652554631233215
1772811111975139600,6.3521396484375,0.3175816833972931,-0.6407560110092163,0.4672512114048004
1772811111985020400,6.3620205078125,-0.12503530085086823,-0.541686475276947,0.3261038064956665
1772811111994901500,6.371901611328125,-0.544216513633728,-0.4366248846054077,0.1507347822189331
1772811112004781800,6.38178173828125,-0.9197219014167786,-0.33169642090797424,-0.06764423102140427
1772811112014662400,6.391662353515625,-1.257943034172058,-0.2502037584781647,-0.3201116919517517
1772811112024543000,6.40154296875,-1.5551515817642212,-0.21718059480190277,-0.6013412475585938
1772811112034423600,6.411423583984375,-1.8108148574829102,-0.21771323680877686,-0.8910929560661316
1772811112044304000,6.421303955078125,-2.0132148265838623,-0.20812585949897766,-1.1568762063980103
1772811112054184400,6.431184326171875,-2.1516990661621094,-0.2155826985836029,-1.376853108406067
1772811112064065000,6.44106494140625,-2.2555623054504395,-0.27044376730918884,-1.5334467887878418
1772811112073945600,6.450945556640625,-2.342913866043091,-0.3625890612602234,-1.6154720783233643
1772811112083826200,6.460826171875,-2.4233412742614746,-0.47923544049263,-1.6405057907104492
1772811112093706500,6.47070654296875,-2.4995076656341553,-0.6289049386978149,-1.6213310956954956
1772811112103587000,6.480587158203125,-2.5815329551696777,-0.7902923822402954,-1.5600783824920654
1772811112113467600,6.490467529296875,-2.6635582447052,-0.9458208680152893,-1.4647372961044312
1772811112123348200,6.50034814453125,-2.7354636192321777,-1.0741851329803467,-1.3646025657653809
1772811112133228500,6.510228515625,-2.7961835861206055,-1.1668630838394165,-1.2777836322784424
1772811112143109000,6.520109130859375,-2.842522621154785,-1.2084083557128906,-1.2010846138000488
1772811112152989700,6.52998974609375,-2.8563709259033203,-1.1950925588607788,-1.128646731376648
1772811112162870300,6.539870361328125,-2.853175163269043,-1.1215893030166626,-1.0514150857925415
1772811112172750600,6.54975048828125,-2.8270761966705322,-0.9873661398887634,-0.9699224233627319
1772811112182631200,6.559631103515625,-2.782867908477783,-0.8334355354309082,-0.8799076676368713
1772811112192511700,6.56951171875,-2.7375941276550293,-0.6789723634719849,-0.7728486657142639
1772811112202392300,6.579392333984375,-2.680069923400879,-0.5255743861198425,-0.6476802229881287
1772811112212273000,6.58927294921875,-2.614023447036743,-0.3854922354221344,-0.5145222544670105
1772811112222153200,6.5991533203125,-2.554368734359741,-0.2677806317806244,-0.37870118021965027
1772811112232033800,6.60903369140625,-2.519747734069824,-0.1681784838438034,-0.2455432415008545
1772811112241914400,6.618914306640625,-2.5021708011627197,-0.10213214159011841,-0.12357056885957718
1772811112251795000,6.628794921875,-2.501638174057007,-0.06910897046327591,-0.00852210819721222
1772811112261675300,6.63867529296875,-2.5074970722198486,-0.06751107424497604,0.10279793292284012
1772811112271555800,6.648555908203125,-2.521878242492676,-0.09680582582950592,0.21038953959941864
1772811112281436400,6.6584365234375,-2.5282697677612305,-0.1261005699634552,0.31798115372657776
1772811112291317000,6.66831689453125,-2.529867649078369,-0.15060162544250488,0.41332224011421204
1772811112301197300,6.678197265625,-2.5181498527526855,-0.1878858506679535,0.5049349069595337
1772811112311078000,6.688077880859375,-2.4782023429870605,-0.2251700758934021,0.5858949422836304
1772811112320958500,6.69795849609375,-2.4094929695129395,-0.23529008030891418,0.6402233839035034
1772811112330839000,6.707839111328125,-2.317347526550293,-0.2342248111963272,0.6540718078613281
1772811112340719600,6.7177197265625,-2.2172129154205322,-0.2198437601327896,0.633831799030304
1772811112350600000,6.727599853515625,-2.1058928966522217,-0.18575532734394073,0.5992107391357422
1772811112360480500,6.73748046875,-1.9722023010253906,-0.1356879472732544,0.5661875605583191
1772811112370361000,6.747361083984375,-1.828391671180725,-0.08082687109708786,0.5352949500083923
1772811112380241700,6.75724169921875,-1.6819179058074951,-0.03448790684342384,0.515587568283081
1772811112390122000,6.7671220703125,-1.5322483777999878,0.0011984214652329683,0.4942822754383087
1772811112400002600,6.77700244140625,-1.3820462226867676,0.024634219706058502,0.4532696306705475
1772811112409883100,6.786883056640625,-1.2393009662628174,0.03688475117087364,0.3856253921985626
1772811112419763700,6.796763671875,-1.0912293195724487,0.00918789766728878,0.31265485286712646
1772811112429644000,6.80664404296875,-0.9367660880088806,-0.042477384209632874,0.24234744906425476
1772811112439524600,6.816524658203125,-0.7892271280288696,-0.10000161081552505,0.1656484752893448
1772811112449405200,6.8264052734375,-0.6603302359580994,-0.16711321473121643,0.08149266242980957
1772811112459285800,6.83628564453125,-0.5506080985069275,-0.24114902317523956,0.0005326317623257637
1772811112469166300,6.846166259765625,-0.4568648934364319,-0.31625011563301086,-0.07137265801429749
1772811112479046700,6.856046630859375,-0.3796332776546478,-0.3817638158798218,-0.12570109963417053
1772811112488927200,6.86592724609375,-0.3141195774078369,-0.4366248846054077,-0.15819163620471954
1772811112498807800,6.875807861328125,-0.2438121885061264,-0.4664522707462311,-0.15712636709213257
1772811112508688600,6.885688720703125,-0.15805847942829132,-0.47284385561943054,-0.1267663538455963
1772811112518569700,6.89556982421875,-0.06271739304065704,-0.4712459444999695,-0.06764423102140427
1772811112528450600,6.905450439453125,0.02143842913210392,-0.46378910541534424,0.01597895286977291
1772811112538331400,6.915331298828125,0.08162581920623779,-0.4414185583591461,0.08309055864810944
1772811112548212200,6.925212158203125,0.1471395194530487,-0.39135119318962097,0.06551370769739151
1772811112558093000,6.935093017578125,0.24833956360816956,-0.30826061964035034,-0.02077263966202736
1772811112567974000,6.944973876953125,0.3969438076019287,-0.1873532235622406,-0.11451582610607147
1772811112577854700,6.954854736328125,0.6041375994682312,-0.07709844410419464,-0.19121479988098145
1772811112587735600,6.964735595703125,0.8576703071594238,-0.012117372825741768,-0.23702113330364227
1772811112597616400,6.974616455078125,1.1399651765823364,0.00013315794058144093,-0.21664796769618988
1772811112607497200,6.984497314453125,1.4350430965423584,-0.038216330111026764,-0.10692582279443741
1772811112617378000,6.9943779296875,1.7327842712402344,-0.13195951282978058,0.08002792298793793
1772811112627259100,7.004259033203125,2.0097527503967285,-0.259258508682251,0.3223753869533539
1772811112637140000,7.014139892578125,2.260089635848999,-0.3902859091758728,0.609996497631073
1772811112647020800,7.024020751953125,2.4768707752227783,-0.5372923016548157,0.9173250794410706
1772811112666782500,7.043782470703125,2.7586331367492676,-0.7956187129020691,1.4840452671051025
1772811112676663300,7.053663330078125,2.8385279178619385,-0.8696545362472534,1.7359800338745117
1772811112686544100,7.063544189453125,2.8875298500061035,-0.9106671810150146,1.960218071937561
1772811112696425000,7.073425048828125,2.909367799758911,-0.9239829778671265,2.1429107189178467
1772811112706306000,7.08330615234375,2.9072372913360596,-0.9239829778671265,2.2675466537475586
1772811112716187000,7.093186767578125,2.875279426574707,-0.9303745031356812,2.3282666206359863
1772811112726067700,7.103067626953125,2.825212001800537,-0.9165260791778564,2.3261361122131348
1772811112735948500,7.112948486328125,2.7581005096435547,-0.8617981672286987,2.2675466537475586
1772811112745829400,7.122829345703125,2.6696834564208984,-0.7547392249107361,2.126931667327881
1772811112755710200,7.132710205078125,2.5615592002868652,-0.6625939011573792,1.923466444015503
1772811112765591000,7.142591064453125,2.4161508083343506,-0.6056023240089417,1.6869779825210571
1772811112775471900,7.152471923828125,2.230262279510498,-0.5645896792411804,1.4259884357452393
1772811112785352700,7.162352783203125,1.9985675811767578,-0.5187833309173584,1.1394325494766235
1772811112795233500,7.172233642578125,1.7503610849380493,-0.46698489785194397,0.8374302983283997
1772811112805114400,7.1821142578125,1.4803168773651123,-0.3961448669433594,0.5269059538841248
1772811112814995500,7.191995361328125,1.2049461603164673,-0.2918822169303894,0.20466375350952148
1772811112824876300,7.201876220703125,0.9407608509063721,-0.1411474198102951,-0.1255679428577423
1772811112834757000,7.211757080078125,0.7048049569129944,0.06338317692279816,-0.46805015206336975
1772811112844638000,7.221637939453125,0.5034701824188232,0.3307643234729767,-0.8126628994941711
1772811112854518800,7.231518798828125,0.3404848575592041,0.6609960198402405,-1.149286150932312
1772811112864399600,7.241399658203125,0.21158796548843384,1.0338382720947266,-1.4619410037994385
1772811112874280400,7.251280517578125,0.11571425199508667,1.455682635307312,-1.7506273984909058
1772811112884161300,7.261161376953125,0.06351634114980698,1.9052238464355469,-2.0062906742095947
1772811112894042000,7.2710419921875,0.056592125445604324,2.3478407859802246,-2.2012338638305664
1772811112903923000,7.2809228515625,0.07097318023443222,2.756901979446411,-2.3194782733917236
1772811112913803800,7.2908037109375,0.0768321305513382,3.1116347312927246,-2.362621307373047
1772811112923684900,7.300684814453125,0.0720384493470192,3.407778024673462,-2.342381238937378
1772811112933565700,7.310565673828125,0.0672447606921196,3.615504503250122,-2.2598233222961426
1772811112943446500,7.320446533203125,0.060853179544210434,3.7673044204711914,-2.118143320083618
1772811112953327400,7.330327392578125,0.047537386417388916,3.849329710006714,-1.9482338428497314
1772811112963208200,7.340208251953125,0.02996053732931614,3.838677167892456,-1.7676717042922974
1772811112973089000,7.350089111328125,0.024101587012410164,3.7518582344055176,-1.5721957683563232
1772811112992850700,7.3698505859375,0.08002792298793793,3.4441301822662354,-1.182442545890808
1772811113002732300,7.379732177734375,0.11305109411478043,3.202315330505371,-1.012000322341919
1772811113012613600,7.389613525390625,0.14820478856563568,2.9269447326660156,-0.8570045232772827
1772811113022495200,7.3994951171875,0.19188059866428375,2.618551015853882,-0.7137265801429749
1772811113032376600,7.40937646484375,0.24993745982646942,2.290982484817505,-0.587492823600769
1772811113042258200,7.419258056640625,0.3069290518760681,1.9612833261489868,-0.4793685972690582
1772811113052139500,7.429139404296875,0.36072486639022827,1.6635421514511108,-0.3872233033180237
1772811113062021000,7.439021240234375,0.4251733124256134,1.4036178588867188,-0.3105243146419525
1772811113071902700,7.44890283203125,0.5141227841377258,1.2070767879486084,-0.24607586860656738
1772811113081784000,7.4587841796875,0.6286386251449585,1.0739188194274902,-0.1938779652118683
1772811113091665700,7.468665771484375,0.7394260168075562,0.9828387498855591,-0.14753900468349457
1772811113101547000,7.478547119140625,0.835832417011261,0.8970850706100464,-0.08681897819042206
1772811113111428600,7.4884287109375,0.9146618843078613,0.835832417011261,0.00426105409860611
1772811113121310200,7.498310302734375,0.978577733039856,0.7740471363067627,0.11664635688066483
1772811113131191600,7.508191650390625,1.0275797843933105,0.6909565329551697,0.25300008058547974
1772811113141073200,7.5180732421875,1.0701903104782104,0.6020070314407349,0.4138548672199249
1772811113150954500,7.52795458984375,1.1143988370895386,0.5221123099327087,0.5896233320236206
1772811113160836000,7.537836181640625,1.1628682613372803,0.4528701603412628,0.7659244537353516
1772811113170717700,7.5477177734375,1.2076094150543213,0.3921501338481903,0.9257140159606934
1772811113180599000,7.55759912109375,1.2741882801055908,0.3266364336013794,1.0631330013275146
1772811113190480600,7.567480712890625,1.365268349647522,0.2557964026927948,1.1803120374679565
1772811113200362200,7.5773623046875,1.4664684534072876,0.18868480622768402,1.2699272632598877
1772811113210243600,7.58724365234375,1.541569471359253,0.12157320231199265,1.318396806716919
1772811113220125200,7.597125244140625,1.5719294548034668,0.04114580526947975,1.3120051622390747
1772811113230006500,7.607006591796875,1.5282536745071411,-0.06058686226606369,1.2353062629699707
1772811113239888100,7.61688818359375,1.4302494525909424,-0.12769846618175507,1.0914956331253052
1772811113249769700,7.626769775390625,1.3471589088439941,-0.19853848218917847,0.8773776888847351
1772811113259651000,7.636651123046875,1.2970914840698242,-0.2768353521823883,0.6238449811935425
1772811113269532700,7.64653271484375,1.2603398561477661,-0.33542484045028687,0.3889543414115906
1772811113279414000,7.6564140625,1.2038809061050415,-0.3993406593799591,0.18602164089679718
1772811113289295600,7.666295654296875,1.1261167526245117,-0.4900212287902832,0.020373165607452393
1772811113299177200,7.67617724609375,1.042493462562561,-0.5795033574104309,-0.08668582141399384
1772811113309058600,7.68605859375,0.9439566135406494,-0.6828339099884033,-0.13781847059726715
1772811113318940200,7.695940185546875,0.7937544584274292,-0.8287750482559204,-0.16551531851291656
1772811113328821500,7.705821533203125,0.5865607261657715,-0.9901624321937561,-0.1916142702102661
1772811113338703000,7.715703125,0.3356911540031433,-1.1339730024337769,-0.2198437601327896
1772811113348584700,7.725584716796875,0.06831002235412598,-1.242629885673523,-0.24008376896381378
1772811113358466000,7.735466064453125,-0.19853848218917847,-1.3283835649490356,-0.24967113137245178
1772811113368347600,7.74534765625,-0.4462122619152069,-1.3992236852645874,-0.25659534335136414
1772811113378229000,7.75522900390625,-0.6592649817466736,-1.4508888721466064,-0.26991114020347595
1772811113388110600,7.765110595703125,-0.8366313576698303,-1.4938989877700806,-0.30040431022644043
1772811113397992200,7.7749921875,-0.9820398092269897,-1.5349116325378418,-0.34621065855026245
1772811113407873500,7.78487353515625,-1.1002840995788574,-1.555684208869934,-0.3957453966140747
1772811113417755100,7.794755126953125,-1.1961578130722046,-1.5519558191299438,-0.45486751198768616
1772811113427636500,7.804636474609375,-1.2792483568191528,-1.543433666229248,-0.5065327882766724
1772811113437518000,7.81451806640625,-1.36766517162323,-1.5146715641021729,-0.5480780601501465
1772811113447399700,7.824399658203125,-1.4587452411651611,-1.488572597503662,-0.5811012387275696
1772811113457281000,7.834281005859375,-1.539172649383545,-1.467267394065857,-0.5779054760932922
1772811113467162600,7.84416259765625,-1.5913705825805664,-1.46407151222229,-0.5177180767059326
1772811113477044200,7.854044189453125,-1.6201326847076416,-1.4789851903915405,-0.4063980281352997
1772811113486925600,7.863925537109375,-1.6323832273483276,-1.5423684120178223,-0.2679137885570526
1772811113496807000,7.873806884765625,-1.6462316513061523,-1.6622105836868286,-0.15393057465553284
1772811113506687500,7.8836875,-1.6643410921096802,-1.803890585899353,-0.10546109080314636
1772811113516568000,7.893568115234375,-1.6845811605453491,-1.9295917749404907,-0.0942758247256279
1772811113526448600,7.90344873046875,-1.690440058708191,-2.03878116607666,-0.09534108638763428
1772811113536329500,7.91332958984375,-1.6888421773910522,-2.128263473510742,-0.08362318575382233
1772811113546210000,7.9232099609375,-1.6835157871246338,-2.173537015914917,-0.05379580706357956
1772811113556090600,7.933090576171875,-1.677656888961792,-2.167678117752075,-0.03195790573954582
1772811113565971200,7.94297119140625,-1.677656888961792,-2.1373181343078613,-0.012250530533492565
1772811113575851800,7.952851806640625,-1.689907431602478,-2.0829896926879883,0.019174743443727493
1772811113585732400,7.962732421875,-1.7128106355667114,-2.0025622844696045,0.060187388211488724
1772811113595613000,7.972613037109375,-1.7383768558502197,-1.8944380283355713,0.0990695059299469
1772811113605493500,7.982493408203125,-1.7607474327087402,-1.762345314025879,0.12037477642297745
1772811113615374000,7.9923740234375,-1.7772589921951294,-1.6100126504898071,0.12357056885957718
1772811113625255000,8.0022548828125,-1.7884442806243896,-1.4257221221923828,0.09960214048624039
1772811113635135500,8.012135498046876,-1.7889769077301025,-1.2259851694107056,0.042610540986061096
1772811113645016000,8.02201611328125,-1.7879116535186768,-1.0454230308532715,-0.030360009521245956
1772811113654896600,8.031896728515624,-1.786313772201538,-0.8824376463890076,-0.10333056002855301
1772811113664777200,8.041777099609375,-1.781520128250122,-0.7338334321975708,-0.16138742864131927
1772811113674657800,8.05165771484375,-1.7671390771865845,-0.6081323027610779,-0.21305270493030548
1772811113684538400,8.061538330078125,-1.761812686920166,-0.5026712417602539,-0.2545979917049408
1772811113694419200,8.071419189453126,-1.75701904296875,-0.40679749846458435,-0.2886864244937897
1772811113704299800,8.0812998046875,-1.737311601638794,-0.3194459080696106,-0.30945906043052673
1772811113714180400,8.091180419921875,-1.7090821266174316,-0.259258508682251,-0.3190464377403259
1772811113724061000,8.10106103515625,-1.669667363166809,-0.2198437601327896,-0.31744852662086487
1772811113733941500,8.11094140625,-1.622795820236206,-0.19853848218917847,-0.3020022213459015
1772811113743822000,8.120822021484376,-1.573793649673462,-0.18042901158332825,-0.27483800053596497
1772811113753702700,8.13070263671875,-1.5199978351593018,-0.16604794561862946,-0.23222744464874268
1772811113763583500,8.14058349609375,-1.4528863430023193,-0.14261215925216675,-0.18269269168376923
1772811113773464000,8.150464111328125,-1.3783178329467773,-0.10586056113243103,-0.14434321224689484
1772811113783344600,8.1603447265625,-1.3101409673690796,-0.054727911949157715,-0.1363537311553955
1772811113793225200,8.17022509765625,-1.2504862546920776,0.011851056478917599,-0.15020215511322021
1772811113803105800,8.180105712890626,-1.1908314228057861,0.09387634694576263,-0.18535585701465607
1772811113812986400,8.189986328125,-1.1407641172409058,0.1806953251361847,-0.22903165221214294
1772811113822867000,8.199866943359375,-1.0885661840438843,0.2691121995449066,-0.27483800053596497
1772811113832747500,8.20974755859375,-1.0289113521575928,0.36072486639022827,-0.3211769461631775
1772811113842628000,8.219628173828125,-0.9570060968399048,0.44168490171432495,-0.3669832944869995
1772811113852509000,8.229509033203126,-0.8835029602050781,0.5034701824188232,-0.41225698590278625
1772811113862389500,8.239389404296874,-0.8105323910713196,0.5562007427215576,-0.446878045797348
1772811113872270000,8.24927001953125,-0.7311702370643616,0.5977460145950317,-0.46498751640319824
1772811113882150700,8.259150634765625,-0.6342312693595886,0.625975489616394,-0.45540016889572144
1772811113892031200,8.26903125,-0.5261070132255554,0.638758659362793,-0.41705065965652466
1772811113901911800,8.278911865234376,-0.41105857491493225,0.6286386251449585,-0.34621065855026245
1772811113911792400,8.28879248046875,-0.2992058992385864,0.5807017683982849,-0.25140219926834106
1772811113921673200,8.298673095703125,-0.23315955698490143,0.49335017800331116,-0.17363795638084412
1772811113931553800,8.3085537109375,-0.16711321473121643,0.41345539689064026,-0.16138742864131927
1772811113941434400,8.318434326171875,-0.03715106472373009,0.3442132771015167,-0.19494321942329407
1772811113951315000,8.32831494140625,0.14341109991073608,0.2920153737068176,-0.23009692132472992
1772811113961195500,8.338195556640626,0.33356064558029175,0.27337324619293213,-0.23915165662765503
1772811113971076000,8.348076171875,0.5354281067848206,0.2605900764465332,-0.2119874358177185
1772811113980956700,8.357956787109375,0.7474155426025391,0.231827974319458,-0.10226529836654663
1772811113990837500,8.36783740234375,0.9343692660331726,0.19294585287570953,0.1086568832397461
1772811114000718000,8.377718017578125,1.0813755989074707,0.12263846397399902,0.3877559304237366
1772811114010599200,8.38759912109375,1.2097399234771729,0.0027963167522102594,0.684431791305542
1772811114020480000,8.39747998046875,1.3359736204147339,-0.13302478194236755,0.9853687882423401
1772811114030361000,8.407361083984375,1.444097876548767,-0.2624543011188507,1.2644678354263306
1772811114040242200,8.4172421875,1.5452978610992432,-0.37856802344322205,1.5211963653564453
1772811114050123000,8.427123046875,1.6390410661697388,-0.4888227880001068,1.76301109790802
1772811114060004000,8.437004150390624,1.712011694908142,-0.599077582359314,1.9904448986053467
1772811114069885000,8.446885009765625,1.759415864944458,-0.699212372303009,2.1987040042877197
1772811114079766000,8.45676611328125,1.7743295431137085,-0.7966839671134949,2.3835270404815674
1772811114089647000,8.466647216796876,1.7588832378387451,-0.888829231262207,2.5459797382354736
1772811114099528000,8.47652783203125,1.7242621183395386,-0.9527450799942017,2.6647567749023438
1772811114109409000,8.486408935546875,1.6827168464660645,-0.9649956226348877,2.7292051315307617
1772811114119289900,8.496289794921875,1.6321169137954712,-0.9399619102478027,2.7265419960021973
1772811114129171000,8.5061708984375,1.578853726387024,-0.8957534432411194,2.6567671298980713
1772811114139052000,8.516052001953126,1.5106768608093262,-0.8334355354309082,2.5129566192626953
1772811114148932900,8.525932861328124,1.4265210628509521,-0.7460839152336121,2.2913818359375
1772811114158814000,8.53581396484375,1.3269188404083252,-0.6278396844863892,2.0053586959838867
1772811114168694800,8.54569482421875,1.1942936182022095,-0.5170522928237915,1.6389079093933105
1772811114178576000,8.555575927734376,1.020655632019043,-0.38762277364730835,1.2090741395950317
1772811114188457000,8.56545703125,0.8081355690956116,-0.24114902317523956,0.7286402583122253
1772811114198337800,8.575337890625,0.5748428106307983,-0.0834900289773941,0.2269011288881302
1772811114208219000,8.585218994140625,0.3399522304534912,0.08855003118515015,-0.2545979917049408
1772811114218099700,8.595099609375,0.11038793623447418,0.2792322039604187,-0.6929539442062378
1772811114227980800,8.604980712890624,-0.10532793402671814,0.4784364700317383,-1.0871014595031738
1772811114237861600,8.614861572265625,-0.2901511490345001,0.6850975751876831,-1.4365078210830688
1772811114247742700,8.62474267578125,-0.433429092168808,0.8965524435043335,-1.7431706190109253
1772811114257623800,8.634623779296875,-0.5367596745491028,1.1186598539352417,-1.99989914894104
1772811114267504600,8.644504638671876,-0.5868270397186279,1.347691535949707,-2.198038101196289
1772811114277385700,8.6543857421875,-0.5830986499786377,1.5740599632263184,-2.332261323928833
1772811114287266800,8.664266845703125,-0.531965970993042,1.7860474586486816,-2.4036340713500977
1772811114297147600,8.674147705078125,-0.44354909658432007,1.9564895629882812,-2.4185476303100586
1772811114307028700,8.68402880859375,-0.34447959065437317,2.0656790733337402,-2.3929812908172607
1772811114316909600,8.69390966796875,-0.25606271624565125,2.1189422607421875,-2.3359897136688232
1772811114326790700,8.703790771484375,-0.17723321914672852,2.1279971599578857,-2.242246627807617
1772811114336671500,8.71367138671875,-0.09467529505491257,2.0704727172851562,-2.1106865406036377
1772811114346552600,8.723552490234376,-0.012650004588067532,1.9442391395568848,-1.9194717407226562
1772811114356433700,8.73343359375,0.0768321305513382,1.7860474586486816,-1.6627432107925415
1772811114366314500,8.743314453125,0.17963005602359772,1.5996263027191162,-1.3660672903060913
1772811114376195600,8.753195556640625,0.2925480008125305,1.3423651456832886,-1.0395640134811401
1772811114386076400,8.763076416015625,0.4161185622215271,1.0600703954696655,-0.6727139353752136
1772811114395957500,8.77295751953125,0.5508744120597839,0.7761776447296143,-0.2881537973880768
1772811114405838600,8.782838623046874,0.6925544738769531,0.4672512114048004,0.09587371349334717
1772811114415719400,8.792719482421875,0.8310387134552002,0.14660689234733582,0.4671180546283722
1772811114425600500,8.8026005859375,0.9530113935470581,-0.15805847942829132,0.8085350394248962
1772811114435481300,8.8124814453125,1.0526134967803955,-0.4137217104434967,1.1009498834609985
1772811114445362400,8.822362548828124,1.1309103965759277,-0.6017407178878784,1.339036226272583
1772811114455243500,8.832243408203125,1.1926956176757812,-0.7402250170707703,1.5217289924621582
1772811114465124400,8.842124267578125,1.2475566864013672,-0.8211849927902222,1.6596806049346924
1772811114475005400,8.85200537109375,1.310939908027649,-0.8403597474098206,1.7614132165908813
1772811114484886300,8.86188623046875,1.372192621231079,-0.8217176795005798,1.8263943195343018
1772811114494767400,8.871767333984375,1.424390435218811,-0.7647260427474976,1.859950065612793
1772811114504648000,8.88164794921875,1.4685989618301392,-0.6693849563598633,1.862613320350647
1772811114514528500,8.891528564453125,1.5005568265914917,-0.5468796491622925,1.8322532176971436
1772811114524409000,8.9014091796875,1.5170683860778809,-0.41159120202064514,1.7773921489715576
1772811114534290000,8.9112900390625,1.5191988945007324,-0.26884588599205017,1.6953668594360352
1772811114544170500,8.92117041015625,1.5096116065979004,-0.1261005699634552,1.5962973833084106
1772811114554051000,8.931051025390625,1.4797842502593994,0.008655265904963017,1.4828468561172485
1772811114563931600,8.940931640625,1.436640977859497,0.10665950924158096,1.3630046844482422
1772811114573812200,8.950812255859375,1.3940304517745972,0.17323848605155945,1.2484889030456543
1772811114583693000,8.960693115234376,1.353017807006836,0.22011007368564606,1.146223545074463
1772811114593573600,8.97057373046875,1.3125377893447876,0.24940481781959534,1.0530129671096802
1772811114603454200,8.9804541015625,1.2843083143234253,0.24407850205898285,0.9619329571723938
1772811114613334800,8.990334716796875,1.2486220598220825,0.21691428124904633,0.8745813369750977
1772811114623215400,9.00021533203125,1.20175039768219,0.18442374467849731,0.7920234203338623
1772811114633096200,9.01009619140625,1.1490198373794556,0.14341109991073608,0.7068023681640625
1772811114642976800,9.019976806640624,1.0904303789138794,0.09227845072746277,0.6242444515228271
1772811114652857300,9.029857421875,1.000948190689087,0.024634219706058502,0.5571328401565552
1772811114662738000,9.039738037109375,0.8518113493919373,-0.05313001945614815,0.4862928092479706
1772811114672618500,9.049618408203125,0.6318344473838806,-0.11438266932964325,0.3781685531139374
1772811114682499300,9.059499267578126,0.4246406853199005,-0.1399489939212799,0.21891164779663086
1772811114692380000,9.0693798828125,0.2802974581718445,-0.12237215042114258,0.034621063619852066
1772811114702260500,9.079260498046875,0.1945437490940094,-0.07177212834358215,-0.1608547866344452
1772811114712141000,9.08914111328125,0.14873741567134857,0.010253161191940308,-0.3595264256000519
1772811114722021600,9.099021728515625,0.1514005810022354,0.1045289859175682,-0.5475454330444336
1772811114731902200,9.108902099609375,0.18442374467849731,0.1892174333333969,-0.7089328765869141
1772811114741783000,9.118782958984376,0.20572902262210846,0.24035008251667023,-0.8287750482559204
1772811114751663600,9.12866357421875,0.20519638061523438,0.25419852137565613,-0.9118655920028687
1772811114761544200,9.138544189453125,0.16471637785434723,0.22543638944625854,-0.9587371945381165
1772811114771424800,9.1484248046875,0.06671212613582611,0.17963005602359772,-0.9747161269187927
1772811114781305300,9.158305419921875,-0.08775108307600021,0.1189100444316864,-0.9507476687431335
1772811114791186200,9.168186279296876,-0.28375956416130066,0.06191844120621681,-0.8953539729118347
1772811114801066800,9.178066650390624,-0.4941491186618805,0.03688475117087364,-0.8149266242980957
1772811114810947300,9.187947265625,-0.6976144313812256,0.04221106693148613,-0.7451518177986145
1772811114820828000,9.197827880859375,-0.8728502988815308,0.07949528843164444,-0.705204427242279
1772811114830708500,9.20770849609375,-1.0214545726776123,0.1471395194530487,-0.7099981307983398
1772811114840589300,9.21758935546875,-1.139166235923767,0.23129534721374512,-0.7595328688621521
1772811114850470000,9.227469970703124,-1.2371704578399658,0.30160272121429443,-0.8410255312919617
1772811114860350500,9.2373505859375,-1.3314462900161743,0.3308974802494049,-0.9390298128128052
1772811114870231000,9.24723095703125,-1.4321136474609375,0.3404848575592041,-1.0162614583969116
1772811114880111600,9.257111572265625,-1.5162694454193115,0.3404848575592041,-1.0769814252853394
1772811114889992400,9.266992431640626,-1.580717921257019,0.31971222162246704,-1.1275814771652222
1772811114899873000,9.276873046875,-1.635578989982605,0.26325324177742004,-1.163267731666565
1772811114909753600,9.286753662109374,-1.6957663297653198,0.17749953269958496,-1.1835078001022339
1772811114919634200,9.29663427734375,-1.7548885345458984,0.07949528843164444,-1.1946930885314941
1772811114929514800,9.3065146484375,-1.8028253316879272,-0.046205803751945496,-1.192562460899353
1772811114939395300,9.316395263671875,-1.8305221796035767,-0.19001637399196625,-1.162735104560852
1772811114949276200,9.326276123046876,-1.8454358577728271,-0.3380880057811737,-1.1004172563552856
1772811114959156700,9.33615673828125,-1.8390443325042725,-0.49201858043670654,-1.0088045597076416
1772811114969037300,9.346037353515625,-1.8033579587936401,-0.6555365324020386,-0.8926908373832703
1772811114978918000,9.35591796875,-1.7484968900680542,-0.8211849927902222,-0.7536739706993103
1772811114988798500,9.365798583984375,-1.6909726858139038,-0.9804419279098511,-0.5976128578186035
1772811114998679300,9.37567919921875,-1.6243937015533447,-1.1205240488052368,-0.43729066848754883
1772811115008559900,9.385559814453124,-1.5535537004470825,-1.2398335933685303,-0.27110958099365234
1772811115018440700,9.395440673828125,-1.4875073432922363,-1.3229241371154785,-0.09693898260593414
1772811115028321500,9.405321533203125,-1.42518949508667,-1.3543493747711182,0.08149266242980957
1772811115038202400,9.415202392578125,-1.3751220703125,-1.3607410192489624,0.2556632459163666
1772811115048083200,9.425083251953126,-1.3602083921432495,-1.3405009508132935,0.4149201512336731
1772811115057963800,9.4349638671875,-1.3767199516296387,-1.3000209331512451,0.558198094367981
1772811115067844600,9.4448447265625,-1.4140042066574097,-1.2398335933685303,0.6737791895866394
1772811115077725400,9.454725341796875,-1.4656693935394287,-1.1530146598815918,0.7584676146507263
1772811115087606300,9.464606201171875,-1.51413893699646,-1.0395640134811401,0.8074697256088257
1772811115097487000,9.474487060546876,-1.539172649383545,-0.9021450281143188,0.8207855224609375
1772811115107368000,9.484367919921874,-1.5498253107070923,-0.7572692036628723,0.809600293636322
1772811115117248500,9.49424853515625,-1.5599452257156372,-0.6145238876342773,0.788827657699585
1772811115127129300,9.50412939453125,-1.5663368701934814,-0.47657227516174316,0.7744466066360474
1772811115137010200,9.51401025390625,-1.5721957683563232,-0.3338269591331482,0.7579349875450134
1772811115146891000,9.52389111328125,-1.5775221586227417,-0.2251700758934021,0.7291728854179382
1772811115156771800,9.533771728515624,-1.5817831754684448,-0.1351553052663803,0.6940191984176636
1772811115166652400,9.54365234375,-1.5876420736312866,-0.04727106913924217,0.6391581296920776
1772811115176533200,9.553533203125,-1.5791200399398804,0.04221106693148613,0.5677854418754578
1772811115186414000,9.5634140625,-1.5503579378128052,0.12050793319940567,0.491086483001709
1772811115196295000,9.573294921875,-1.50668203830719,0.1945437490940094,0.42410802841186523
1772811115206175700,9.58317578125,-1.4502230882644653,0.2685795724391937,0.3644532859325409
1772811115216056600,9.593056640625,-1.3783178329467773,0.34368064999580383,0.3021353781223297
1772811115225937200,9.602937255859375,-1.2968251705169678,0.397476464509964,0.24035008251667023
1772811115235818000,9.61281787109375,-1.2014840841293335,0.4384891092777252,0.17323848605155945
1772811115245698800,9.62269873046875,-1.1045451164245605,0.46618595719337463,0.10612688213586807
1772811115255579600,9.63257958984375,-0.9953556060791016,0.4640554189682007,0.0390152782201767
1772811115265460500,9.64246044921875,-0.8856334686279297,0.4431496262550354,-0.01584579423069954
1772811115275341000,9.652341064453125,-0.7652586698532104,0.39947381615638733,-0.05099949240684509
1772811115285222000,9.662221923828126,-0.6331660151481628,0.32863378524780273,-0.06697844713926315
1772811115295102700,9.672102783203124,-0.4973449110984802,0.2396842986345291,-0.07070686668157578
1772811115304983600,9.681983642578125,-0.36471959948539734,0.12410320341587067,-0.06538055092096329
1772811115314864400,9.691864501953125,-0.2342248111963272,-0.003728422336280346,-0.05632580816745758
1772811115324745000,9.701744873046875,-0.10852371901273727,-0.1267663538455963,-0.050466857850551605
1772811115334625800,9.711625732421876,0.018242638558149338,-0.22796639800071716,-0.04301001504063606
1772811115344506600,9.721506591796874,0.1327584683895111,-0.29081693291664124,-0.02756369300186634
1772811115354387500,9.731387451171875,0.23555639386177063,-0.3259706497192383,0.004926843568682671
1772811115364268300,9.741268310546875,0.330364853143692,-0.34248220920562744,0.05925528332591057
1772811115374149000,9.751149169921876,0.4161185622215271,-0.3430148661136627,0.14128057658672333
1772811115384030000,9.761030029296874,0.5087965130805969,-0.3115895688533783,0.23129534721374512
1772811115393910500,9.77091064453125,0.6153228282928467,-0.2619216740131378,0.31545117497444153
1772811115403791400,9.780791259765625,0.7378281354904175,-0.2029327005147934,0.38575854897499084
1772811115413672200,9.790672119140625,0.852876603603363,-0.14327794313430786,0.428901731967926
1772811115423553000,9.800552978515626,0.9391629695892334,-0.10013477504253387,0.4294343590736389
1772811115433433900,9.810433837890624,1.0307756662368774,-0.06977476179599762,0.39587855339050293
1772811115443314400,9.820314453125,1.1942936182022095,-0.047936856746673584,0.363920658826828
1772811115453195300,9.8301953125,1.4121400117874146,-0.04900212213397026,0.36605116724967957
1772811115463076000,9.840076171875,1.625725269317627,-0.07669897377490997,0.38575854897499084
1772811115472957000,9.84995703125,1.8355822563171387,-0.1272989958524704,0.3932153880596161
1772811115482837800,9.859837646484374,2.0582222938537598,-0.19174742698669434,0.40972697734832764
1772811115492718600,9.869718505859375,2.2867212295532227,-0.24128219485282898,0.4784364700317383
1772811115502599200,9.87959912109375,2.483795166015625,-0.2876211404800415,0.6158554553985596
1772811115512480000,9.88947998046875,2.652106761932373,-0.329166442155838,0.8001460433006287
1772811115522360600,9.899360595703126,2.7927215099334717,-0.3259706497192383,1.013198733329773
1772811115532241400,9.909241455078124,2.91469407081604,-0.2689790427684784,1.2528830766677856
1772811115542122000,9.9191220703125,3.0126984119415283,-0.2071937620639801,1.498958945274353
1772811115552002800,9.9290029296875,3.0771467685699463,-0.15659373998641968,1.6976306438446045
1772811115561883400,9.93888330078125,3.1245510578155518,-0.08894950151443481,1.7988306283950806
1772811115571764200,9.94876416015625,3.142660617828369,0.026098955422639847,1.7620790004730225
1772811115581645000,9.95864501953125,3.118159532546997,0.12623372673988342,1.5974957942962646
1772811115591525600,9.968525634765625,3.030275344848633,0.17856480181217194,1.3731247186660767
1772811115601406500,9.978406494140625,2.851310968399048,0.2041311264038086,1.1302446126937866
1772811115611287000,9.988287109375,2.5849950313568115,0.20093533396720886,0.872983455657959
1772811115621167900,9.99816796875,2.235588550567627,0.18442374467849731,0.6061349511146545
1772811115631048400,10.00804833984375,1.8270601034164429,0.16471637785434723,0.3451453745365143
1772811115640929300,10.01792919921875,1.4132052659988403,0.1615205854177475,0.07510107755661011
1772811115650809900,10.027809814453125,1.0307756662368774,0.18602164089679718,-0.20559586584568024
1772811115660690700,10.037690673828125,0.6850975751876831,0.23502376675605774,-0.48842331767082214
1772811115680452000,10.0574521484375,0.08801739662885666,0.4411522448062897,-1.1020151376724243
1772811115690333000,10.0673330078125,-0.1548626869916916,0.5865607261657715,-1.465269923210144
1772811115700213500,10.077213623046875,-0.3625890612602234,0.7692534327507019,-1.8450363874435425
1772811115710094300,10.08709423828125,-0.5186501741409302,0.999350368976593,-2.201899766921997
1772811115719975000,10.096974853515626,-0.6321007609367371,1.2614052295684814,-2.494314432144165
1772811115729855700,10.106855712890624,-0.704006016254425,1.5431673526763916,-2.6945841312408447
1772811115739736300,10.116736328125,-0.7530081272125244,1.8425064086914062,-2.7957842350006104
1772811115749617200,10.1266171875,-0.774846076965332,2.1594223976135254,-2.8149588108062744
1772811115759498000,10.136498046875,-0.75034499168396,2.4465107917785645,-2.7888598442077637
1772811115769378600,10.146378662109376,-0.6896249651908875,2.702174186706543,-2.757434606552124
1772811115779259400,10.15625927734375,-0.6230459809303284,2.9232163429260254,-2.7339987754821777
1772811115789140000,10.166139892578125,-0.5676522850990295,3.1197574138641357,-2.707367181777954
1772811115799020800,10.176020751953125,-0.5000080466270447,3.2948601245880127,-2.649177312850952
1772811115808901400,10.1859013671875,-0.4099932909011841,3.4194958209991455,-2.5644888877868652
1772811115818782200,10.1957822265625,-0.3146522045135498,3.478085517883301,-2.4600930213928223
1772811115828663000,10.2056630859375,-0.23156166076660156,3.47222638130188,-2.31681489944458
1772811115838543600,10.215543701171875,-0.15273216366767883,3.3854074478149414,-2.1250674724578857
1772811115848424400,10.225424560546875,-0.0648479163646698,3.2059106826782227,-1.870469570159912
1772811115858305000,10.235304931640625,0.02516685053706169,2.9486494064331055,-1.563673734664917
1772811115868185900,10.245185791015626,0.10559424757957458,2.6269397735595703,-1.2275830507278442
1772811115878066400,10.25506640625,0.17164058983325958,2.247173309326172,-0.8909597992897034
1772811115887947300,10.264947265625,0.23342587053775787,1.8359817266464233,-0.5729786157608032
1772811115897828000,10.274828125,0.29627642035484314,1.4178657531738281,-0.290683776140213
1772811115907708700,10.284708740234375,0.34794169664382935,0.9960213899612427,-0.04514054208993912
1772811115917589500,10.294589599609376,0.3910848796367645,0.6034718155860901,0.17004269361495972
1772811115927470000,10.304469970703124,0.44275015592575073,0.26684850454330444,0.35699644684791565
1772811115937351000,10.314350830078125,0.5050680637359619,0.00852210819721222,0.5215796828269958
1772811115947231500,10.3242314453125,0.5924196839332581,-0.1832253336906433,0.6574007272720337
1772811115957112300,10.3341123046875,0.6866955161094666,-0.3078611493110657,0.7628618478775024
1772811115966993200,10.3439931640625,0.7799060344696045,-0.392549604177475,0.832103967666626
1772811115976873700,10.353873779296874,0.8699208498001099,-0.4676506817340851,0.8773776888847351
1772811115986754600,10.363754638671875,0.962066113948822,-0.5070654153823853,0.9242492914199829
1772811115996635100,10.37363525390625,1.0462219715118408,-0.5235770344734192,0.9721861481666565
1772811116006516000,10.383515869140625,1.1186598539352417,-0.5422191619873047,1.0291776657104492
1772811116016396500,10.393396484375,1.1745861768722534,-0.5629917979240417,1.0984199047088623
1772811116026277400,10.40327734375,1.220925211906433,-0.5795033574104309,1.1708577871322632
1772811116036158000,10.413157958984375,1.2704598903656006,-0.600275993347168,1.2379693984985352
1772811116046038500,10.42303857421875,1.327984094619751,-0.6199833750724792,1.280579924583435
1772811116055919400,10.43291943359375,1.3791167736053467,-0.6412886381149292,1.2891020774841309
1772811116065800000,10.442800048828126,1.4190641641616821,-0.6727139353752136,1.2550135850906372
1772811116075680800,10.4526806640625,1.44463050365448,-0.7089328765869141,1.1852388381958008
1772811116085561300,10.462561279296875,1.4627399444580078,-0.7653918266296387,1.0733861923217773
1772811116095442200,10.472442138671875,1.4717947244644165,-0.8378297686576843,0.9359671473503113
1772811116105322800,10.48232275390625,1.4728599786758423,-0.9123982191085815,0.7921565771102905
1772811116115203600,10.49220361328125,1.4680663347244263,-1.0269140005111694,0.6797713041305542
1772811116125084200,10.502084228515624,1.4313147068023682,-1.2181288003921509,0.6036049723625183
1772811116134965000,10.511965087890625,1.310407280921936,-1.4748573303222656,0.5375586152076721
1772811116144845600,10.521845458984375,1.1266493797302246,-1.7422385215759277,0.462457537651062
1772811116154726400,10.531726318359375,0.9716535210609436,-2.0016300678253174,0.4065311849117279
1772811116164607000,10.54160693359375,0.8683229088783264,-2.232792377471924,0.4123901426792145
1772811116174487600,10.551487548828124,0.7910913228988647,-2.420278787612915,0.4832301735877991
1772811116184368400,10.561368408203125,0.7309039235115051,-2.559295654296875,0.5721796751022339
1772811116194249000,10.5712490234375,0.6872281432151794,-2.648245096206665,0.6659228801727295
1772811116204129800,10.5811298828125,0.6536723375320435,-2.6711483001708984,0.752741813659668
1772811116214010400,10.59101025390625,0.6068007349967957,-2.6546366214752197,0.8161250352859497
1772811116223891200,10.60089111328125,0.5231775641441345,-2.605102062225342,0.8267776370048523
1772811116233771800,10.610771728515624,0.3878890872001648,-2.4985756874084473,0.7815039753913879
1772811116243652600,10.620652587890625,0.21691428124904633,-2.3398513793945312,0.701609194278717
1772811116253533200,10.630533203125,0.016644742339849472,-2.1608870029449463,0.622247040271759
1772811116263414000,10.6404140625,-0.20439743995666504,-1.9909775257110596,0.5753754377365112
1772811116273294600,10.650294677734376,-0.4318312108516693,-1.8445037603378296,0.5689838528633118
1772811116283175200,10.660175048828124,-0.6299701929092407,-1.752891182899475,0.617453396320343
1772811116293056000,10.670055908203125,-0.7652586698532104,-1.686844825744629,0.7154576182365417
1772811116302936600,10.6799365234375,-0.8435555696487427,-1.6458321809768677,0.8337018489837646
1772811116312817400,10.6898173828125,-0.9032102823257446,-1.653821587562561,0.9290429353713989
1772811116322698000,10.699697998046876,-0.9761808514595032,-1.6767247915267944,0.9689903259277344
1772811116332578800,10.709578857421874,-1.077380895614624,-1.6932363510131836,0.9578050374984741
1772811116342459400,10.71945947265625,-1.1972230672836304,-1.703356385231018,0.9024113416671753
1772811116352340200,10.72934033203125,-1.3351746797561646,-1.6969647407531738,0.8118639588356018
1772811116362220800,10.739220703125,-1.4864420890808105,-1.6724637746810913,0.7010765671730042
1772811116372101400,10.749101318359376,-1.6366442441940308,-1.641038417816162,0.583897590637207
1772811116381982200,10.758982177734374,-1.7767263650894165,-1.5931016206741333,0.462457537651062
1772811116391862800,10.76886279296875,-1.9125474691390991,-1.5361100435256958,0.3308974802494049
1772811116401743600,10.77874365234375,-2.045172691345215,-1.4839121103286743,0.1849563866853714
1772811116411624200,10.788624267578125,-2.163417100906372,-1.43118155002594,0.008122634142637253
1772811116421505000,10.798505126953126,-2.2608885765075684,-1.38111412525177,-0.18575532734394073
1772811116431385600,10.808385498046874,-2.341848611831665,-1.3363730907440186,-0.3625890612602234
1772811116441266400,10.818266357421875,-2.407362461090088,-1.291632056236267,-0.4946817457675934
1772811116451147000,10.82814697265625,-2.4638214111328125,-1.247423529624939,-0.5937512516975403
1772811116461027800,10.83802783203125,-2.531465530395508,-1.2101393938064575,-0.6928207874298096
1772811116470908400,10.847908447265626,-2.604968786239624,-1.1622024774551392,-0.796151340007782
1772811116480789200,10.857789306640624,-2.6710150241851807,-1.098819375038147,-0.8845682144165039
1772811116490669800,10.867669921875,-2.719484567642212,-1.0306425094604492,-0.9298418760299683
1772811116500550700,10.877550537109375,-2.7365288734436035,-0.9374319314956665,-0.9293092489242554
1772811116510431200,10.88743115234375,-2.7077667713165283,-0.8314381837844849,-0.8936229348182678
1772811116520312000,10.89731201171875,-2.6182847023010254,-0.7174549698829651,-0.8206523656845093
1772811116530193000,10.90719287109375,-2.457429885864258,-0.570448637008667,-0.720517635345459
1772811116540073700,10.91707373046875,-2.2699434757232666,-0.3914843499660492,-0.5942838788032532
1772811116549954300,10.926954345703125,-2.0909790992736816,-0.1981390118598938,-0.44994068145751953
1772811116559835100,10.936835205078125,-1.955157995223999,0.021837901324033737,-0.3050648272037506
1772811116569716000,10.946716064453126,-1.8875137567520142,0.33236223459243774,-0.20013637840747833
1772811116579596800,10.9565966796875,-1.9050906896591187,0.7499455213546753,-0.13302478194236755
1772811116589477600,10.9664775390625,-2.005225419998169,1.1781814098358154,-0.09840371459722519
1772811116599358200,10.976358154296875,-2.1772654056549072,1.5909711122512817,-0.11491530388593674
1772811116609239000,10.986239013671875,-2.38179612159729,1.9552911520004272,-0.1548626869916916
1772811116619119900,10.996119873046876,-2.590587615966797,2.237053394317627,-0.19108164310455322
1772811116629000700,11.006000732421874,-2.754105567932129,2.425605058670044,-0.1921469122171402
1772811116638881500,11.015881591796875,-2.857968807220459,2.5209460258483887,-0.16498269140720367
1772811116648762000,11.02576220703125,-2.892590045928955,2.548642873764038,-0.10692582279443741
1772811116658643000,11.035642822265626,-2.86382794380188,2.555034637451172,-0.025433165952563286
1772811116668523800,11.045523681640624,-2.788726806640625,2.627472400665283,0.05073317512869835
1772811116678404600,11.055404541015625,-2.718951940536499,2.842655658721924,0.13116057217121124
1772811116688285200,11.06528515625,-2.659297227859497,3.1467883586883545,0.21052271127700806
1772811116698166000,11.075166015625,-2.6672866344451904,3.4887380599975586,0.2510027289390564
1772811116708046800,11.085046875,-2.759432077407837,3.774228572845459,0.22383849322795868
1772811116717927700,11.094927734375,-2.917623519897461,4.012847900390625,0.16258583962917328
1772811116727808500,11.10480859375,-3.0204215049743652,4.152929782867432,0.1524658352136612
1772811116737689000,11.114689208984375,-3.036933183670044,4.281293869018555,0.21638165414333344
1772811116747570000,11.12456982421875,-3.010834217071533,4.376102447509766,0.30479851365089417
1772811116757450800,11.13445068359375,-2.983137369155884,4.463986873626709,0.3729753792285919
1772811116767331600,11.14433154296875,-2.9794089794158936,4.4810309410095215,0.3655185401439667
1772811116777212400,11.15421240234375,-2.9810068607330322,4.461856365203857,0.31438589096069336
1772811116787093000,11.164093017578125,-2.9506468772888184,4.403799533843994,0.2925480008125305
1772811116796973800,11.173973876953125,-2.9000468254089355,4.250401496887207,0.31545117497444153
1772811116806854700,11.183854736328126,-2.8558382987976074,4.088481426239014,0.37510591745376587
1772811116816735500,11.193735595703124,-2.813227891921997,3.972367763519287,0.47524067759513855
1772811116826616000,11.203615966796875,-2.7706172466278076,3.883950710296631,0.5934849381446838
1772811116836497000,11.213496826171875,-2.754638433456421,3.795001268386841,0.7026744484901428
1772811116846377700,11.223377685546875,-2.7354636192321777,3.7523908615112305,0.7591333985328674
1772811116856258600,11.233258544921876,-2.679004669189453,3.833350896835327,0.7223818302154541
1772811116866139400,11.243139404296874,-2.5969793796539307,3.9068539142608643,0.6392912864685059
1772811116876020000,11.25302001953125,-2.456364631652832,3.9510624408721924,0.5567333698272705
1772811116885900800,11.26290087890625,-2.27793288230896,4.017108917236328,0.4619249105453491
1772811116895781600,11.27278173828125,-2.0963053703308105,4.045870780944824,0.3266364336013794
1772811116905662500,11.282662353515626,-1.9184064865112305,4.108188629150391,0.1609879434108734
1772811116915543000,11.29254296875,-1.7351810932159424,4.275434970855713,-0.03981422260403633
1772811116925423900,11.302423828125,-1.5125410556793213,4.498075008392334,-0.2347574532032013
1772811116935304700,11.3123046875,-1.290966272354126,4.7042036056518555,-0.36471959948539734
1772811116945185500,11.322185546875,-1.094425082206726,4.62910270690918,-0.4174501299858093
1772811116955066400,11.33206640625,-0.8829703330993652,4.273837089538574,-0.39188382029533386
1772811116964947000,11.341947021484375,-0.6480796933174133,3.8701024055480957,-0.26618272066116333
1772811116974827800,11.351827880859375,-0.4089280366897583,3.4951295852661133,-0.054727911949157715
1772811116984708600,11.36170849609375,-0.17670059204101562,3.1782138347625732,0.20572902262210846
1772811116994589400,11.37158935546875,0.04114580526947975,2.8831357955932617,0.4672512114048004
1772811117004470500,11.381470458984374,0.28562378883361816,2.5710134506225586,0.6984133720397949
1772811117014351600,11.3913515625,0.49388280510902405,2.3046977519989014,0.8491482138633728
1772811117024232700,11.401232666015625,0.6925544738769531,1.9403774738311768,0.9269124269485474
1772811117034114000,11.411114013671876,0.8683229088783264,1.5957647562026978,0.9812408685684204
1772811117043995100,11.4209951171875,0.9988177418708801,1.400821566581726,1.0281124114990234
1772811117053876200,11.430876220703125,1.1037461757659912,1.271924614906311,1.087767243385315
1772811117063757600,11.440757568359375,1.1873693466186523,1.1744530200958252,1.1612703800201416
1772811117073638700,11.450638671875,1.231577754020691,1.108406662940979,1.231045126914978
1772811117083519700,11.460519775390624,1.2299798727035522,1.0295772552490234,1.3045483827590942
1772811117093401000,11.470401123046875,1.1900324821472168,0.9640634655952454,1.3796494007110596
1772811117103282200,11.4802822265625,1.1197251081466675,0.9017455577850342,1.449424147605896
1772811117113163300,11.490163330078126,1.0238513946533203,0.8378297686576843,1.4893715381622314
1772811117123044600,11.500044677734374,0.9130640029907227,0.7483476400375366,1.5000241994857788
1772811117132925700,11.50992578125,0.7878955602645874,0.6562023162841797,1.4872410297393799
1772811117142806800,11.519806884765625,0.6440849304199219,0.5672528147697449,1.4542179107666016
1772811117152688000,11.529688232421876,0.48056700825691223,0.4862928092479706,1.4227925539016724
1772811117162569200,11.5395693359375,0.32397326827049255,0.43516016006469727,1.4169336557388306
1772811117172450300,11.5494501953125,0.19827216863632202,0.44101908802986145,1.419596791267395
1772811117182331600,11.55933154296875,0.12956267595291138,0.46445488929748535,1.3972262144088745
1772811117192212700,11.569212646484376,0.1050616130232811,0.4559327960014343,1.297624111175537
1772811117202093800,11.57909375,0.10399635136127472,0.42184436321258545,1.110137701034546
1772811117211975200,11.58897509765625,0.1471395194530487,0.3573959171772003,0.8773776888847351
1772811117221856300,11.598856201171875,0.18602164089679718,0.36059170961380005,0.609996497631073
1772811117231737300,11.6087373046875,0.21158796548843384,0.3866906464099884,0.3223753869533539
1772811117241618700,11.61861865234375,0.23289324343204498,0.43196436762809753,0.03848264366388321
1772811117251499800,11.628499755859375,0.29041746258735657,0.43569278717041016,-0.19054901599884033
1772811117261380900,11.638380859375,0.3841606676578522,0.4447475075721741,-0.34554484486579895
1772811117271262200,11.64826220703125,0.4906870126724243,0.43622541427612305,-0.4195806682109833
1772811117281143300,11.658143310546874,0.5807017683982849,0.4159854054450989,-0.4318312108516693
1772811117291024400,11.6680244140625,0.6344975829124451,0.4005391001701355,-0.4089280366897583
1772811117300905700,11.67790576171875,0.6510091423988342,0.3776359260082245,-0.3535343408584595
1772811117310786800,11.687786865234376,0.6297038793563843,0.36112433671951294,-0.2502037584781647
1772811117320668000,11.69766796875,0.5705817937850952,0.3435474932193756,-0.08189213275909424
1772811117330549200,11.70754931640625,0.5061333179473877,0.3078611493110657,0.1189100444316864
1772811117340430300,11.717430419921875,0.4725775420665741,0.2929474711418152,0.28562378883361816
1772811117350311400,11.7273115234375,0.4784364700317383,0.36005908250808716,0.3793669641017914
1772811117360192800,11.73719287109375,0.4880238473415375,0.457530677318573,0.4214448928833008
1772811117370073900,11.747073974609375,0.4725775420665741,0.5225117802619934,0.4821648895740509
1772811117379955000,11.756954833984375,0.4251733124256134,0.5736443996429443,0.5940175652503967
1772811117389836300,11.766836181640626,0.3266364336013794,0.6018738746643066,0.7463502287864685
1772811117399717400,11.77671728515625,0.14341109991073608,0.4761728048324585,1.0089377164840698
1772811117409598500,11.786598388671875,0.039547909051179886,0.030360009521245956,0.9961545467376709
1772811117419479800,11.796479736328125,0.12476898729801178,-0.09214529395103455,0.8044071197509766
1772811117429361000,11.80636083984375,0.2786995768547058,-0.047404225915670395,0.6057354807853699
1772811117439242000,11.816241943359374,0.4022701382637024,0.012250530533492565,0.4773712158203125
1772811117449123300,11.826123291015625,0.5087965130805969,0.11451582610607147,0.39001959562301636
1772811117459004400,11.83600439453125,0.5998765230178833,0.23808640241622925,0.3037332594394684
1772811117468885500,11.845885498046876,0.6616618037223816,0.37550538778305054,0.21957744657993317
1772811117478766800,11.855766845703124,0.6755102276802063,0.47777068614959717,0.16844479739665985
1772811117488648000,11.86564794921875,0.6632596850395203,0.5006738305091858,0.1386174112558365
1772811117498529000,11.875529052734375,0.638758659362793,0.47350963950157166,0.0954742431640625
1772811117508410000,11.88541015625,0.6030722856521606,0.38828855752944946,0.024634219706058502
1772811117518291200,11.895291259765624,0.5498091578483582,0.25672850012779236,-0.03555316850543022
1772811117528172500,11.905172607421875,0.47417542338371277,0.1608547866344452,-0.06751107424497604
1772811117538053600,11.9150537109375,0.405998557806015,0.11877688020467758,-0.08295739442110062
