time,seconds_elapsed,z,y,x
1772811105930523100,0.307523193359375,-2.230679988861084,-5.115415573120117,1.853316068649292
1772811105950284300,0.3272841796875,-2.2847752571105957,-4.188506126403809,2.4883527755737305
1772811105970045400,0.34704541015625,-1.194911003112793,-3.0519165992736816,1.3726584911346436
1772811105989806600,0.366806640625,-4.320199966430664,-3.0631766319274902,0.9702632427215576
1772811106009567700,0.386567626953125,0.24321985244750977,-2.628127098083496,-1.1132006645202637
1772811106029328600,0.40632861328125,-0.7715210914611816,-6.688366889953613,3.7532975673675537
1772811106049089800,0.42608984375,-1.9990949630737305,-4.1819071769714355,5.239797592163086
1772811106068850700,0.4458505859375,-2.081325054168701,-4.4990057945251465,5.8867292404174805
1772811106088611800,0.46561181640625,3.944735527038574,-5.000040054321289,5.313108921051025
1772811106108372700,0.485372802734375,8.386072158813477,-4.540224075317383,4.991335868835449
1772811106128134000,0.5051337890625,7.794837951660156,-4.67099142074585,3.3872079849243164
1772811106147895000,0.52489501953125,3.9511489868164062,-5.660464763641357,-0.7112417221069336
1772811106167656000,0.544656005859375,0.9858927726745605,-6.801422119140625,-5.029892921447754
1772811106187417000,0.5644169921875,-1.714597225189209,-8.070371627807617,-8.017569541931152
1772811106207178000,0.584177978515625,-3.7918388843536377,-9.137002944946289,-9.111381530761719
1772811106226939100,0.603939208984375,-3.4431891441345215,-9.892145156860352,-7.973342418670654
1772811106246700300,0.6237001953125,-3.089920997619629,-11.900251388549805,-4.329233646392822
1772811106266461200,0.643461181640625,-1.309908390045166,-14.266809463500977,-0.2277507781982422
1772811106286222300,0.663222412109375,-0.8299679756164551,-15.818903923034668,2.3381242752075195
1772811106305983200,0.682983154296875,0.7148730754852295,-15.641252517700195,4.807168960571289
1772811106325744400,0.702744384765625,4.20904541015625,-14.884785652160645,7.91011905670166
1772811106345505500,0.722505615234375,5.438323974609375,-13.67961311340332,10.702476501464844
1772811106365266400,0.742266357421875,5.480213165283203,-10.909208297729492,10.961389541625977
1772811106385027600,0.762027587890625,5.5743231773376465,-8.211051940917969,10.038106918334961
1772811106404788500,0.78178857421875,4.441467761993408,-6.315427780151367,9.37356185913086
1772811106424549600,0.801549560546875,1.9588449001312256,-4.249054431915283,8.755936622619629
1772811106444310800,0.821310791015625,-0.02653980255126953,-2.583028793334961,9.021795272827148
1772811106464071700,0.84107177734375,-0.9346374869346619,-0.9829282760620117,8.615137100219727
1772811106483832800,0.860832763671875,-0.20997744798660278,0.8699665069580078,7.280826568603516
1772811106503594500,0.880594482421875,-0.09055206179618835,2.103346824645996,6.223045349121094
1772811106523356700,0.900356689453125,-0.49300095438957214,2.679354190826416,5.445722579956055
1772811106543118800,0.920118896484375,-1.424584150314331,3.1159162521362305,4.350222587585449
1772811106562881000,0.939881103515625,-2.059389591217041,3.102487564086914,3.308739185333252
1772811106582643200,0.959643310546875,-1.9325015544891357,2.717461585998535,2.539463520050049
1772811106602405400,0.9794052734375,-0.8797017931938171,2.5240821838378906,1.9453248977661133
1772811106622167600,0.99916748046875,0.5138754844665527,2.1729297637939453,1.7667450904846191
1772811106641929700,1.0189296875,0.9397008419036865,1.0956406593322754,2.431466579437256
1772811106661692000,1.03869189453125,0.8750962018966675,-0.11499691009521484,3.5133719444274902
1772811106681454000,1.0584541015625,1.6414556503295898,-1.010127067565918,3.7085299491882324
1772811106701216300,1.07821630859375,2.55645489692688,-1.606335163116455,3.2425599098205566
1772811106720978400,1.097978515625,2.74833345413208,-1.8113598823547363,2.317955493927002
1772811106740740600,1.11774072265625,1.9580943584442139,-2.018228530883789,1.9500374794006348
1772811106760502800,1.137502685546875,1.263723373413086,-2.8173909187316895,2.248605728149414
1772811106780265000,1.157264892578125,2.26090407371521,-3.13569974899292,2.0026731491088867
1772811106800027400,1.17702734375,2.4603030681610107,-4.025267124176025,1.2524218559265137
1772811106819789600,1.19678955078125,1.9181712865829468,-4.566466808319092,0.1514430046081543
1772811106839551700,1.2165517578125,0.35112202167510986,-4.958756446838379,-0.6841011047363281
1772811106859314000,1.23631396484375,0.5436999797821045,-4.920162200927734,-1.6936798095703125
1772811106879076000,1.256076171875,0.8854233026504517,-5.20414400100708,-2.218013286590576
1772811106898838300,1.27583837890625,1.1271634101867676,-5.583332061767578,-2.6636290550231934
1772811106918600400,1.295600341796875,1.520957589149475,-5.741602897644043,-3.247758388519287
1772811106938362600,1.315362548828125,1.832414984703064,-5.882565498352051,-3.633516788482666
1772811106958124800,1.335124755859375,1.8174774646759033,-6.083946228027344,-3.9075818061828613
1772811106977887000,1.354886962890625,1.56520414352417,-6.520504951477051,-3.930144786834717
1772811106997649000,1.37464892578125,1.2936842441558838,-6.912363052368164,-4.0782880783081055
1772811107017410000,1.39441015625,1.4056247472763062,-7.3054094314575195,-4.850986003875732
1772811107037171500,1.41417138671875,2.2093710899353027,-7.348541736602783,-5.36817741394043
1772811107056932600,1.4339326171875,2.7754361629486084,-7.347342491149902,-5.78872013092041
1772811107076693800,1.45369384765625,3.1553797721862793,-7.461061477661133,-5.796278953552246
1772811107096455200,1.473455078125,2.7453041076660156,-8.417492866516113,-5.627294540405273
1772811107116216300,1.49321630859375,2.94120454788208,-8.684951782226562,-6.406830787658691
1772811107135977500,1.5129775390625,3.333178758621216,-8.656411170959473,-7.235857009887695
1772811107155739000,1.53273876953125,3.557993173599243,-8.378622055053711,-7.4793500900268555
1772811107175500000,1.5525,3.3157429695129395,-8.014470100402832,-6.5913238525390625
1772811107195261200,1.57226123046875,3.1257710456848145,-7.352129936218262,-4.73362922668457
1772811107215022600,1.592022705078125,3.098564624786377,-6.3893609046936035,-2.7475485801696777
1772811107234783700,1.61178369140625,3.0922296047210693,-5.067264556884766,-1.2344236373901367
1772811107254545000,1.631544921875,2.7537403106689453,-3.908867359161377,0.23474502563476562
1772811107274306300,1.651306396484375,1.7793221473693848,-3.1981348991394043,0.9049129486083984
1772811107294067500,1.6710673828125,1.2658419609069824,-3.006744623184204,1.4906702041625977
1772811107313828600,1.69082861328125,1.269087553024292,-2.9232006072998047,1.7084550857543945
1772811107333589800,1.71058984375,1.3386383056640625,-3.078289031982422,1.745783805847168
1772811107353351200,1.73035107421875,1.3374927043914795,-3.463175058364868,1.3895130157470703
1772811107373112300,1.7501123046875,1.3690710067749023,-4.021036148071289,0.9482402801513672
1772811107392873500,1.76987353515625,1.2029435634613037,-4.3769121170043945,-0.015834808349609375
1772811107412635000,1.789634765625,0.7130601406097412,-4.971112251281738,-1.2112698554992676
1772811107432396000,1.80939599609375,0.9703714847564697,-5.160233020782471,-2.7778964042663574
1772811107452157200,1.8291572265625,1.20325767993927,-5.026259422302246,-4.298338413238525
1772811107471918600,1.848918701171875,1.4922561645507812,-4.831264495849609,-5.253097057342529
1772811107491679700,1.8686796875,1.9386305809020996,-4.709387302398682,-5.664067268371582
1772811107511441200,1.888441162109375,2.0874242782592773,-4.540594100952148,-5.846584320068359
1772811107531202800,1.908202880859375,1.8775100708007812,-4.26579475402832,-5.894013404846191
1772811107550964200,1.927964111328125,1.2781606912612915,-3.979393482208252,-5.852907180786133
1772811107570725600,1.9477255859375,0.713847815990448,-3.7428956031799316,-5.574817657470703
1772811107590487300,1.9674873046875,-0.12959298491477966,-3.7404720783233643,-4.986982822418213
1772811107610248700,1.987248779296875,-0.4689973294734955,-3.823481798171997,-4.20596981048584
1772811107630010400,2.00701025390625,-0.7307959198951721,-3.940946578979492,-3.1713242530822754
1772811107649771800,2.026771728515625,-0.7916623950004578,-3.3670873641967773,-2.3698902130126953
1772811107669533400,2.046533447265625,-1.128282904624939,-4.269521713256836,-0.4956526756286621
1772811107689294800,2.066294921875,-1.2340028285980225,-4.349716663360596,0.8865280151367188
1772811107709056300,2.08605615234375,-1.2215734720230103,-3.5758213996887207,1.8091068267822266
1772811107728818000,2.10581787109375,-1.3294035196304321,-2.9243850708007812,2.5782852172851562
1772811107748579300,2.125579345703125,-1.3335075378417969,-2.1277828216552734,3.489020347595215
1772811107768341000,2.145341064453125,-1.6412417888641357,-2.3664608001708984,5.171753406524658
1772811107788102400,2.165102294921875,-1.6071745157241821,-3.1202969551086426,6.3758625984191895
1772811107807864000,2.184864013671875,-0.7465145587921143,-1.7759075164794922,5.8784871101379395
1772811107827625500,2.20462548828125,0.04543766379356384,-1.9245109558105469,6.497503757476807
1772811107847387000,2.224386962890625,0.7680422067642212,-1.1799650192260742,7.4609575271606445
1772811107867148500,2.2441484375,1.4480578899383545,1.0566596984863281,7.605868339538574
1772811107886910000,2.263909912109375,1.2677733898162842,1.9093379974365234,8.560898780822754
1772811107906671600,2.283671630859375,0.5173665881156921,2.6017231941223145,8.156524658203125
1772811107926433000,2.30343310546875,-0.5544021725654602,2.9157657623291016,6.715789318084717
1772811107946194700,2.323194580078125,-1.0473167896270752,2.573324680328369,5.455710411071777
1772811107965956000,2.3429560546875,-0.5393728613853455,1.9013051986694336,4.342782974243164
1772811107985717500,2.362717529296875,0.40836068987846375,0.9881687164306641,3.345327377319336
1772811108005479200,2.382479248046875,1.204143762588501,-0.08141326904296875,2.593822956085205
1772811108025240600,2.402240478515625,1.6991620063781738,-1.274512767791748,2.0140280723571777
1772811108045002200,2.422002197265625,2.125668525695801,-2.442317485809326,1.3405346870422363
1772811108064763600,2.441763671875,2.7736830711364746,-2.8154125213623047,0.5218520164489746
1772811108084525000,2.461525146484375,3.1370842456817627,-5.115107536315918,1.0280566215515137
1772811108104286700,2.48128662109375,3.448814868927002,-4.875860691070557,0.21793413162231445
1772811108124048100,2.501048095703125,4.130672931671143,-5.325946807861328,0.23698091506958008
1772811108143809500,2.5208095703125,4.5407514572143555,-5.483729839324951,0.45793819427490234
1772811108163571200,2.5405712890625,4.965056419372559,-5.442163944244385,0.81884765625
1772811108183332600,2.56033251953125,4.936291217803955,-5.663470268249512,1.1660866737365723
1772811108203094300,2.58009423828125,4.570868968963623,-5.886252403259277,0.9261379241943359
1772811108222855700,2.599855712890625,4.113112449645996,-5.860939979553223,-0.10883331298828125
1772811108242617000,2.6196171875,3.8650217056274414,-5.963629722595215,-1.147697925567627
1772811108262378800,2.639378662109375,4.005051136016846,-6.121626853942871,-2.07118558883667
1772811108282140200,2.65914013671875,4.044295310974121,-6.336005210876465,-2.868429660797119
1772811108301901800,2.67890185546875,3.8365261554718018,-6.420434474945068,-3.640815258026123
1772811108321663200,2.698663330078125,3.3480846881866455,-6.483952522277832,-4.394976615905762
1772811108341424600,2.718424560546875,3.116596221923828,-6.607766628265381,-4.841156482696533
1772811108361186300,2.738186279296875,3.1278765201568604,-6.8905158042907715,-5.238988876342773
1772811108380947700,2.75794775390625,3.2695953845977783,-7.052464962005615,-5.5714311599731445
1772811108400709400,2.77770947265625,3.1806607246398926,-7.090243816375732,-5.788494110107422
1772811108420470800,2.797470703125,3.0363430976867676,-7.0981903076171875,-5.85455846786499
1772811108440232200,2.817232177734375,2.845139503479004,-7.21898078918457,-5.521180152893066
1772811108459993900,2.836993896484375,2.4858105182647705,-7.588027000427246,-5.016117572784424
1772811108479755300,2.85675537109375,1.9420517683029175,-9.517577171325684,-4.059839248657227
1772811108499516700,2.8765166015625,2.553483724594116,-10.197747230529785,-4.344926834106445
1772811108519277800,2.89627783203125,3.8292927742004395,-10.244003295898438,-4.422371864318848
1772811108539039000,2.9160390625,2.904956817626953,-9.574326515197754,-4.501367092132568
1772811108558800100,2.935800048828125,1.199517011642456,-8.209691047668457,-4.389342784881592
1772811108578561300,2.955561279296875,0.5818324089050293,-6.502957344055176,-3.1518101692199707
1772811108598322400,2.975322509765625,1.3941292762756348,-5.181526184082031,-1.5021076202392578
1772811108618083600,2.99508349609375,1.5555830001831055,-4.090200424194336,-0.12272262573242188
1772811108637844500,3.014844482421875,1.830796718597412,-3.542893171310425,0.011180877685546875
1772811108657605600,3.034605712890625,1.2635838985443115,-3.457979917526245,-0.3979501724243164
1772811108677366800,3.05436669921875,-0.7144720554351807,-3.4651072025299072,-0.48678112030029297
1772811108697128000,3.0741279296875,-1.2459700107574463,-2.6893229484558105,-1.1260361671447754
1772811108716889000,3.09388916015625,-1.7568624019622803,-3.4082412719726562,-0.956301212310791
1772811108736650200,3.113650146484375,-1.5454373359680176,-3.6650514602661133,-1.2621665000915527
1772811108756411400,3.133411376953125,-0.21060657501220703,-3.461986541748047,-1.9981331825256348
1772811108776172500,3.153172607421875,1.1864794492721558,-3.628176212310791,-2.6764559745788574
1772811108795933700,3.17293359375,2.0576024055480957,-3.6419410705566406,-3.083676815032959
1772811108815694800,3.19269482421875,2.748927116394043,-3.3394956588745117,-3.3510870933532715
1772811108835456000,3.2124560546875,2.8585028648376465,-3.1022839546203613,-3.470310688018799
1772811108855217200,3.232217041015625,3.2707083225250244,-2.975146770477295,-3.2837867736816406
1772811108874978300,3.251978271484375,3.862635612487793,-2.9768905639648438,-3.0348148345947266
1772811108894739500,3.271739501953125,4.319486618041992,-3.0778212547302246,-2.6553239822387695
1772811108914500600,3.29150048828125,4.572567939758301,-3.133124351501465,-2.366786479949951
1772811108934261800,3.31126171875,4.132206916809082,-2.849702835083008,-2.075550079345703
1772811108954023000,3.33102294921875,3.246720552444458,-2.606776714324951,-1.6368918418884277
1772811108973784000,3.3507841796875,2.3997068405151367,-2.3776731491088867,-1.1865487098693848
1772811108993545200,3.370545166015625,1.5827677249908447,-2.3546862602233887,-0.6131796836853027
1772811109013308200,3.39030810546875,0.931119441986084,-2.1275854110717773,-0.12389755249023438
1772811109033070800,3.41007080078125,0.19437336921691895,-1.7206063270568848,0.2940559387207031
1772811109052833800,3.429833740234375,-0.14127635955810547,-2.2318115234375,1.0591340065002441
1772811109072596700,3.4495966796875,-1.0473828315734863,-2.1019115447998047,1.7003130912780762
1772811109092359700,3.469359619140625,-1.782776117324829,-1.2041425704956055,1.9483752250671387
1772811109112122600,3.48912255859375,-2.645909070968628,-1.066995620727539,2.7670035362243652
1772811109131885600,3.508885498046875,-3.543097496032715,-1.8912086486816406,4.895504474639893
1772811109151648500,3.5286484375,-3.2596182823181152,-1.5224294662475586,6.087708473205566
1772811109171411500,3.548411376953125,-2.3237855434417725,-0.5800571441650391,6.940273284912109
1772811109191174100,3.568174072265625,-1.5616679191589355,0.2871065139770508,7.597700119018555
1772811109210937000,3.58793701171875,-0.5814778208732605,1.2395257949829102,8.06432056427002
1772811109230700000,3.607699951171875,0.8450266718864441,1.7886104583740234,8.422947883605957
1772811109250463000,3.627462890625,1.9158886671066284,1.7375550270080566,8.053117752075195
1772811109270226000,3.647225830078125,2.074927806854248,0.9104146957397461,6.565091609954834
1772811109289988600,3.666988525390625,2.122304677963257,-0.1251821517944336,4.521827697753906
1772811109309751600,3.68675146484375,2.4316768646240234,-1.0700111389160156,2.5737948417663574
1772811109329514500,3.706514404296875,3.008737087249756,-1.9141902923583984,1.2923951148986816
1772811109349277400,3.72627734375,3.7287774085998535,-2.6201038360595703,0.5801515579223633
1772811109369040400,3.746040283203125,4.191062927246094,-3.4739770889282227,0.2629542350769043
1772811109388803300,3.76580322265625,4.98844051361084,-4.262866020202637,-0.18590116500854492
1772811109408566300,3.785566162109375,5.559409141540527,-4.753269672393799,-0.38103532791137695
1772811109428329200,3.8053291015625,5.870784282684326,-5.0247063636779785,-0.26808643341064453
1772811109448092000,3.825091796875,5.43131160736084,-4.946826457977295,-0.31682348251342773
1772811109467854800,3.844854736328125,4.9074015617370605,-4.67209005355835,-0.46658754348754883
1772811109487617800,3.86461767578125,4.221903324127197,-4.430636405944824,-0.5988831520080566
1772811109507380000,3.8843798828125,3.4050769805908203,-4.32653284072876,-0.657099723815918
1772811109527142100,3.90414208984375,2.7960779666900635,-4.408783435821533,-0.9124574661254883
1772811109546904000,3.923904052734375,2.640293598175049,-4.527414798736572,-1.2112793922424316
1772811109566666200,3.943666259765625,2.517012596130371,-4.840381622314453,-1.5167107582092285
1772811109586428200,3.96342822265625,2.7135519981384277,-5.095846176147461,-2.041931629180908
1772811109606190000,3.983190185546875,2.5440492630004883,-5.136147975921631,-2.6633191108703613
1772811109625952300,4.0029521484375,1.9808156490325928,-5.1334943771362305,-3.2641701698303223
1772811109645714200,4.022714111328125,1.873204231262207,-5.215494155883789,-3.6294827461242676
1772811109665476400,4.042476318359375,2.3170511722564697,-5.601741790771484,-3.6985154151916504
1772811109685238300,4.06223828125,2.941321849822998,-6.125740051269531,-3.7194695472717285
1772811109705000400,4.08200048828125,3.3131823539733887,-6.616163730621338,-3.9365105628967285
1772811109724762400,4.101762451171875,3.6021957397460938,-6.752852916717529,-4.549705982208252
1772811109744524300,4.121524169921875,3.906341791152954,-6.715545177459717,-5.085409164428711
1772811109764286500,4.141286376953125,4.323652267456055,-6.664412975311279,-5.567025184631348
1772811109784048400,4.16104833984375,4.363724708557129,-7.27916955947876,-5.373948097229004
1772811109803810600,4.180810546875,3.930267333984375,-8.565563201904297,-5.385622024536133
1772811109823572500,4.200572509765625,3.6333868503570557,-9.426289558410645,-5.948173999786377
1772811109843334700,4.220334716796875,3.958885908126831,-9.577632904052734,-6.958768844604492
1772811109863096600,4.2400966796875,4.325925350189209,-8.933323860168457,-7.876125335693359
1772811109882858800,4.259858642578125,4.78448486328125,-8.035667419433594,-7.59320068359375
1772811109902620700,4.27962060546875,4.192934513092041,-7.396207809448242,-6.272613525390625
1772811109922382600,4.299382568359375,3.4238405227661133,-7.168227195739746,-3.981841564178467
1772811109942144800,4.319144775390625,2.646340847015381,-6.593898773193359,-1.6768207550048828
1772811109961906700,4.33890673828125,2.0396320819854736,-5.699771881103516,0.3359975814819336
1772811109981668900,4.3586689453125,1.1134674549102783,-4.633817195892334,1.2581300735473633
1772811110001430300,4.37843017578125,-0.20106911659240723,-3.9157066345214844,1.7779226303100586
1772811110021191000,4.39819091796875,-1.5048716068267822,-2.931919574737549,1.8438668251037598
1772811110040951600,4.41795166015625,-2.87735915184021,-1.4782147407531738,1.5454158782958984
1772811110060712200,4.437712158203125,-3.236182689666748,-0.9215774536132812,1.9631295204162598
1772811110080472800,4.457472900390625,-1.5571730136871338,-0.4922771453857422,1.5619683265686035
1772811110100233500,4.4772333984375,0.5568652153015137,-0.9336328506469727,1.005507469177246
1772811110119994000,4.496994140625,1.9749128818511963,-1.6067638397216797,0.1728048324584961
1772811110139754800,4.516754638671875,3.153547525405884,-1.8298754692077637,-0.9961514472961426
1772811110159515400,4.536515380859375,3.3813042640686035,-1.7972145080566406,-1.7531695365905762
1772811110179276000,4.556276123046875,3.3283374309539795,-1.856703758239746,-1.917597770690918
1772811110199036700,4.57603662109375,3.1645216941833496,-1.818967342376709,-1.929121971130371
1772811110218797300,4.59579736328125,3.1110291481018066,-1.7681694030761719,-1.8174920082092285
1772811110238558000,4.615557861328125,2.6210689544677734,-1.7996540069580078,-1.50587797164917
1772811110258318600,4.635318603515625,1.7853891849517822,-1.696397304534912,-1.1961407661437988
1772811110278079200,4.655079345703125,1.1437506675720215,-1.2552447319030762,-1.0749359130859375
1772811110297839900,4.67483984375,0.8557026386260986,-1.0437994003295898,-0.7561550140380859
1772811110317600500,4.6946005859375,0.914472758769989,-0.9173035621643066,-0.4557967185974121
1772811110337361200,4.714361083984375,0.7534654140472412,-0.9669284820556641,-0.053444862365722656
1772811110357121800,4.734121826171875,0.2439327836036682,-0.9327068328857422,0.26637744903564453
1772811110376882400,4.75388232421875,-0.09655812382698059,-0.8478550910949707,0.4543647766113281
1772811110396643000,4.77364306640625,-0.49097001552581787,-0.5321774482727051,0.5484561920166016
1772811110416403700,4.79340380859375,-1.3056122064590454,-0.25263357162475586,0.8406829833984375
1772811110436164400,4.813164306640625,-1.9681806564331055,-0.3321409225463867,1.7771968841552734
1772811110455925000,4.832925048828125,-2.7795188426971436,-1.1388983726501465,2.7612814903259277
1772811110475685600,4.852685546875,-2.6895666122436523,-1.491797924041748,2.6797070503234863
1772811110495446300,4.8724462890625,-1.9670627117156982,-0.7834815979003906,2.2678985595703125
1772811110515208000,4.8922080078125,-0.858627438545227,-0.15860462188720703,2.2945518493652344
1772811110534969600,4.911969482421875,-0.11122985184192657,0.11266183853149414,2.8766279220581055
1772811110554731300,4.931731201171875,1.0130159854888916,0.26022958755493164,3.382862091064453
1772811110574492700,4.95149267578125,2.0756497383117676,0.18970823287963867,3.583813190460205
1772811110594254300,4.97125439453125,2.989070415496826,0.028907299041748047,3.2959847450256348
1772811110614016000,4.99101611328125,3.0122013092041016,0.4803781509399414,2.457535743713379
1772811110633777700,5.010777587890625,2.6061837673187256,0.19333791732788086,2.239014148712158
1772811110653539300,5.030539306640625,2.5705161094665527,-0.03941631317138672,1.5935006141662598
1772811110673300700,5.05030078125,2.9692211151123047,-0.42774248123168945,0.8280706405639648
1772811110693062400,5.0700625,3.2782950401306152,-1.0633692741394043,0.055603981018066406
1772811110712824000,5.089823974609375,3.4350357055664062,-2.0677294731140137,-0.43757104873657227
1772811110732585700,5.109585693359375,3.2623467445373535,-2.9327878952026367,-0.7885875701904297
1772811110752347400,5.129347412109375,2.8047995567321777,-3.789074420928955,-0.9860992431640625
1772811110772108800,5.14910888671875,2.686072826385498,-4.381339073181152,-1.252458095550537
1772811110791870500,5.168870361328125,2.6536054611206055,-4.6444597244262695,-1.3915491104125977
1772811110811632000,5.188632080078125,2.4515745639801025,-4.791706085205078,-1.2021307945251465
1772811110831393800,5.208393798828125,2.755204200744629,-4.313844680786133,-1.41544771194458
1772811110851155200,5.2281552734375,3.003765106201172,-3.8958282470703125,-1.4236021041870117
1772811110870916900,5.247916748046875,2.768925189971924,-3.7076902389526367,-1.3953957557678223
1772811110890678500,5.267678466796875,2.199284791946411,-3.653209686279297,-1.5092649459838867
1772811110910440200,5.287440185546875,1.6486470699310303,-3.613375186920166,-1.9398117065429688
1772811110930201600,5.30720166015625,1.0776426792144775,-3.7566399574279785,-2.333395481109619
1772811110949963300,5.32696337890625,1.033339023590088,-3.8366925716400146,-2.7610926628112793
1772811110969725000,5.346724853515625,1.040654182434082,-4.012426376342773,-3.1363940238952637
1772811110989486600,5.366486572265625,1.111430287361145,-3.8991191387176514,-3.6328043937683105
1772811111009248300,5.386248291015625,0.9664719104766846,-3.9530632495880127,-3.8042335510253906
1772811111029010000,5.406010009765625,0.8256357908248901,-4.310563564300537,-3.8570914268493652
1772811111048771800,5.425771728515625,1.217071294784546,-4.701411724090576,-3.9663939476013184
1772811111068533500,5.445533447265625,1.6014280319213867,-4.842663764953613,-4.140100002288818
1772811111088295400,5.46529541015625,1.7484939098358154,-4.969416618347168,-4.293412685394287
1772811111108057000,5.48505712890625,2.1479015350341797,-4.859780788421631,-4.489386558532715
1772811111127819000,5.504819091796875,2.495070457458496,-4.939609527587891,-4.467777729034424
1772811111147580700,5.52458056640625,2.136580467224121,-5.968925952911377,-3.8154501914978027
1772811111167342600,5.544342529296875,1.5668995380401611,-6.755105018615723,-4.0885491371154785
1772811111187104300,5.564104248046875,1.8499603271484375,-7.027050971984863,-4.715163230895996
1772811111206866000,5.583865966796875,2.3659515380859375,-7.069308757781982,-5.4037322998046875
1772811111226627800,5.6036279296875,3.013098955154419,-7.167165279388428,-5.371310234069824
1772811111246389500,5.623389404296875,3.1599578857421875,-6.871088981628418,-4.857486248016357
1772811111266151400,5.6431513671875,3.2965056896209717,-5.797015190124512,-4.541787147521973
1772811111285913000,5.6629130859375,2.8785154819488525,-4.669370174407959,-3.730532169342041
1772811111305674800,5.6826748046875,2.904073715209961,-3.800147294998169,-2.2574591636657715
1772811111325436700,5.702436767578125,3.2285854816436768,-3.0586843490600586,-0.822232723236084
1772811111345198600,5.722198486328125,2.728365421295166,-2.711416721343994,0.30934619903564453
1772811111364960300,5.741960205078125,1.5930564403533936,-2.372905731201172,1.0292091369628906
1772811111384722000,5.761721923828125,-0.007595062255859375,-1.7430548667907715,1.389796257019043
1772811111404483800,5.78148388671875,-1.3931894302368164,-1.051711082458496,1.6171317100524902
1772811111424245500,5.80124560546875,-2.0772433280944824,-0.8720760345458984,2.1386284828186035
1772811111444007400,5.82100732421875,-2.1487014293670654,-0.7264771461486816,2.238936424255371
1772811111463769000,5.84076904296875,-1.6784203052520752,-0.7395033836364746,1.7901782989501953
1772811111483530800,5.86053076171875,-0.8359470367431641,-1.1400070190429688,0.8904685974121094
1772811111503292700,5.880292724609375,0.409609317779541,-1.8989558219909668,-0.18919944763183594
1772811111523054800,5.900054931640625,1.1458770036697388,-2.3359622955322266,-1.7662138938903809
1772811111542816800,5.919816650390625,1.1236205101013184,-2.6518359184265137,-3.390505313873291
1772811111562578700,5.93957861328125,0.9731647372245789,-2.949573040008545,-4.357524394989014
1772811111582340600,5.959340576171875,1.1994528770446777,-3.1925854682922363,-4.959871292114258
1772811111602102500,5.9791025390625,1.4480195045471191,-3.190598964691162,-5.5034990310668945
1772811111621864400,5.998864501953125,1.3901466131210327,-2.9600443840026855,-5.739558219909668
1772811111641626600,6.018626708984375,0.9958477020263672,-2.6675186157226562,-5.672419548034668
1772811111661388500,6.038388427734375,0.5122981667518616,-2.5177268981933594,-5.568150520324707
1772811111681150500,6.058150390625,0.30617496371269226,-2.516033172607422,-5.2659912109375
1772811111700912400,6.077912353515625,-0.05591346323490143,-2.5981931686401367,-4.64211368560791
1772811111720674300,6.09767431640625,0.006348460912704468,-2.809309482574463,-3.6884188652038574
1772811111740436500,6.1174365234375,0.06128372251987457,-3.2286248207092285,-2.7480483055114746
1772811111760198400,6.137198486328125,0.18121513724327087,-3.5761475563049316,-2.030416965484619
1772811111779960300,6.156960205078125,0.20775210857391357,-3.6611180305480957,-1.3281660079956055
1772811111799722200,6.17672216796875,0.15659184753894806,-3.55764102935791,-0.44304943084716797
1772811111819484200,6.196484130859375,-0.3419646620750427,-3.4420690536499023,0.9407854080200195
1772811111839246000,6.21624609375,-1.4216516017913818,-3.9821300506591797,3.050644874572754
1772811111859008300,6.23600830078125,-2.1344053745269775,-3.390748977661133,3.8598947525024414
1772811111878770200,6.255770263671875,-1.9616748094558716,-2.302959442138672,4.671544551849365
1772811111898532000,6.275531982421875,-1.548280954360962,-1.1090679168701172,5.460713863372803
1772811111918294000,6.2952939453125,-1.2177844047546387,0.121673583984375,6.446787357330322
1772811111938056000,6.315055908203125,-1.0702100992202759,1.3037385940551758,7.39193058013916
1772811111957818000,6.334818115234375,-0.9819825291633606,2.21413516998291,7.792123794555664
1772811111977580000,6.354580078125,-1.296583890914917,2.889622688293457,7.176191329956055
1772811111997341700,6.374341796875,-1.8591976165771484,2.783083915710449,6.165376663208008
1772811112017102600,6.3941025390625,-2.1293656826019287,2.12276554107666,5.149202823638916
1772811112036863700,6.41386376953125,-1.7455048561096191,1.0621061325073242,4.282470703125
1772811112056625000,6.433625,-0.5344119668006897,0.043190956115722656,3.1933398246765137
1772811112076385800,6.4533857421875,1.03068208694458,-0.7924604415893555,2.483419895172119
1772811112096147000,6.47314697265625,2.1963462829589844,-1.505880355834961,2.1314077377319336
1772811112115907800,6.492907958984375,2.911591053009033,-2.3346810340881348,2.1036386489868164
1772811112135669000,6.5126689453125,3.1045923233032227,-3.1692733764648438,1.8744392395019531
1772811112155430000,6.532429931640625,3.278632402420044,-3.8177103996276855,1.3806700706481934
1772811112175191000,6.55219091796875,3.3804779052734375,-4.239485740661621,0.800173282623291
1772811112194952000,6.571951904296875,3.6303343772888184,-4.374104022979736,0.12296104431152344
1772811112214713000,6.591713134765625,3.7453670501708984,-4.353612899780273,-0.551365852355957
1772811112234474000,6.611473876953125,3.647879123687744,-4.439289093017578,-0.9062037467956543
1772811112254235100,6.631235107421875,3.4584555625915527,-4.613597393035889,-1.2861857414245605
1772811112273996000,6.65099609375,3.1653456687927246,-4.913610935211182,-1.7066349983215332
1772811112293757200,6.670757080078125,2.783935546875,-5.228895664215088,-2.3107643127441406
1772811112313518300,6.690518310546875,2.3129148483276367,-5.256180763244629,-3.1538233757019043
1772811112333279200,6.710279296875,1.666363000869751,-5.169755935668945,-3.984091281890869
1772811112353040400,6.730040283203125,1.2611334323883057,-4.981829643249512,-4.658939838409424
1772811112372801300,6.74980126953125,1.1711549758911133,-4.6950578689575195,-5.2468671798706055
1772811112392562400,6.7695625,0.9470727443695068,-4.579562187194824,-5.499155044555664
1772811112412323300,6.7893232421875,0.6128439903259277,-4.607172012329102,-5.511936187744141
1772811112432084500,6.80908447265625,0.6227859258651733,-4.6760125160217285,-5.502187728881836
1772811112451845400,6.828845458984375,0.6753783226013184,-4.798819065093994,-5.2000532150268555
1772811112471606500,6.8486064453125,0.9890897274017334,-4.950099468231201,-4.844277858734131
1772811112491367400,6.868367431640625,1.5056190490722656,-5.096425533294678,-4.595729351043701
1772811112511129000,6.888129150390625,2.0106070041656494,-5.076815128326416,-4.673101425170898
1772811112530890800,6.907890869140625,2.2349727153778076,-5.42111873626709,-4.342750072479248
1772811112550652700,6.927652587890625,1.3631258010864258,-6.452622413635254,-4.1014723777771
1772811112570414300,6.947414306640625,1.1836378574371338,-6.826476097106934,-4.597185134887695
1772811112590176000,6.967176025390625,1.923109531402588,-6.968875885009766,-5.0919508934021
1772811112609937700,6.986937744140625,3.1457479000091553,-6.8375749588012695,-5.00921630859375
1772811112629699600,7.006699462890625,3.970837116241455,-6.5442914962768555,-4.279412746429443
1772811112649461200,7.026461181640625,4.06999397277832,-5.865087509155273,-3.379930019378662
1772811112669223000,7.046222900390625,3.5616049766540527,-5.1079254150390625,-2.347780227661133
1772811112688984600,7.065984619140625,2.813706159591675,-4.127573013305664,-1.6822943687438965
1772811112708746200,7.085746337890625,1.8573557138442993,-3.247758388519287,-1.1595354080200195
1772811112728508200,7.105508056640625,0.8389774560928345,-2.4205594062805176,-0.5941524505615234
1772811112748269800,7.125269775390625,-0.37001657485961914,-1.7187204360961914,0.0317835807800293
1772811112768031500,7.145031494140625,-0.7413768768310547,-1.0859079360961914,0.6686501502990723
1772811112787793200,7.164793212890625,-0.8166215419769287,-0.6302695274353027,1.3133811950683594
1772811112807554800,7.184554931640625,-0.6643221378326416,-0.458737850189209,1.75508451461792
1772811112827316500,7.20431640625,-0.418658971786499,-0.5729212760925293,1.832542896270752
1772811112847078400,7.224078369140625,-0.037557363510131836,-0.7635526657104492,1.5595755577087402
1772811112866840000,7.243840087890625,0.5242540836334229,-0.9532628059387207,1.0805692672729492
1772811112886601700,7.263601806640625,1.278938889503479,-0.9917449951171875,0.23384428024291992
1772811112906363400,7.28336328125,2.315824508666992,-0.9708032608032227,-0.627265453338623
1772811112926125300,7.303125244140625,3.224575996398926,-0.8327865600585938,-1.1247844696044922
1772811112945887000,7.322886962890625,3.584014892578125,-0.5988297462463379,-1.5148262977600098
1772811112965648600,7.342648681640625,3.4339704513549805,-0.6237125396728516,-1.76031494140625
1772811112985410300,7.362410400390625,2.8672375679016113,-0.6044216156005859,-2.1422386169433594
1772811113005173000,7.382173095703125,2.256617784500122,-0.6639571189880371,-2.2182936668395996
1772811113024936000,7.40193603515625,1.6158268451690674,-0.6885757446289062,-2.1994972229003906
1772811113044699000,7.421698974609375,1.0504050254821777,-0.7078218460083008,-2.004685401916504
1772811113064461800,7.4414619140625,0.5057347416877747,-0.812342643737793,-1.8090171813964844
1772811113084224800,7.461224853515625,0.07659300416707993,-0.8349967002868652,-1.6318097114562988
1772811113103988000,7.480988037109375,0.08606292307376862,-0.8780989646911621,-1.179192066192627
1772811113123751000,7.5007509765625,0.13763058185577393,-1.0901670455932617,-0.5185942649841309
1772811113143513900,7.520513916015625,0.012471586465835571,-1.2350029945373535,0.004703521728515625
1772811113163276800,7.54027685546875,-0.5943856835365295,-1.4752202033996582,0.5180768966674805
1772811113183040000,7.5600400390625,-1.3044850826263428,-1.4910144805908203,0.7496299743652344
1772811113202803000,7.579802978515625,-2.038419246673584,-1.0038237571716309,0.9404768943786621
1772811113222566000,7.59956591796875,-2.9878792762756348,-1.0674476623535156,2.033419609069824
1772811113242328800,7.619328857421875,-4.111344814300537,-1.750279426574707,3.2647366523742676
1772811113262091800,7.639091796875,-4.171111583709717,-1.0694122314453125,3.1493282318115234
1772811113281855000,7.65885498046875,-3.3527567386627197,-0.5664196014404297,3.4557738304138184
1772811113301618000,7.678617919921875,-2.043900966644287,0.08862113952636719,3.7488274574279785
1772811113321380900,7.698380859375,-1.0976403951644897,0.4297142028808594,4.407063961029053
1772811113341143800,7.718143798828125,-0.5778563022613525,0.6759219169616699,4.74574089050293
1772811113360906800,7.73790673828125,-0.019367337226867676,0.9117083549499512,4.336631774902344
1772811113380670000,7.757669921875,0.2853783965110779,0.9225997924804688,3.477822780609131
1772811113400433000,7.777432861328125,0.569826602935791,0.6934871673583984,2.78835391998291
1772811113420195800,7.79719580078125,0.9313843250274658,0.3868837356567383,2.138986110687256
1772811113439958800,7.816958740234375,1.4308229684829712,-0.07009124755859375,1.6606130599975586
1772811113459721700,7.8367216796875,2.1300790309906006,-0.5332798957824707,1.2278432846069336
1772811113479485000,7.85648486328125,2.823667526245117,-0.9753189086914062,0.8760156631469727
1772811113499247000,7.8762470703125,2.833590507507324,-1.5540990829467773,0.8291735649108887
1772811113519008500,7.896008544921875,2.662557601928711,-2.0810294151306152,0.6881551742553711
1772811113538769700,7.915769775390625,3.0954248905181885,-2.1607022285461426,0.4493141174316406
1772811113558530800,7.93553076171875,3.3047549724578857,-2.361917018890381,0.3823537826538086
1772811113578292000,7.9552919921875,3.590670108795166,-2.4650564193725586,0.37112998962402344
1772811113598053400,7.975053466796875,3.6226911544799805,-2.5389161109924316,0.26800966262817383
1772811113617814500,7.994814453125,3.3659708499908447,-2.6499290466308594,0.05724525451660156
1772811113637575700,8.01457568359375,3.0272748470306396,-2.715641498565674,-0.3771991729736328
1772811113657337000,8.034337158203124,3.0662665367126465,-2.8070268630981445,-0.8168306350708008
1772811113677098200,8.05409814453125,3.255958080291748,-2.942380905151367,-1.205327033996582
1772811113696859400,8.073859375,3.3901801109313965,-3.189192771911621,-1.598052978515625
1772811113716620500,8.09362060546875,3.584151268005371,-3.1432347297668457,-2.224517345428467
1772811113736381700,8.113381591796875,3.7715678215026855,-3.1056838035583496,-2.7253336906433105
1772811113756143000,8.13314306640625,3.899552822113037,-2.9469587802886963,-3.1463942527770996
1772811113775904300,8.152904296875,3.607011318206787,-2.8319969177246094,-3.474287509918213
1772811113795665400,8.17266552734375,3.132227897644043,-2.883976936340332,-3.578665256500244
1772811113815426800,8.1924267578125,2.8750410079956055,-3.0694692134857178,-3.70021915435791
1772811113835188000,8.21218798828125,2.7009432315826416,-3.261669397354126,-3.852369785308838
1772811113854949000,8.23194921875,2.7401556968688965,-3.432687997817993,-4.091736316680908
1772811113874710300,8.251710205078124,2.8743584156036377,-3.636403799057007,-4.343628406524658
1772811113894471400,8.271471435546875,3.183037519454956,-3.8347527980804443,-4.59611177444458
1772811113914232800,8.29123291015625,3.216172933578491,-4.749317169189453,-4.035954475402832
1772811113933994000,8.310993896484375,2.414194345474243,-6.305213451385498,-3.359282970428467
1772811113953755100,8.330755126953125,2.4020419120788574,-6.517505645751953,-3.6901650428771973
1772811113973516500,8.3505166015625,2.9904816150665283,-6.816040992736816,-3.357880115509033
1772811113993277700,8.370277587890625,3.7542619705200195,-6.361328125,-2.5440621376037598
1772811114013039600,8.39003955078125,3.599276065826416,-5.880638122558594,-1.8500332832336426
1772811114032801500,8.409801513671875,2.766038417816162,-5.353832721710205,-1.2781977653503418
1772811114052563500,8.4295634765625,2.011824131011963,-4.48960018157959,-0.9752612113952637
1772811114072325600,8.44932568359375,1.3717060089111328,-3.397430896759033,-0.7414937019348145
1772811114092087600,8.469087646484375,0.6465922594070435,-2.358135223388672,-0.49805402755737305
1772811114111849500,8.488849365234374,-0.3825113773345947,-1.6089105606079102,-0.5025477409362793
1772811114131611400,8.508611328125,-1.486083745956421,-1.0490961074829102,-0.3983430862426758
1772811114151373300,8.528373291015624,-2.475510597229004,-0.45084476470947266,-0.278292179107666
1772811114171135200,8.54813525390625,-3.2183871269226074,-0.15059995651245117,0.04207324981689453
1772811114190897400,8.5678974609375,-3.401421070098877,0.05024147033691406,0.3880429267883301
1772811114210659300,8.587659423828125,-2.6057252883911133,0.025771141052246094,0.3479747772216797
1772811114230421200,8.607421142578126,-1.507025957107544,-0.32201385498046875,0.053044795989990234
1772811114250183200,8.62718310546875,-0.4147535562515259,-1.0217819213867188,-0.5937471389770508
1772811114269945000,8.646945068359376,0.6333668231964111,-1.724393367767334,-1.3807830810546875
1772811114289707300,8.666707275390625,1.6151498556137085,-2.0528788566589355,-2.3655481338500977
1772811114309469200,8.68646923828125,2.457423448562622,-2.024844169616699,-3.0177297592163086
1772811114329231000,8.706231201171875,3.0958657264709473,-2.0280981063842773,-3.258896827697754
1772811114348993000,8.725992919921875,3.8915340900421143,-1.8771190643310547,-3.4095263481140137
1772811114368755000,8.7457548828125,4.3209991455078125,-1.7687592506408691,-3.499804973602295
1772811114388517000,8.76551708984375,4.544508934020996,-1.6155261993408203,-3.494783878326416
1772811114408279000,8.785279052734374,4.2706403732299805,-1.491224765777588,-3.379741668701172
1772811114428041000,8.805041015625,3.527223825454712,-1.3861827850341797,-2.911022663116455
1772811114447803000,8.824802978515624,2.376725196838379,-1.3376688957214355,-2.2277588844299316
1772811114467564800,8.844564697265625,1.2595579624176025,-1.334458351135254,-1.6525530815124512
1772811114487327000,8.864326904296876,0.3927537798881531,-1.18646240234375,-1.191854476928711
1772811114507088400,8.88408837890625,-0.40468794107437134,-0.8472418785095215,-0.6818904876708984
1772811114526849500,8.903849609375,-1.0491135120391846,-0.47012901306152344,-0.19474077224731445
1772811114546610700,8.923610595703124,-1.621374249458313,-0.22988176345825195,0.29447031021118164
1772811114566372000,8.9433720703125,-1.8874967098236084,-0.4942803382873535,0.9443397521972656
1772811114586133200,8.96313330078125,-2.015803337097168,-0.5592012405395508,1.3018369674682617
1772811114605894400,8.982894287109374,-2.0391554832458496,-0.21997690200805664,1.490377426147461
1772811114625655800,9.00265576171875,-1.9886146783828735,0.11308145523071289,1.6123266220092773
1772811114645417000,9.0224169921875,-1.8066731691360474,0.43924617767333984,1.90077543258667
1772811114665178400,9.042178466796875,-1.9606386423110962,-0.2954139709472656,3.215412139892578
1772811114684939500,9.061939453125,-2.490858793258667,-0.8407859802246094,3.4331812858581543
1772811114704700700,9.08170068359375,-2.5542399883270264,-0.9512996673583984,2.9151387214660645
1772811114724462000,9.101462158203125,-1.9638094902038574,-0.5346269607543945,2.3365111351013184
1772811114744223200,9.12122314453125,-0.8246660232543945,0.23026323318481445,2.1359543800354004
1772811114763984600,9.140984619140625,0.1952015459537506,0.6054010391235352,2.593575954437256
1772811114783745800,9.160745849609375,1.030397653579712,0.5089082717895508,3.301562786102295
1772811114803507000,9.1805068359375,1.364250659942627,0.43820762634277344,3.44260835647583
1772811114823268400,9.200268310546875,1.0515674352645874,0.5079703330993652,2.8298964500427246
1772811114843029500,9.220029541015625,0.5263721942901611,0.4446835517883301,1.9641284942626953
1772811114862790700,9.239790771484374,0.6338072419166565,0.06772089004516602,1.4547948837280273
1772811114882552000,9.259552001953125,1.0370068550109863,-0.4743623733520508,1.0508403778076172
1772811114902313200,9.279313232421876,1.608144760131836,-0.9318346977233887,0.6153602600097656
1772811114922074600,9.29907470703125,2.0450501441955566,-1.5829033851623535,0.40220212936401367
1772811114941835800,9.318835693359375,2.6666882038116455,-2.2667789459228516,0.1677989959716797
1772811114961597000,9.338596923828124,3.264652729034424,-3.009033203125,-0.026838302612304688
1772811114981358300,9.3583583984375,3.829115629196167,-3.1092042922973633,-0.3855295181274414
1772811115001119500,9.378119384765625,4.214717388153076,-3.2432985305786133,-0.5752654075622559
1772811115020881200,9.397881103515624,4.433117866516113,-3.276010036468506,-0.6033439636230469
1772811115040642800,9.417642822265625,4.496370315551758,-3.2139058113098145,-0.5375475883483887
1772811115060404200,9.437404296875,4.243281364440918,-3.2932820320129395,-0.28742408752441406
1772811115080166000,9.457165771484375,3.7336392402648926,-3.2991786003112793,-0.4118485450744629
1772811115099927600,9.476927490234376,3.0596046447753906,-3.1762986183166504,-0.940971851348877
1772811115119689000,9.49668896484375,2.6199870109558105,-3.161193370819092,-1.2794137001037598
1772811115139450600,9.51645068359375,2.280381679534912,-3.0689663887023926,-1.7620820999145508
1772811115159212300,9.53621240234375,1.934295654296875,-3.018928050994873,-2.26766300201416
1772811115178973700,9.5559736328125,1.5230741500854492,-2.915104866027832,-2.917886257171631
1772811115198735400,9.5757353515625,1.3950612545013428,-2.782768726348877,-3.575263500213623
1772811115218496800,9.595496826171875,1.2293570041656494,-2.6415534019470215,-4.254919528961182
1772811115238258400,9.615258544921875,1.0380125045776367,-2.6209778785705566,-4.749464511871338
1772811115258020000,9.63502001953125,0.983390212059021,-2.751915693283081,-5.073166847229004
1772811115277781500,9.654781494140625,1.1435494422912598,-2.929266929626465,-5.232507705688477
1772811115297543200,9.674543212890624,1.3446247577667236,-3.0618832111358643,-5.264827728271484
1772811115317304800,9.694304931640625,1.5234472751617432,-3.206789493560791,-5.096934795379639
1772811115337066200,9.714066162109376,1.6530942916870117,-3.3418595790863037,-4.743035793304443
1772811115356828000,9.733827880859375,1.962518334388733,-3.4577465057373047,-4.310148239135742
1772811115376589300,9.75358935546875,2.234447479248047,-3.5050394535064697,-4.003304958343506
1772811115396351000,9.77335107421875,2.079651117324829,-3.474592685699463,-4.031475067138672
1772811115416112600,9.793112548828125,1.433701753616333,-4.151519298553467,-3.5331521034240723
1772811115435874000,9.8128740234375,0.9155582189559937,-5.417819023132324,-2.9623122215270996
1772811115455635700,9.8326357421875,1.1755826473236084,-5.902067184448242,-2.723715305328369
1772811115475397400,9.8523974609375,1.2694082260131836,-6.391259670257568,-1.9786796569824219
1772811115495158800,9.87215869140625,1.9829968214035034,-5.681455135345459,-1.52095365524292
1772811115514920200,9.891920166015625,2.551097869873047,-4.850449085235596,-0.7943758964538574
1772811115534681600,9.911681640625,2.388861656188965,-3.9398107528686523,-0.22325706481933594
1772811115554443000,9.931443115234375,1.0829010009765625,-2.764073371887207,0.17110729217529297
1772811115574204700,9.95120458984375,-1.2689090967178345,-1.3962187767028809,0.53765869140625
1772811115593966000,9.970966064453124,-2.2720789909362793,0.15340948104858398,1.2955808639526367
1772811115613727500,9.9907275390625,-2.4281461238861084,1.261505126953125,2.475435733795166
1772811115633489000,10.010489013671876,-2.190694570541382,1.502415657043457,3.3475399017333984
1772811115653250300,10.030250244140625,-1.9356937408447266,1.5991077423095703,2.9653573036193848
1772811115673011700,10.05001171875,-1.6392409801483154,1.2811737060546875,2.589515209197998
1772811115692773000,10.069773193359374,-1.3158775568008423,0.41585636138916016,2.19627046585083
1772811115712534800,10.08953466796875,-0.3577382564544678,-0.37305688858032227,1.4426274299621582
1772811115732296200,10.109296142578126,1.145400047302246,-1.1424541473388672,0.6899747848510742
1772811115752057600,10.1290576171875,2.172044277191162,-1.7010917663574219,0.15424346923828125
1772811115771819000,10.148819091796875,2.389571189880371,-1.7129836082458496,-0.687469482421875
1772811115791580400,10.168580322265624,2.437061309814453,-1.6537280082702637,-1.2495574951171875
1772811115811341800,10.188341796875,2.6347768306732178,-1.288900375366211,-1.9398584365844727
1772811115831103200,10.208103271484376,2.977638006210327,-1.1050095558166504,-2.277517318725586
1772811115850865000,10.227864990234375,3.416604995727539,-0.8765616416931152,-2.3754186630249023
1772811115870626300,10.247626220703125,3.409733295440674,-0.7514095306396484,-2.1829609870910645
1772811115890387700,10.2673876953125,2.8106799125671387,-0.4216165542602539,-2.1329174041748047
1772811115910149000,10.287149169921875,2.1222100257873535,-0.15271806716918945,-2.0700416564941406
1772811115929910500,10.30691064453125,1.3803192377090454,-0.1511831283569336,-1.8904638290405273
1772811115949672000,10.326671875,0.5984812378883362,-0.056630611419677734,-1.7882418632507324
1772811115969433300,10.346433349609375,-0.06434553861618042,0.06585359573364258,-1.5947637557983398
1772811115989194800,10.36619482421875,-0.30183207988739014,0.32197999954223633,-1.3524541854858398
1772811116008956200,10.3859560546875,-0.4025559425354004,0.44876575469970703,-0.8778486251831055
1772811116028717600,10.405717529296876,-0.6020007729530334,0.331024169921875,-0.3011045455932617
1772811116048479000,10.42547900390625,-1.0721635818481445,0.49190378189086914,0.030358314514160156
1772811116068240400,10.445240478515625,-1.665617823600769,0.6664547920227051,0.47882890701293945
1772811116088001800,10.465001708984374,-2.0162534713745117,0.7483153343200684,1.0025181770324707
1772811116107763200,10.48476318359375,-1.6716724634170532,1.0795001983642578,1.3701410293579102
1772811116127524600,10.504524658203126,-0.6437116861343384,0.8224954605102539,2.3660202026367188
1772811116147286000,10.5242861328125,-0.03327038884162903,-0.1480541229248047,3.5063562393188477
1772811116167047400,10.54404736328125,1.1452953815460205,-0.13443946838378906,3.405109405517578
1772811116186808600,10.56380859375,1.8077452182769775,-0.23356914520263672,3.5907883644104004
1772811116206570000,10.583570068359375,1.9578125476837158,0.19834613800048828,3.744466781616211
1772811116226331400,10.603331298828126,1.7375907897949219,0.5009136199951172,4.338330268859863
1772811116246092800,10.6230927734375,1.6066640615463257,0.6940736770629883,4.901925563812256
1772811116265854200,10.642854248046875,2.1538755893707275,0.3669452667236328,5.20382833480835
1772811116285615600,10.66261572265625,2.84621262550354,0.18150806427001953,4.5997490882873535
1772811116305377000,10.682376953125,2.9727964401245117,0.46258544921875,3.4479570388793945
1772811116325138400,10.702138427734376,2.3932578563690186,0.682408332824707,3.0440125465393066
1772811116344899800,10.72189990234375,1.8088431358337402,0.8048782348632812,2.9359240531921387
1772811116364661200,10.7416611328125,1.606022596359253,0.44246959686279297,2.8373827934265137
1772811116384422700,10.761422607421874,1.609537959098816,-0.22840499877929688,2.64091157913208
1772811116404184000,10.78118408203125,1.54176664352417,-1.1815071105957031,2.464503288269043
1772811116423945200,10.8009453125,1.7520771026611328,-1.967214584350586,1.9355263710021973
1772811116443706600,10.82070654296875,2.5602407455444336,-2.549427032470703,1.3251361846923828
1772811116463468000,10.840468017578125,3.031069755554199,-3.328319549560547,1.0597195625305176
1772811116483229400,10.8602294921875,3.576958179473877,-3.8019819259643555,0.5372834205627441
1772811116502990800,10.879990966796875,4.271964073181152,-4.095171928405762,-0.12560033798217773
1772811116522752500,10.89975244140625,4.821408271789551,-4.1295857429504395,-0.7989940643310547
1772811116542514000,10.919513916015624,5.229331016540527,-3.641317844390869,-0.6475210189819336
1772811116562275600,10.939275634765625,5.117582321166992,-3.21513032913208,1.0586881637573242
1772811116582037200,10.959037353515624,4.188323020935059,-3.0333919525146484,3.148787498474121
1772811116601798700,10.978798583984375,3.3771591186523438,-3.417389392852783,4.0693254470825195
1772811116621560300,10.998560302734376,3.011054039001465,-3.9047253131866455,3.320864677429199
1772811116641321700,11.01832177734375,3.012486696243286,-4.368312835693359,1.6208343505859375
1772811116661083400,11.03808349609375,2.8612494468688965,-4.262029647827148,0.27027130126953125
1772811116680845000,11.057844970703124,2.2981088161468506,-3.7098517417907715,0.4333229064941406
1772811116700606500,11.0776064453125,1.4754858016967773,-4.230996131896973,1.167877197265625
1772811116720368000,11.0973681640625,1.2258729934692383,-5.22537899017334,1.6161308288574219
1772811116740129500,11.117129638671875,1.465467095375061,-4.9350175857543945,0.8484468460083008
1772811116759891200,11.13689111328125,1.2256801128387451,-5.133525848388672,0.9864788055419922
1772811116779652600,11.156652587890624,0.7911202907562256,-5.555538177490234,0.9911975860595703
1772811116799414300,11.176414306640625,1.5510315895080566,-5.726586818695068,1.019911766052246
1772811116819176000,11.196176025390624,1.8158202171325684,-5.6136908531188965,1.2558708190917969
1772811116838937300,11.215937255859375,1.6265597343444824,-5.576177597045898,1.6281299591064453
1772811116858699000,11.235698974609376,0.09765005111694336,-5.408425807952881,1.4469523429870605
1772811116878460400,11.25546044921875,-0.5304603576660156,-5.493194580078125,1.1822714805603027
1772811116898222000,11.27522216796875,-1.5574889183044434,-5.520778656005859,1.0822930335998535
1772811116917983500,11.2949833984375,-2.6060657501220703,-5.064196586608887,0.0570530891418457
1772811116937745200,11.3147451171875,-1.7441110610961914,-4.541736125946045,-0.9519302845001221
1772811116957506800,11.3345068359375,0.5969038009643555,-4.273885250091553,-1.2639520168304443
1772811116977268200,11.354268310546875,1.1451940536499023,-4.032410144805908,-1.595221996307373
1772811116997030000,11.37402978515625,0.5357046127319336,-3.7688558101654053,-1.4358694553375244
1772811117016792300,11.393792236328125,-0.5738840103149414,-3.4500746726989746,-0.9988052845001221
1772811117036554500,11.413554443359375,-0.8358488082885742,-3.227454662322998,-0.9970507621765137
1772811117056317000,11.43331689453125,-1.320328712463379,-3.0223584175109863,-0.7811741828918457
1772811117076079400,11.453079345703125,-1.6766648292541504,-3.137573719024658,-0.35844457149505615
1772811117095841500,11.472841552734375,-2.0930004119873047,-3.417910575866699,0.0787273645401001
1772811117115604000,11.49260400390625,-2.4487662315368652,-3.3764023780822754,0.3326408863067627
1772811117135366400,11.512366455078125,-2.5072474479675293,-2.924781322479248,0.18049609661102295
1772811117155128600,11.532128662109375,-2.5910401344299316,-2.7183170318603516,0.10049653053283691
1772811117174891000,11.55189111328125,-3.173189163208008,-2.699036121368408,-0.23862051963806152
1772811117194653400,11.5716533203125,-3.6314826011657715,-2.4794740676879883,-0.6788668036460876
1772811117214415600,11.59141552734375,-3.39536714553833,-1.645362377166748,-1.047180414199829
1772811117234178000,11.611177978515625,-3.038938045501709,-1.3178400993347168,-1.231785774230957
1772811117253940200,11.630940185546875,-2.1820855140686035,-1.111734390258789,-1.3643434047698975
1772811117273702700,11.65070263671875,-1.2314233779907227,-1.1529388427734375,-1.4279558658599854
1772811117293465000,11.670465087890625,-0.49633359909057617,-1.3374295234680176,-1.049421787261963
1772811117313227500,11.6902275390625,0.3861064910888672,-1.3725090026855469,-0.46042948961257935
1772811117332989700,11.70998974609375,1.1263599395751953,-1.2801051139831543,-0.467070996761322
1772811117352752000,11.729752197265626,0.2820863723754883,-1.1695756912231445,-0.47901052236557007
1772811117372514600,11.7495146484375,0.32303619384765625,-1.214106559753418,-0.19042885303497314
1772811117392276700,11.76927685546875,0.5772171020507812,-1.115405559539795,-0.2895129919052124
1772811117412039200,11.7890390625,-0.08571672439575195,-0.6001725196838379,-1.5283739566802979
1772811117431801600,11.808801513671876,-0.9656515121459961,-0.6172609329223633,-2.132772207260132
1772811117451563800,11.828563720703125,-0.2062373161315918,-0.6615509986877441,-1.7248926162719727
1772811117471326200,11.848326171875,0.08389139175415039,-0.6609687805175781,-1.2688273191452026
1772811117491088600,11.868088623046875,0.3866448402404785,-0.5558948516845703,-1.1494572162628174
1772811117510850800,11.887850830078126,0.26206493377685547,-0.583193302154541,-0.8763217329978943
1772811117530613000,11.907613037109375,0.539731502532959,-0.7227482795715332,-0.5537599921226501
