time,seconds_elapsed,z,y,x
1772811057356298000,0.326298095703125,0.9197959899902344,-0.19833707809448242,1.8449430465698242
1772811057376060400,0.346060302734375,-0.8229074478149414,-0.7657890319824219,0.25099366903305054
1772811057395822800,0.36582275390625,-2.3180599212646484,-0.5620684623718262,-2.3836233615875244
1772811057415585000,0.3855849609375,-3.1861391067504883,-1.4177179336547852,-1.7348588705062866
1772811057435347500,0.405347412109375,-2.2112154960632324,-1.967240810394287,0.7318711280822754
1772811057455109600,0.425109619140625,-1.6205110549926758,-2.720759391784668,3.6969830989837646
1772811057474872000,0.4448720703125,-2.43412446975708,-2.7951178550720215,5.081654071807861
1772811057494634500,0.464634521484375,-5.351511001586914,-1.547208309173584,0.8757652044296265
1772811057514397700,0.484397705078125,-3.518284797668457,1.1444077491760254,-4.414584159851074
1772811057534161000,0.504160888671875,-1.560215950012207,3.644014358520508,-7.702066898345947
1772811057553924000,0.523924072265625,-4.730899333953857,3.2878904342651367,-8.434226036071777
1772811057573687000,0.54368701171875,-5.2516984939575195,-0.5690617561340332,-3.6627092361450195
1772811057593450200,0.5634501953125,-5.482479095458984,-2.161158561706543,0.8919095993041992
1772811057613213400,0.58321337890625,-6.551762580871582,-1.242922306060791,3.21770977973938
1772811057632976600,0.6029765625,-4.850325584411621,-0.882828950881958,1.2522540092468262
1772811057652739800,0.62273974609375,-2.1487832069396973,-1.4113600254058838,-0.4836397171020508
1772811057672503000,0.6425029296875,-0.25801515579223633,-1.2164795398712158,-2.1501739025115967
1772811057692266000,0.662265869140625,-3.0315659046173096,-1.4957178831100464,-2.2808470726013184
1772811057712029200,0.682029296875,-5.8816237449646,-1.670477271080017,-0.9753026962280273
1772811057731792400,0.70179248046875,-4.270664215087891,-3.079828977584839,-0.4564824104309082
1772811057751555600,0.7215556640625,-1.4777114391326904,-3.5458567142486572,-2.015911102294922
1772811057771318800,0.74131884765625,1.5382637977600098,-4.0113701820373535,-3.329859733581543
1772811057791081700,0.761081787109375,-1.8037736415863037,-2.495115280151367,-4.504252910614014
1772811057810845000,0.780844970703125,-5.779984474182129,-4.038309097290039,-3.284358501434326
1772811057830608100,0.800608154296875,1.2651951313018799,-6.381324768066406,-2.1255087852478027
1772811057850371300,0.820371337890625,5.010100364685059,-7.095725059509277,-2.585113048553467
1772811057870134500,0.840134521484375,-1.2996580600738525,-8.357784271240234,-1.5445852279663086
1772811057889897700,0.859897705078125,-7.547889709472656,-8.374773979187012,3.08206844329834
1772811057909660700,0.87966064453125,-7.742196083068848,-9.31265640258789,8.367928504943848
1772811057929424000,0.899423828125,-0.9711469411849976,-9.512243270874023,9.827042579650879
1772811057949187000,0.91918701171875,4.294112682342529,-8.520967483520508,9.806343078613281
1772811057968950300,0.9389501953125,6.132336139678955,-6.729008674621582,9.840320587158203
1772811057988713500,0.95871337890625,7.375080585479736,-5.31634521484375,10.98762035369873
1772811058008475400,0.978475341796875,6.8186140060424805,-4.077368259429932,12.00927734375
1772811058028237300,0.9982373046875,6.615026473999023,-2.436652183532715,12.872489929199219
1772811058047999000,1.0179990234375,2.967709541320801,-1.5865821838378906,12.013639450073242
1772811058067761000,1.037760986328125,-0.7649478912353516,-0.46427059173583984,11.024242401123047
1772811058087522600,1.0575224609375,-4.080588340759277,0.15245819091796875,9.745677947998047
1772811058107284500,1.077284423828125,-6.458049297332764,0.3003654479980469,8.446220397949219
1772811058127046100,1.097046142578125,-7.017525672912598,1.0483531951904297,6.906412124633789
1772811058146808000,1.11680810546875,-5.588451862335205,2.0017757415771484,5.667203903198242
1772811058166570000,1.136570068359375,-3.290560007095337,2.809037208557129,4.931247711181641
1772811058186331600,1.15633154296875,-1.4342619180679321,3.1110410690307617,5.076766014099121
1772811058206093600,1.176093505859375,-0.1056864857673645,3.411860466003418,5.034119606018066
1772811058225855200,1.195855224609375,0.6328970789909363,3.4914350509643555,4.648357391357422
1772811058245617200,1.2156171875,1.4182798862457275,3.550593376159668,4.021827697753906
1772811058265378800,1.23537890625,2.24808406829834,3.6888017654418945,3.521442413330078
1772811058285140700,1.255140625,3.0147628784179688,3.499007225036621,3.689940929412842
1772811058304902400,1.27490234375,3.4454236030578613,2.843576431274414,4.2677812576293945
1772811058324664300,1.294664306640625,3.7023918628692627,2.248612403869629,4.206483840942383
1772811058344426000,1.314426025390625,4.0035295486450195,1.8966140747070312,3.7746925354003906
1772811058364188000,1.33418798828125,4.5723185539245605,1.4431734085083008,2.89866304397583
1772811058383949800,1.35394970703125,5.284872055053711,0.7438979148864746,2.5444817543029785
1772811058403711500,1.37371142578125,6.272899627685547,-0.2857236862182617,2.715273857116699
1772811058423473400,1.393473388671875,6.724781036376953,-1.2827033996582031,3.1698246002197266
1772811058443235000,1.413235107421875,6.497452259063721,-1.8110394477844238,3.5813751220703125
1772811058462997000,1.4329970703125,5.430678367614746,-2.0302844047546387,3.983386993408203
1772811058482758700,1.452758544921875,4.564582347869873,-2.0094685554504395,4.385891914367676
1772811058502520600,1.4725205078125,3.7076408863067627,-2.0411715507507324,4.501433849334717
1772811058522282200,1.4922822265625,2.634657382965088,-2.126171588897705,4.113760471343994
1772811058542044200,1.512044189453125,1.0228302478790283,-2.4266791343688965,3.427488327026367
1772811058561805800,1.531805908203125,-0.0268326997756958,-2.5088753700256348,2.458292007446289
1772811058581567700,1.551567626953125,-0.7231440544128418,-2.5214920043945312,1.4027233123779297
1772811058601329400,1.571329345703125,-1.0574363470077515,-2.522181987762451,0.29088258743286133
1772811058621091300,1.59109130859375,-1.4016422033309937,-2.1297779083251953,-0.9362096786499023
1772811058640853000,1.61085302734375,-1.8367156982421875,-1.7186779975891113,-1.9172658920288086
1772811058660615000,1.630614990234375,-1.9140011072158813,-1.5308780670166016,-2.521158218383789
1772811058680376600,1.65037646484375,-1.488169550895691,-1.2643756866455078,-3.1149535179138184
1772811058700138500,1.670138427734375,-1.508299708366394,-1.2565531730651855,-3.6935672760009766
1772811058719900200,1.689900146484375,-0.9325422048568726,-1.303483009338379,-4.182794094085693
1772811058739662000,1.709662109375,-0.5548580884933472,-1.409226894378662,-4.657490253448486
1772811058759423700,1.729423828125,-0.3353390693664551,-1.7295517921447754,-4.970365524291992
1772811058779185700,1.749185546875,0.04849898815155029,-2.0400047302246094,-5.310286521911621
1772811058798947300,1.768947265625,0.7096975445747375,-2.4039292335510254,-5.472397804260254
1772811058818709200,1.788709228515625,1.466301679611206,-2.7512266635894775,-5.4493255615234375
1772811058838471000,1.808470947265625,2.0726404190063477,-3.0367398262023926,-5.300466537475586
1772811058858232800,1.82823291015625,2.675492286682129,-3.486746311187744,-4.834234714508057
1772811058877994500,1.847994384765625,2.519160032272339,-4.748936653137207,-3.949622631072998
1772811058897756400,1.86775634765625,2.79050350189209,-5.4600443840026855,-3.70741605758667
1772811058917518000,1.88751806640625,3.364325523376465,-5.856003761291504,-3.2286887168884277
1772811058937280000,1.907280029296875,4.112842082977295,-5.865350246429443,-2.4631237983703613
1772811058957041700,1.927041748046875,4.110723972320557,-5.595958709716797,-1.0855908393859863
1772811058976803600,1.946803466796875,3.1944496631622314,-4.85783576965332,0.5057802200317383
1772811058996565000,1.96656494140625,1.8562952280044556,-3.5188326835632324,2.085282802581787
1772811059016325400,1.986325439453125,0.036676645278930664,-1.6856470108032227,2.9111642837524414
1772811059036085500,2.00608544921875,-2.003085136413574,-0.04214191436767578,3.068282127380371
1772811059055845600,2.025845703125,-3.571674346923828,1.2238669395446777,3.320436477661133
1772811059075606000,2.04560595703125,-4.732470989227295,2.391724109649658,3.5666046142578125
1772811059095366100,2.0653662109375,-5.473933219909668,2.6624622344970703,4.139491558074951
1772811059115126300,2.085126220703125,-5.494744777679443,2.598013401031494,3.7498884201049805
1772811059134886700,2.10488671875,-4.580076694488525,1.8145976066589355,2.797760009765625
1772811059154646800,2.124646728515625,-3.235913038253784,0.45130109786987305,1.6846470832824707
1772811059174407200,2.1444072265625,-1.6906036138534546,-0.7692408561706543,-0.049887657165527344
1772811059194167300,2.164167236328125,-0.29347336292266846,-1.5254015922546387,-1.4538631439208984
1772811059213927400,2.183927490234375,1.3243918418884277,-1.6270942687988281,-2.2599873542785645
1772811059233687800,2.203687744140625,2.700676202774048,-1.4710454940795898,-2.307051658630371
1772811059253448000,2.223447998046875,3.847430944442749,-1.0541362762451172,-2.108635425567627
1772811059273208000,2.2432080078125,4.133359432220459,-0.5291595458984375,-1.6269707679748535
1772811059292968400,2.262968505859375,3.91312837600708,-0.1949939727783203,-1.1814985275268555
1772811059312728600,2.282728515625,3.4238436222076416,0.0032639503479003906,-1.0981359481811523
1772811059332488700,2.30248876953125,3.0326874256134033,0.2330765724182129,-1.2077703475952148
1772811059352249000,2.3222490234375,2.9345602989196777,0.20130205154418945,-1.0371017456054688
1772811059372009200,2.34200927734375,2.8983235359191895,0.2898273468017578,-0.7231731414794922
1772811059391769600,2.36176953125,2.756624698638916,0.3986492156982422,-0.19385766983032227
1772811059411529700,2.38152978515625,2.1236681938171387,0.4713931083679199,0.19018936157226562
1772811059431289900,2.401289794921875,1.5707063674926758,0.672457218170166,0.4183487892150879
1772811059451050200,2.42105029296875,1.243701696395874,0.748237133026123,0.8324599266052246
1772811059470810400,2.440810302734375,0.6338377594947815,0.8116788864135742,1.1667652130126953
1772811059490570800,2.46057080078125,0.21945476531982422,0.7428231239318848,1.5063118934631348
1772811059510332400,2.48033251953125,-0.10801863670349121,0.6075167655944824,1.9890809059143066
1772811059530094600,2.500094482421875,-0.7722257375717163,0.5589818954467773,2.4516687393188477
1772811059549856800,2.519856689453125,-1.267260193824768,0.8110470771789551,2.9406871795654297
1772811059569618700,2.53961865234375,-1.8128396272659302,1.38704252243042,3.572309970855713
1772811059589380900,2.559380859375,-2.2844841480255127,1.2641234397888184,5.024110794067383
1772811059609143000,2.57914306640625,-2.546292304992676,0.5471076965332031,6.558045387268066
1772811059628905000,2.598905029296875,-2.8078739643096924,1.1592378616333008,6.630280017852783
1772811059648667100,2.618667236328125,-2.7214231491088867,2.064544677734375,6.477511882781982
1772811059668429000,2.638428955078125,-2.3109030723571777,3.0785036087036133,6.44270133972168
1772811059688191200,2.658191162109375,-1.5130712985992432,3.434451103210449,6.858279228210449
1772811059707953400,2.677953369140625,-0.6414745450019836,3.0553555488586426,7.298107147216797
1772811059727715600,2.697715576171875,0.0005802512168884277,2.510347366333008,6.5870819091796875
1772811059747477500,2.7174775390625,0.0021956562995910645,2.0916247367858887,5.005275249481201
1772811059767239700,2.73723974609375,0.41085273027420044,1.6423826217651367,3.423259735107422
1772811059787001900,2.757001953125,1.2401536703109741,1.151585578918457,2.389230251312256
1772811059806763800,2.776763671875,2.6263527870178223,0.5252256393432617,1.8176078796386719
1772811059826526000,2.79652587890625,3.922311782836914,-0.08241796493530273,1.810004711151123
1772811059846288000,2.816287841796875,4.990453720092773,-0.767972469329834,1.9879493713378906
1772811059866050000,2.836050048828125,5.469500541687012,-1.674276351928711,2.4461379051208496
1772811059885812200,2.855812255859375,5.531178951263428,-2.334259510040283,2.831883430480957
1772811059905574100,2.87557421875,5.258091449737549,-2.734175682067871,3.212667465209961
1772811059925336300,2.89533642578125,5.000217437744141,-2.658250331878662,3.2866787910461426
1772811059945098500,2.915098388671875,4.437337875366211,-2.4840164184570312,3.198803424835205
1772811059964860400,2.9348603515625,3.7307348251342773,-2.479827880859375,2.920952320098877
1772811059984622600,2.95462255859375,2.8476197719573975,-2.508688449859619,2.2446398735046387
1772811060004384300,2.97438427734375,2.125824213027954,-2.6830811500549316,1.2112150192260742
1772811060024145700,2.994145751953125,1.5010831356048584,-2.803617000579834,0.3217964172363281
1772811060043907000,3.013906982421875,1.3320590257644653,-3.103538990020752,-0.760002613067627
1772811060063668500,3.03366845703125,1.3435145616531372,-3.2953429222106934,-1.7095656394958496
1772811060083430000,3.053429931640625,1.502147912979126,-3.2764363288879395,-2.778747081756592
1772811060103191300,3.07319140625,1.318259835243225,-3.069396734237671,-3.6848978996276855
1772811060122952400,3.092952392578125,0.7483530044555664,-2.8145971298217773,-4.5243000984191895
1772811060142713900,3.1127138671875,0.45734846591949463,-2.4308021068573,-5.447440147399902
1772811060162475300,3.132475341796875,0.202531099319458,-2.0684421062469482,-6.149024963378906
1772811060182236700,3.152236572265625,0.009641647338867188,-1.8487155437469482,-6.514050483703613
1772811060201998000,3.171998046875,-0.03690052032470703,-1.7465927600860596,-6.482294082641602
1772811060221759500,3.191759521484375,0.03176426887512207,-1.7930123805999756,-6.137606620788574
1772811060241521000,3.21152099609375,0.3041872978210449,-1.9051475524902344,-5.651430130004883
1772811060261282300,3.2312822265625,0.6713899374008179,-2.1483139991760254,-5.011317253112793
1772811060281043700,3.251043701171875,1.109753131866455,-2.486847400665283,-4.27968168258667
1772811060300805000,3.27080517578125,1.6359021663665771,-2.6881911754608154,-3.6680874824523926
1772811060320566500,3.29056640625,2.1110730171203613,-2.8782432079315186,-2.9774012565612793
1772811060340328000,3.310327880859375,2.1742007732391357,-3.8133182525634766,-1.6049842834472656
1772811060360089300,3.33008935546875,1.8613556623458862,-4.84990119934082,-0.657966136932373
1772811060379850800,3.349850830078125,1.6626269817352295,-5.309845924377441,-0.09644222259521484
1772811060399612200,3.369612060546875,1.6688289642333984,-5.533393383026123,0.9176478385925293
1772811060419373600,3.38937353515625,1.7472991943359375,-4.777730941772461,1.6495919227600098
1772811060439135000,3.409135009765625,1.549565076828003,-4.028472423553467,2.537782669067383
1772811060458896400,3.428896484375,0.974478006362915,-2.949023723602295,3.684593677520752
1772811060478657800,3.44865771484375,-0.6779754161834717,-1.6573705673217773,4.340436935424805
1772811060498419000,3.4684189453125,-2.7714052200317383,-0.007652759552001953,4.062163829803467
1772811060518180000,3.48818017578125,-4.268631935119629,1.3731231689453125,3.564767837524414
1772811060537941200,3.507941162109375,-4.761290073394775,2.2481307983398438,3.3181238174438477
1772811060557702400,3.527702392578125,-4.558109283447266,2.523895740509033,3.5139107704162598
1772811060577463600,3.547463623046875,-3.85414719581604,2.719712257385254,3.454348564147949
1772811060597224700,3.567224609375,-3.0528783798217773,2.6243271827697754,3.2489848136901855
1772811060616985900,3.58698583984375,-2.254998207092285,2.3635311126708984,2.9089465141296387
1772811060636747000,3.6067470703125,-1.6817189455032349,1.9377799034118652,2.405803680419922
1772811060656508200,3.626508056640625,-1.1751142740249634,1.3997259140014648,1.765174388885498
1772811060676269000,3.64626904296875,-0.5330610275268555,0.9137172698974609,1.2041263580322266
1772811060696030200,3.6660302734375,0.37084245681762695,0.5237102508544922,0.9012422561645508
1772811060715791400,3.685791259765625,1.6105090379714966,0.5244765281677246,0.6285586357116699
1772811060735552500,3.705552490234375,2.6783177852630615,0.6848115921020508,0.5083074569702148
1772811060755313700,3.725313720703125,3.3241679668426514,0.41945648193359375,0.5695137977600098
1772811060775074800,3.74507470703125,3.7181203365325928,0.2253584861755371,0.09865951538085938
1772811060794836000,3.7648359375,3.761021852493286,0.12072992324829102,-0.3100595474243164
1772811060814597000,3.78459716796875,3.647545337677002,0.0410618782043457,-0.5961155891418457
1772811060834358300,3.804358154296875,3.3150599002838135,0.07427406311035156,-0.7236227989196777
1772811060854119400,3.824119384765625,2.739774465560913,0.12521886825561523,-0.8840112686157227
1772811060873880300,3.84388037109375,2.340949535369873,0.11475658416748047,-1.1767354011535645
1772811060893641500,3.863641357421875,2.3204457759857178,0.09993314743041992,-1.5872583389282227
1772811060913402600,3.883402587890625,2.2972705364227295,0.0937643051147461,-1.8322606086730957
1772811060933163800,3.903163818359375,2.0552446842193604,0.26879072189331055,-1.9784789085388184
1772811060952925000,3.922925048828125,1.5853090286254883,0.2877335548400879,-1.7361187934875488
1772811060972686000,3.94268603515625,0.6763254404067993,0.08816337585449219,-1.2578282356262207
1772811060992447200,3.962447265625,-0.2163468301296234,-0.1380748748779297,-0.7331538200378418
1772811061012209400,3.98220947265625,-1.2304483652114868,-0.1692190170288086,-0.1271820068359375
1772811061031971800,4.001971923828125,-2.350973129272461,0.1007542610168457,0.5395550727844238
1772811061051734000,4.021734130859375,-3.551408052444458,0.1946878433227539,1.4391446113586426
1772811061071496400,4.041496337890625,-4.475591659545898,0.2675008773803711,2.6108627319335938
1772811061091259000,4.0612587890625,-4.81738805770874,0.1390085220336914,4.20166015625
1772811061111021000,4.08102099609375,-4.4585280418396,0.8112907409667969,4.901101589202881
1772811061130783500,4.100783447265625,-3.693554162979126,0.9662089347839355,5.8736653327941895
1772811061150545700,4.120545654296875,-2.459458351135254,1.4005117416381836,6.39406681060791
1772811061170308000,4.14030810546875,-1.056939959526062,1.88285493850708,6.616459846496582
1772811061190070300,4.1600703125,0.04347149282693863,1.7881402969360352,7.0348052978515625
1772811061209832700,4.179832763671875,1.1901164054870605,1.5543193817138672,7.16928243637085
1772811061229595000,4.199594970703125,2.2110085487365723,1.5766353607177734,6.761992454528809
1772811061249357300,4.219357421875,3.1580681800842285,1.7998380661010742,6.137310981750488
1772811061269119500,4.239119384765625,3.7867531776428223,2.0013108253479004,5.522637367248535
1772811061288882000,4.2588818359375,3.707932472229004,1.8810625076293945,5.040024280548096
1772811061308644000,4.27864404296875,3.1027746200561523,1.3289909362792969,4.4734110832214355
1772811061328406500,4.298406494140625,2.4719111919403076,0.7359328269958496,3.7409887313842773
1772811061348168700,4.318168701171875,2.267211437225342,0.2270956039428711,2.9742984771728516
1772811061367931100,4.33793115234375,2.3712353706359863,-0.2730560302734375,2.3562393188476562
1772811061387693600,4.357693603515625,2.3683950901031494,-0.8542113304138184,2.0130763053894043
1772811061407455700,4.377455810546875,2.397528886795044,-1.4234719276428223,1.7270946502685547
1772811061427218200,4.39721826171875,2.466732978820801,-1.692920207977295,1.3572492599487305
1772811061446980400,4.41698046875,2.202174186706543,-1.798539638519287,1.3143701553344727
1772811061466742800,4.43674267578125,2.0080180168151855,-1.7747082710266113,1.3599510192871094
1772811061486505000,4.4565048828125,1.7750701904296875,-1.6703534126281738,1.3581256866455078
1772811061506267600,4.476267578125,1.6954588890075684,-1.6014595031738281,1.2218990325927734
1772811061526030000,4.496030029296875,1.8634886741638184,-1.528632640838623,0.7291922569274902
1772811061545792800,4.515792724609375,2.3566832542419434,-1.5400261878967285,0.10468530654907227
1772811061565555500,4.535555419921875,2.3192481994628906,-1.5503592491149902,-0.6269063949584961
1772811061585318100,4.555318115234375,1.9913313388824463,-1.4425387382507324,-1.292396068572998
1772811061605080800,4.575080810546875,1.8644213676452637,-1.3281207084655762,-2.126645565032959
1772811061624843500,4.594843505859375,1.9879087209701538,-1.2420830726623535,-2.636242389678955
1772811061644606200,4.614606201171875,1.7981617450714111,-1.2114133834838867,-2.9488472938537598
1772811061664368600,4.63436865234375,0.9649900197982788,-1.1208319664001465,-3.0108132362365723
1772811061684131300,4.65413134765625,0.10288548469543457,-1.1215991973876953,-2.8483943939208984
1772811061703894000,4.67389404296875,-0.4191906452178955,-1.2375192642211914,-2.590057849884033
1772811061723656700,4.69365673828125,-0.39104509353637695,-1.380241870880127,-2.448899745941162
1772811061743419400,4.71341943359375,0.2723701000213623,-1.552058219909668,-2.3088269233703613
1772811061763182000,4.73318212890625,0.9988433122634888,-1.7982735633850098,-2.4288086891174316
1772811061782944800,4.75294482421875,1.6622896194458008,-1.9780139923095703,-2.778348922729492
1772811061802707200,4.772707275390625,2.1328396797180176,-2.1229095458984375,-3.141204833984375
1772811061822470000,4.792469970703125,1.9116566181182861,-2.9342715740203857,-2.8377060890197754
1772811061842232600,4.812232666015625,0.9541323184967041,-4.0942559242248535,-2.948495388031006
1772811061861995300,4.831995361328125,1.1515765190124512,-4.472303867340088,-3.7702131271362305
1772811061881758000,4.851758056640625,1.7890405654907227,-4.689998626708984,-4.308470249176025
1772811061901520600,4.871520751953125,2.7846150398254395,-4.687307834625244,-4.4543328285217285
1772811061921283300,4.891283447265625,3.768747091293335,-4.489484786987305,-4.238868236541748
1772811061941046000,4.9110458984375,4.224578857421875,-4.007551670074463,-3.3562674522399902
1772811061960808400,4.930808349609375,3.96797251701355,-3.2281394004821777,-1.9911398887634277
1772811061980571100,4.950571044921875,2.9361133575439453,-2.108260154724121,-0.7333931922912598
1772811062000333000,4.9703330078125,1.219602346420288,-0.8388690948486328,0.3581705093383789
1772811062020094200,4.99009423828125,-0.5316240787506104,0.10717248916625977,1.2628908157348633
1772811062039855000,5.009855224609375,-1.5685101747512817,0.934542179107666,2.5245161056518555
1772811062059616300,5.0296162109375,-2.3743736743927,1.514312744140625,1.5953640937805176
1772811062079377200,5.049377197265625,-3.139064311981201,1.3863554000854492,1.8659381866455078
1772811062099138300,5.06913818359375,-2.782789707183838,1.2669391632080078,2.6283493041992188
1772811062118899200,5.088899169921875,-2.185800075531006,1.1022186279296875,3.2588963508605957
1772811062138660000,5.10866015625,-1.5026423931121826,0.6651186943054199,3.249293327331543
1772811062158421200,5.128421142578125,-0.8145560026168823,0.22302484512329102,2.8743486404418945
1772811062178182100,5.14818212890625,0.40761637687683105,-0.12819147109985352,2.5133652687072754
1772811062197943300,5.167943359375,2.6016013622283936,-0.25664520263671875,1.8836431503295898
1772811062217704200,5.1877041015625,3.2931690216064453,-0.0057315826416015625,2.0850281715393066
1772811062237465300,5.20746533203125,4.321859836578369,0.1435561180114746,2.056671142578125
1772811062257226200,5.227226318359375,4.590655326843262,0.48781538009643555,1.8547372817993164
1772811062276987100,5.246987060546875,4.533090591430664,0.6823544502258301,1.3955926895141602
1772811062296748300,5.266748291015625,4.033872604370117,0.7640190124511719,1.0370759963989258
1772811062316509200,5.28650927734375,3.4731969833374023,0.7670998573303223,0.9538378715515137
1772811062336270300,5.306270263671875,2.6942028999328613,0.6623616218566895,1.0134010314941406
1772811062356031200,5.32603125,1.7970420122146606,0.45661354064941406,1.0575809478759766
1772811062375792000,5.345792236328125,0.9909191131591797,0.47754430770874023,0.671205997467041
1772811062395553300,5.36555322265625,0.4693946838378906,0.5119104385375977,0.22211980819702148
1772811062415314200,5.385314208984375,0.11545252799987793,0.5294241905212402,-0.07829523086547852
1772811062435075300,5.405075439453125,-0.10440564155578613,0.6716704368591309,-0.15084028244018555
1772811062454836200,5.424836181640625,-0.5601688623428345,0.7876105308532715,0.2343292236328125
1772811062474597400,5.444597412109375,-0.8769639730453491,0.5625457763671875,1.0592188835144043
1772811062494358300,5.464358154296875,-1.068467140197754,0.488861083984375,1.64638090133667
1772811062514120200,5.4841201171875,-1.4598162174224854,0.4540576934814453,2.2275338172912598
1772811062533882000,5.503882080078125,-1.83815336227417,0.3261451721191406,3.0743308067321777
1772811062553643800,5.523643798828125,-2.665217161178589,0.2417736053466797,4.293188095092773
1772811062573405700,5.54340576171875,-3.9983603954315186,-0.015722274780273438,5.682245254516602
1772811062593167600,5.563167724609375,-5.122858047485352,0.8799905776977539,5.705314636230469
1772811062612929300,5.58292919921875,-6.2265543937683105,1.6045899391174316,5.977206230163574
1772811062632691200,5.602691162109375,-6.594386100769043,2.5894570350646973,6.106566429138184
1772811062652452900,5.622452880859375,-6.53928279876709,3.342881202697754,6.364739894866943
1772811062672214800,5.64221484375,-5.87349271774292,3.319906234741211,6.643941879272461
1772811062691976700,5.661976806640625,-4.801510334014893,2.6730098724365234,6.57499885559082
1772811062711738600,5.681738525390625,-3.6358206272125244,1.6322178840637207,5.900282859802246
1772811062731500300,5.701500244140625,-1.9159188270568848,0.8449335098266602,4.450407028198242
1772811062751262200,5.72126220703125,-0.1302759200334549,0.5601739883422852,3.2462239265441895
1772811062771024000,5.74102392578125,1.521953821182251,0.1400136947631836,2.9894089698791504
1772811062790785800,5.760785888671875,2.64601469039917,-0.589665412902832,3.369434356689453
1772811062810547700,5.780547607421875,3.456204414367676,-1.78399658203125,3.7826619148254395
1772811062830309400,5.800309326171875,4.253957748413086,-2.184932231903076,2.9909090995788574
1772811062850071300,5.8200712890625,4.779806137084961,-2.3150243759155273,2.236372470855713
1772811062869833200,5.839833251953125,4.917898178100586,-2.856228828430176,2.0269198417663574
1772811062889595000,5.859594970703125,4.875063896179199,-3.071714401245117,1.7911810874938965
1772811062909356800,5.879356689453125,4.657958030700684,-3.2293834686279297,1.3385906219482422
1772811062929118700,5.89911865234375,4.466550350189209,-3.468855381011963,0.5497159957885742
1772811062948880400,5.91888037109375,4.579805374145508,-3.676799774169922,-0.5423092842102051
1772811062968642300,5.938642333984375,4.336181640625,-3.5731797218322754,-1.3463845252990723
1772811062988404000,5.958404052734375,3.4835093021392822,-3.377389430999756,-2.0558948516845703
1772811063008165400,5.978165283203125,2.3765692710876465,-2.892434597015381,-2.5358920097351074
1772811063027926800,5.9979267578125,1.7046661376953125,-2.2768163681030273,-2.6374006271362305
1772811063047688200,6.017688232421875,1.0051093101501465,-1.8454923629760742,-2.573317050933838
1772811063067449300,6.037449462890625,0.44967782497406006,-1.6992669105529785,-2.2233920097351074
1772811063087210800,6.057210693359375,0.5043895244598389,-1.57161283493042,-1.8880724906921387
1772811063106972000,6.076971923828125,0.2599550485610962,-1.2746763229370117,-1.6162638664245605
1772811063126733300,6.0967333984375,-0.5637953281402588,-1.1762475967407227,-1.319603443145752
1772811063146494500,6.116494384765625,-1.6567518711090088,-0.7748384475708008,-1.320307731628418
1772811063166255900,6.136255859375,-1.866868495941162,-0.45038700103759766,-1.351306438446045
1772811063186017000,6.15601708984375,-1.619720458984375,-0.4516630172729492,-1.3972845077514648
1772811063205778400,6.1757783203125,-0.9394562244415283,-0.8194499015808105,-1.3763527870178223
1772811063225539600,6.19553955078125,0.008375167846679688,-1.350755214691162,-1.4739165306091309
1772811063245301000,6.215301025390625,0.9415798187255859,-1.723726749420166,-1.9666142463684082
1772811063265062100,6.235062255859375,1.5837836265563965,-1.8963747024536133,-2.4768223762512207
1772811063284823600,6.254823486328125,1.9882924556732178,-2.014411449432373,-3.0414843559265137
1772811063304584700,6.274584716796875,2.1199324131011963,-1.9678244590759277,-3.507625102996826
1772811063324346000,6.29434619140625,1.3329813480377197,-2.711087465286255,-2.9461941719055176
1772811063344107500,6.314107421875,0.07252144813537598,-4.1714768409729,-2.2041659355163574
1772811063363868700,6.33386865234375,-0.004424452781677246,-4.749597072601318,-2.640636920928955
1772811063383630000,6.353630126953125,0.8367270827293396,-4.477276802062988,-3.4399266242980957
1772811063403391200,6.37339111328125,1.3556474447250366,-4.059234142303467,-3.303408622741699
1772811063423152600,6.393152587890625,1.8964483737945557,-3.4476494789123535,-1.947004795074463
1772811063442913800,6.412913818359375,2.3427319526672363,-2.510674476623535,-0.402437686920166
1772811063462675200,6.43267529296875,2.3569703102111816,-1.3920049667358398,1.0252208709716797
1772811063482436400,6.452436279296875,1.8328347206115723,-0.25398969650268555,1.9860625267028809
1772811063502198300,6.4721982421875,0.39049017429351807,0.7138352394104004,2.268678665161133
1772811063521960700,6.491960693359375,-2.2909226417541504,1.6263561248779297,2.256340980529785
1772811063541723100,6.51172314453125,-3.855309009552002,2.8018274307250977,2.237105369567871
1772811063561485300,6.5314853515625,-4.46876335144043,2.998509407043457,2.9603328704833984
1772811063581247700,6.551247802734375,-3.9786415100097656,3.1328625679016113,3.1071791648864746
1772811063601010200,6.57101025390625,-2.1061439514160156,2.6523795127868652,2.8832406997680664
1772811063620772600,6.590772705078125,-0.329370379447937,1.473611831665039,2.7812414169311523
1772811063640535000,6.61053515625,0.3280646800994873,0.05744314193725586,2.210707187652588
1772811063660297500,6.63029736328125,0.46301543712615967,-0.5774369239807129,0.9534215927124023
1772811063680059600,6.6500595703125,0.6114044189453125,-1.2145013809204102,-0.1355581283569336
1772811063699822000,6.669822021484375,1.5649113655090332,-1.4610228538513184,-1.207930088043213
1772811063719584500,6.68958447265625,2.770723819732666,-1.4097208976745605,-1.9901652336120605
1772811063739347000,6.709346923828125,3.7045347690582275,-1.2688794136047363,-2.4303627014160156
1772811063759109400,6.729109375,4.212554454803467,-1.180476188659668,-2.6729345321655273
1772811063778871800,6.748871826171875,4.6356072425842285,-0.9262628555297852,-2.9117894172668457
1772811063798634200,6.76863427734375,4.512517929077148,-0.5852789878845215,-2.7179322242736816
1772811063818396400,6.788396484375,3.686160087585449,-0.5432710647583008,-2.0463032722473145
1772811063838158800,6.808158935546875,2.765995502471924,-0.4103412628173828,-1.7555298805236816
1772811063857921300,6.82792138671875,1.734999656677246,-0.4090137481689453,-1.4774532318115234
1772811063877683700,6.84768359375,0.8933955430984497,-0.4306492805480957,-1.2453784942626953
1772811063897446100,6.867446044921875,0.4961512088775635,-0.36884307861328125,-0.8210091590881348
1772811063917208600,6.88720849609375,0.021466970443725586,-0.29622459411621094,-0.31908321380615234
1772811063936970800,6.906970703125,-0.3756599426269531,-0.41239309310913086,0.36238527297973633
1772811063956733200,6.926733154296875,-0.9103015065193176,-0.49373483657836914,0.860048770904541
1772811063976495600,6.94649560546875,-1.7752434015274048,-0.4012470245361328,1.4758448600769043
1772811063996257800,6.9662578125,-2.8510985374450684,-0.1797780990600586,1.9662046432495117
1772811064016019200,6.986019287109375,-3.715528964996338,0.1429281234741211,2.435997486114502
1772811064035780600,7.005780517578125,-4.018388271331787,0.32859039306640625,3.3336944580078125
1772811064055542000,7.0255419921875,-3.8110575675964355,0.38423824310302734,4.590287685394287
1772811064075303400,7.045303466796875,-3.877021074295044,-0.08311843872070312,6.205430030822754
1772811064095064600,7.065064697265625,-3.809823513031006,0.4362325668334961,6.22780179977417
1772811064114826000,7.084825927734375,-3.0204169750213623,1.2901268005371094,6.023222923278809
1772811064134587400,7.10458740234375,-2.3086836338043213,2.023406982421875,6.10139799118042
1772811064154348800,7.124348876953125,-1.6541166305541992,2.4256134033203125,6.643033027648926
1772811064174110200,7.144110107421875,-0.8524109125137329,2.5192079544067383,7.175071716308594
1772811064193871600,7.16387158203125,-0.035755254328250885,2.499162197113037,7.019099712371826
1772811064213633000,7.183633056640625,0.6714335680007935,2.5183839797973633,6.213522911071777
1772811064233394400,7.20339453125,1.1055364608764648,2.7535667419433594,5.018490791320801
1772811064253155600,7.223155517578125,1.323390245437622,2.6172637939453125,4.514946937561035
1772811064272917000,7.2429169921875,1.392897367477417,2.150733470916748,4.408728122711182
1772811064292678400,7.262678466796875,1.3966624736785889,1.7866392135620117,4.302181243896484
1772811064312439800,7.282439697265625,1.7444106340408325,1.5167803764343262,4.020201683044434
1772811064332201200,7.302201171875,2.241065502166748,0.9899253845214844,3.757885456085205
1772811064351962600,7.321962646484375,2.6365175247192383,0.6035470962524414,3.1855955123901367
1772811064371724000,7.34172412109375,2.9957146644592285,-0.10718822479248047,2.832882881164551
1772811064391485400,7.3614853515625,3.4715397357940674,-0.8999934196472168,2.549776554107666
1772811064411246800,7.381246826171875,4.113009452819824,-1.2762837409973145,2.056583881378174
1772811064431008000,7.401008056640625,4.018568515777588,-1.396791934967041,1.6140055656433105
1772811064450769400,7.420769287109375,3.1855525970458984,-1.6528043746948242,1.3393802642822266
1772811064470530800,7.44053076171875,2.314033031463623,-1.7259654998779297,1.00523042678833
1772811064490292200,7.460292236328125,1.882750391960144,-1.717947006225586,0.8149232864379883
1772811064510053600,7.4800537109375,1.5788178443908691,-1.7220821380615234,0.7430534362792969
1772811064529815300,7.499815185546875,1.2119406461715698,-1.8050694465637207,0.7549881935119629
1772811064549577000,7.519576904296875,0.9893633127212524,-1.9446473121643066,0.5017142295837402
1772811064569338400,7.53933837890625,1.1055622100830078,-2.0770792961120605,0.03699922561645508
1772811064589100000,7.55910009765625,1.28114914894104,-2.139860153198242,-0.7039046287536621
1772811064608861700,7.57886181640625,1.4590144157409668,-1.9738893508911133,-1.418337345123291
1772811064628623000,7.598623046875,1.3212389945983887,-1.9914665222167969,-1.8562955856323242
1772811064648384800,7.618384765625,1.1709150075912476,-1.845688819885254,-2.3940987586975098
1772811064668146400,7.638146484375,1.0964418649673462,-1.8221683502197266,-2.793764591217041
1772811064687907800,7.657907958984375,1.0778871774673462,-1.884505271911621,-3.120563507080078
1772811064707669500,7.67766943359375,1.2248005867004395,-2.0124385356903076,-3.2926783561706543
1772811064727431200,7.69743115234375,1.3949849605560303,-2.152322769165039,-3.521653652191162
1772811064747192600,7.717192626953125,1.5985586643218994,-2.3214049339294434,-3.7291250228881836
1772811064766954200,7.736954345703125,1.850633978843689,-2.373180389404297,-3.9424901008605957
1772811064786716000,7.7567158203125,1.921895980834961,-2.395983934402466,-3.9493865966796875
1772811064806477300,7.776477294921875,1.4842329025268555,-3.058729648590088,-3.1808247566223145
1772811064826239000,7.796239013671875,0.8146331310272217,-4.2021484375,-2.6546592712402344
1772811064846000400,7.81600048828125,0.9586707353591919,-4.675136089324951,-2.964651584625244
1772811064865762000,7.835761962890625,1.620192527770996,-4.574206829071045,-3.3738222122192383
1772811064885523700,7.855523681640625,2.051548957824707,-3.8864498138427734,-3.3789854049682617
1772811064905285000,7.87528515625,1.956743597984314,-3.118925094604492,-2.6338305473327637
1772811064925046800,7.895046875,1.1132385730743408,-2.526862621307373,-1.6843581199645996
1772811064944808400,7.914808349609375,-0.02389812469482422,-1.7347817420959473,-1.0606598854064941
1772811064964569900,7.93456982421875,-0.5385464429855347,-0.8169164657592773,-0.4989943504333496
1772811064984331500,7.95433154296875,-0.891165018081665,-0.088714599609375,0.018742084503173828
1772811065004093200,7.97409326171875,-1.384912133216858,0.17751836776733398,0.5875945091247559
1772811065023855000,7.993855224609375,-1.7953532934188843,0.27825260162353516,1.183985710144043
1772811065043616800,8.01361669921875,-2.1495401859283447,0.4944648742675781,1.883171558380127
1772811065063378700,8.033378662109374,-2.624116897583008,0.6844143867492676,2.5568699836730957
1772811065083140600,8.053140625,-2.7878355979919434,0.9190797805786133,3.004638671875
1772811065102902300,8.07290234375,-2.666187286376953,0.9320259094238281,3.439204692840576
1772811065122664200,8.092664306640625,-2.2313156127929688,0.8245501518249512,3.5235743522644043
1772811065142425900,8.11242578125,-1.3638947010040283,0.5864858627319336,2.946413516998291
1772811065162187800,8.132187744140625,-0.25567626953125,0.32514524459838867,2.0515689849853516
1772811065181949700,8.15194970703125,0.8753635287284851,0.22497272491455078,0.9961833953857422
1772811065201711400,8.17171142578125,1.4115519523620605,0.002036571502685547,0.13158798217773438
1772811065221473300,8.191473388671875,1.7377859354019165,-0.1389298439025879,-0.6382417678833008
1772811065241235000,8.21123486328125,1.609148383140564,-0.1817951202392578,-1.311840534210205
1772811065260996900,8.230996826171875,1.2790124416351318,-0.21762847900390625,-1.9209370613098145
1772811065280758800,8.2507587890625,1.187474012374878,-0.20177030563354492,-2.356766700744629
1772811065300520400,8.2705205078125,1.2549282312393188,-0.19999170303344727,-2.6888136863708496
1772811065320282400,8.290282470703126,1.1882038116455078,-0.1335148811340332,-2.8317346572875977
1772811065340044000,8.3100439453125,0.9790204167366028,-0.17473888397216797,-2.831505298614502
1772811065359806000,8.329805908203125,0.7265496850013733,-0.15816545486450195,-2.914816379547119
1772811065379567900,8.34956787109375,0.27444976568222046,-0.12729692459106445,-2.889861583709717
1772811065399329500,8.36932958984375,0.13493740558624268,-0.37444639205932617,-2.6778998374938965
1772811065419091500,8.389091552734374,1.597090244293213,-0.008218765258789062,-2.2467455863952637
1772811065438853000,8.40885302734375,1.887028455734253,0.1440587043762207,-1.204538345336914
1772811065458615000,8.428614990234376,1.401679277420044,-0.03603792190551758,0.10283279418945312
1772811065478377000,8.448376953125,0.6667989492416382,-0.2920799255371094,1.1460661888122559
1772811065498139000,8.468138916015626,-0.37212514877319336,-0.2262859344482422,2.3939127922058105
1772811065517900800,8.48790087890625,-1.3595552444458008,0.0709991455078125,3.691634178161621
1772811065537662700,8.507662841796876,-2.2065722942352295,0.19811248779296875,5.23364782333374
1772811065557425000,8.5274248046875,-2.8866472244262695,-0.5891351699829102,7.360152721405029
1772811065577186800,8.547186767578125,-2.957773447036743,-0.7963380813598633,8.070069313049316
1772811065596948700,8.56694873046875,-2.5486762523651123,0.020860671997070312,7.921547889709473
1772811065616711000,8.5867109375,-1.494460940361023,1.1888904571533203,7.807570457458496
1772811065636472800,8.606472900390624,-0.8471018075942993,2.111125946044922,8.179522514343262
1772811065656235000,8.626235107421875,-0.5756218433380127,2.519078254699707,8.695313453674316
1772811065675997000,8.645996826171874,-0.8230128288269043,2.948370933532715,8.114445686340332
1772811065695758800,8.6657587890625,-1.6272584199905396,3.2126054763793945,6.723781585693359
1772811065715521000,8.68552099609375,-2.2019124031066895,3.2120633125305176,5.260530471801758
1772811065735283000,8.705282958984375,-2.1882483959198,2.767584800720215,4.052639007568359
1772811065755044900,8.725044921875,-1.3887462615966797,2.0242466926574707,3.3319215774536133
1772811065774807000,8.74480712890625,-0.8121570944786072,1.3388004302978516,2.7413110733032227
1772811065794569000,8.76456884765625,0.12464320659637451,0.9519453048706055,2.061037063598633
1772811065814331100,8.7843310546875,1.287003517150879,0.4550161361694336,1.5421643257141113
1772811065834093000,8.804093017578126,2.0404531955718994,-0.36958980560302734,1.3471169471740723
1772811065853855000,8.82385498046875,2.6251049041748047,-1.2111144065856934,1.3819341659545898
1772811065873617200,8.8436171875,2.923489570617676,-1.6353778839111328,1.5676794052124023
1772811065893379000,8.863379150390625,2.950530529022217,-1.9630932807922363,2.0951294898986816
1772811065913141000,8.88314111328125,2.2593982219696045,-1.7810707092285156,2.438375473022461
1772811065932903200,8.902903076171874,1.6177469491958618,-1.3668475151062012,2.7196431159973145
1772811065952665000,8.9226650390625,0.4417917728424072,-1.004563331604004,3.418008804321289
1772811065972427300,8.94242724609375,-0.22877717018127441,-0.4969477653503418,4.554836273193359
1772811065992189200,8.962189208984375,-0.17058324813842773,-0.3589143753051758,5.187009334564209
1772811066011951000,8.981951171875,-0.07014179229736328,-0.8390226364135742,5.533432483673096
1772811066031713000,9.001713134765625,0.4850541353225708,-2.046558380126953,5.532448768615723
1772811066051475200,9.02147509765625,0.7859191298484802,-2.178727626800537,3.123326301574707
1772811066071237000,9.041237060546875,1.5541789531707764,-3.0974178314208984,1.711766242980957
1772811066090999000,9.0609990234375,1.669399380683899,-3.365959644317627,0.9947710037231445
1772811066110761200,9.08076123046875,1.264146327972412,-3.8970649242401123,-0.1790924072265625
1772811066130523100,9.100523193359376,1.2760149240493774,-3.354456901550293,-1.2288804054260254
1772811066150285000,9.12028515625,0.8124039173126221,-3.5275356769561768,-0.9921145439147949
1772811066170047000,9.140046875,0.551154613494873,-3.5442140102386475,-0.8311934471130371
1772811066189809200,9.15980908203125,1.5113534927368164,-3.351487398147583,-0.4502601623535156
1772811066209571000,9.179571044921875,1.3902912139892578,-3.283273696899414,0.19405460357666016
1772811066229333000,9.1993330078125,2.0493736267089844,-3.746501922607422,1.0937347412109375
1772811066249095000,9.219094970703125,0.465181827545166,-2.468632221221924,0.5495872497558594
1772811066268856800,9.23885693359375,-1.3231749534606934,-2.064577102661133,-0.08184814453125
1772811066288619000,9.258618896484375,-1.9179940223693848,-2.4979348182678223,-0.18932056427001953
1772811066308381000,9.278380859375,-1.5004158020019531,-3.3010497093200684,0.26164913177490234
1772811066328142800,9.298142822265625,0.7611513137817383,-5.524302959442139,2.3532001972198486
1772811066347904800,9.31790478515625,-0.24513912200927734,-5.447333335876465,2.206087827682495
1772811066367667000,9.3376669921875,0.8325986862182617,-3.7553632259368896,1.7327966690063477
1772811066387428900,9.357428955078126,1.0627002716064453,-2.8836421966552734,0.931450366973877
1772811066407190800,9.377190673828125,-0.1660919189453125,-3.2231101989746094,-0.2429523468017578
1772811066426952700,9.39695263671875,-1.9537959098815918,-2.578474521636963,-1.243776559829712
1772811066446715000,9.41671484375,-1.9941086769104004,-2.034585952758789,-0.3835031986236572
1772811066466476800,9.436476806640625,-2.1660733222961426,-1.7705446481704712,-0.14871644973754883
1772811066486238700,9.45623876953125,-1.802049160003662,-1.6867634057998657,-0.23968827724456787
1772811066506000400,9.47600048828125,-1.3040781021118164,-1.7241159677505493,0.3099799156188965
1772811066525761800,9.49576171875,-0.3872833251953125,-1.763414740562439,0.6282311677932739
1772811066545523200,9.515523193359375,-0.17076492309570312,-2.105380058288574,0.8316441774368286
1772811066565284400,9.535284423828125,-0.6930713653564453,-2.395692825317383,0.8877265453338623
1772811066585045800,9.555045654296874,-1.3671879768371582,-2.2225799560546875,1.323543906211853
1772811066604807200,9.57480712890625,-2.7184672355651855,-1.9060465097427368,1.2042577266693115
1772811066624568600,9.594568603515626,-3.5913147926330566,-1.5739312171936035,0.512414276599884
1772811066644330000,9.614330078125,-4.146152019500732,-0.9619922637939453,-0.17090773582458496
1772811066664091400,9.63409130859375,-4.1775803565979,-0.765871524810791,-0.49750328063964844
1772811066683852800,9.653852783203124,-3.6164584159851074,-0.646148681640625,-0.9499644041061401
1772811066703614000,9.673614013671875,-2.6099185943603516,-0.6403236389160156,-1.0296348333358765
1772811066723375400,9.693375244140626,-2.2914109230041504,-0.7750229835510254,-0.9515791535377502
1772811066743136800,9.71313671875,-1.8268189430236816,-0.5228900909423828,-0.5428917407989502
1772811066762898200,9.732898193359375,-1.5523943901062012,-0.33895111083984375,0.06812608987092972
1772811066782659600,9.75265966796875,-1.2653388977050781,-0.5098466873168945,0.5103572010993958
1772811066802421000,9.7724208984375,-0.8028507232666016,-0.35303735733032227,0.0026947036385536194
1772811066822182400,9.792182373046876,-0.7211880683898926,-0.3444809913635254,-0.04805821180343628
1772811066841943800,9.81194384765625,-0.8528876304626465,-0.24757909774780273,-0.4522688388824463
1772811066861705200,9.831705322265625,-1.3515286445617676,0.02141857147216797,-1.5994141101837158
1772811066881466400,9.85146630859375,-1.108717918395996,0.269991397857666,-1.7406697273254395
1772811066901227800,9.871227783203125,-0.10050678253173828,0.10462331771850586,-0.6916744112968445
1772811066920989200,9.8909892578125,0.6424417495727539,0.13628101348876953,-0.023166164755821228
1772811066940750600,9.91075048828125,-0.12956523895263672,0.020845413208007812,0.34512826800346375
1772811066960512000,9.930511962890625,-0.31203508377075195,0.28916215896606445,-0.4078291356563568
1772811066980273400,9.9502734375,0.02682209014892578,-0.13497400283813477,-1.2377748489379883
1772811067000035000,9.97003515625,0.24737262725830078,-0.19087886810302734,-1.4882208108901978
1772811067019797000,9.989796875,-0.023172378540039062,-0.24473237991333008,-1.0785473585128784
1772811067039559000,10.009558837890625,-0.5126280784606934,-0.32384157180786133,-0.5831048488616943
1772811067059320800,10.02932080078125,-0.7205519676208496,-0.30626678466796875,-0.07251420617103577
1772811067079082800,10.049082763671874,-0.388887882232666,-0.32668495178222656,0.04554733633995056
