time,seconds_elapsed,z,y,x
1772811041547000800,0.309000732421875,-0.8574008941650391,-1.9012203216552734,0.2929568886756897
1772811041566762500,0.328762451171875,-0.3555617332458496,-1.5779914855957031,0.35352957248687744
1772811041586524200,0.348524169921875,-0.2944955825805664,-1.8689584732055664,0.154416024684906
1772811041606285800,0.368285888671875,-0.631232738494873,-1.8334989547729492,0.18417274951934814
1772811041626047500,0.388047607421875,-1.7738471031188965,-1.7122292518615723,-0.0527576208114624
1772811041645809200,0.40780908203125,-3.576742172241211,-1.8956427574157715,-0.567894458770752
1772811041665570800,0.42757080078125,-4.753716468811035,-1.7069716453552246,-0.3557419776916504
1772811041685332500,0.44733251953125,-5.693539619445801,-1.729210376739502,-0.13060545921325684
1772811041705094100,0.46709423828125,-6.819447994232178,-2.1198158264160156,0.3788595199584961
1772811041724855800,0.486855712890625,-5.977166175842285,-1.4738998413085938,0.03328824043273926
1772811041744617500,0.506617431640625,-3.7935948371887207,-1.073422908782959,-1.189453125
1772811041764379100,0.526379150390625,-2.342642307281494,-1.3449320793151855,-1.837228536605835
1772811041784140800,0.546140869140625,-3.842799663543701,-3.733999252319336,0.7497572898864746
1772811041803902500,0.56590234375,-4.703657150268555,-4.489189147949219,0.6114959716796875
1772811041823664000,0.5856640625,-7.400918483734131,0.04079246520996094,-1.6874427795410156
1772811041843425800,0.60542578125,-9.733831405639648,-3.778907299041748,0.29614686965942383
1772811041863187500,0.6251875,-10.849382400512695,-6.286759376525879,0.26874637603759766
1772811041882949000,0.64494921875,-1.7213010787963867,-6.4753336906433105,0.8626461029052734
1772811041902710800,0.664710693359375,1.3905444145202637,-6.8955397605896,0.5981111526489258
1772811041922472400,0.684472412109375,-0.6248478889465332,-7.424112319946289,-0.04338359832763672
1772811041942234000,0.704234130859375,-6.947970867156982,-7.8205366134643555,1.3322219848632812
1772811041961995800,0.723995849609375,-9.369094848632812,-8.416280746459961,2.3614797592163086
1772811041981757700,0.7437578125,-6.013906955718994,-9.794107437133789,2.438979148864746
1772811042001519400,0.763519287109375,-1.8740060329437256,-10.647239685058594,4.099608421325684
1772811042021281300,0.78328125,0.18967986106872559,-10.444833755493164,5.658751487731934
1772811042041043200,0.803043212890625,-0.35488176345825195,-9.091377258300781,4.752708435058594
1772811042060805000,0.82280517578125,-0.7863653302192688,-8.405706405639648,4.009305000305176
1772811042080566800,0.84256689453125,-0.6389809250831604,-8.122713088989258,4.434898376464844
1772811042100328700,0.86232861328125,1.1012322902679443,-8.07135009765625,6.005687713623047
1772811042120090600,0.882090576171875,3.0549569129943848,-7.398012161254883,7.8753228187561035
1772811042139852500,0.9018525390625,4.963872909545898,-6.678256034851074,9.381352424621582
1772811042159614500,0.921614501953125,6.149328231811523,-5.324695587158203,9.440557479858398
1772811042179376400,0.94137646484375,5.394277572631836,-3.724396228790283,8.099884033203125
1772811042199138300,0.96113818359375,4.666177749633789,-2.7485909461975098,6.215345859527588
1772811042218900000,0.98089990234375,4.819879531860352,-1.9834966659545898,4.647312164306641
1772811042238662000,1.000661865234375,4.301670074462891,-1.34684419631958,3.7775473594665527
1772811042258423800,1.020423828125,4.064597129821777,-0.3953394889831543,3.238077163696289
1772811042278185700,1.040185791015625,3.179227828979492,0.5860176086425781,3.2051448822021484
1772811042297947600,1.05994775390625,2.1093368530273438,1.6603102684020996,3.271587371826172
1772811042317709600,1.07970947265625,1.4367754459381104,2.792177200317383,3.63771915435791
1772811042337471500,1.099471435546875,0.8273494243621826,3.2679123878479004,4.184044361114502
1772811042357233400,1.1192333984375,0.22819948196411133,3.3864331245422363,4.5611066818237305
1772811042376995000,1.1389951171875,-0.28482866287231445,3.1415796279907227,4.796662330627441
1772811042396757000,1.158757080078125,-0.2286510467529297,2.5374622344970703,4.5979156494140625
1772811042416519000,1.178518798828125,0.8089367151260376,1.912454605102539,4.438292980194092
1772811042436280800,1.19828076171875,1.4682509899139404,0.9098529815673828,4.232232093811035
1772811042456042800,1.218042724609375,1.5753281116485596,-0.3746376037597656,4.395759582519531
1772811042475804700,1.2378046875,2.3587779998779297,-1.1210551261901855,4.297556400299072
1772811042495566300,1.25756640625,2.728102207183838,-1.2116451263427734,3.594851016998291
1772811042515327700,1.27732763671875,2.0287749767303467,-1.710587501525879,3.266110897064209
1772811042535089200,1.297089111328125,1.9410496950149536,-1.9104723930358887,3.101809501647949
1772811042554850600,1.3168505859375,1.3623912334442139,-2.2576074600219727,2.6372032165527344
1772811042574612000,1.336612060546875,0.48406291007995605,-2.814056873321533,2.059508800506592
1772811042594373400,1.356373291015625,0.16013741493225098,-3.3309102058410645,1.317934513092041
1772811042614134800,1.376134765625,-0.011056661605834961,-3.900899887084961,0.37725830078125
1772811042633896200,1.395896240234375,-0.3946263790130615,-4.233831405639648,-0.8237290382385254
1772811042653657600,1.41565771484375,-0.9406230449676514,-4.378427982330322,-1.8838801383972168
1772811042673419000,1.4354189453125,-1.3606791496276855,-4.428323268890381,-2.7731313705444336
1772811042693180400,1.455180419921875,-1.4568061828613281,-4.262146949768066,-3.399681568145752
1772811042712941800,1.47494189453125,-1.3188042640686035,-3.9391438961029053,-3.8495473861694336
1772811042732703500,1.494703369140625,-0.9802906513214111,-3.867276430130005,-3.918318271636963
1772811042752465000,1.51446484375,-0.8017864227294922,-4.043773651123047,-3.92110538482666
1772811042772226300,1.534226318359375,-0.3893251419067383,-4.3644561767578125,-4.116410732269287
1772811042791987700,1.55398779296875,0.0903620719909668,-4.648015975952148,-4.627455711364746
1772811042811749000,1.5737490234375,0.6569480895996094,-4.8078765869140625,-4.993204116821289
1772811042831510500,1.593510498046875,1.1557631492614746,-4.6132049560546875,-5.164891242980957
1772811042851272000,1.61327197265625,1.7612853050231934,-4.585906982421875,-5.4483723640441895
1772811042871033300,1.633033447265625,1.9645004272460938,-5.37065315246582,-5.231350898742676
1772811042890794800,1.652794677734375,1.81424081325531,-6.460549831390381,-5.406715393066406
1772811042910556200,1.67255615234375,1.64506196975708,-6.671736717224121,-6.289693832397461
1772811042930317600,1.692317626953125,1.5349204540252686,-6.685940742492676,-6.80406379699707
1772811042950079000,1.712078857421875,2.385834217071533,-7.04163932800293,-6.605738639831543
1772811042969840400,1.73184033203125,4.06800651550293,-6.502269744873047,-5.8734540939331055
1772811042989601800,1.751601806640625,4.104421615600586,-5.756265163421631,-4.365784645080566
1772811043009363500,1.771363525390625,3.8152060508728027,-4.913778305053711,-2.253894805908203
1772811043029124900,1.791124755859375,2.9645140171051025,-3.849968433380127,-0.34570980072021484
1772811043048886500,1.810886474609375,1.9804612398147583,-2.844634532928467,1.1783380508422852
1772811043068648200,1.830648193359375,1.0753964185714722,-1.900733470916748,2.0077924728393555
1772811043088409900,1.850409912109375,-0.10184168815612793,-0.9027538299560547,2.043294906616211
1772811043108171500,1.870171630859375,-1.5555036067962646,-0.29996252059936523,1.6858162879943848
1772811043127933000,1.889932861328125,-2.4753074645996094,-0.3445553779602051,1.045313835144043
1772811043147694600,1.909694580078125,-2.346514940261841,-0.7480106353759766,0.5724635124206543
1772811043167456300,1.929456298828125,-1.46445631980896,-1.4567875862121582,0.0034074783325195312
1772811043187218000,1.949218017578125,-0.358109712600708,-2.0054636001586914,-1.025200366973877
1772811043206979600,1.9689794921875,0.677215576171875,-2.4173498153686523,-2.418144702911377
1772811043226741000,1.988740966796875,1.9473285675048828,-2.7089715003967285,-3.4430246353149414
1772811043246502700,2.008502685546875,2.9447903633117676,-2.546292781829834,-4.269190788269043
1772811043266264300,2.028264404296875,3.0279417037963867,-2.362802028656006,-4.668021202087402
1772811043286026000,2.04802587890625,3.174307107925415,-2.1684446334838867,-4.892871856689453
1772811043305787600,2.06778759765625,3.191664457321167,-1.9254331588745117,-5.191783905029297
1772811043325549000,2.087549072265625,2.741486072540283,-1.6221327781677246,-5.3228912353515625
1772811043345310700,2.107310791015625,2.1551315784454346,-1.5744199752807617,-4.707241058349609
1772811043365072400,2.127072265625,1.5840085744857788,-1.7747230529785156,-3.742260694503784
1772811043384834000,2.146833984375,0.8222691416740417,-2.007575035095215,-2.6308717727661133
1772811043404595700,2.166595703125,0.5387648940086365,-2.429293632507324,-1.5541625022888184
1772811043424357400,2.186357421875,-0.01611638069152832,-2.7354698181152344,-0.23418617248535156
1772811043444118800,2.206118896484375,-0.6490411758422852,-2.9271435737609863,1.0344557762145996
1772811043463880400,2.22588037109375,-1.1753430366516113,-2.8646488189697266,2.064394950866699
1772811043483642000,2.24564208984375,-2.1586220264434814,-2.5082130432128906,2.9758129119873047
1772811043503404300,2.265404296875,-2.8636105060577393,-1.9233627319335938,3.9155941009521484
1772811043523166700,2.285166748046875,-3.2949321269989014,-1.874588966369629,5.195031642913818
1772811043542929200,2.30492919921875,-3.62861967086792,-2.675595283508301,6.772175312042236
1772811043562691800,2.32469189453125,-3.458279609680176,-1.4232654571533203,7.304702281951904
1772811043582454300,2.344454345703125,-3.5356833934783936,-0.3934507369995117,7.923351287841797
1772811043602216700,2.364216796875,-3.6858043670654297,0.4878807067871094,8.359138488769531
1772811043621979400,2.3839794921875,-3.652299165725708,1.5337553024291992,8.268933296203613
1772811043641741800,2.403741943359375,-3.187037706375122,2.4242563247680664,7.556912422180176
1772811043661504300,2.423504150390625,-2.6062426567077637,2.598541259765625,6.4059529304504395
1772811043681267000,2.443266845703125,-1.804177165031433,2.248929977416992,5.107003688812256
1772811043701029400,2.463029296875,-1.0140684843063354,1.7115583419799805,3.8371429443359375
1772811043720792000,2.4827919921875,-0.13545012474060059,1.1463699340820312,2.6890292167663574
1772811043740554500,2.502554443359375,0.5879451632499695,0.6546812057495117,1.7712526321411133
1772811043760317000,2.52231689453125,1.1215161085128784,0.004193305969238281,1.1488332748413086
1772811043780079600,2.54207958984375,1.6914743185043335,-1.013556957244873,0.7929701805114746
1772811043799842000,2.561842041015625,2.1006429195404053,-1.9085593223571777,0.6062250137329102
1772811043819604500,2.5816044921875,2.3529279232025146,-2.4620919227600098,0.7064404487609863
1772811043839367200,2.6013671875,2.3487930297851562,-2.9009695053100586,1.0648469924926758
1772811043859129600,2.621129638671875,2.4321041107177734,-3.1341981887817383,1.406735897064209
1772811043878892000,2.64089208984375,2.7127609252929688,-3.152280330657959,1.5762605667114258
1772811043898654700,2.66065478515625,2.8039603233337402,-3.1412100791931152,1.5396618843078613
1772811043918417200,2.680417236328125,2.692322015762329,-3.2926039695739746,1.4558978080749512
1772811043938179600,2.7001796875,2.492992877960205,-3.485435962677002,0.9476842880249023
1772811043957942300,2.7199423828125,2.325666904449463,-3.742574691772461,0.21314096450805664
1772811043977704700,2.73970458984375,2.394287109375,-4.052852153778076,-0.5658955574035645
1772811043997467000,2.759466796875,2.625591516494751,-4.317959308624268,-1.3460922241210938
1772811044017228000,2.77922802734375,2.913060426712036,-4.415328502655029,-2.233186721801758
1772811044036989200,2.7989892578125,2.701586961746216,-4.327184677124023,-2.979950428009033
1772811044056750300,2.818750244140625,2.239443063735962,-4.318963050842285,-3.455317974090576
1772811044076511700,2.83851171875,1.6805245876312256,-4.2992262840271,-3.9074254035949707
1772811044096273000,2.85827294921875,1.4676182270050049,-4.13254451751709,-4.3661298751831055
1772811044116034000,2.878033935546875,1.257178544998169,-3.9697113037109375,-4.69122314453125
1772811044135795200,2.897795166015625,1.2986524105072021,-3.960401773452759,-4.990948677062988
1772811044155556400,2.917556396484375,1.7072935104370117,-4.017674446105957,-5.347883224487305
1772811044175317500,2.9373173828125,2.231863260269165,-4.463300704956055,-5.276395797729492
1772811044195078700,2.95707861328125,1.901296854019165,-5.752185821533203,-4.831664562225342
1772811044214839800,2.97683984375,1.3061225414276123,-6.653849124908447,-4.710510730743408
1772811044234601000,2.99660107421875,1.1575560569763184,-7.43574333190918,-4.7348809242248535
1772811044254362000,3.016362060546875,1.3107048273086548,-7.8644914627075195,-4.783567428588867
1772811044274123500,3.03612353515625,2.214249849319458,-7.515325546264648,-4.352088451385498
1772811044293884700,3.055884765625,3.4027211666107178,-6.018263816833496,-3.350010395050049
1772811044313645800,3.075645751953125,2.87522292137146,-3.972844123840332,-1.798621654510498
1772811044333407000,3.095406982421875,1.2201000452041626,-2.496525764465332,-0.28424930572509766
1772811044353168100,3.115168212890625,-0.43694114685058594,-1.745546579360962,0.6628293991088867
1772811044372929300,3.13492919921875,-1.4024455547332764,-1.5451712608337402,0.7950849533081055
1772811044392690400,3.1546904296875,-2.5412912368774414,-1.6969802379608154,0.15111160278320312
1772811044412451600,3.17445166015625,-3.471360683441162,-1.6302359104156494,-0.6742954254150391
1772811044432212700,3.194212646484375,-4.418413162231445,-1.6533045768737793,-1.1483101844787598
1772811044451974000,3.213973876953125,-4.24783992767334,-1.797919750213623,-1.40480375289917
1772811044471735300,3.2337353515625,-3.1758294105529785,-1.9606328010559082,-1.6805987358093262
1772811044491496200,3.25349609375,-2.4541149139404297,-2.000072956085205,-2.142167568206787
1772811044511257900,3.2732578125,-1.8520865440368652,-2.098398208618164,-2.706974506378174
1772811044531019800,3.293019775390625,-0.8038947582244873,-2.093888759613037,-3.2650465965270996
1772811044550781400,3.312781494140625,0.2412271499633789,-2.0893521308898926,-3.652678966522217
1772811044570543000,3.332543212890625,1.031644344329834,-2.289763927459717,-3.773224353790283
1772811044590304800,3.3523046875,1.7412619590759277,-2.368370532989502,-3.785571575164795
1772811044610066700,3.372066650390625,2.1677935123443604,-2.2467737197875977,-3.7184877395629883
1772811044629828400,3.391828369140625,1.9767465591430664,-2.093834400177002,-3.486961841583252
1772811044649590000,3.411590087890625,1.4266815185546875,-1.8467907905578613,-3.3071627616882324
1772811044669351700,3.4313515625,0.9592409133911133,-1.5459918975830078,-2.880955219268799
1772811044689113300,3.45111328125,0.3307006359100342,-1.4229426383972168,-2.344911575317383
1772811044708875000,3.470875,0.05663633346557617,-1.182995319366455,-1.7404603958129883
1772811044728637000,3.490636962890625,-0.40079474449157715,-1.232187271118164,-1.001328945159912
1772811044748398600,3.510398681640625,-0.5681099891662598,-1.3809752464294434,-0.24826622009277344
1772811044768160300,3.53016015625,-0.516954779624939,-1.3045334815979004,0.3697690963745117
1772811044787922000,3.549921875,-0.7001692056655884,-1.1931381225585938,1.1821823120117188
1772811044807683600,3.56968359375,-1.294244408607483,-0.8306102752685547,1.785438060760498
1772811044827445500,3.589445556640625,-2.446444034576416,-1.1090068817138672,2.778088092803955
1772811044847207200,3.609207275390625,-3.612640380859375,-2.2162113189697266,4.082026958465576
1772811044866968800,3.62896875,-3.7709736824035645,-2.2848567962646484,4.489075660705566
1772811044886730500,3.64873046875,-2.6791300773620605,-1.5448884963989258,4.426624774932861
1772811044906492200,3.6684921875,-1.780131459236145,-0.8934011459350586,4.5967583656311035
1772811044926254000,3.688254150390625,-1.3037874698638916,-0.23839569091796875,4.964358329772949
1772811044946015700,3.708015625,-0.3506755828857422,0.6712923049926758,5.309851169586182
1772811044965777400,3.72777734375,0.35046643018722534,1.7200212478637695,5.25033712387085
1772811044985539000,3.7475390625,0.530981719493866,2.5995426177978516,4.702948570251465
1772811045005300500,3.767300537109375,0.15395116806030273,2.728895664215088,3.7419395446777344
1772811045025062000,3.787061767578125,-0.6660562753677368,2.0696802139282227,3.1132073402404785
1772811045044823000,3.806822998046875,-1.1727077960968018,1.398355484008789,2.506636619567871
1772811045064584400,3.82658447265625,-1.270088791847229,0.6462984085083008,2.1335744857788086
1772811045084345900,3.846345947265625,-0.8216476440429688,0.11878633499145508,1.8560032844543457
1772811045104107000,3.86610693359375,-0.1712644100189209,-0.29790496826171875,1.9341340065002441
1772811045123868400,3.885868408203125,0.6894301176071167,-0.8050765991210938,2.090848922729492
1772811045143629800,3.9056298828125,1.2633297443389893,-1.4718828201293945,2.1329002380371094
1772811045163391000,3.925390869140625,1.750288724899292,-2.209345817565918,1.9082436561584473
1772811045183152400,3.94515234375,2.2019643783569336,-2.2860240936279297,0.8162093162536621
1772811045202913500,3.96491357421875,2.235952854156494,-2.5085673332214355,-0.3062095642089844
1772811045222675000,3.984675048828125,2.1665096282958984,-2.6931066513061523,-1.305619716644287
1772811045242436400,4.004436279296875,2.2056825160980225,-2.827475070953369,-1.9355711936950684
1772811045262197500,4.024197509765625,2.2454135417938232,-3.0226144790649414,-2.4184207916259766
1772811045281959000,4.043958984375,2.266995906829834,-3.139789581298828,-2.798926830291748
1772811045301720300,4.06372021484375,2.1699256896972656,-3.1436524391174316,-3.183936595916748
1772811045321481500,4.0834814453125,2.0522468090057373,-3.0397486686706543,-3.487313747406006
1772811045341243000,4.103242919921875,1.723450779914856,-2.649843692779541,-3.778029441833496
1772811045361004300,4.12300439453125,1.442995309829712,-2.318554401397705,-3.665282726287842
1772811045380765400,4.142765380859375,0.9826970100402832,-2.0439352989196777,-3.315700054168701
1772811045400526800,4.16252685546875,0.7374265193939209,-1.96002197265625,-2.9848599433898926
1772811045420288300,4.182288330078125,0.6092822551727295,-2.048361301422119,-2.6937975883483887
1772811045440049400,4.20204931640625,0.5009245872497559,-2.214437484741211,-2.487605571746826
1772811045459810800,4.221810791015625,0.503279447555542,-2.469426155090332,-2.3675332069396973
1772811045479572200,4.241572265625,0.9891016483306885,-2.7213597297668457,-2.3170313835144043
1772811045499334000,4.261333984375,1.6878819465637207,-2.800117254257202,-2.3433308601379395
1772811045519096000,4.281095947265625,2.1106760501861572,-2.8606927394866943,-2.243326187133789
1772811045538858500,4.3008583984375,1.6465034484863281,-3.839531421661377,-1.716686725616455
1772811045558621000,4.320620849609375,0.8354017734527588,-5.136936187744141,-1.8280987739562988
1772811045578383400,4.34038330078125,1.3020052909851074,-5.844871520996094,-2.2498536109924316
1772811045598145500,4.3601455078125,2.097951650619507,-5.906635284423828,-2.6973776817321777
1772811045617908000,4.379907958984375,2.657240629196167,-5.356392860412598,-2.524020195007324
1772811045637670400,4.39967041015625,2.182222843170166,-4.558028697967529,-1.466188907623291
1772811045657432800,4.419432861328125,1.2582476139068604,-3.699368953704834,-0.4626946449279785
1772811045677195300,4.4391953125,0.5261340141296387,-2.4458847045898438,-0.021150588989257812
1772811045696957400,4.45895751953125,-0.18599200248718262,-1.3632402420043945,0.08983421325683594
1772811045716719900,4.478719970703125,-1.0118858814239502,-0.6482868194580078,-0.14221858978271484
1772811045736482300,4.498482421875,-2.1293954849243164,-0.21191072463989258,-0.436154842376709
1772811045756244700,4.51824462890625,-3.3472065925598145,0.1390247344970703,-0.6914300918579102
1772811045776007200,4.538007080078125,-4.053222179412842,0.3739809989929199,-0.9719486236572266
1772811045795769300,4.557769287109375,-3.909332275390625,0.3411440849304199,-1.1784729957580566
1772811045815531800,4.57753173828125,-3.2673370838165283,-0.20093250274658203,-1.1484951972961426
1772811045835294200,4.597294189453125,-2.2385315895080566,-1.0398774147033691,-1.1770129203796387
1772811045855056600,4.617056640625,-1.20237135887146,-1.7769031524658203,-1.3939929008483887
1772811045874819000,4.636819091796875,-0.21886253356933594,-2.2720141410827637,-1.8660345077514648
1772811045894581200,4.656581298828125,0.93857741355896,-2.506380081176758,-2.472433090209961
1772811045914343700,4.67634375,2.086926221847534,-2.621936798095703,-2.7355074882507324
1772811045934106000,4.696106201171875,2.865050792694092,-2.6019515991210938,-2.9011387825012207
1772811045953868500,4.71586865234375,3.364610195159912,-2.4972681999206543,-3.1100306510925293
1772811045973630700,4.735630615234375,3.7145872116088867,-2.3364195823669434,-3.3602099418640137
1772811045993393200,4.75539306640625,3.7874631881713867,-2.1786041259765625,-3.644918918609619
1772811046013155300,4.7751552734375,3.237856388092041,-2.022571086883545,-3.839041233062744
1772811046032917500,4.79491748046875,2.5358970165252686,-1.8380322456359863,-3.7832961082458496
1772811046052679700,4.8146796875,1.8570184707641602,-1.5932250022888184,-3.659970760345459
1772811046072441900,4.83444189453125,1.183799386024475,-1.544506549835205,-3.221665859222412
1772811046092204000,4.8542041015625,0.6739474534988403,-1.5566225051879883,-2.6753015518188477
1772811046111966200,4.87396630859375,0.41961097717285156,-1.4227161407470703,-2.141361713409424
1772811046131728100,4.89372802734375,0.10106861591339111,-1.3004059791564941,-1.65950345993042
1772811046151490300,4.913490234375,-0.44092822074890137,-1.4292969703674316,-1.0553669929504395
1772811046171252500,4.93325244140625,-1.1307369470596313,-1.5114178657531738,-0.4290499687194824
1772811046191014700,4.9530146484375,-2.049571990966797,-1.6172943115234375,0.28315258026123047
1772811046210776800,4.97277685546875,-2.829613447189331,-1.384263038635254,0.8356757164001465
1772811046230539000,4.9925390625,-3.659088373184204,-0.8808507919311523,1.631103515625
1772811046250301200,5.01230126953125,-4.833865165710449,-1.2350425720214844,3.2387986183166504
1772811046270063400,5.0320634765625,-5.4250407218933105,-1.7342548370361328,4.614728927612305
1772811046289825500,5.051825439453125,-5.182898998260498,-1.1358709335327148,4.953726768493652
1772811046309587700,5.071587646484375,-4.319643020629883,-0.0075092315673828125,4.978044509887695
1772811046329350000,5.091349853515625,-3.4346141815185547,0.7127408981323242,5.404837131500244
1772811046349112000,5.111112060546875,-2.539156913757324,0.8496608734130859,6.196399688720703
1772811046368874200,5.130874267578125,-1.3628218173980713,1.0832538604736328,6.303771495819092
1772811046388636200,5.15063623046875,-0.15411317348480225,1.3473124504089355,5.644818305969238
1772811046408398300,5.1703984375,0.6583241820335388,1.4370150566101074,4.4524126052856445
1772811046428160500,5.190160400390625,0.9542203545570374,1.170248031616211,3.386910915374756
1772811046447922700,5.209922607421875,1.045849084854126,0.6792631149291992,2.688018321990967
1772811046467684900,5.229684814453125,1.1942198276519775,0.27442359924316406,2.120173454284668
1772811046487447000,5.249447021484375,1.3291120529174805,-0.09356069564819336,1.6295223236083984
1772811046507209000,5.269208984375,1.6327128410339355,-0.5897669792175293,1.288750171661377
1772811046526971000,5.288970947265625,2.1200859546661377,-0.9972691535949707,0.9423036575317383
1772811046546732800,5.30873291015625,2.7768054008483887,-1.4374909400939941,0.5797939300537109
1772811046566494700,5.32849462890625,3.5534982681274414,-2.1421432495117188,0.41935300827026367
1772811046586256600,5.348256591796875,4.097653388977051,-2.7839884757995605,0.1659526824951172
1772811046606018600,5.3680185546875,4.228966236114502,-2.827159881591797,-0.31044960021972656
1772811046625780700,5.38778076171875,3.5331690311431885,-2.590496063232422,-0.5542006492614746
1772811046645542700,5.407542724609375,2.241626262664795,-2.3232293128967285,-0.5708942413330078
1772811046665304600,5.4273046875,1.2317068576812744,-2.048002243041992,-0.6278648376464844
1772811046685066500,5.44706640625,0.6952433586120605,-1.876929759979248,-0.7607722282409668
1772811046704828400,5.466828369140625,0.47061872482299805,-1.9390535354614258,-0.9206809997558594
1772811046724590300,5.48659033203125,0.5357353687286377,-2.0365939140319824,-1.0700607299804688
1772811046744352300,5.506352294921875,0.5388352870941162,-2.0841755867004395,-1.369649887084961
1772811046764114200,5.5261142578125,0.28383827209472656,-1.9413132667541504,-1.8814010620117188
1772811046783876000,5.5458759765625,0.11971545219421387,-1.8096280097961426,-2.456590175628662
1772811046803638000,5.565637939453125,0.137467622756958,-1.7233076095581055,-2.817319393157959
1772811046823400000,5.58539990234375,0.11314129829406738,-2.08305025100708,-2.9228625297546387
1772811046843161900,5.605161865234375,0.5662682056427002,-2.5642943382263184,-3.031032085418701
1772811046862923800,5.624923828125,1.0885274410247803,-3.0616910457611084,-3.224442958831787
1772811046882685700,5.644685791015625,1.7260162830352783,-3.49961256980896,-3.446143627166748
1772811046902447600,5.664447509765625,2.6005499362945557,-3.725618600845337,-3.649501323699951
1772811046922209500,5.68420947265625,3.405503749847412,-3.795210599899292,-3.794996738433838
1772811046941971500,5.703971435546875,3.656482219696045,-4.529961585998535,-3.1907029151916504
1772811046961733400,5.7237333984375,3.078982353210449,-6.098012924194336,-2.506157875061035
1772811046981495300,5.743495361328125,3.375319242477417,-6.539792060852051,-2.7220215797424316
1772811047001256700,5.763256591796875,4.389057636260986,-6.768887042999268,-3.083620548248291
1772811047021017300,5.783017333984375,5.115887641906738,-6.32263708114624,-3.0186190605163574
1772811047040778000,5.802778076171875,4.018645286560059,-5.428098678588867,-0.9861836433410645
1772811047060539000,5.822538818359375,0.974048376083374,-3.8191590309143066,0.6581497192382812
1772811047080299300,5.84229931640625,-1.5211291313171387,-2.257012367248535,0.6764888763427734
1772811047100060200,5.86206005859375,-2.6192424297332764,-0.8098568916320801,0.0442657470703125
1772811047119820800,5.88182080078125,-2.552520990371704,-0.14475250244140625,-0.12159204483032227
1772811047139581400,5.90158154296875,-2.5794458389282227,-0.2928733825683594,0.3214855194091797
1772811047159342000,5.921342041015625,-2.688962459564209,-0.5740370750427246,0.32891368865966797
1772811047179102700,5.941102783203125,-2.901791572570801,-0.9068856239318848,-0.2475109100341797
1772811047198863400,5.96086328125,-2.7558188438415527,-1.4484705924987793,-0.7390961647033691
1772811047218624000,5.9806240234375,-2.2247016429901123,-1.9416999816894531,-1.1486144065856934
1772811047238384600,6.000384521484375,-1.0049996376037598,-2.090786933898926,-1.7160792350769043
1772811047258145500,6.0201455078125,0.06638979911804199,-2.0975608825683594,-2.2988247871398926
1772811047277906200,6.03990625,0.8082284927368164,-1.9513497352600098,-2.801267147064209
1772811047297666800,6.059666748046875,1.3668334484100342,-1.7219486236572266,-3.1437463760375977
1772811047317427500,6.079427490234375,1.647206425666809,-1.5725417137145996,-3.365797519683838
1772811047337188000,6.09918798828125,1.5916190147399902,-1.5329527854919434,-3.6064367294311523
1772811047356948700,6.11894873046875,1.4343445301055908,-1.6794748306274414,-3.936720371246338
1772811047376709400,6.13870947265625,1.4173235893249512,-1.8077468872070312,-4.324499607086182
1772811047396470000,6.158469970703125,1.4250807762145996,-1.9511303901672363,-4.459131717681885
1772811047416231000,6.17823095703125,1.6939306259155273,-2.1169071197509766,-4.411198616027832
1772811047435991600,6.197991455078125,1.8317562341690063,-2.283384323120117,-4.242858409881592
1772811047455752200,6.217752197265625,1.9009671211242676,-2.3544859886169434,-3.92238187789917
1772811047475512800,6.237512939453125,1.960559368133545,-2.342888355255127,-3.560516357421875
1772811047495273500,6.2572734375,1.6453713178634644,-2.239171028137207,-3.1090545654296875
1772811047515035100,6.27703515625,1.400352954864502,-2.2183871269226074,-2.4479527473449707
1772811047534796500,6.296796630859375,1.1016206741333008,-2.4590096473693848,-1.642301082611084
1772811047554558200,6.31655810546875,0.9336228370666504,-2.677659034729004,-0.8179636001586914
1772811047574319600,6.336319580078125,0.5828115940093994,-2.772477149963379,0.04941082000732422
1772811047594081000,6.3560810546875,-0.1277686357498169,-2.686121940612793,1.1334996223449707
1772811047613842700,6.3758427734375,-1.2621486186981201,-2.4550037384033203,2.3025832176208496
1772811047633604000,6.39560400390625,-2.9986114501953125,-2.479292392730713,3.763331413269043
1772811047653365500,6.415365478515625,-5.0247578620910645,-3.406635284423828,5.554137229919434
1772811047673127200,6.435127197265625,-5.612176895141602,-2.7085609436035156,5.964144229888916
1772811047692888600,6.454888671875,-5.279901504516602,-0.7760629653930664,5.701385021209717
1772811047712650200,6.474650146484375,-4.999120235443115,0.8451423645019531,5.992816925048828
1772811047732411600,6.49441162109375,-4.5623650550842285,1.6219205856323242,6.945712089538574
1772811047752173000,6.514173095703125,-3.699538469314575,1.7255659103393555,7.799858093261719
1772811047771934700,6.533934814453125,-2.9986581802368164,1.9821863174438477,7.2976179122924805
1772811047791696100,6.553696044921875,-2.760533332824707,2.4055423736572266,5.595663070678711
1772811047811457800,6.573457763671875,-2.580408811569214,2.621257781982422,3.8293533325195312
1772811047831219200,6.59321923828125,-1.890343427658081,2.4747495651245117,2.944873332977295
1772811047850980600,6.612980712890625,-1.1653928756713867,1.6788244247436523,2.8095736503601074
1772811047870742300,6.6327421875,-0.21940207481384277,1.0590429306030273,2.6412854194641113
1772811047890503700,6.652503662109375,0.3829924464225769,0.4508199691772461,2.3681130409240723
1772811047910265300,6.672265380859375,0.6883014440536499,-0.4215397834777832,2.1284127235412598
1772811047930026800,6.69202685546875,0.9792308807373047,-1.0648212432861328,1.5811238288879395
1772811047949788200,6.7117880859375,0.9806308746337891,-1.600175380706787,0.8665204048156738
1772811047969549800,6.7315498046875,1.3502328395843506,-2.3242764472961426,0.35027265548706055
1772811047989311200,6.751311279296875,2.2286343574523926,-2.9389548301696777,0.040387630462646484
1772811048009073400,6.771073486328125,3.09444522857666,-3.2249655723571777,-0.09839200973510742
1772811048028835600,6.790835693359375,3.7377424240112305,-3.129972457885742,-0.026459217071533203
1772811048048598000,6.810597900390625,3.7962822914123535,-2.986360549926758,0.20211315155029297
1772811048068360200,6.830360107421875,3.289886474609375,-3.027040958404541,0.37980079650878906
1772811048088122400,6.850122314453125,2.419471025466919,-3.027698040008545,-0.04775857925415039
1772811048107884800,6.869884765625,1.4694294929504395,-2.9606380462646484,-0.8777809143066406
1772811048127647000,6.88964697265625,0.8513073921203613,-2.800333023071289,-1.7295832633972168
1772811048147409400,6.909409423828125,0.5002992153167725,-2.777860641479492,-2.2964158058166504
1772811048167171600,6.929171630859375,0.1516118049621582,-2.65902042388916,-2.809452533721924
1772811048186933800,6.948933837890625,-0.22022676467895508,-2.368687629699707,-3.5126023292541504
1772811048206696000,6.968696044921875,-0.3502473831176758,-1.9683523178100586,-4.143457889556885
1772811048226458400,6.988458251953125,-0.591606855392456,-1.6157569885253906,-4.603385925292969
1772811048246220500,7.008220458984375,-0.48305344581604004,-1.5468201637268066,-4.597682952880859
1772811048265983000,7.02798291015625,-0.09924006462097168,-1.9308066368103027,-4.200804233551025
1772811048285745200,7.0477451171875,0.6153686046600342,-2.4658117294311523,-3.8056397438049316
1772811048305507300,7.06750732421875,1.3050541877746582,-2.95985746383667,-3.568021297454834
1772811048325269800,7.087269775390625,1.8554174900054932,-3.2861456871032715,-3.4038538932800293
1772811048345032000,7.107031982421875,2.3244614601135254,-3.410463809967041,-3.3587069511413574
1772811048364794000,7.126794189453125,2.817605972290039,-3.5405113697052,-3.1403117179870605
1772811048384556500,7.146556640625,2.6911685466766357,-4.719079971313477,-2.246138095855713
1772811048404318700,7.166318603515625,2.390653133392334,-5.776695251464844,-2.041020393371582
1772811048424081200,7.1860810546875,2.9652180671691895,-6.212521076202393,-2.2698912620544434
1772811048443843300,7.20584326171875,3.411080837249756,-6.1249542236328125,-2.620934009552002
1772811048463605500,7.22560546875,3.0395381450653076,-5.6757121086120605,-2.3287529945373535
1772811048483368000,7.245367919921875,2.2368388175964355,-4.645867347717285,-1.7010884284973145
1772811048503130000,7.265130126953125,1.692387580871582,-3.4813995361328125,-0.8925037384033203
1772811048522892300,7.284892333984375,1.328933835029602,-2.3861241340637207,-0.2748298645019531
1772811048542654700,7.30465478515625,0.9872257709503174,-1.5935759544372559,-0.1621875762939453
1772811048562417000,7.3244169921875,0.2913994789123535,-1.212317943572998,-0.30831098556518555
1772811048582179000,7.344178955078125,-1.1158127784729004,-0.9307007789611816,-0.4454808235168457
1772811048601941200,7.363941162109375,-2.8828845024108887,-0.21332979202270508,-0.7155451774597168
1772811048621703700,7.38370361328125,-4.33443546295166,0.6976108551025391,-0.9733963012695312
1772811048641465900,7.4034658203125,-4.705759525299072,1.1704587936401367,-0.8412671089172363
1772811048661228000,7.42322802734375,-4.091336727142334,0.7060990333557129,-0.10578298568725586
1772811048680990200,7.442990234375,-2.726815700531006,0.05033254623413086,0.2537112236022949
1772811048700752600,7.462752685546875,-1.760777235031128,-0.3825678825378418,0.10566091537475586
1772811048720514800,7.482514892578125,-1.0602333545684814,-0.7025628089904785,-0.47736310958862305
1772811048740277000,7.502277099609375,-0.1202096939086914,-1.0364818572998047,-1.0342435836791992
1772811048760039200,7.5220390625,1.306908130645752,-1.233637809753418,-1.489377498626709
1772811048779801600,7.541801513671875,2.0816407203674316,-1.4446144104003906,-1.6879839897155762
1772811048799563800,7.561563720703125,2.4468178749084473,-1.5871763229370117,-2.037062168121338
1772811048819326000,7.581325927734375,2.7390637397766113,-1.5433344841003418,-2.4957523345947266
1772811048839088400,7.60108837890625,2.9708657264709473,-1.4076261520385742,-2.89630126953125
1772811048858850600,7.6208505859375,2.728562116622925,-1.1975035667419434,-2.9515581130981445
1772811048878612700,7.64061279296875,2.2141826152801514,-1.2421331405639648,-2.6320104598999023
1772811048898375000,7.660375,1.7895264625549316,-1.0682306289672852,-2.3286890983581543
1772811048918137300,7.680137451171875,1.060004711151123,-0.9163832664489746,-1.9842190742492676
1772811048937899500,7.6998994140625,0.49918174743652344,-0.9813604354858398,-1.568932056427002
1772811048957661700,7.71966162109375,0.40170013904571533,-0.918982982635498,-1.145228385925293
1772811048977424100,7.739424072265625,-0.0947885513305664,-1.0268335342407227,-0.5281352996826172
1772811048997186000,7.75918603515625,-0.5871822834014893,-0.9537181854248047,0.08064460754394531
1772811049016947500,7.778947509765625,-1.2956708669662476,-0.8879899978637695,0.6258630752563477
1772811049036708900,7.798708984375,-2.09859299659729,-0.5195775032043457,1.0787525177001953
1772811049056470500,7.818470458984375,-2.919001579284668,-0.13022565841674805,1.7118802070617676
1772811049076232000,7.83823193359375,-3.6203179359436035,0.415435791015625,2.3714122772216797
1772811049095993300,7.857993408203125,-4.5983805656433105,-0.02859973907470703,3.705632209777832
1772811049115754800,7.877754638671875,-4.851266860961914,-0.7654170989990234,4.962663173675537
1772811049135516200,7.89751611328125,-3.597254753112793,-0.28806209564208984,5.025705337524414
1772811049155277600,7.917277587890625,-2.3750648498535156,0.4926586151123047,4.899867057800293
1772811049175039200,7.937039306640625,-1.7981622219085693,1.164926528930664,5.2652692794799805
1772811049194800600,7.956800537109375,-1.4371304512023926,1.4516191482543945,6.086833477020264
1772811049214562000,7.97656201171875,-0.6347410082817078,1.595841884613037,6.512921333312988
1772811049234323500,7.996323486328125,0.31838101148605347,1.7496662139892578,5.940938949584961
1772811049254084900,8.0160849609375,0.4254215359687805,1.8124141693115234,4.623366832733154
1772811049273846300,8.03584619140625,-0.08120584487915039,1.5338354110717773,3.5958900451660156
1772811049293608000,8.05560791015625,-0.3895528316497803,1.1552391052246094,2.983069896697998
1772811049313369300,8.075369384765626,-0.3553469181060791,0.5870542526245117,2.6157379150390625
1772811049333130800,8.095130859375,-0.015583276748657227,-0.0346827507019043,2.4566307067871094
1772811049352892200,8.11489208984375,0.43015241622924805,-0.6582655906677246,2.146881103515625
1772811049372653600,8.134653564453124,0.7569179534912109,-1.3598899841308594,1.4626803398132324
1772811049392415200,8.154415283203125,1.050323247909546,-2.251506805419922,0.7637109756469727
1772811049412176600,8.1741767578125,1.6076645851135254,-3.2467451095581055,0.36317920684814453
1772811049431938000,8.19393798828125,3.2823526859283447,-3.417938709259033,0.3950343132019043
1772811049451699500,8.213699462890625,4.210806846618652,-3.5468530654907227,0.7701029777526855
1772811049471460900,8.2334609375,4.304062843322754,-3.5886850357055664,0.8886041641235352
1772811049491222300,8.25322216796875,3.6587986946105957,-3.4218616485595703,0.2759079933166504
1772811049510983700,8.272983642578126,2.286836624145508,-3.178616523742676,-0.8458318710327148
1772811049530744800,8.292744873046875,1.1837761402130127,-2.868441104888916,-1.5549702644348145
1772811049550506000,8.312506103515625,0.6945984363555908,-2.631500720977783,-1.4742159843444824
1772811049570267400,8.332267333984374,0.43927836418151855,-2.666431427001953,-0.9617314338684082
1772811049590028500,8.352028564453125,-0.1198110580444336,-2.239731788635254,-0.9480643272399902
1772811049609789700,8.371789794921876,-0.8961963653564453,-1.9472599029541016,-0.47567319869995117
1772811049629551000,8.391551025390624,-0.8807644844055176,-1.9641046524047852,0.31367063522338867
1772811049649312300,8.411312255859375,-0.6453549861907959,-2.1005640029907227,0.8754606246948242
1772811049669073700,8.43107373046875,-0.8599858283996582,-2.5981264114379883,1.233403205871582
1772811049688834800,8.450834716796875,-0.7233033180236816,-3.4774069786071777,0.8603124618530273
1772811049708596000,8.470595947265625,-0.08598971366882324,-4.010939598083496,0.35428905487060547
1772811049728357400,8.490357421875,0.08902359008789062,-4.235658645629883,-0.18067455291748047
1772811049748118500,8.510118408203125,-0.7133047580718994,-3.960925579071045,0.02365398406982422
1772811049767879700,8.529879638671876,-1.7364330291748047,-3.6820547580718994,0.22276592254638672
1772811049787641000,8.54964111328125,-2.05849289894104,-3.721942901611328,0.4228086471557617
1772811049807402200,8.56940234375,-1.23702073097229,-3.6114633083343506,0.7000646591186523
1772811049827163400,8.589163330078126,-0.8049392104148865,-4.0336689949035645,0.9319620132446289
1772811049846924800,8.6089248046875,-0.8755096793174744,-4.022921085357666,0.21261882781982422
1772811049866686000,8.62868603515625,-0.5228519439697266,-3.9483299255371094,-0.16439437866210938
1772811049886447400,8.648447265625,-0.21773934364318848,-4.233837604522705,0.12793254852294922
1772811049906208500,8.66820849609375,1.057541847229004,-3.7367875576019287,0.38604068756103516
1772811049925969700,8.6879697265625,0.748868465423584,-3.725837230682373,0.30938148498535156
1772811049945731000,8.70773095703125,-2.0078580379486084,-3.2772974967956543,-1.0131092071533203
1772811049965492200,8.7274921875,-3.6919679641723633,-3.1586179733276367,-1.037557601928711
1772811049985253400,8.74725341796875,-4.1618123054504395,-2.7163403034210205,-0.8791780471801758
1772811050005014500,8.7670146484375,-3.28926944732666,-1.9185231924057007,-1.4529318809509277
1772811050024775700,8.786775634765625,-1.8327703475952148,-2.618574619293213,-0.6815733909606934
1772811050044536800,8.806536865234374,-2.5773935317993164,-2.444796562194824,-0.6950464248657227
1772811050064297700,8.826297607421875,-2.7012181282043457,-2.1750102043151855,-1.0464496612548828
1772811050084059000,8.846058837890626,-1.8583073616027832,-1.8758561611175537,-1.0550968647003174
1772811050103820000,8.865820068359374,-1.4717278480529785,-2.3325462341308594,-0.16906976699829102
1772811050123581000,8.885580810546875,-0.26606273651123047,-3.067622184753418,0.9566700458526611
1772811050143342000,8.905342041015626,1.872507095336914,-2.7685701847076416,1.785825490951538
1772811050163103200,8.925103271484375,2.9187393188476562,-2.5279195308685303,1.3962998390197754
1772811050182864400,8.944864501953125,1.3114843368530273,-2.634086847305298,0.6664495468139648
1772811050202625500,8.96462548828125,-0.4264707565307617,-2.2383034229278564,-0.5048847198486328
1772811050222386400,8.984386474609375,-1.89271879196167,-2.069491386413574,-0.9526019096374512
1772811050242147600,9.004147705078125,-1.9617352485656738,-1.7136293649673462,-0.6046371459960938
1772811050261908700,9.02390869140625,-2.433445453643799,-0.8234851360321045,-0.03764784336090088
1772811050281669600,9.043669677734375,-3.982186794281006,-0.14052534103393555,0.08046078681945801
1772811050301430800,9.0634306640625,-4.990898609161377,0.18070030212402344,-0.5396050214767456
1772811050321192000,9.08319189453125,-5.580798149108887,0.16075706481933594,-1.1061288118362427
1772811050340953000,9.102953125,-3.851191997528076,-0.11080098152160645,-0.44822147488594055
1772811050360714000,9.1227138671875,1.5975170135498047,-0.41168540716171265,2.492703914642334
1772811050380475100,9.14247509765625,5.024308204650879,-1.1108078956604004,3.880551338195801
1772811050400236300,9.162236328125,4.546364784240723,-1.6180211305618286,2.7724270820617676
1772811050419997200,9.1819970703125,4.541552543640137,-0.5179943442344666,0.3824181854724884
1772811050439758300,9.20175830078125,2.77239990234375,-1.2599495649337769,0.6721145510673523
1772811050459519500,9.22151953125,0.8909111022949219,-1.2634559869766235,0.2745250463485718
1772811050479280600,9.24128076171875,1.1921072006225586,-0.6748903393745422,-1.1154613494873047
1772811050499041800,9.261041748046875,1.437678337097168,-0.6323405504226685,-1.0832371711730957
1772811050518803000,9.280802978515625,0.46547508239746094,-0.963222861289978,-0.35334348678588867
1772811050538564000,9.300564208984374,-0.5910205841064453,-0.6935220956802368,-0.13121390342712402
1772811050558325200,9.3203251953125,-0.8883686065673828,-0.2662937641143799,-0.020598411560058594
1772811050578086400,9.34008642578125,-0.5800590515136719,-0.45088815689086914,0.49266815185546875
1772811050597847600,9.35984765625,-0.1200723648071289,-0.6721682548522949,0.4696106016635895
1772811050617608700,9.379608642578125,-0.1002960205078125,-0.5948975086212158,0.5149717330932617
1772811050637369900,9.399369873046876,-0.32355594635009766,-0.8628942966461182,0.6865662932395935
1772811050657131300,9.41913134765625,-0.3846454620361328,-1.0859718322753906,0.5488063097000122
1772811050676892400,9.438892333984375,-0.28812599182128906,-1.2200422286987305,0.2696864604949951
1772811050696653600,9.458653564453124,-0.19478511810302734,-1.6381574869155884,0.06477195024490356
1772811050716414700,9.478414794921875,0.08120918273925781,-2.007478713989258,0.08354997634887695
1772811050736175900,9.49817578125,-0.5072822570800781,-2.423368453979492,0.502875566482544
1772811050755937000,9.51793701171875,-0.8538813591003418,-2.3413004875183105,0.3388102054595947
1772811050775698200,9.5376982421875,-0.8262295722961426,-1.83198881149292,-0.30225348472595215
1772811050795459300,9.557459228515626,-0.8730998039245605,-1.8551406860351562,-0.4815400242805481
1772811050815220700,9.577220703125,-1.114427089691162,-1.8954920768737793,-0.4938356280326843
1772811050834982000,9.59698193359375,-1.1804122924804688,-1.8602018356323242,-0.530367374420166
1772811050854743000,9.616742919921874,-0.9850277900695801,-1.9636569023132324,-0.3585732579231262
1772811050874504200,9.636504150390625,-0.49747276306152344,-1.9871268272399902,-0.2613312602043152
1772811050894265300,9.656265380859375,-0.32477855682373047,-1.9239087104797363,-0.19738060235977173
1772811050914026500,9.676026611328124,-0.26231956481933594,-1.8010435104370117,0.18255698680877686
1772811050933787600,9.69578759765625,-0.22087478637695312,-1.5490522384643555,0.0577789843082428
1772811050953548800,9.715548828125,0.43816280364990234,-1.2341194152832031,0.07953733205795288
1772811050973310200,9.735310302734375,1.6110858917236328,-1.0548248291015625,0.2910946011543274
1772811050993071400,9.7550712890625,2.1529531478881836,-1.2927560806274414,0.9835233688354492
1772811051012833000,9.7748330078125,1.9196453094482422,-1.332129955291748,1.6500095129013062
1772811051032594700,9.7945947265625,1.0585899353027344,-1.6507840156555176,2.1744821071624756
1772811051052356400,9.8143564453125,0.5415439605712891,-1.0757741928100586,1.690123438835144
1772811051072118000,9.834117919921875,0.6106157302856445,-1.000593662261963,1.1587469577789307
1772811051091880000,9.8538798828125,0.7826347351074219,-1.285212516784668,0.837596595287323
1772811051111641600,9.8736416015625,0.6592111587524414,-1.215287685394287,0.45065003633499146
1772811051131403300,9.8934033203125,0.8062953948974609,-1.2202115058898926,0.32829761505126953
1772811051151165000,9.9131650390625,0.6447324752807617,-1.1359200477600098,0.3031679391860962
1772811051170926800,9.9329267578125,0.41999053955078125,-0.8549222946166992,0.16374003887176514
1772811051190688500,9.9526884765625,-0.3017759323120117,-0.8769421577453613,0.609696626663208
1772811051210450200,9.9724501953125,-0.23401260375976562,-0.8309845924377441,0.39510664343833923
1772811051230211800,9.9922119140625,0.04010963439941406,-0.9424262046813965,0.32797807455062866
1772811051249973500,10.011973388671874,0.4403829574584961,-0.8029694557189941,0.07058835029602051
1772811051269735200,10.031735107421875,0.4597358703613281,-0.8291983604431152,-0.20382201671600342
1772811051289497000,10.0514970703125,0.43087100982666016,-0.7163553237915039,-0.48304760456085205
1772811051309258800,10.0712587890625,1.3501510620117188,-0.6803617477416992,-0.8080263733863831
1772811051329020400,10.0910205078125,1.2870655059814453,-0.5760316848754883,-0.9028645157814026
1772811051348782000,10.110781982421875,0.9120607376098633,-0.6189708709716797,-0.7763232588768005
1772811051368543700,10.130543701171876,0.21158409118652344,-0.620577335357666,-0.5915109515190125
1772811051388305400,10.150305419921875,-0.2395792007446289,-0.6528782844543457,-0.3539654016494751
1772811051408067300,10.1700673828125,-0.33619260787963867,-0.7504720687866211,-0.26889121532440186
1772811051427829000,10.1898291015625,-0.295743465423584,-0.8225975036621094,-0.3451237678527832
