time,seconds_elapsed,z,y,x
1772811342987600000,0.165599853515625,0.5348954200744629,0.6078659892082214,-0.5709812641143799
1772811342997481000,0.17548095703125,0.6355628371238708,1.163933515548706,-0.6045370697975159
1772811343007362000,0.185362060546875,0.8629966378211975,2.007622241973877,-0.33063116669654846
1772811343017243000,0.195242919921875,1.1431609392166138,2.0651464462280273,-0.150068998336792
1772811343027124000,0.2051240234375,1.382845163345337,1.4845778942108154,-0.410525918006897
1772811343037005000,0.215005126953125,1.4845778942108154,0.9370324015617371,-0.8270439505577087
1772811343046886000,0.224885986328125,1.4302494525909424,0.4262385666370392,-1.1599388122558594
1772811343056767000,0.23476708984375,1.2821778059005737,-0.248605877161026,-1.4177325963974
1772811343066648000,0.24464794921875,1.0851041078567505,-1.085370421409607,-1.648362159729004
1772811343076529200,0.254529052734375,0.8475502729415894,-2.282726526260376,-1.8720674514770508
1772811343086410000,0.264409912109375,0.538091242313385,-3.775160789489746,-2.0808591842651367
1772811343096291000,0.274291015625,0.13648688793182373,-4.597011566162109,-2.2497034072875977
1772811343106172200,0.284172119140625,-0.1681784838438034,-5.179178237915039,-2.267812967300415
1772811343116053000,0.294052978515625,-0.13835109770298004,-5.44442892074585,-1.8971011638641357
1772811343125934000,0.30393408203125,0.17696690559387207,-4.945352554321289,-1.3713936805725098
1772811343135815200,0.313815185546875,0.6984133720397949,-4.112316608428955,-0.8542081713676453
1772811343145696000,0.323696044921875,1.288569450378418,-3.3921985626220703,-0.5170522928237915
1772811343155577000,0.3335771484375,1.8994979858398438,-2.8952531814575195,-0.3748396039009094
1772811343165458200,0.343458251953125,2.5445151329040527,-2.594316244125366,-0.3902859091758728
1772811343175339300,0.35333935546875,3.0606353282928467,-2.683798313140869,-0.5362270474433899
1772811343185220000,0.36322021484375,3.451054334640503,-3.0481183528900146,-0.7024081349372864
1772811343195101200,0.37310107421875,3.777557611465454,-3.358110189437866,-0.8494145274162292
1772811343204982300,0.382982177734375,3.7903406620025635,-3.4108407497406006,-0.9470192790031433
1772811343214863000,0.392863037109375,3.485142707824707,-3.1269478797912598,-1.0263813734054565
1772811343224744200,0.402744140625,3.0276122093200684,-2.5628907680511475,-1.1052109003067017
1772811343234625300,0.412625244140625,2.607365608215332,-1.7772589921951294,-1.2191940546035767
1772811343244506000,0.422506103515625,2.424672842025757,-1.2302461862564087,-1.2506194114685059
1772811343254387200,0.43238720703125,2.434260368347168,-1.2318440675735474,-1.066328763961792
1772811343264268300,0.442268310546875,2.5162856578826904,-1.5104105472564697,-0.8932234644889832
1772811343274149000,0.452149169921875,2.6350624561309814,-1.791640043258667,-0.830905556678772
1772811343284030200,0.4620302734375,2.7080330848693848,-1.7735306024551392,-1.0263813734054565
1772811343293911300,0.471911376953125,2.656367778778076,-1.4475599527359009,-1.5371752977371216
1772811343303792400,0.48179248046875,2.572744607925415,-1.0022798776626587,-2.1805944442749023
1772811343313673200,0.491673095703125,2.469413995742798,-0.5394228100776672,-2.7441189289093018
1772811343323554300,0.50155419921875,2.3335928916931152,-0.4233090877532959,-2.9624979496002197
1772811343333435400,0.511435302734375,2.1732707023620605,-0.7759113311767578,-2.8703525066375732
1772811343343316200,0.521316162109375,2.067809581756592,-1.5359768867492676,-2.500706195831299
1772811343353197300,0.531197265625,1.9868496656417847,-2.392448663711548,-2.0149459838867188
1772811343363078400,0.541078369140625,1.9096180200576782,-2.93786358833313,-1.721465826034546
1772811343372959200,0.550959228515625,1.82652747631073,-2.9804742336273193,-1.8391774892807007
1772811343382840300,0.56084033203125,1.759415864944458,-2.4936487674713135,-2.3574280738830566
1772811343392721400,0.570721435546875,1.7040221691131592,-1.5988273620605469,-3.115363121032715
1772811343402602500,0.5806025390625,1.6235947608947754,-0.637427031993866,-3.888611316680908
1772811343412483300,0.5904833984375,1.5495589971542358,0.24567639827728271,-4.441483020782471
1772811343422364400,0.600364501953125,1.4110746383666992,0.500806987285614,-4.607664108276367
1772811343432245500,0.61024560546875,1.15168297290802,0.08908266574144363,-4.354131698608398
1772811343442126300,0.620126220703125,0.8166576623916626,-0.6013412475585938,-3.9322872161865234
1772811343452007400,0.63000732421875,0.5332975387573242,-1.7464995384216309,-3.4912681579589844
1772811343461888500,0.639888427734375,0.3165164291858673,-2.5811336040496826,-3.131741523742676
1772811343471769300,0.649769287109375,0.16471637785434723,-2.9683568477630615,-2.977278470993042
1772811343481650400,0.659650390625,0.1380847841501236,-3.0530452728271484,-3.046520471572876
1772811343491531500,0.669531494140625,0.1753690093755722,-2.8437209129333496,-3.268627882003784
1772811343501412400,0.679412353515625,0.24248060584068298,-2.648245096206665,-3.5392048358917236
1772811343511293000,0.68929296875,0.3026680052280426,-2.548642873764038,-3.746931314468384
1772811343521173500,0.699173583984375,0.37137749791145325,-2.579003095626831,-3.8183040618896484
1772811343531054300,0.709054443359375,0.43689119815826416,-2.757434606552124,-3.7176365852355957
1772811343540935000,0.718934814453125,0.5109270215034485,-3.1382663249969482,-3.4513206481933594
1772811343550815500,0.7288154296875,0.5961480736732483,-3.6437339782714844,-3.061434268951416
1772811343560696300,0.7386962890625,0.7010765671730042,-4.159853935241699,-2.6033709049224854
1772811343570577000,0.748576904296875,0.7820366024971008,-4.623776435852051,-2.104827642440796
1772811343580457500,0.75845751953125,0.8555397391319275,-4.989694118499756,-1.597762107849121
1772811343590338300,0.76833837890625,0.9434239864349365,-5.213932514190674,-1.1029472351074219
1772811343600219000,0.778218994140625,1.003078818321228,-5.263866424560547,-0.6327665448188782
1772811343610099700,0.788099609375,1.02012300491333,-5.204744338989258,-0.18482321500778198
1772811343619980300,0.797980224609375,1.0116008520126343,-5.068390846252441,0.24660851061344147
1772811343629860900,0.80786083984375,0.9913608431816101,-4.902209758758545,0.6716486811637878
1772811343639741700,0.81774169921875,0.9625987410545349,-4.726973533630371,1.0897645950317383
1772811343649622300,0.827622314453125,0.9317061305046082,-4.50806188583374,1.4881731271743774
1772811343659502800,0.8375029296875,0.8981503248214722,-4.231093406677246,1.8354490995407104
1772811343669383700,0.8473837890625,0.9056071639060974,-3.9269607067108154,2.11348295211792
1772811343679264300,0.85726416015625,0.9711208343505859,-3.591402769088745,2.321741819381714
1772811343689144800,0.867144775390625,1.05527663230896,-3.268627882003784,2.4623565673828125
1772811343699025700,0.877025634765625,1.1708577871322632,-2.9810068607330322,2.520413398742676
1772811343708906200,0.88690625,1.315200924873352,-2.7061688899993896,2.508695602416992
1772811343718787000,0.896787109375,1.4707294702529907,-2.4696803092956543,2.435192346572876
1772811343728667600,0.906667724609375,1.6337147951126099,-2.258758068084717,2.3030996322631836
1772811343738548200,0.91654833984375,1.7817864418029785,-2.0334548950195312,2.1491692066192627
1772811343748429000,0.926428955078125,1.8920412063598633,-1.828924298286438,1.9931080341339111
1772811343758309600,0.9363095703125,1.960218071937561,-1.6243937015533447,1.8333184719085693
1772811343768190200,0.946190185546875,2.003361225128174,-1.4182652235031128,1.6873774528503418
1772811343778071000,0.956071044921875,2.0358517169952393,-1.2185282707214355,1.5739268064498901
1772811343787951600,0.96595166015625,2.0140137672424316,-1.0677934885025024,1.5190657377243042
1772811343797832200,0.975832275390625,1.9197380542755127,-1.0081387758255005,1.532914161682129
1772811343807713000,0.985713134765625,1.7551548480987549,-1.027313470840454,1.6096131801605225
1772811343817593600,0.995593505859375,1.53357994556427,-1.0954903364181519,1.7401080131530762
1772811343827474200,1.00547412109375,1.2592746019363403,-1.2142672538757324,1.8860490322113037
1772811343837355000,1.01535498046875,0.9652619361877441,-1.3697956800460815,2.0149459838867188
1772811343847235600,1.025235595703125,0.6701838970184326,-1.5024210214614868,2.0953733921051025
1772811343857116200,1.0351162109375,0.3458111584186554,-1.6014904975891113,2.11348295211792
1772811343866997000,1.0449970703125,0.05712475627660751,-1.6989622116088867,2.0607523918151855
1772811343876877600,1.054877685546875,-0.19800585508346558,-1.7543559074401855,1.947967529296875
1772811343886758100,1.064758056640625,-0.433429092168808,-1.7767263650894165,1.7871127128601074
1772811343896639000,1.074638916015625,-0.649677574634552,-1.7591495513916016,1.5767232179641724
1772811343906519600,1.08451953125,-0.859001874923706,-1.7037558555603027,1.3370388746261597
1772811343916400400,1.094400390625,-1.0640650987625122,-1.630785346031189,1.0824408531188965
1772811343926281000,1.104281005859375,-1.2728567123413086,-1.5769895315170288,0.8337018489837646
1772811343936161500,1.11416162109375,-1.47152841091156,-1.5498253107070923,0.5993438959121704
1772811343946042400,1.12404248046875,-1.6584821939468384,-1.5418357849121094,0.39374804496765137
1772811343955923000,1.1339228515625,-1.8331853151321411,-1.5519558191299438,0.20999006927013397
1772811343965803500,1.143803466796875,-1.99244225025177,-1.5450315475463867,0.05020054429769516
1772811343975684400,1.153684326171875,-2.134122371673584,-1.4901704788208008,-0.09680582582950592
1772811343985565000,1.16356494140625,-2.2614212036132812,-1.3857747316360474,-0.24221429228782654
1772811343995445800,1.17344580078125,-2.362088680267334,-1.2435619831085205,-0.3801659345626831
1772811344005326800,1.183326904296875,-2.4441139698028564,-1.094425082206726,-0.5127912163734436
1772811344015208000,1.1932080078125,-2.4984424114227295,-0.9495492577552795,-0.6235786080360413
1772811344025088800,1.2030888671875,-2.540520429611206,-0.8211849927902222,-0.7119954824447632
1772811344034969900,1.212969970703125,-2.57460880279541,-0.72903972864151,-0.7615302801132202
1772811344044851000,1.222850830078125,-2.6076319217681885,-0.6699175834655762,-0.7668565511703491
1772811344054732300,1.232732177734375,-2.639057159423828,-0.641155481338501,-0.7444860339164734
1772811344064613400,1.24261328125,-2.6630256175994873,-0.637427031993866,-0.7114628553390503
1772811344074494500,1.252494384765625,-2.6667540073394775,-0.6507428288459778,-0.6715154647827148
1772811344084375600,1.26237548828125,-2.640122413635254,-0.6645912528038025,-0.6305028200149536
1772811344094256600,1.272256591796875,-2.584728717803955,-0.6880270838737488,-0.5852291584014893
1772811344104137700,1.2821376953125,-2.5138888359069824,-0.7173218131065369,-0.5431512594223022
1772811344114018800,1.292018798828125,-2.4302656650543213,-0.7460839152336121,-0.5005406737327576
1772811344123900000,1.30189990234375,-2.342913866043091,-0.7519428730010986,-0.4573975205421448
1772811344133781000,1.311781005859375,-2.2608885765075684,-0.7439534068107605,-0.43023329973220825
1772811344143662000,1.321662109375,-2.1852550506591797,-0.720517635345459,-0.4131890833377838
1772811344153543200,1.331543212890625,-2.1032297611236572,-0.6763091683387756,-0.40253645181655884
1772811344163424300,1.34142431640625,-2.023867607116699,-0.6157222986221313,-0.4004059135913849
1772811344173305300,1.351305419921875,-1.9647454023361206,-0.5671196579933167,-0.42650488018989563
1772811344183186400,1.3611865234375,-1.9269285202026367,-0.49747806787490845,-0.4850943684577942
1772811344193067500,1.371067626953125,-1.878991723060608,-0.3946801424026489,-0.5868270397186279
1772811344202948600,1.380948486328125,-1.8012274503707886,-0.2922816872596741,-0.7281076312065125
1772811344212829700,1.39082958984375,-1.6931031942367554,-0.14687320590019226,-0.8788424134254456
1772811344222710800,1.400710693359375,-1.5381073951721191,0.03315632790327072,-1.096156120300293
1772811344232592000,1.410591796875,-1.3362399339675903,0.1705753207206726,-1.3203941583633423
1772811344242473000,1.420472900390625,-1.102414608001709,0.2664490342140198,-1.4892383813858032
1772811344252354000,1.43035400390625,-0.8360987305641174,0.3308974802494049,-1.564339518547058
1772811344262235100,1.440235107421875,-0.5612607002258301,0.4017375111579895,-1.528120517730713
1772811344272116200,1.4501162109375,-0.28855326771736145,0.4496743679046631,-1.393897294998169
1772811344281997300,1.459997314453125,-0.021172111853957176,0.4672512114048004,-1.1542130708694458
1772811344291878400,1.46987841796875,0.23129534721374512,0.45127224922180176,-0.8175897598266602
1772811344301759500,1.479759521484375,0.45713120698928833,0.42836910486221313,-0.4042675197124481
1772811344311640600,1.489640625,0.6297038793563843,0.4065311849117279,0.06231791526079178
1772811344321521700,1.499521728515625,0.747948169708252,0.40972697734832764,0.5379580855369568
1772811344331402800,1.50940283203125,0.8012113571166992,0.43635857105255127,0.9853687882423401
1772811344341283800,1.519283935546875,0.7921565771102905,0.4965459704399109,1.3752552270889282
1772811344351165000,1.5291650390625,0.7261102795600891,0.5833649635314941,1.6847143173217773
1772811344361046000,1.5390458984375,0.5993438959121704,0.6707165241241455,1.8982995748519897
1772811344370927000,1.548927001953125,0.43156489729881287,0.7335671186447144,2.01334810256958
1772811344380808200,1.55880810546875,0.23023007810115814,0.7346323728561401,2.0250658988952637
1772811344390689300,1.568689208984375,0.028362641111016273,0.7165228724479675,1.9483669996261597
1772811344400570400,1.5785703125,-0.1442100554704666,0.6994786858558655,1.7901753187179565
1772811344410451500,1.588451416015625,-0.26991114020347595,0.6675207614898682,1.5383737087249756
1772811344420332500,1.59833251953125,-0.3657848536968231,0.672314465045929,1.1985546350479126
1772811344430213600,1.608213623046875,-0.4185154139995575,0.6914891600608826,0.7857649922370911
1772811344440094700,1.6180947265625,-0.410525918006897,0.6898912787437439,0.3404848575592041
1772811344449975800,1.627975830078125,-0.3567301332950592,0.7223818302154541,-0.10426266491413116
1772811344459857000,1.63785693359375,-0.27044376730918884,0.77724289894104,-0.5767070651054382
1772811344469738000,1.647738037109375,-0.16018900275230408,0.8299734592437744,-1.0576735734939575
1772811344479619000,1.657619140625,-0.0414121188223362,0.882703959941864,-1.5024210214614868
1772811344489500200,1.667500244140625,0.07310371100902557,0.9221187233924866,-1.8885791301727295
1772811344499381000,1.677381103515625,0.16844479739665985,0.9540766477584839,-2.208690643310547
1772811344509261600,1.687261474609375,0.24407850205898285,0.9759145379066467,-2.4627561569213867
1772811344519142100,1.69714208984375,0.29680904746055603,0.9844366312026978,-2.665156126022339
1772811344529022700,1.707022705078125,0.32823431491851807,0.9908282160758972,-2.8254783153533936
1772811344538903300,1.7169033203125,0.3548659086227417,1.0105355978012085,-2.942657232284546
1772811344548783900,1.726783935546875,0.3687143325805664,1.0366345643997192,-3.032672166824341
1772811344558664400,1.73666455078125,0.3916175067424774,1.0637987852096558,-3.0987184047698975
1772811344568545000,1.746544921875,0.3932153880596161,1.092028260231018,-3.149851083755493
1772811344578425900,1.75642578125,0.4155859351158142,1.1538136005401611,-3.191396474838257
1772811344588306400,1.766306396484375,0.4390217363834381,1.2203925848007202,-3.226017475128174
1772811344598187000,1.77618701171875,0.5087965130805969,1.2747209072113037,-3.240398406982422
1772811344608067600,1.786067626953125,0.5913544297218323,1.3054804801940918,-3.2366700172424316
1772811344617948200,1.7959482421875,0.7122617959976196,1.3086762428283691,-3.21589732170105
1772811344627828700,1.805828857421875,0.8608660697937012,1.2990888357162476,-3.1791458129882812
1772811344637709300,1.815709228515625,1.0217208862304688,1.2612719535827637,-3.1130995750427246
1772811344647590000,1.82558984375,1.184173583984375,1.1552783250808716,-3.007105827331543
1772811344657470500,1.835470458984375,1.3503546714782715,1.012000322341919,-2.8547730445861816
1772811344667351000,1.84535107421875,1.516003131866455,0.8862992525100708,-2.669949769973755
1772811344677231600,1.855231689453125,1.6949673891067505,0.8016108274459839,-2.4675498008728027
1772811344687112200,1.8651123046875,1.8851169347763062,0.7621960639953613,-2.2560949325561523
1772811344696992800,1.87499267578125,2.0901801586151123,0.7547392249107361,-2.0409116744995117
1772811344706873300,1.884873291015625,2.3186793327331543,0.7696529030799866,-1.8198695182800293
1772811344716754000,1.89475390625,2.5700814723968506,0.7909581661224365,-1.6073495149612427
1772811344726634500,1.904634521484375,2.8433215618133545,0.8133286833763123,-1.3953620195388794
1772811344736515000,1.91451513671875,3.1469216346740723,0.843156099319458,-1.1849725246429443
1772811344746395600,1.924395751953125,3.430814266204834,0.8804402947425842,-0.9937577247619629
1772811344756276500,1.9342763671875,3.6667702198028564,0.8761792778968811,-0.8201197385787964
1772811344766157000,1.944156982421875,3.8510608673095703,0.8495476841926575,-0.6566017866134644
1772811344776037600,1.95403759765625,3.98262095451355,0.8218508362770081,-0.4978775382041931
1772811344785918200,1.963918212890625,4.057189464569092,0.7994802594184875,-0.3439469635486603
1772811344795798800,1.973798828125,4.065178871154785,0.776044487953186,-0.19853848218917847
1772811344805679400,1.983679443359375,4.010317802429199,0.7298386693000793,-0.06111949309706688
1772811344815560000,1.993559814453125,3.8984649181365967,0.6648576259613037,0.06351634114980698
1772811344825440500,2.0034404296875,3.7519912719726562,0.5833649635314941,0.1806953251361847
1772811344835321000,2.013321044921875,3.5932669639587402,0.481632262468338,0.28136274218559265
1772811344845201700,2.02320166015625,3.4425323009490967,0.3964111804962158,0.37084487080574036
1772811344855082200,2.033082275390625,3.3083090782165527,0.353268027305603,0.4448806941509247
1772811344864962800,2.042962890625,3.177281618118286,0.3261038064956665,0.4880238473415375
1772811344874843400,2.052843505859375,3.008970022201538,0.3298322260379791,0.48429542779922485
1772811344884724000,2.062723876953125,2.816157341003418,0.40972697734832764,0.4358259439468384
1772811344894604500,2.0726044921875,2.6201488971710205,0.5338301658630371,0.36125749349594116
1772811344904485000,2.082485107421875,2.4411845207214355,0.6627270579338074,0.29947221279144287
1772811344914365700,2.09236572265625,2.2734055519104004,0.7532744407653809,0.2685795724391937
1772811344924246500,2.10224658203125,2.1178770065307617,0.7878955602645874,0.27710166573524475
1772811344934127000,2.112127197265625,1.9682074785232544,0.7617965936660767,0.31491851806640625
1772811344944007700,2.122007568359375,1.8009611368179321,0.6787060499191284,0.36658382415771484
1772811344953888300,2.13188818359375,1.5974957942962646,0.5428849458694458,0.4028027653694153
1772811344963768800,2.141768798828125,1.3397020101547241,0.3884217143058777,0.4070638120174408
1772811344973649400,2.1516494140625,1.0297104120254517,0.23608903586864471,0.38149750232696533
1772811344983530000,2.161530029296875,0.6632596850395203,0.0768321305513382,0.3420827388763428
1772811344993410600,2.17141064453125,0.2595248222351074,-0.08562055230140686,0.2946785092353821
1772811345003291100,2.181291015625,-0.17723321914672852,-0.22357217967510223,0.24234744906425476
1772811345013171500,2.19117138671875,-0.6107954978942871,-0.324239581823349,0.1794968992471695
1772811345023052000,2.201052001953125,-1.0166609287261963,-0.3796332776546478,0.09747160971164703
1772811345032932400,2.210932373046875,-1.3767199516296387,-0.39721015095710754,-0.00426105409860611
1772811345042813000,2.22081298828125,-1.685113787651062,-0.3844269812107086,-0.11877688020467758
1772811345052693200,2.230693359375,-1.9546253681182861,-0.3711111843585968,-0.23435798287391663
1772811345062573800,2.24057373046875,-2.184189796447754,-0.3854922354221344,-0.3392864465713501
1772811345072454100,2.2504541015625,-2.371675968170166,-0.4222438335418701,-0.4282359480857849
1772811345082334700,2.260334716796875,-2.506431818008423,-0.44887542724609375,-0.4948149025440216
1772811345092215300,2.27021533203125,-2.5980446338653564,-0.4573975205421448,-0.5294359922409058
1772811345102095600,2.280095703125,-2.6411876678466797,-0.4712459444999695,-0.5352949500083923
1772811345111976200,2.28997607421875,-2.6411876678466797,-0.49255120754241943,-0.5134570002555847
1772811345121856500,2.2998564453125,-2.6177518367767334,-0.5293028354644775,-0.4767054319381714
1772811345131737000,2.309737060546875,-2.5873918533325195,-0.5756417512893677,-0.4293012022972107
1772811345141617400,2.319617431640625,-2.550107717514038,-0.6406228542327881,-0.3664506673812866
1772811345151498000,2.329498046875,-2.5128235816955566,-0.7434207797050476,-0.2822948396205902
1772811345161378300,2.33937841796875,-2.4824635982513428,-0.8898945450782776,-0.1603221595287323
1772811345171259000,2.3492587890625,-2.456897258758545,-1.0922945737838745,0.001597895286977291
1772811345181139500,2.359139404296875,-2.421743392944336,-1.3490231037139893,0.2162484973669052
1772811345191019800,2.369019775390625,-2.3833940029144287,-1.6393073797225952,0.4809664785861969
1772811345200900400,2.378900390625,-2.357295036315918,-1.9445054531097412,0.7440865635871887
1772811345210780700,2.38878076171875,-2.3354570865631104,-2.2161476612091064,0.9560739994049072
1772811345220661200,2.3986611328125,-2.316282272338867,-2.4329288005828857,1.1041456460952759
1772811345230541600,2.40854150390625,-2.2960424423217773,-2.604436159133911,1.1930952072143555
1772811345240422100,2.418422119140625,-2.2715413570404053,-2.724810838699341,1.2436951398849487
1772811345250302500,2.428302490234375,-2.243311882019043,-2.7711498737335205,1.2650004625320435
1772811345260183000,2.43818310546875,-2.2156150341033936,-2.7322678565979004,1.259674072265625
1772811345270063600,2.448063720703125,-2.197505474090576,-2.619349956512451,1.2223899364471436
1772811345279944000,2.45794384765625,-2.2044296264648438,-2.430798292160034,1.1616698503494263
1772811345289824500,2.467824462890625,-2.2454423904418945,-2.1714065074920654,1.0849709510803223
1772811345299704800,2.477704833984375,-2.3189456462860107,-1.8678064346313477,0.9997498393058777
1772811345309585400,2.48758544921875,-2.411623477935791,-1.5381073951721191,0.9054740071296692
1772811345319465700,2.4974658203125,-2.5085623264312744,-1.2201261520385742,0.8069370985031128
1772811345329346300,2.50734619140625,-2.5820655822753906,-0.9415597915649414,0.7185202240943909
1772811345349107200,2.527107177734375,-2.649177312850952,-0.5868270397186279,0.6183854937553406
1772811345358987800,2.53698779296875,-2.6576993465423584,-0.5063996315002441,0.6221138834953308
1772811345368868000,2.5468681640625,-2.650242567062378,-0.4856269955635071,0.6562023162841797
1772811345378748700,2.556748779296875,-2.6225457191467285,-0.5138564705848694,0.7121286392211914
1772811345388629000,2.56662890625,-2.584196090698242,-0.577772319316864,0.7787076234817505
1772811345398509600,2.576509521484375,-2.541053056716919,-0.6555365324020386,0.8468844890594482
1772811345408390000,2.586389892578125,-2.495779275894165,-0.7279744744300842,0.9193224310874939
1772811345418270500,2.5962705078125,-2.4499728679656982,-0.7865639328956604,0.9933582544326782
1772811345428150800,2.60615087890625,-2.402036190032959,-0.8360987305641174,1.0647308826446533
1772811345438031400,2.61603125,-2.3461098670959473,-0.86805659532547,1.1254509687423706
1772811345447912000,2.625911865234375,-2.277400255203247,-0.8781766295433044,1.1648656129837036
1772811345457792300,2.635792236328125,-2.193777084350586,-0.8792418837547302,1.1771161556243896
1772811345467672800,2.6456728515625,-2.098435878753662,-0.8653934597969055,1.1515498161315918
1772811345477553200,2.65555322265625,-1.9903117418289185,-0.84675133228302,1.090829849243164
1772811345487433700,2.665433837890625,-1.878991723060608,-0.8105323910713196,0.9933582544326782
1772811345497314300,2.675314208984375,-1.7554211616516113,-0.758867084980011,0.8703203201293945
1772811345507195400,2.6851953125,-1.623328447341919,-0.6938860416412354,0.7334339618682861
1772811345517076700,2.69507666015625,-1.4875073432922363,-0.6219807267189026,0.5885580778121948
1772811345526957800,2.704957763671875,-1.3474252223968506,-0.5490102171897888,0.4516717195510864
1772811345536839200,2.714839111328125,-1.2025493383407593,-0.4803006947040558,0.3243727385997772
1772811345546720300,2.72472021484375,-1.0560755729675293,-0.4083954095840454,0.21997691690921783
1772811345556601600,2.7346015625,-0.9106671810150146,-0.3253048360347748,0.1411474198102951
1772811345566482700,2.744482666015625,-0.7609976530075073,-0.2390184998512268,0.08841687440872192
1772811345576363800,2.75436376953125,-0.6070670485496521,-0.15699321031570435,0.047936856746673584
1772811345586245000,2.7642451171875,-0.44994068145751953,-0.08189213275909424,0.01704421639442444
1772811345596126200,2.774126220703125,-0.30719536542892456,-0.04034685716032982,-0.02024000696837902
1772811345606007600,2.784007568359375,-0.19374480843544006,-0.03235737979412079,-0.09693898260593414
1772811345615888600,2.793888671875,-0.09733845293521881,0.010785792954266071,-0.21891164779663086
1772811345625770000,2.80377001953125,0.020373165607452393,0.0858868733048439,-0.3632548749446869
1772811345635651000,2.813651123046875,0.16684690117835999,0.156194269657135,-0.47777068614959717
1772811345645532200,2.8235322265625,0.341017484664917,0.19134795665740967,-0.5539370179176331
1772811345655413500,2.83341357421875,0.5253080725669861,0.21212059259414673,-0.5896233320236206
1772811345665294600,2.843294677734375,0.7080007791519165,0.23076270520687103,-0.5715138912200928
1772811345675176000,2.853176025390625,0.8986829519271851,0.24301324784755707,-0.48789069056510925
1772811345685057000,2.86305712890625,1.092560887336731,0.24833956360816956,-0.3249053657054901
1772811345694938400,2.8729384765625,1.2779167890548706,0.24993745982646942,-0.08309055864810944
1772811345704819500,2.8828193359375,1.444097876548767,0.2520679831504822,0.22796639800071716
1772811345714700500,2.892700439453125,1.5857778787612915,0.25792694091796875,0.5816338658332825
1772811345724582000,2.902581787109375,1.68751060962677,0.26218798756599426,0.9480845332145691
1772811345734463000,2.912462890625,1.741839051246643,0.24993745982646942,1.2958930730819702
1772811345744344300,2.92234423828125,1.7445021867752075,0.2275669276714325,1.6138741970062256
1772811345754225400,2.932225341796875,1.7029569149017334,0.18176059424877167,1.8780596256256104
1772811345764106800,2.942106689453125,1.6294537782669067,0.12476898729801178,2.0857858657836914
1772811345773987800,2.95198779296875,1.5330473184585571,0.06564686447381973,2.222672462463379
1772811345783869000,2.961868896484375,1.4350430965423584,0.026764746755361557,2.297240734100342
1772811345793750300,2.971750244140625,1.3572789430618286,0.04167843610048294,2.310556650161743
1772811345803631400,2.98163134765625,1.3034831285476685,0.09760477393865585,2.2839250564575195
1772811345813512700,2.9915126953125,1.2875040769577026,0.1753690093755722,2.1901817321777344
1772811345823393800,3.001393798828125,1.2827104330062866,0.24833956360816956,1.9792596101760864
1772811345833275100,3.011275146484375,1.292830467224121,0.3585943281650543,1.6511584520339966
1772811345843156200,3.02115625,1.3269188404083252,0.41292276978492737,1.2463582754135132
1772811345853037300,3.031037353515625,1.3631378412246704,0.6126596927642822,0.809600293636322
1772811345862918700,3.040918701171875,1.4265210628509521,0.832103967666626,0.23861902952194214
1772811345872799700,3.0507998046875,1.506948471069336,0.9455545544624329,-0.4053327739238739
1772811345882681000,3.06068115234375,1.5900390148162842,1.01266610622406,-0.9928256273269653
1772811345892562200,3.070562255859375,1.6891084909439087,1.0510156154632568,-1.4636720418930054
1772811345902443500,3.080443603515625,1.7780579328536987,1.0398303270339966,-1.8445037603378296
1772811345912324600,3.09032470703125,1.82652747631073,1.0270471572875977,-2.161419630050659
1772811345922205700,3.100205810546875,1.8419737815856934,1.0297104120254517,-2.429866075515747
1772811345932087000,3.110087158203125,1.8446369171142578,1.0515482425689697,-2.6418535709381104
1772811345941968100,3.119968017578125,1.8371801376342773,1.0792450904846191,-2.7957842350006104
1772811345951849500,3.129849365234375,1.830788493156433,1.1191924810409546,-2.885798931121826
1772811345961730600,3.13973046875,1.851028561592102,1.1772493124008179,-2.9230830669403076
1772811345971612000,3.14961181640625,1.844104290008545,1.2768515348434448,-2.906571626663208
1772811345981493000,3.159492919921875,1.821733832359314,1.40201997756958,-2.8389272689819336
1772811345991374000,3.1693740234375,1.8041568994522095,1.5793863534927368,-2.707367181777954
1772811346001255400,3.17925537109375,1.7732642889022827,1.8057547807693481,-2.5124239921569824
1772811346021018000,3.19901806640625,1.6310516595840454,2.289384365081787,-2.1358532905578613
1772811346030899200,3.208899169921875,1.5383737087249756,2.5557003021240234,-2.0516974925994873
1772811346040780500,3.218780517578125,1.444097876548767,2.850778341293335,-2.0405123233795166
1772811346050662000,3.228661865234375,1.3503546714782715,3.1362690925598145,-2.0953733921051025
1772811346060543000,3.23854296875,1.2784494161605835,3.4047152996063232,-2.1747355461120605
1772811346070424300,3.24842431640625,1.226784110069275,3.6507911682128906,-2.2434449195861816
1772811346080305700,3.2583056640625,1.1974893808364868,3.8510608673095703,-2.2913818359375
1772811346090187000,3.26818701171875,1.1729882955551147,4.006056785583496,-2.2999038696289062
1772811346100068000,3.278068115234375,1.1564767360687256,4.097136497497559,-2.2690112590789795
1772811346109949400,3.287949462890625,1.15168297290802,4.085951328277588,-2.20243239402771
1772811346119830800,3.297830810546875,1.1703251600265503,3.9629135131835938,-2.1017649173736572
1772811346129712000,3.307712158203125,1.2155988216400146,3.742936611175537,-1.976063847541809
1772811346139593200,3.31759326171875,1.281112551689148,3.4318795204162598,-1.8359817266464233
1772811346149474600,3.327474609375,1.360474705696106,3.0451889038085938,-1.6937689781188965
1772811346159356000,3.33735595703125,1.4483588933944702,2.5977783203125,-1.5488932132720947
1772811346169237200,3.3472373046875,1.536243200302124,2.1082897186279297,-1.3859078884124756
1772811346179118300,3.357118408203125,1.6198663711547852,1.600158929824829,-1.2037477493286133
1772811346188999700,3.366999755859375,1.6944347620010376,1.0952240228652954,-1.0002824068069458
1772811346198881000,3.376881103515625,1.759415864944458,0.6217144131660461,-0.7856318354606628
1772811346208762400,3.386762451171875,1.8164074420928955,0.1892174333333969,-0.5741770267486572
1772811346218643500,3.3966435546875,1.8616812229156494,-0.20066902041435242,-0.3760380148887634
1772811346228524800,3.40652490234375,1.8904433250427246,-0.5245091319084167,-0.20133480429649353
1772811346238406100,3.41640625,1.8963022232055664,-0.7663239240646362,-0.042610540986061096
1772811346248287500,3.42628759765625,1.8718011379241943,-0.9303745031356812,0.09800424426794052
1772811346258168600,3.43616845703125,1.8169400691986084,-1.0166609287261963,0.21038953959941864
1772811346268050000,3.4460498046875,1.725327491760254,-1.0427597761154175,0.272707462310791
1772811346277931300,3.45593115234375,1.5682010650634766,-1.0454230308532715,0.2593916654586792
1772811346287812400,3.465812255859375,1.3673988580703735,-0.9575387239456177,0.1832253336906433
1772811346297693700,3.475693603515625,1.1538136005401611,-0.7753787040710449,0.0846884474158287
1772811346307575000,3.485574951171875,0.9487503170967102,-0.6070670485496521,-0.01597895286977291
1772811346317456400,3.495456298828125,0.752741813659668,-0.49574699997901917,-0.1038631945848465
1772811346327337500,3.50533740234375,0.5753754377365112,-0.39721015095710754,-0.15393057465553284
1772811346337218800,3.51521875,0.40972697734832764,-0.30293431878089905,-0.164583221077919
1772811346347100200,3.52510009765625,0.2557964026927948,-0.22889849543571472,-0.14061477780342102
1772811346356981500,3.5349814453125,0.1050616130232811,-0.1692437380552292,-0.09321055561304092
1772811346366862600,3.544862548828125,-0.054195281118154526,-0.12503530085086823,-0.04154527932405472
1772811346376744000,3.554743896484375,-0.2395511418581009,-0.1026647686958313,0.003195790573954582
1772811346386625300,3.564625244140625,-0.44940805435180664,-0.10373003780841827,0.0378168560564518
1772811346396506600,3.574506591796875,-0.6848312616348267,-0.11491530388593674,0.06072001904249191
1772811346406387700,3.5843876953125,-0.9213197827339172,-0.13355740904808044,0.07403581589460373
1772811346416269000,3.59426904296875,-1.1418293714523315,-0.15113426744937897,0.06924212723970413
1772811346426150400,3.604150390625,-1.3346420526504517,-0.16711321473121643,0.06285054981708527
1772811346436031700,3.61403173828125,-1.508812665939331,-0.20439743995666504,0.05379580706357956
1772811346445912800,3.623912841796875,-1.66061270236969,-0.24967113137245178,0.04900212213397026
1772811346455794200,3.633794189453125,-1.7953685522079468,-0.29281431436538696,0.04527369886636734
1772811346465675500,3.643675537109375,-1.9098843336105347,-0.34501221776008606,0.04154527932405472
1772811346475556900,3.653556884765625,-2.0110843181610107,-0.40093857049942017,0.04420843720436096
1772811346485438000,3.66343798828125,-2.098435878753662,-0.4462122619152069,0.05432844161987305
1772811346495319300,3.6733193359375,-2.17779803276062,-0.489888072013855,0.06285054981708527
1772811346505200000,3.6832001953125,-2.2502360343933105,-0.5324985980987549,0.06977476179599762
1772811346515080700,3.693080810546875,-2.312553882598877,-0.5628586411476135,0.06711160391569138
1772811346524961500,3.70296142578125,-2.3599581718444824,-0.5745764970779419,0.06817686557769775
1772811346534842400,3.71284228515625,-2.3903181552886963,-0.5277048945426941,0.07936213165521622
1772811346554604000,3.73260400390625,-2.3844592571258545,-0.38709014654159546,0.13848425447940826
1772811346564484600,3.742484619140625,-2.3397181034088135,-0.35992592573165894,0.2034653276205063
1772811346574365400,3.752365478515625,-2.267280340194702,-0.3769701421260834,0.30413272976875305
1772811346584246300,3.762246337890625,-2.1698086261749268,-0.44461435079574585,0.44101908802986145
1772811346594127000,3.772127197265625,-2.0483686923980713,-0.556999683380127,0.6162549257278442
1772811346604008000,3.782008056640625,-1.913612723350525,-0.7018755078315735,0.8282423615455627
1772811346613888500,3.791888427734375,-1.7591495513916016,-0.850479781627655,1.065796136856079
1772811346623769300,3.801769287109375,-1.5966968536376953,-0.9964208602905273,1.3038825988769531
1772811346633650200,3.811650146484375,-1.4326462745666504,-1.13969886302948,1.5078805685043335
1772811346643531000,3.821531005859375,-1.2648673057556152,-1.2696609497070312,1.6468974351882935
1772811346653411800,3.831411865234375,-1.1029472351074219,-1.3783178329467773,1.7134764194488525
1772811346663292400,3.84129248046875,-0.9452882409095764,-1.4576799869537354,1.7108131647109985
1772811346673173200,3.85117333984375,-0.808401882648468,-1.496562123298645,1.6687352657318115
1772811346683054000,3.86105419921875,-0.7029407620429993,-1.501355767250061,1.6154720783233643
1772811346692935000,3.870934814453125,-0.6278396844863892,-1.4571473598480225,1.574459433555603
1772811346702815700,3.880815673828125,-0.5937512516975403,-1.3687304258346558,1.5590131282806396
1772811346712696300,3.8906962890625,-0.6193175911903381,-1.2744545936584473,1.5611436367034912
1772811346722577200,3.9005771484375,-0.7056038975715637,-1.1934946775436401,1.5909711122512817
1772811346732458000,3.9104580078125,-0.8403597474098206,-1.1279809474945068,1.6437016725540161
1772811346742338800,3.9203388671875,-1.0001492500305176,-1.090164065361023,1.7049542665481567
1772811346752219600,3.9302197265625,-1.1482208967208862,-1.0816419124603271,1.7678048610687256
1772811346762100200,3.940100341796875,-1.2510188817977905,-1.0928272008895874,1.8279922008514404
1772811346771981000,3.94998095703125,-1.303216814994812,-1.1327745914459229,1.8828532695770264
1772811346781862000,3.95986181640625,-1.3053473234176636,-1.2084083557128906,1.9243985414505005
1772811346791742700,3.96974267578125,-1.2739219665527344,-1.2930967807769775,1.9542258977890015
1772811346801623600,3.97962353515625,-1.2174630165100098,-1.362871527671814,1.988847017288208
1772811346811504000,3.989504150390625,-1.1583409309387207,-1.4017536640167236,2.027729034423828
1772811346821385000,3.999385009765625,-1.1104040145874023,-1.4076125621795654,2.073002815246582
1772811346831265800,4.009265869140625,-1.0922945737838745,-1.387372612953186,2.1006996631622314
1772811346841146600,4.019146728515625,-1.101881980895996,-1.3463599681854248,2.08365535736084
1772811346851027500,4.02902734375,-1.12478506565094,-1.2845746278762817,2.009087085723877
1772811346860908000,4.038907958984375,-1.149818778038025,-1.206810474395752,1.879657506942749
1772811346870788900,4.048788818359375,-1.1705914735794067,-1.1088061332702637,1.7001606225967407
1772811346880669700,4.058669677734375,-1.1785808801651,-1.0033451318740845,1.4823142290115356
1772811346890550500,4.068550537109375,-1.1732546091079712,-0.8824376463890076,1.2357057332992554
1772811346900431400,4.078431396484375,-1.1503514051437378,-0.7593997120857239,0.9715203046798706
1772811346910312000,4.08831201171875,-1.107740879058838,-0.6427533626556396,0.7057371139526367
1772811346920192800,4.09819287109375,-1.04329252243042,-0.5479449033737183,0.4484759569168091
1772811346930073600,4.108073486328125,-0.9591366648674011,-0.4888227880001068,0.20879164338111877
1772811346939954400,4.117954345703125,-0.8574039936065674,-0.4510059356689453,-0.01438105758279562
1772811346949835300,4.127835205078125,-0.7519428730010986,-0.4222438335418701,-0.20666112005710602
1772811346959715800,4.1377158203125,-0.6432859897613525,-0.41212382912635803,-0.35579800605773926
1772811346969596700,4.1475966796875,-0.5452817678451538,-0.4131890833377838,-0.45433488488197327
1772811346979477500,4.1574775390625,-0.4600606858730316,-0.4174501299858093,-0.5091959834098816
1772811346989358300,4.1673583984375,-0.39294907450675964,-0.4089280366897583,-0.5342296361923218
1772811346999239000,4.177239013671875,-0.366317480802536,-0.43555963039398193,-0.5640570521354675
1772811347009119500,4.187119384765625,-0.37750276923179626,-0.46325647830963135,-0.6364949345588684
1772811347019000000,4.197,-0.3865574896335602,-0.43023329973220825,-0.746749758720398
1772811347028880600,4.206880615234375,-0.3561974763870239,-0.36525222659111023,-0.8633961081504822
1772811347038761500,4.216761474609375,-0.27843326330184937,-0.30826061964035034,-0.9315729737281799
1772811347048642000,4.22664208984375,-0.16178689897060394,-0.26032376289367676,-0.9230508208274841
1772811347058522600,4.236522705078125,-0.006258423440158367,-0.2012016475200653,-0.8287750482559204
1772811347068403200,4.2464033203125,0.18708691000938416,-0.12397003918886185,-0.6524739265441895
1772811347078283800,4.25628369140625,0.39907434582710266,-0.04034685716032982,-0.4149201512336731
1772811347088164400,4.266164306640625,0.622247040271759,0.043276332318782806,-0.13369056582450867
1772811347098045000,4.276044921875,0.8464850187301636,0.14021530747413635,0.17044216394424438
1772811347107925500,4.285925537109375,1.0270471572875977,0.22064270079135895,0.4852275252342224
1772811347117806000,4.29580615234375,1.1586072444915771,0.27284061908721924,0.7882950305938721
1772811347127686700,4.305686767578125,1.2347736358642578,0.3063964247703552,1.0679266452789307
1772811347137567200,4.315567138671875,1.263535737991333,0.3452785313129425,1.317198395729065
1772811347147447800,4.32544775390625,1.2592746019363403,0.3932153880596161,1.5291857719421387
1772811347157328400,4.335328369140625,1.2459588050842285,0.43209752440452576,1.703356385231018
1772811347167209000,4.345208984375,1.2374367713928223,0.46512067317962646,1.842373251914978
1772811347177089500,4.355089599609375,1.226251482963562,0.4970785975456238,1.9409101009368896
1772811347186970000,4.36497021484375,1.2054787874221802,0.5183838605880737,1.9868496656417847
1772811347196850700,4.3748505859375,1.184173583984375,0.5450154542922974,1.977794885635376
1772811347206731300,4.384731201171875,1.159672498703003,0.5705817937850952,1.914811134338379
1772811347216611800,4.39461181640625,1.129845142364502,0.5972133874893188,1.7912405729293823
1772811347226492400,4.404492431640625,1.0914956331253052,0.6057354807853699,1.598960518836975
1772811347236373200,4.414373291015625,1.0472872257232666,0.5870933532714844,1.3432973623275757
1772811347246253800,4.42425390625,0.9940240383148193,0.5460807085037231,1.0263813734054565
1772811347256134400,4.434134521484375,0.9263797998428345,0.481632262468338,0.650875985622406
1772811347266015000,4.444014892578125,0.840626060962677,0.4102596044540405,0.2311621904373169
1772811347275895600,4.4538955078125,0.7335671186447144,0.3420827388763428,-0.22477060556411743
1772811347285776100,4.463776123046875,0.6025396585464478,0.29627642035484314,-0.6854971051216125
1772811347295656700,4.47365673828125,0.4550006687641144,0.2691121995449066,-1.1105371713638306
1772811347305537300,4.483537353515625,0.29680904746055603,0.265383780002594,-1.4759225845336914
1772811347315417900,4.49341796875,0.14128057658672333,0.28562378883361816,-1.7859143018722534
1772811347325298400,4.50329833984375,-0.0025300008710473776,0.3591269552707672,-2.0506322383880615
1772811347335179000,4.513178955078125,-0.12397003918886185,0.48962175846099854,-2.265815496444702
1772811347345059600,4.5230595703125,-0.2203763872385025,0.668053388595581,-2.435192346572876
1772811347354940200,4.532940185546875,-0.29441219568252563,0.8640618920326233,-2.554502010345459
1772811347364820700,4.54282080078125,-0.34447959065437317,1.057407259941101,-2.6109609603881836
1772811347374701300,4.552701416015625,-0.3609911799430847,1.2161314487457275,-2.594449281692505
1772811347384582000,4.562581787109375,-0.34447959065437317,1.3642030954360962,-2.515087127685547
1772811347394462500,4.57246240234375,-0.30399957299232483,1.506948471069336,-2.3973755836486816
1772811347404343000,4.582343017578125,-0.24647535383701324,1.6369105577468872,-2.250901937484741
1772811347414223600,4.5922236328125,-0.16764584183692932,1.7487632036209106,-2.08365535736084
1772811347424104200,4.602104248046875,-0.07550055533647537,1.843571662902832,-1.8908427953720093
1772811347433984800,4.61198486328125,0.026764746755361557,1.897900104522705,-1.6943016052246094
1772811347443865600,4.621865478515625,0.15353110432624817,1.9101506471633911,-1.4929667711257935
1772811347453746200,4.63174609375,0.3026680052280426,1.8723337650299072,-1.2985562086105347
1772811347473507300,4.65150732421875,0.6542049646377563,1.6885758638381958,-0.957139253616333
1772811347483388000,4.661387939453125,0.856605052947998,1.5548852682113647,-0.7904255390167236
1772811347493268500,4.6712685546875,1.0606030225753784,1.395095705986023,-0.6098633408546448
1772811347503149600,4.681149658203125,1.2661988735198975,1.221457839012146,-0.4143875241279602
1772811347513030700,4.69103076171875,1.4563484191894531,1.0297104120254517,-0.23276008665561676
1772811347522911700,4.700911865234375,1.620398998260498,0.8305060863494873,-0.07723160833120346
1772811347532792800,4.710792724609375,1.7753947973251343,0.6568681001663208,0.04207791015505791
1772811347542674200,4.720674072265625,1.9064222574234009,0.5247754454612732,0.1272989958524704
1772811347552555300,4.73055517578125,2.0236012935638428,0.42783647775650024,0.19121479988098145
1772811347562436400,4.740436279296875,2.125866413116455,0.34794169664382935,0.25140219926834106
1772811347572317700,4.750317626953125,2.2286643981933594,0.2984069585800171,0.32330748438835144
1772811347582198800,4.76019873046875,2.3234729766845703,0.26804694533348083,0.4106590747833252
1772811347592080000,4.770079833984375,2.39378023147583,0.24514377117156982,0.5065327882766724
1772811347601961000,4.7799609375,2.4369235038757324,0.21478375792503357,0.6072002053260803
1772811347611842300,4.78984228515625,2.4571635723114014,0.18655426800251007,0.7025412917137146
1772811347621723400,4.799723388671875,2.4667508602142334,0.16471637785434723,0.7914907932281494
1772811347631604500,4.8096044921875,2.45876145362854,0.15033531188964844,0.8633961081504822
1772811347641485600,4.819485595703125,2.439054012298584,0.14927005767822266,0.9198550581932068
1772811347651367000,4.829366943359375,2.410291910171509,0.14341109991073608,0.9566066265106201
1772811347661248000,4.839248046875,2.3628876209259033,0.14021530747413635,0.9576718807220459
1772811347671129000,4.849129150390625,2.296308755874634,0.1476721614599228,0.9129308462142944
1772811347681010400,4.859010498046875,2.2094898223876953,0.17004269361495972,0.8170571327209473
1772811347690891500,4.8688916015625,2.086451768875122,0.14927005767822266,0.6604633927345276
1772811347700772600,4.878772705078125,1.905889630317688,0.11624687910079956,0.43089908361434937
1772811347710653700,4.88865380859375,1.6912389993667603,0.11624687910079956,0.15925689041614532
1772811347720535000,4.89853515625,1.469664216041565,0.1327584683895111,-0.11078740656375885
1772811347730416000,4.908416015625,1.2656662464141846,0.13648688793182373,-0.3435474932193756
1772811347740297200,4.918297119140625,1.092028260231018,0.13009530305862427,-0.5166528224945068
1772811347750178300,4.92817822265625,0.9556745290756226,0.11731214821338654,-0.6221138834953308
1772811347760059600,4.9380595703125,0.8560724258422852,0.12050793319940567,-0.6775075793266296
1772811347769940700,4.947940673828125,0.7799060344696045,0.11464899033308029,-0.6918886303901672
1772811347779821800,4.95782177734375,0.7122617959976196,0.0858868733048439,-0.6785728931427002
1772811347789703200,4.967703125,0.6339649558067322,0.03475422412157059,-0.6684528589248657
1772811347799584300,4.977584228515625,0.5194491147994995,-0.008921582251787186,-0.6870949864387512
1772811347809465300,4.98746533203125,0.36285537481307983,-0.03874896094202995,-0.7392928600311279
1772811347819346400,4.997346435546875,0.16791217029094696,-0.06325002014636993,-0.8048065900802612
1772811347829227800,5.007227783203125,-0.05579317733645439,-0.08508792519569397,-0.8596676588058472
1772811347839108900,5.01710888671875,-0.28908589482307434,-0.12237215042114258,-0.8942887187004089
1772811347848990000,5.026989990234375,-0.5277048945426941,-0.1644500494003296,-0.8926908373832703
1772811347858871300,5.036871337890625,-0.7593997120857239,-0.21771323680877686,-0.8697876930236816
1772811347868752400,5.04675244140625,-0.9639303088188171,-0.2731069326400757,-0.8538087010383606
1772811347878633500,5.056633544921875,-1.1508840322494507,-0.3237069547176361,-0.8532760739326477
1772811347888514600,5.0665146484375,-1.3271851539611816,-0.3705785572528839,-0.8735160827636719
1772811347898396000,5.07639599609375,-1.4944316148757935,-0.41159120202064514,-0.9054740071296692
1772811347908277000,5.086277099609375,-1.6393073797225952,-0.4360922574996948,-0.9438234567642212
1772811347918158000,5.096157958984375,-1.7847158908843994,-0.45793014764785767,-0.9603350758552551
1772811347928039400,5.106039306640625,-1.9072211980819702,-0.4850943684577942,-0.9560739994049072
1772811347937920500,5.11592041015625,-2.008953809738159,-0.5016059875488281,-0.9342361092567444
1772811347947801600,5.125801513671875,-2.1016318798065186,-0.5058670043945312,-0.898017168045044
1772811347957682700,5.1356826171875,-2.184189796447754,-0.5117259621620178,-0.8591350317001343
1772811347967564000,5.14556396484375,-2.2566275596618652,-0.5149217844009399,-0.8175897598266602
1772811347977445000,5.155445068359375,-2.3061623573303223,-0.4787027835845947,-0.7813708186149597
1772811347987326200,5.165326171875,-2.327467679977417,-0.4051996171474457,-0.7435539364814758
1772811347997207300,5.175207275390625,-2.3306634426116943,-0.3530017137527466,-0.6817686557769775
1772811348007088400,5.18508837890625,-2.3146843910217285,-0.3423490524291992,-0.5981454849243164
1772811348016969500,5.194969482421875,-2.278465509414673,-0.37750276923179626,-0.49268439412117004
1772811348026850600,5.2048505859375,-2.2246696949005127,-0.4419512152671814,-0.358993798494339
1772811348036731400,5.2147314453125,-2.1564929485321045,-0.5181175470352173,-0.20879164338111877
1772811348056493600,5.23449365234375,-1.970604419708252,-0.678439736366272,0.1656484752893448
1772811348066374700,5.244374755859375,-1.8454358577728271,-0.7854986786842346,0.3957453966140747
1772811348076255500,5.25425537109375,-1.6973642110824585,-0.9000145196914673,0.6551370620727539
1772811348086136600,5.264136474609375,-1.543966293334961,-1.015062928199768,0.9337034821510315
1772811348096017700,5.274017578125,-1.3958946466445923,-1.1359703540802002,1.212802529335022
1772811348105898500,5.2838984375,-1.2568777799606323,-1.2179956436157227,1.4674005508422852
1772811348115779600,5.293779541015625,-1.1301114559173584,-1.2622041702270508,1.6799205541610718
1772811348125660700,5.30366064453125,-1.0235850811004639,-1.2845746278762817,1.8450363874435425
1772811348135541800,5.313541748046875,-0.9415597915649414,-1.300553560256958,1.9723354578018188
1772811348145422800,5.3234228515625,-0.8755134344100952,-1.32505464553833,2.0666112899780273
1772811348155303700,5.3333037109375,-0.8195871114730835,-1.3463599681854248,2.136918544769287
1772811348165184800,5.343184814453125,-0.7700523734092712,-1.374589443206787,2.1859207153320312
1772811348175065900,5.35306591796875,-0.7301049828529358,-1.397492527961731,2.221606969833374
1772811348184947000,5.362947021484375,-0.7056038975715637,-1.4315810203552246,2.251434564590454
1772811348194827800,5.372827880859375,-0.7008102536201477,-1.4827136993408203,2.2695438861846924
1772811348204708900,5.382708984375,-0.7119954824447632,-1.5466294288635254,2.272207021713257
1772811348214590000,5.39258984375,-0.7364965677261353,-1.606284260749817,2.256760835647583
1772811348224471000,5.402470947265625,-0.7775092124938965,-1.6568843126296997,2.232259750366211
1772811348234351900,5.412351806640625,-0.8238481879234314,-1.702157974243164,2.2130849361419678
1772811348244233000,5.42223291015625,-0.8749808073043823,-1.744235873222351,2.1987040042877197
1772811348254114000,5.432114013671875,-0.9239829778671265,-1.7756611108779907,2.182192325592041
1772811348263995100,5.4419951171875,-0.968191385269165,-1.7714000940322876,2.1603543758392334
1772811348273876000,5.4518759765625,-1.0092040300369263,-1.744768500328064,2.1097543239593506
1772811348283757000,5.461757080078125,-1.0491514205932617,-1.6957663297653198,2.027729034423828
1772811348293638100,5.47163818359375,-1.0864356756210327,-1.6286547183990479,1.91694176197052
1772811348303519200,5.481519287109375,-1.1157304048538208,-1.5301178693771362,1.7614132165908813
1772811348313400000,5.491400146484375,-1.1301114559173584,-1.3825788497924805,1.5717962980270386
1772811348323281200,5.50128125,-1.1253178119659424,-1.2147998809814453,1.3598089218139648
1772811348333162200,5.511162353515625,-1.0981535911560059,-1.0459556579589844,1.140897274017334
1772811348352924400,5.53092431640625,-0.9910945296287537,-0.7162565588951111,0.7089328765869141
1772811348362805200,5.54080517578125,-0.9271787405014038,-0.5719133615493774,0.5091959834098816
1772811348372686300,5.550686279296875,-0.871785044670105,-0.445679634809494,0.32330748438835144
1772811348382567400,5.5605673828125,-0.8281092047691345,-0.3519364297389984,0.14807163178920746
1772811348392448300,5.5704482421875,-0.816923975944519,-0.31252169609069824,-0.022370534017682076
1772811348402329300,5.580329345703125,-0.8563387393951416,-0.33063116669654846,-0.2306295484304428
1772811348412210400,5.59021044921875,-0.9309071898460388,-0.3423490524291992,-0.5028043985366821
1772811348422091500,5.600091552734375,-1.0017471313476562,-0.31252169609069824,-0.8207855224609375
1772811348431972400,5.609972412109375,-1.052879810333252,-0.24967113137245178,-1.1440930366516113
1772811348441853400,5.619853515625,-1.077380895614624,-0.1692437380552292,-1.4093436002731323
1772811348451734500,5.629734619140625,-1.0747177600860596,-0.07709844410419464,-1.5808510780334473
1772811348461615600,5.63961572265625,-1.0416945219039917,0.01717737503349781,-1.6506258249282837
1772811348471496700,5.64949658203125,-0.9793766736984253,0.13116057217121124,-1.6229289770126343
1772811348481377500,5.65937744140625,-0.8904271721839905,0.2664490342140198,-1.4993584156036377
1772811348491258600,5.669258544921875,-0.7578018307685852,0.4251733124256134,-1.2735224962234497
1772811348501139200,5.67913916015625,-0.5857617855072021,0.5780386328697205,-0.957139253616333
1772811348511019800,5.689019775390625,-0.37910065054893494,0.7282407879829407,-0.5651223063468933
1772811348520900000,5.698900146484375,-0.1633847951889038,0.8459523916244507,-0.12410320341587067
1772811348530780400,5.708780517578125,0.04647212103009224,0.9146618843078613,0.33822116255760193
1772811348540661000,5.718660888671875,0.23023007810115814,0.9338366389274597,0.767522394657135
1772811348550541300,5.728541259765625,0.38575854897499084,0.9428913593292236,1.1424951553344727
1772811348560421600,5.738421630859375,0.5162533521652222,0.9428913593292236,1.4588783979415894
1772811348570302200,5.74830224609375,0.6153228282928467,0.907737672328949,1.7241289615631104
1772811348580182500,5.7581826171875,0.6872281432151794,0.8432892560958862,1.9414427280426025
1772811348590063000,5.76806298828125,0.7330344915390015,0.7575355172157288,2.1065585613250732
1772811348599943400,5.777943359375,0.7426218390464783,0.6499438881874084,2.192312240600586
1772811348609823700,5.78782373046875,0.7468829154968262,0.5210469961166382,2.1896491050720215
1772811348619704300,5.797704345703125,0.7463502287864685,0.4033353924751282,2.1012322902679443
1772811348629584600,5.807584716796875,0.7356976270675659,0.288286954164505,1.9275943040847778
1772811348639465000,5.81746484375,0.7186533808708191,0.17643427848815918,1.6575500965118408
1772811348649345500,5.827345458984375,0.7074681520462036,0.08482161164283752,1.3033499717712402
1772811348659225900,5.837225830078125,0.6968154907226562,0.024634219706058502,0.8713855743408203
1772811348669106400,5.8471064453125,0.6669881343841553,-0.026498429477214813,0.3914843499660492
1772811348678986800,5.85698681640625,0.6062681078910828,-0.08615318685770035,-0.10546109080314636
1772811348688867000,5.8668671875,0.5125249028205872,-0.13781847059726715,-0.5795033574104309
1772811348698747600,5.87674755859375,0.3836280405521393,-0.15379741787910461,-0.9885645508766174
1772811348708628000,5.8866279296875,0.22916480898857117,-0.14154689013957977,-1.3246551752090454
1772811348718508300,5.89650830078125,0.0720384493470192,-0.09254477173089981,-1.589905858039856
1772811348728388900,5.906388916015625,-0.0744352862238884,0.005459475331008434,-1.7970995903015137
1772811348738269200,5.916269287109375,-0.19853848218917847,0.15512900054454803,-1.9536932706832886
1772811348748149500,5.9261494140625,-0.2922816872596741,0.37510591745376587,-2.068209171295166
1772811348758030000,5.936030029296875,-0.34554484486579895,0.6382260322570801,-2.128396511077881
1772811348767910400,5.945910400390625,-0.36791539192199707,0.9040092825889587,-2.1353206634521484
1772811348777791000,5.955791015625,-0.34980592131614685,1.1388999223709106,-2.0761985778808594
1772811348787671300,5.96567138671875,-0.2917490601539612,1.327984094619751,-1.9547585248947144
1772811348797551600,5.975551513671875,-0.21025638282299042,1.469664216041565,-1.8088175058364868
1772811348807432200,5.98543212890625,-0.1074584573507309,1.5623421669006348,-1.6628763675689697
1772811348817312500,5.9953125,0.012383688241243362,1.6299864053726196,-1.527587890625
1772811348827192800,6.00519287109375,0.1375521570444107,1.663009524345398,-1.4077457189559937
1772811348837073400,6.015073486328125,0.27284061908721924,1.6470305919647217,-1.3001540899276733
1772811348846953700,6.02495361328125,0.4294343590736389,1.5751253366470337,-1.1989541053771973
1772811348856834300,6.034834228515625,0.609996497631073,1.4723273515701294,-1.1126677989959717
1772811348866714600,6.044714599609375,0.8054723739624023,1.3311799764633179,-1.0343708992004395
1772811348876595000,6.054594970703125,1.0020134449005127,1.163933515548706,-0.9635308384895325
1772811348886475500,6.0644755859375,1.1980220079421997,0.9924261569976807,-0.8958866000175476
1772811348896355800,6.07435595703125,1.3769862651824951,0.8273102641105652,-0.8298403024673462
1772811348906236200,6.084236083984375,1.5325146913528442,0.6579334139823914,-0.7621960639953613
1772811348916116700,6.09411669921875,1.6667379140853882,0.517318606376648,-0.7041391730308533
1772811348925997000,6.1039970703125,1.7865800857543945,0.41931435465812683,-0.6540718078613281
1772811348935877600,6.113877685546875,1.8947043418884277,0.36179012060165405,-0.6199833750724792
1772811348945758000,6.123758056640625,2.0012307167053223,0.31864693760871887,-0.587492823600769
1772811348955638300,6.13363818359375,2.107757091522217,0.29627642035484314,-0.5523391366004944
1772811348965518800,6.143518798828125,2.2190771102905273,0.29148274660110474,-0.5150549411773682
1772811348975399200,6.153399169921875,2.329331874847412,0.27603641152381897,-0.4724443852901459
1772811348985279500,6.163279541015625,2.4459781646728516,0.254731148481369,-0.41705065965652466
1772811348995160000,6.17316015625,2.5514392852783203,0.22490376234054565,-0.36165696382522583
1772811349005040600,6.18304052734375,2.64784574508667,0.18389111757278442,-0.30466535687446594
1772811349014921200,6.192921142578125,2.7298710346221924,0.1524658352136612,-0.2396842986345291
1772811349024801800,6.2028017578125,2.8033740520477295,0.12423636019229889,-0.16777899861335754
1772811349034682600,6.2126826171875,2.859833002090454,0.11038793623447418,-0.09001477062702179
1772811349044563200,6.222563232421875,2.8976500034332275,0.11624687910079956,-0.004793685860931873
1772811349054443800,6.23244384765625,2.91096568107605,0.13009530305862427,0.09001477062702179
1772811349064324400,6.242324462890625,2.8965847492218018,0.1514005810022354,0.1890842765569687
1772811349074205200,6.252205078125,2.8427889347076416,0.17749953269958496,0.295610636472702
1772811349084085800,6.262085693359375,2.755970001220703,0.2233058661222458,0.3946801424026489
1772811349093966300,6.27196630859375,2.63293194770813,0.2648511528968811,0.4559327960014343
1772811349103847000,6.281846923828125,2.452902317047119,0.29680904746055603,0.4394212067127228
1772811349113727700,6.291727783203125,2.230262279510498,0.39055225253105164,0.3344927430152893
1772811349123608300,6.3016083984375,1.9809906482696533,0.5471459627151489,0.1784316450357437
1772811349133489000,6.311489013671875,1.7391759157180786,0.6989460587501526,0.013315794058144093
1772811349143369500,6.321369384765625,1.5197315216064453,0.823581874370575,-0.1272989958524704
1772811349153250300,6.331250244140625,1.3194620609283447,0.9423587322235107,-0.22477060556411743
1772811349163131000,6.341130859375,1.1410304307937622,1.045689344406128,-0.2743053436279297
1772811349173011500,6.351011474609375,0.9807082414627075,1.1325082778930664,-0.28602325916290283
1772811349182892300,6.360892333984375,0.8257123827934265,1.1884346008300781,-0.2737727165222168
1772811349192772900,6.37077294921875,0.6653902530670166,1.2001525163650513,-0.27110958099365234
1772811349202653400,6.3806533203125,0.48376280069351196,1.1926956176757812,-0.3025348484516144
1772811349212534000,6.390533935546875,0.2755037844181061,1.171390414237976,-0.37497276067733765
1772811349222414600,6.40041455078125,0.056059494614601135,1.117594599723816,-0.47404226660728455
1772811349232295400,6.41029541015625,-0.16285216808319092,1.038232445716858,-0.5816338658332825
1772811349242176000,6.420176025390625,-0.37803539633750916,0.9317061305046082,-0.6838991641998291
1772811349252056600,6.430056640625,-0.577772319316864,0.8038744926452637,-0.767522394657135
1772811349261937200,6.439937255859375,-0.754073441028595,0.6744449734687805,-0.8197202682495117
1772811349271818000,6.44981787109375,-0.9000145196914673,0.5370259881019592,-0.8335686922073364
1772811349281698600,6.459698486328125,-1.027846097946167,0.38629117608070374,-0.8127960562705994
1772811349291579100,6.4695791015625,-1.1460903882980347,0.21957744657993317,-0.7712507843971252
1772811349301460000,6.4794599609375,-1.2574104070663452,0.05499422922730446,-0.7078676223754883
1772811349311340500,6.489340576171875,-1.3516862392425537,-0.1074584573507309,-0.6311686635017395
1772811349321221000,6.49922119140625,-1.4326462745666504,-0.2667153477668762,-0.5512738823890686
1772811349331101700,6.509101806640625,-1.5098779201507568,-0.4078627824783325,-0.4522043764591217
1772811349340982500,6.518982421875,-1.5801852941513062,-0.5399554371833801,-0.33715590834617615
1772811349350863000,6.528863037109375,-1.6329158544540405,-0.6550039052963257,-0.20985691249370575
1772811349360743700,6.53874365234375,-1.6792547702789307,-0.7514102458953857,-0.08575371652841568
1772811349370624300,6.548624267578125,-1.7229305505752563,-0.84675133228302,0.02450106106698513
1772811349380505000,6.558505126953125,-1.7596821784973145,-0.9197219014167786,0.10918951034545898
1772811349390385700,6.5683857421875,-1.7767263650894165,-0.9490166306495667,0.16351795196533203
1772811349400266200,6.578266357421875,-1.7809875011444092,-0.96446293592453,0.1832253336906433
1772811349410146800,6.588146728515625,-1.786313772201538,-0.9878987669944763,0.17310532927513123
1772811349420027600,6.598027587890625,-1.7852485179901123,-1.0209219455718994,0.14008215069770813
1772811349429908200,6.607908203125,-1.7772589921951294,-1.073119878768921,0.0990695059299469
1772811349439788800,6.617788818359375,-1.756486415863037,-1.144492506980896,0.06285054981708527
1772811349449669400,6.62766943359375,-1.7309200763702393,-1.2073431015014648,0.055393703281879425
1772811349459550200,6.63755029296875,-1.7053537368774414,-1.2675304412841797,0.08575371652841568
1772811349469430800,6.6474306640625,-1.665406346321106,-1.325587272644043,0.1693768948316574
1772811349479311400,6.657311279296875,-1.6142736673355103,-1.3681977987289429,0.3067958950996399
1772811349489192000,6.66719189453125,-1.5482274293899536,-1.4145368337631226,0.48735806345939636
1772811349499072800,6.67707275390625,-1.467267394065857,-1.466734766960144,0.6913560032844543
1772811349508953900,6.686953857421875,-1.3809809684753418,-1.497094750404358,0.8953539729118347
1772811349518834700,6.696834716796875,-1.295227289199829,-1.4933663606643677,1.065796136856079
1772811349528715800,6.7067158203125,-1.2153325080871582,-1.4619410037994385,1.200019359588623
1772811349538596900,6.716596923828125,-1.1428946256637573,-1.4262547492980957,1.3022847175598145
1772811349548477700,6.726477783203125,-1.0683261156082153,-1.3889704942703247,1.3779183626174927
1772811349558358800,6.73635888671875,-0.9969534873962402,-1.36766517162323,1.4338446855545044
1772811349568239900,6.746239990234375,-0.9341029524803162,-1.3596757650375366,1.490303635597229
1772811349578120700,6.75612060546875,-0.888829231262207,-1.3863073587417603,1.5510237216949463
1772811349588001800,6.766001708984375,-0.8579366207122803,-1.4369072914123535,1.6053521633148193
1772811349597882600,6.775882568359375,-0.8403597474098206,-1.4976273775100708,1.649560570716858
1772811349607763700,6.785763671875,-0.8403597474098206,-1.5695326328277588,1.678855299949646
1772811349617644800,6.795644775390625,-0.8526102900505066,-1.6552863121032715,1.6937689781188965
1772811349627525600,6.805525634765625,-0.8835029602050781,-1.739442229270935,1.6900405883789062
1772811349637406700,6.81540673828125,-0.9335703253746033,-1.8092169761657715,1.6756595373153687
1772811349647287800,6.825287841796875,-1.005475640296936,-1.8555558919906616,1.6527563333511353
1772811349657168600,6.835168701171875,-1.08217453956604,-1.8699369430541992,1.6234616041183472
1772811349667049700,6.8450498046875,-1.1530146598815918,-1.848631739616394,1.5952321290969849
1772811349676930800,6.854930908203125,-1.2190608978271484,-1.7873790264129639,1.5691331624984741
1772811349686811600,6.864811767578125,-1.2776504755020142,-1.7133432626724243,1.5259900093078613
1772811349696692700,6.874692626953125,-1.3245220184326172,-1.6126757860183716,1.4578131437301636
1772811349706573800,6.88457373046875,-1.3543493747711182,-1.4789851903915405,1.3656678199768066
1772811349716454700,6.89445458984375,-1.3724589347839355,-1.3154672384262085,1.2554130554199219
1772811349726335700,6.904335693359375,-1.3761873245239258,-1.1412967443466187,1.1339730024337769
1772811349736216600,6.914216552734375,-1.362871527671814,-0.9628650546073914,1.0098698139190674
1772811349746097700,6.92409765625,-1.3266525268554688,-0.7759113311767578,0.8926908373832703
1772811349755978800,6.933978759765625,-1.27871572971344,-0.5820333361625671,0.7829686999320984
1772811349765859600,6.943859619140625,-1.2179956436157227,-0.39721015095710754,0.6854971051216125
1772811349775740700,6.95374072265625,-1.1519492864608765,-0.2246374487876892,0.5949496626853943
1772811349785621800,6.963621826171875,-1.077380895614624,-0.08988160640001297,0.5060001611709595
1772811349795502600,6.973502685546875,-1.0283787250518799,-0.04087948799133301,0.3824295997619629
1772811349805383700,6.9833837890625,-1.0241177082061768,-0.04514054208993912,0.18482321500778198
1772811349815264800,6.9932646484375,-1.027313470840454,-0.07603318244218826,-0.1129179298877716
1772811349825145600,7.0031455078125,-1.017726182937622,-0.09520792961120605,-0.4857601523399353
1772811349835026700,7.013026611328125,-0.9676587581634521,-0.08562055230140686,-0.8532760739326477
1772811349844907500,7.022907470703125,-0.892557680606842,-0.05313001945614815,-1.1412967443466187
1772811349854788600,7.03278857421875,-0.8004123568534851,-0.017443690448999405,-1.3048146963119507
1772811349864669700,7.042669677734375,-0.6986796855926514,0.0294279046356678,-1.3367725610733032
1772811349874550500,7.052550537109375,-0.5820333361625671,0.09440898150205612,-1.2494210004806519
1772811349884431600,7.062431640625,-0.4573975205421448,0.15299847722053528,-1.069923996925354
1772811349894312700,7.072312744140625,-0.3295659124851227,0.20572902262210846,-0.8217176795005798
1772811349904193500,7.082193603515625,-0.20759323239326477,0.27124273777008057,-0.5191828012466431
1772811349914074600,7.09207470703125,-0.10586056113243103,0.3362238109111786,-0.1729721575975418
1772811349923955700,7.101955810546875,-0.03235737979412079,0.39854171872138977,0.19347849488258362
1772811349933836500,7.11183642578125,0.0022636849898844957,0.44594594836235046,0.5620596408843994
1772811349943717600,7.121717529296875,-0.0057257916778326035,0.49494805932044983,0.8890955448150635
1772811349953598700,7.1315986328125,-0.04301001504063606,0.5406212210655212,1.1724556684494019
1772811349963479600,7.1414794921875,-0.10000161081552505,0.578970730304718,1.4110746383666992
1772811349973360600,7.151360595703125,-0.1639174222946167,0.5896233320236206,1.5927021503448486
1772811349983241500,7.161241455078125,-0.22250692546367645,0.6034718155860901,1.7141422033309937
1772811349993122600,7.17112255859375,-0.2683132588863373,0.600275993347168,1.7753947973251343
1772811350003003600,7.181003662109375,-0.2960101068019867,0.5604617595672607,1.7640763521194458
1772811350012884700,7.190884765625,-0.3002711534500122,0.508263885974884,1.6623437404632568
1772811350022766000,7.20076611328125,-0.29334694147109985,0.4587291181087494,1.4620741605758667
1772811350032647200,7.210647216796875,-0.2763027250766754,0.40919435024261475,1.170724630355835
1772811350042528300,7.2205283203125,-0.24754060804843903,0.3783017098903656,0.8037413358688354
1772811350052409300,7.230409423828125,-0.21291954815387726,0.3596596121788025,0.38509276509284973
1772811350062290400,7.24029052734375,-0.17883111536502838,0.3442132771015167,-0.06072001904249191
1772811350072171500,7.250171630859375,-0.13888372480869293,0.3266364336013794,-0.5044022798538208
1772811350082052900,7.260052978515625,-0.11065424978733063,0.3223753869533539,-0.9118655920028687
1772811350091934000,7.269933837890625,-0.09946898370981216,0.34261539578437805,-1.2522172927856445
1772811350101815000,7.27981494140625,-0.111719511449337,0.3878890872001648,-1.514804720878601
1772811350111696100,7.289696044921875,-0.1261005699634552,0.4528701603412628,-1.7108131647109985
1772811350121577200,7.2995771484375,-0.13195951282978058,0.53436279296875,-1.8508954048156738
1772811350131458600,7.30945849609375,-0.11278477311134338,0.6302365064620972,-1.9441059827804565
1772811350141339600,7.319339599609375,-0.07656581699848175,0.7277081608772278,-1.9957711696624756
1772811350151220700,7.329220703125,-0.013182636350393295,0.8001460433006287,-2.0005648136138916
1772811350161101800,7.339101806640625,0.06191844120621681,0.8422240018844604,-1.9622154235839844
1772811350170983000,7.34898291015625,0.14927005767822266,0.8555397391319275,-1.8908427953720093
1772811350180864300,7.3588642578125,0.24940481781959534,0.8480829000473022,-1.792838454246521
1772811350190745300,7.368745361328125,0.3511374890804291,0.8230492472648621,-1.6799205541610718
1772811350200626400,7.37862646484375,0.4544680416584015,0.8017439842224121,-1.5632742643356323
1772811350210507500,7.388507568359375,0.5567333698272705,0.7852323651313782,-1.447027325630188
1772811350220388600,7.398388671875,0.65953129529953,0.7506113052368164,-1.3303810358047485
1772811350230269700,7.408269775390625,0.7756450176239014,0.7042723298072815,-1.211071491241455
1772811350240151000,7.418151123046875,0.9056071639060974,0.6568681001663208,-1.08963143825531
1772811350250032000,7.4280322265625,1.0408955812454224,0.6030722856521606,-0.9708545207977295
1772811350259913200,7.437913330078125,1.1932283639907837,0.5641902089118958,-0.8643282055854797
1772811350269794300,7.447794189453125,1.3642030954360962,0.5556681156158447,-0.7753787040710449
1772811350279675400,7.45767529296875,1.5442326068878174,0.5562007427215576,-0.7045386433601379
1772811350289556500,7.467556396484375,1.7162727117538452,0.5482112169265747,-0.6347638964653015
1772811350299437800,7.477437744140625,1.8824537992477417,0.5290365219116211,-0.5660544037818909
1772811350309319000,7.48731884765625,2.02306866645813,0.5183838605880737,-0.4973449110984802
1772811350319200000,7.497199951171875,2.145573854446411,0.5199817419052124,-0.4190480411052704
1772811350329081000,7.5070810546875,2.2579591274261475,0.5289033651351929,-0.3290332853794098
1772811350338962200,7.516962158203125,2.35489821434021,0.524642288684845,-0.22410480678081512
1772811350348843500,7.526843505859375,2.4475760459899902,0.49641281366348267,-0.1170458272099495
1772811350358724600,7.536724609375,2.5269381999969482,0.46924859285354614,-0.011584741063416004
1772811350368605700,7.546605712890625,2.5887234210968018,0.4569980502128601,0.07789739221334457
1772811350378486800,7.55648681640625,2.6387908458709717,0.4335622489452362,0.14980268478393555
1772811350388368000,7.566367919921875,2.68672776222229,0.40852856636047363,0.20999006927013397
1772811350398249200,7.576249267578125,2.7250771522521973,0.38575854897499084,0.26684850454330444
1772811350408130300,7.58613037109375,2.755970001220703,0.3783017098903656,0.325437992811203
1772811350418011400,7.596011474609375,2.7650246620178223,0.3884217143058777,0.3808317184448242
1772811350427892500,7.605892578125,2.7351973056793213,0.39481329917907715,0.4282359480857849
1772811350437773600,7.615773681640625,2.6851298809051514,0.4017375111579895,0.4655201733112335
1772811350447654700,7.625654541015625,2.6041698455810547,0.4171838164329529,0.4894886016845703
1772811350457536000,7.635535888671875,2.5003066062927246,0.4310322403907776,0.4916191101074219
1772811350467417000,7.6454169921875,2.3809971809387207,0.45180490612983704,0.47457489371299744
1772811350477298200,7.655298095703125,2.261154890060425,0.48003438115119934,0.44155174493789673
1772811350487179300,7.66517919921875,2.1397149562835693,0.5157207250595093,0.392549604177475
1772811350497060400,7.675060302734375,2.01188325881958,0.5535375475883484,0.3355579972267151
1772811350506941400,7.68494140625,1.8579527139663696,0.53436279296875,0.2535327076911926
1772811350516822500,7.694822509765625,1.6725969314575195,0.4901543855667114,0.11398319900035858
1772811350526703600,7.70470361328125,1.4781862497329712,0.48908910155296326,-0.0612526535987854
1772811350536584700,7.714584716796875,1.3002872467041016,0.4869585931301117,-0.2407495528459549
1772811350546466000,7.724466064453125,1.15168297290802,0.45127224922180176,-0.38882118463516235
1772811350556347100,7.73434716796875,1.045689344406128,0.39428067207336426,-0.4756401777267456
1772811350566228200,7.744228271484375,0.9839040040969849,0.31119009852409363,-0.4916191101074219
1772811350576109300,7.754109375,0.9444893002510071,0.20999006927013397,-0.4532696306705475
1772811350585990400,7.763990478515625,0.9231839776039124,0.09653950482606888,-0.38029909133911133
1772811350595871500,7.77387158203125,0.8976176977157593,-0.0414121188223362,-0.2934800982475281
1772811350605752600,7.783752685546875,0.8310387134552002,-0.19547586143016815,-0.22676797211170197
1772811350615633700,7.793633544921875,0.7186533808708191,-0.33662328124046326,-0.19321216642856598
1772811350625514800,7.8035146484375,0.5391564965248108,-0.4346275329589844,-0.19800585508346558
1772811350635395800,7.813395751953125,0.29680904746055603,-0.4857601523399353,-0.21025638282299042
1772811350645277200,7.823277099609375,0.006524738855659962,-0.5166528224945068,-0.2198437601327896
1772811350655158300,7.833158203125,-0.32210904359817505,-0.5294359922409058,-0.21664796769618988
1772811350665039400,7.843039306640625,-0.6677870750427246,-0.5294359922409058,-0.21664796769618988
1772811350674920400,7.85292041015625,-1.0065408945083618,-0.52091383934021,-0.23102903366088867
1772811350684801500,7.862801513671875,-1.32505464553833,-0.511859118938446,-0.2773679792881012
1772811350694682600,7.8726826171875,-1.611077904701233,-0.5166528224945068,-0.3535343408584595
1772811350704563700,7.882563720703125,-1.858751654624939,-0.5262401700019836,-0.44940805435180664
1772811350714444800,7.89244482421875,-2.0579559803009033,-0.524642288684845,-0.5495428442955017
1772811350724326000,7.902325927734375,-2.228398084640503,-0.503337025642395,-0.6438186168670654
1772811350734207000,7.91220703125,-2.3748719692230225,-0.4628570079803467,-0.7151913046836853
1772811350744088000,7.922088134765625,-2.490985631942749,-0.4293012022972107,-0.7673892378807068
1772811350753969200,7.93196923828125,-2.5735435485839844,-0.40852856636047363,-0.7950860857963562
1772811350763850200,7.941850341796875,-2.643850803375244,-0.40213698148727417,-0.808401882648468
1772811350773731600,7.951731689453125,-2.6928529739379883,-0.39734330773353577,-0.8158587217330933
1772811350783612700,7.96161279296875,-2.718419313430786,-0.38935381174087524,-0.8110650181770325
1772811350793493800,7.97149365234375,-2.7258760929107666,-0.3877559304237366,-0.7828355431556702
1772811350803374800,7.981374755859375,-2.714158296585083,-0.40147119760513306,-0.7151913046836853
1772811350813256000,7.991255859375,-2.669949769973755,-0.4217112064361572,-0.5910881161689758
1772811350823137000,8.001136962890625,-2.60603404045105,-0.4557996392250061,-0.42131173610687256
1772811350833018000,8.01101806640625,-2.525074005126953,-0.4797680675983429,-0.22530323266983032
1772811350842899200,8.020899169921876,-2.42067813873291,-0.4707133173942566,-0.023435797542333603
1772811350852780300,8.0307802734375,-2.2960424423217773,-0.445679634809494,0.14274531602859497
1772811350862661400,8.040661376953125,-2.1554276943206787,-0.4185154139995575,0.260456919670105
1772811350872542500,8.05054248046875,-2.0062906742095947,-0.3673827648162842,0.32277485728263855
1772811350882423600,8.060423583984376,-1.8571537733078003,-0.25499746203422546,0.3334274888038635
1772811350892304600,8.0703046875,-1.7042884826660156,-0.05739107355475426,0.29401272535324097
1772811350902186000,8.08018603515625,-1.5599452257156372,0.18282584846019745,0.23915165662765503
1772811350912067000,8.090067138671875,-1.4401031732559204,0.42357540130615234,0.21092218160629272
1772811350921948200,8.0999482421875,-1.3463599681854248,0.6195839047431946,0.2258358597755432
1772811350931829200,8.109829345703124,-1.2792483568191528,0.7868302464485168,0.26205483078956604
1772811350941710300,8.11971044921875,-1.2382357120513916,0.9418261051177979,0.3009369373321533
1772811350951591400,8.12959130859375,-1.241431474685669,1.0611356496810913,0.3435474932193756
1772811350961472500,8.139472412109376,-1.2797809839248657,1.1165293455123901,0.39361485838890076
1772811350971353600,8.149353515625,-1.3420988321304321,1.1181272268295288,0.4623243808746338
1772811350981234700,8.159234619140625,-1.4108083248138428,1.0792450904846191,0.5406212210655212
1772811350991115800,8.16911572265625,-1.4747241735458374,1.0238513946533203,0.612526535987854
1772811351000996600,8.17899658203125,-1.5327810049057007,0.9594029784202576,0.6700507402420044
1772811351010877200,8.188877197265626,-1.5961642265319824,0.8731166124343872,0.7186533808708191
1772811351020757800,8.1987578125,-1.6552863121032715,0.7676555514335632,0.7623292207717896
1772811351030638300,8.208638427734375,-1.6872442960739136,0.6334323287010193,0.8102660775184631
1772811351040519000,8.218518798828125,-1.7154737710952759,0.4629901647567749,0.8651271462440491
1772811351050399500,8.2283994140625,-1.7346484661102295,0.2371542900800705,0.9274450540542603
1772811351060279800,8.23827978515625,-1.7410401105880737,-0.00519315991550684,0.9945566654205322
1772811351070160400,8.248160400390624,-1.756486415863037,-0.24700798094272614,1.0696576833724976
1772811351080041000,8.258041015625,-1.782052755355835,-0.5032038688659668,1.1404978036880493
1772811351089921500,8.267921630859375,-1.7953685522079468,-0.7492797374725342,1.218261957168579
1772811351099802000,8.277802001953125,-1.8220001459121704,-0.9554082155227661,1.293363094329834
1772811351109682700,8.2876826171875,-1.8640780448913574,-1.1333072185516357,1.3423651456832886
1772811351119563300,8.297563232421876,-1.8821874856948853,-1.2515515089035034,1.3759210109710693
1772811351129443800,8.30744384765625,-1.8752633333206177,-1.3026841878890991,1.3993568420410156
1772811351139324400,8.317324462890625,-1.8454358577728271,-1.301086187362671,1.39456307888031
1772811351149205000,8.327205078125,-1.7889769077301025,-1.2478231191635132,1.3642030954360962
1772811351159085600,8.33708544921875,-1.695233702659607,-1.143959879875183,1.2965588569641113
1772811351168966000,8.3469658203125,-1.5567494630813599,-1.0070735216140747,1.2022830247879028
1772811351178846500,8.356846435546874,-1.3772525787353516,-0.8355661034584045,1.0781798362731934
1772811351188727000,8.36672705078125,-1.1530146598815918,-0.6454165577888489,0.9327713847160339
1772811351198607600,8.376607666015625,-0.8909597992897034,-0.4472775161266327,0.7857649922370911
1772811351208488200,8.38648828125,-0.5985449552536011,-0.2544648349285126,0.6371607184410095
1772811351218368800,8.39636865234375,-0.28908589482307434,-0.0744352862238884,0.5024049282073975
1772811351228249300,8.406249267578126,0.011851056478917599,0.08269108086824417,0.3964111804962158
1772811351238130000,8.4161298828125,0.28615641593933105,0.18335849046707153,0.3277016878128052
1772811351248010500,8.426010498046875,0.4997417628765106,0.2126532346010208,0.2973416745662689
1772811351257890800,8.435890869140625,0.6297038793563843,0.15033531188964844,0.27710166573524475
1772811351267771400,8.445771484375,0.6989460587501526,0.06671212613582611,0.22064270079135895
1772811351277652000,8.45565185546875,0.7623292207717896,0.02090579643845558,0.14074794948101044
1772811351287532500,8.465532470703126,0.8715187311172485,-0.0552605465054512,0.06191844120621681
1772811351297413000,8.4754130859375,1.003611445426941,-0.17989638447761536,-0.011584741063416004
1772811351307293700,8.485293701171875,1.1463567018508911,-0.3093259036540985,-0.09733845293521881
1772811351317174300,8.49517431640625,1.3269188404083252,-0.41159120202064514,-0.1964079588651657
1772811351327054800,8.505054931640625,1.5309168100357056,-0.4707133173942566,-0.2768353521823883
1772811351336935400,8.514935302734376,1.7189358472824097,-0.5303680896759033,-0.32104378938674927
1772811351346815700,8.524815673828124,1.886182188987732,-0.5761744379997253,-0.3247722089290619
1772811351356696300,8.5346962890625,2.0305254459381104,-0.5490102171897888,-0.30293431878089905
1772811351366577000,8.544576904296875,2.1450412273406982,-0.43555963039398193,-0.26991114020347595
1772811351376457500,8.55445751953125,2.216413974761963,-0.23529008030891418,-0.22250692546367645
1772811351386338000,8.564338134765626,2.225468635559082,0.015579478815197945,-0.1548626869916916
1772811351396218600,8.574218505859376,2.1674118041992188,0.2691121995449066,-0.07550055533647537
1772811351406099200,8.58409912109375,2.060885429382324,0.4810996353626251,0.01704421639442444
1772811351415979800,8.593979736328125,1.9271948337554932,0.6302365064620972,0.1225053071975708
1772811351425860400,8.6038603515625,1.7993632555007935,0.689358651638031,0.2359558641910553
1772811351435741000,8.613740966796875,1.7013590335845947,0.6696512699127197,0.339819073677063
1772811351445621500,8.62362158203125,1.6385084390640259,0.5998765230178833,0.42663803696632385
1772811351455501800,8.633501708984374,1.6150726079940796,0.48482805490493774,0.48735806345939636
1772811351465382400,8.64338232421875,1.6230621337890625,0.3601922392845154,0.5102612376213074
1772811351475263000,8.653262939453125,1.6587485074996948,0.2376869171857834,0.4799012243747711
1772811351485143600,8.6631435546875,1.7141422033309937,0.11358372122049332,0.38882118463516235
1772811351495024000,8.673024169921876,1.7908411026000977,-0.006258423440158367,0.23169481754302979
1772811351504905000,8.682905029296874,1.8792580366134644,-0.09627319127321243,0.019174743443727493
1772811351514786000,8.6927861328125,1.9831211566925049,-0.1452753096818924,-0.23648850619792938
1772811351524667000,8.7026669921875,2.0853865146636963,-0.14793847501277924,-0.52091383934021
1772811351534547700,8.712547607421875,2.166346549987793,-0.10639319568872452,-0.7856318354606628
1772811351544428800,8.7224287109375,2.231327533721924,-0.038216330111026764,-0.9997498393058777
1772811351554309600,8.7323095703125,2.2781991958618164,0.048602648079395294,-1.1680614948272705
1772811351564190700,8.742190673828125,2.3037655353546143,0.165781632065773,-1.2820446491241455
1772811351574071600,8.752071533203125,2.3128201961517334,0.27763429284095764,-1.356613039970398
1772811351583952400,8.761952392578126,2.300569772720337,0.3793669641017914,-1.3896362781524658
1772811351593833500,8.77183349609375,2.2691445350646973,0.4773712158203125,-1.376853108406067
1772811351603714300,8.78171435546875,2.2174792289733887,0.5695165395736694,-1.314002513885498
1772811351613595100,8.79159521484375,2.146639108657837,0.6462154984474182,-1.2037477493286133
1772811351623476200,8.801476318359375,2.0603528022766113,0.6968154907226562,-1.0508824586868286
1772811351633357000,8.811357177734376,1.9511632919311523,0.735164999961853,-0.8719182014465332
1772811351643238000,8.82123779296875,1.8275927305221558,0.7788407802581787,-0.684431791305542
1772811351653119000,8.831118896484375,1.7018916606903076,0.8065376281738281,-0.5278380513191223
1772811351662999800,8.840999755859375,1.5804516077041626,0.8337018489837646,-0.4138548672199249
1772811351672880600,8.850880615234376,1.4776536226272583,0.8768450617790222,-0.34727591276168823
1772811351682761700,8.86076171875,1.4009547233581543,0.9263797998428345,-0.306263267993927
1772811351692642600,8.870642578125,1.335440993309021,0.9684576988220215,-0.2679137885570526
1772811351702523600,8.880523681640625,1.2720577716827393,1.000948190689087,-0.23755376040935516
1772811351712404500,8.890404541015625,1.2097399234771729,1.0297104120254517,-0.21411797404289246
1772811351722285300,8.900285400390626,1.1452914476394653,1.0568746328353882,-0.19973690807819366
1772811351732166400,8.91016650390625,1.0787124633789062,1.067527174949646,-0.19707375764846802
1772811351742047200,8.920047119140625,1.0121334791183472,1.067527174949646,-0.20133480429649353
1772811351751928000,8.929927978515625,0.9391629695892334,1.0494177341461182,-0.2029327005147934
1772811351761809200,8.93980908203125,0.8683229088783264,1.0147966146469116,-0.20133480429649353
1772811351771690000,8.94968994140625,0.8028092384338379,0.9721861481666565,-0.1938779652118683
1772811351781571000,8.959571044921875,0.7410239577293396,0.9242492914199829,-0.1747032105922699
1772811351791452000,8.969451904296875,0.6739123463630676,0.8582029342651367,-0.1597895324230194
1772811351801332700,8.979332763671875,0.6281059980392456,0.8049397468566895,-0.13848425447940826
1772811351811213800,8.9892138671875,0.580169141292572,0.7468829154968262,-0.11558109521865845
1772811351821094700,8.9990947265625,0.5279712080955505,0.6733797192573547,-0.09853687882423401
1772811351830975500,9.0089755859375,0.46991437673568726,0.6078659892082214,-0.07669897377490997
1772811351840856600,9.018856689453125,0.4107922613620758,0.5423523187637329,-0.054861072450876236
1772811351850737400,9.0287373046875,0.3548659086227417,0.4864259660243988,-0.03728422522544861
1772811351860618200,9.0386181640625,0.30479851365089417,0.4550006687641144,-0.021305270493030548
1772811351870499300,9.048499267578125,0.2557964026927948,0.4390217363834381,0.0026631588116288185
1772811351880380200,9.058380126953125,0.20519638061523438,0.42357540130615234,0.034621063619852066
1772811351890261200,9.06826123046875,0.15459637343883514,0.4107922613620758,0.0756337121129036
1772811351900142000,9.07814208984375,0.09707213938236237,0.40386801958084106,0.11558109521865845
1772811351910023000,9.08802294921875,0.0342215895652771,0.39428067207336426,0.14913690090179443
1772811351919904000,9.097904052734375,-0.03715106472373009,0.37031224370002747,0.1597895324230194
1772811351929784800,9.107784912109375,-0.13835109770298004,0.3213101029396057,0.12037477642297745
1772811351939665700,9.117665771484376,-0.24541008472442627,0.30000483989715576,0.03834948688745499
1772811351949546800,9.127546630859374,-0.33595749735832214,0.30959221720695496,-0.06285054981708527
1772811351959427600,9.137427490234375,-0.4126564562320709,0.3069290518760681,-0.15925689041614532
1772811351969308400,9.147308349609375,-0.4611259400844574,0.2755037844181061,-0.2269011288881302
1772811351979189500,9.157189453125,-0.4829638600349426,0.22809955477714539,-0.24607586860656738
1772811351989070300,9.1670703125,-0.502138614654541,0.17749953269958496,-0.22477060556411743
1772811351998951200,9.176951171875,-0.540488064289093,0.11145319789648056,-0.18535585701465607
1772811352008831500,9.18683154296875,-0.6177197098731995,0.044341593980789185,-0.16724637150764465
1772811352018712000,9.196712158203125,-0.7530081272125244,-0.009986845776438713,-0.18748638033866882
1772811352028592600,9.206592529296875,-0.9319724440574646,-0.05153212323784828,-0.24767376482486725
1772811352048353500,9.226353515625,-1.3900357484817505,-0.03874896094202995,-0.4042675197124481
1772811352058234000,9.236234130859375,-1.6036211252212524,-0.01584579423069954,-0.457530677318573
1772811352068114400,9.246114501953125,-1.7857811450958252,-0.0014647373463958502,-0.4772380590438843
1772811352077995000,9.2559951171875,-1.942907452583313,-0.0073236869648098946,-0.4660528004169464
1772811352087875300,9.265875244140625,-2.0776634216308594,-0.0414121188223362,-0.438355952501297
1772811352097756000,9.275755859375,-2.18898344039917,-0.09201213717460632,-0.41225698590278625
1772811352107636500,9.285636474609374,-2.2885854244232178,-0.1633847951889038,-0.40266960859298706
1772811352117516800,9.295516845703125,-2.382328748703003,-0.23369218409061432,-0.40266960859298706
1772811352127397400,9.3053974609375,-2.471810817718506,-0.28961852192878723,-0.40320223569869995
1772811352137278000,9.31527783203125,-2.570347785949707,-0.2773679792881012,-0.3680485486984253
1772811352147158300,9.325158203125,-2.649709939956665,-0.22623534500598907,-0.29401272535324097
1772811352157038800,9.335038818359376,-2.718419313430786,-0.09627319127321243,-0.21518322825431824
1772811352166919400,9.34491943359375,-2.8057708740234375,0.08002792298793793,-0.1411474198102951
1772811352176799700,9.3547998046875,-2.9197542667388916,0.2893522083759308,-0.07350318133831024
1772811352186680300,9.364680419921875,-3.0193562507629395,0.5183838605880737,-0.009587371721863747
1772811352196560600,9.374560546875,-3.0923268795013428,0.7926892042160034,0.0330231711268425
1772811352206441200,9.384441162109376,-3.136535406112671,1.1058766841888428,0.06924212723970413
1772811352216321800,9.39432177734375,-3.1834068298339844,1.4094767570495605,0.09321055561304092
1772811352226202000,9.4042021484375,-3.2286806106567383,1.6539547443389893,0.12090741097927094
1772811352236082700,9.414082763671875,-3.240398406982422,1.830788493156433,0.16724637150764465
1772811352245963300,9.42396337890625,-3.2185606956481934,1.9362496137619019,0.2221074402332306
1772811352255843600,9.433843505859375,-3.196190118789673,2.006556987762451,0.27590325474739075
1772811352265724200,9.44372412109375,-3.1924617290496826,2.0757992267608643,0.29827380180358887
1772811352275604700,9.453604736328124,-3.19938588142395,2.161020278930664,0.29081693291664124
1772811352285485000,9.463485107421874,-3.224419593811035,2.2883191108703613,0.26418536901474
1772811352295365600,9.47336572265625,-3.2574427127838135,2.468348741531372,0.2359558641910553
1772811352305246000,9.483245849609375,-3.2782154083251953,2.6888582706451416,0.21358533203601837
1772811352315126500,9.49312646484375,-3.289933204650879,2.9359993934631348,0.20879164338111877
1772811352325007000,9.503007080078126,-3.293661594390869,3.1847383975982666,0.2167811244726181
1772811352334887400,9.512887451171874,-3.2808785438537598,3.43560791015625,0.21358533203601837
1772811352344768000,9.52276806640625,-3.265432119369507,3.7200334072113037,0.1837579607963562
1772811352354648600,9.532648681640625,-3.2515838146209717,4.051863193511963,0.1608547866344452
1772811352364529000,9.54252880859375,-3.2238869667053223,4.416182994842529,0.07403581589460373
1772811352374409500,9.552409423828125,-3.105642557144165,4.7229790687561035,0.10013477504253387
1772811352384289800,9.562289794921876,-2.8861982822418213,4.767187595367432,0.22477060556411743
1772811352394170400,9.57217041015625,-2.5282697677612305,4.669183254241943,0.3861580193042755
1772811352404051000,9.582051025390625,-2.173537015914917,4.630300998687744,0.5560675859451294
1772811352413931300,9.59193115234375,-1.9178738594055176,4.726174831390381,0.705204427242279
1772811352423811800,9.601811767578125,-1.7437032461166382,4.90939998626709,0.8388950228691101
1772811352433692400,9.6116923828125,-1.5599452257156372,4.961597919464111,0.9997498393058777
1772811352443572700,9.62157275390625,-1.4065473079681396,4.841223239898682,1.1318424940109253
1772811352453453300,9.631453369140624,-1.3415662050247192,4.594614505767822,1.212269902229309
1772811352463333600,9.641333740234375,-1.3740568161010742,4.257991313934326,1.279914140701294
1772811352473214200,9.651214111328125,-1.4582126140594482,3.892073392868042,1.3608741760253906
1772811352483094800,9.6610947265625,-1.5050841569900513,3.544264793395996,1.4705963134765625
1772811352492975000,9.67097509765625,-1.5024210214614868,3.4388039112091064,1.6133415699005127
1772811352502856000,9.68085595703125,-1.4273200035095215,3.3929975032806396,1.758750081062317
1772811352512736800,9.69073681640625,-1.303749442100525,3.351984739303589,1.8860490322113037
1772811352522617600,9.70061767578125,-1.157275676727295,3.3184289932250977,1.984053373336792
1772811352532498400,9.71049853515625,-0.9926924705505371,3.2497196197509766,2.0415775775909424
1772811352542379300,9.720379150390626,-0.8147934675216675,3.1362690925598145,2.0469038486480713
1772811352552260000,9.730260009765624,-0.6203828454017639,2.9865994453430176,1.9979017972946167
1772811352562141000,9.740140869140625,-0.410525918006897,2.8236141204833984,1.9334533214569092
1772811352572021800,9.750021728515625,-0.21718059480190277,2.626540422439575,1.8695374727249146
1772811352581902600,9.759902587890625,-0.08988160640001297,2.437988758087158,1.8290574550628662
1772811352591783400,9.769783447265626,-0.01584579423069954,2.256361246109009,1.7624784708023071
1772811352601664300,9.779664306640624,0.028895273804664612,2.106691837310791,1.6474300622940063
1772811352611545000,9.789545166015625,0.07363633811473846,2.007622241973877,1.5041520595550537
1772811352621426000,9.799426025390625,0.12689951062202454,1.96554434299469,1.3704615831375122
1772811352631306800,9.809306640625,0.1753690093755722,1.8654096126556396,1.2703267335891724
1772811352641187600,9.8191875,0.1940111219882965,1.6912389993667603,1.1936278343200684
1772811352651068400,9.829068359375,0.17749953269958496,1.473925232887268,1.1195919513702393
1772811352660949200,9.83894921875,0.17004269361495972,1.2741882801055908,1.0178593397140503
1772811352670830000,9.848830078125,0.16258583962917328,1.2235883474349976,0.9123982191085815
1772811352680711000,9.8587109375,0.1663142740726471,1.1745861768722534,0.8037413358688354
1772811352690591700,9.868591796875,0.1620532125234604,1.1266493797302246,0.7158570885658264
1772811352700472600,9.87847265625,0.12317109853029251,1.1426283121109009,0.6865623593330383
1772811352710353400,9.888353515625,0.047537386417388916,1.1910977363586426,0.6972149610519409
1772811352720234200,9.898234130859375,-0.017443690448999405,1.2102725505828857,0.7403581738471985
1772811352730115000,9.908114990234376,-0.03289001062512398,1.1905651092529297,0.7909581661224365
1772811352739996000,9.917995849609374,0.010785792954266071,1.1634008884429932,0.8351665735244751
1772811352749876700,9.927876708984375,0.08908266574144363,1.1367692947387695,0.8436887264251709
1772811352759757600,9.937757568359375,0.17430374026298523,1.1314430236816406,0.7962844967842102
1772811352769638400,9.947638427734375,0.2691121995449066,1.1181272268295288,0.7020086646080017
1772811352779519500,9.95751953125,0.3506048619747162,1.0792450904846191,0.5933517813682556
1772811352789400300,9.967400390625,0.4017375111579895,1.0717883110046387,0.46019384264945984
1772811352799281200,9.97728125,0.4358259439468384,1.025449275970459,0.3195790648460388
1772811352809162000,9.987161865234375,0.48482805490493774,0.9370324015617371,0.2119874358177185
1772811352819042800,9.997042724609376,0.5540701746940613,0.8374302983283997,0.16618111729621887
1772811352828923600,10.006923583984374,0.6286386251449585,0.6984133720397949,0.174170583486557
1772811352838804500,10.016804443359375,0.6728470921516418,0.550341784954071,0.2071937620639801
1772811352848685300,10.026685302734375,0.655802845954895,0.448076456785202,0.21997691690921783
1772811352858566100,10.036566162109375,0.5908218026161194,0.4203796088695526,0.19920428097248077
1772811352868447000,10.046447021484376,0.481632262468338,0.4198469817638397,0.14700636267662048
1772811352878327800,10.056327880859374,0.3394196033477783,0.4390217363834381,0.07350318133831024
1772811352898089500,10.07608935546875,0.003328948514536023,0.5364933609962463,-0.029827378690242767
1772811352907970300,10.08597021484375,-0.16231952607631683,0.6073333621025085,-0.015446321107447147
1772811352917851100,10.09585107421875,-0.282161682844162,0.7064028978347778,0.04580633342266083
1772811352927732000,10.10573193359375,-0.37377434968948364,0.8582029342651367,0.14753900468349457
1772811352937612800,10.11561279296875,-0.44514700770378113,0.9135966300964355,0.20999006927013397
1772811352947493600,10.12549365234375,-0.5032038688659668,0.9040092825889587,0.2179795503616333
1772811352957374500,10.13537451171875,-0.574043869972229,0.9359671473503113,0.17963005602359772
1772811352967255300,10.14525537109375,-0.6054691672325134,0.8512787222862244,0.12104056775569916
1772811352977136000,10.15513623046875,-0.5681849122047424,0.743687093257904,0.09973529726266861
1772811352996897800,10.174897705078125,-0.3620564341545105,0.6877607703208923,0.020373165607452393
1772811353006778600,10.184778564453126,-0.2299637645483017,0.7111965417861938,-0.05805686116218567
1772811353016659500,10.194659423828124,-0.07283739000558853,0.7676555514335632,-0.1363537311553955
1772811353026540300,10.204540283203125,0.11464899033308029,0.8038744926452637,-0.19174742698669434
1772811353036421000,10.214421142578125,0.3079943060874939,0.7740471363067627,-0.21145480871200562
1772811353046302000,10.224302001953125,0.4683164656162262,0.664324939250946,-0.19494321942329407
1772811353056183000,10.23418310546875,0.5817670226097107,0.5439502000808716,-0.1464737355709076
1772811353066064000,10.24406396484375,0.6739123463630676,0.33728906512260437,-0.070840023458004
1772811353075944700,10.25394482421875,0.7202513217926025,0.14607426524162292,0.018109479919075966
1772811353085825500,10.263825439453125,0.6845649480819702,0.023568956181406975,0.06391581147909164
1772811353095706400,10.273706298828126,0.6169207096099854,-0.04886896535754204,0.11078740656375885
1772811353105587200,10.283587158203124,0.5396891236305237,-0.06165212765336037,0.15393057465553284
1772811353115468000,10.293468017578125,0.4672512114048004,-0.03555316850543022,0.1832253336906433
1772811353125348900,10.303348876953125,0.39854171872138977,0.04647212103009224,0.1976063847541809
1772811353135229700,10.313229736328125,0.3506048619747162,0.11944267153739929,0.2125200778245926
1772811353145110800,10.32311083984375,0.3213101029396057,0.2131858617067337,0.2407495528459549
1772811353164872400,10.34287255859375,0.2792322039604187,0.40972697734832764,0.2929474711418152
1772811353174753300,10.352753173828125,0.27177536487579346,0.5205143690109253,0.3249053657054901
1772811353184634000,10.362634033203125,0.26751428842544556,0.6201165318489075,0.3765706419944763
1772811353194515000,10.372514892578126,0.26165536046028137,0.6664555072784424,0.4293012022972107
1772811353204395800,10.382395751953124,0.29627642035484314,0.6419544219970703,0.4159854054450989
1772811353214276900,10.39227685546875,0.3175816833972931,0.41878172755241394,0.3078611493110657
1772811353234038500,10.41203857421875,0.3356911540031433,0.5301017761230469,-0.07510107755661011
1772811353243919400,10.42191943359375,0.39428067207336426,0.6515418291091919,-0.11664635688066483
1772811353253800200,10.43180029296875,0.46032699942588806,0.7181207537651062,-0.06870950013399124
1772811353263681000,10.441680908203125,0.5769733786582947,0.710663914680481,0.026631588116288185
1772811353273561900,10.451561767578125,0.6909565329551697,0.6281059980392456,0.15339794754981995
1772811353283442700,10.461442626953126,0.7474155426025391,0.46032699942588806,0.2790990471839905
1772811353293323500,10.471323486328124,0.7378281354904175,0.2744385302066803,0.3526022136211395
1772811353303204400,10.481204345703125,0.6861628890037537,0.1290300488471985,0.3829622268676758
1772811353313085400,10.49108544921875,0.6217144131660461,0.04647212103009224,0.37976643443107605
1772811353322966300,10.50096630859375,0.5386238694190979,0.035286854952573776,0.35153695940971375
1772811353332847000,10.51084716796875,0.448076456785202,0.07470160722732544,0.3440801203250885
1772811353342728000,10.52072802734375,0.37244275212287903,0.1471395194530487,0.3691138029098511
1772811353352608800,10.53060888671875,0.3314301073551178,0.2366216629743576,0.4234422445297241
1772811353362489600,10.540489501953125,0.3308974802494049,0.3069290518760681,0.4772380590438843
1772811353372370400,10.550370361328126,0.3559311628341675,0.3687143325805664,0.5044022798538208
1772811353382251300,10.560251220703124,0.3783017098903656,0.39374804496765137,0.5102612376213074
1772811353392132000,10.570132080078125,0.38469329476356506,0.38629117608070374,0.4953475296497345
1772811353402013200,10.58001318359375,0.3735080361366272,0.35167011618614197,0.4719117283821106
1772811353411894000,10.58989404296875,0.33835431933403015,0.3085269629955292,0.4431496262550354
1772811353421774800,10.59977490234375,0.3026680052280426,0.2467416673898697,0.4016043543815613
1772811353431655700,10.60965576171875,0.27230799198150635,0.20626164972782135,0.3488737940788269
1772811353441536500,10.61953662109375,0.2419479787349701,0.18176059424877167,0.2886864244937897
1772811353451417300,10.629417236328125,0.22543638944625854,0.16737952828407288,0.2354232370853424
1772811353461298200,10.639298095703126,0.23395849764347076,0.156194269657135,0.1976063847541809
1772811353471179300,10.64917919921875,0.2840258777141571,0.12636688351631165,0.17576847970485687
1772811353481060000,10.65906005859375,0.38043224811553955,0.07363633811473846,0.17217321693897247
