time,seconds_elapsed,z,y,x
1772811167648395000,0.17739501953125,-0.10479529947042465,-0.28961852192878723,-0.5218459963798523
1772811167658275000,0.187275146484375,-0.1878858506679535,-0.35886064171791077,-0.6336986422538757
1772811167668155400,0.1971552734375,-0.25553008913993835,-0.49095332622528076,-0.758867084980011
1772811167678035500,0.207035400390625,-0.2810963988304138,-0.628372311592102,-0.850479781627655
1772811167687915500,0.21691552734375,-0.2773679792881012,-0.7370291948318481,-0.9170587658882141
1772811167697795600,0.226795654296875,-0.25979113578796387,-0.7775092124938965,-0.9719198346138
1772811167707676000,0.236676025390625,-0.2523342967033386,-0.7823029160499573,-1.0171935558319092
1772811167717556000,0.246555908203125,-0.2523342967033386,-0.7103976011276245,-0.9863008856773376
1772811167727436000,0.25643603515625,-0.22623534500598907,-0.678439736366272,-0.9580714106559753
1772811167737316000,0.266316162109375,-0.16604794561862946,-0.7274418473243713,-1.0970882177352905
1772811167747196400,0.276196533203125,-0.04460791125893593,-0.7950860857963562,-1.362338900566101
1772811167757076500,0.286076416015625,0.13435636460781097,-0.8611323833465576,-1.689907431602478
1772811167766956500,0.29595654296875,0.3825627565383911,-0.905340850353241,-2.0068233013153076
1772811167776836900,0.3058369140625,0.7058702707290649,-0.8318376541137695,-2.2054948806762695
1772811167786717000,0.315717041015625,0.970588207244873,-0.8568713665008545,-2.302966594696045
1772811167796597000,0.325596923828125,1.0680598020553589,-1.1120020151138306,-2.332793951034546
1772811167806477000,0.33547705078125,1.0888324975967407,-1.3809809684753418,-2.2315938472747803
1772811167816357400,0.345357421875,1.1431609392166138,-1.6339811086654663,-2.0030949115753174
1772811167826237400,0.355237548828125,1.2422304153442383,-1.9306570291519165,-1.774063229560852
1772811167836117500,0.365117431640625,1.3215925693511963,-2.1921792030334473,-1.6488947868347168
1772811167845997600,0.37499755859375,1.3535504341125488,-2.362088680267334,-1.6377094984054565
1772811167855878000,0.3848779296875,1.3631378412246704,-2.5138888359069824,-1.707484245300293
1772811167865758000,0.394758056640625,1.3791167736053467,-2.629469871520996,-1.8012274503707886
1772811167875638000,0.404637939453125,1.419596791267395,-2.768486738204956,-1.890709638595581
1772811167885518000,0.41451806640625,1.4611420631408691,-2.9357330799102783,-1.9572886228561401
1772811167895398400,0.4243984375,1.5271884202957153,-3.180211067199707,-2.008953809738159
1772811167905278500,0.434278564453125,1.6278557777404785,-3.3948616981506348,-2.0813918113708496
1772811167915158500,0.444158447265625,1.7993632555007935,-3.622295379638672,-2.2715413570404053
1772811167925038600,0.45403857421875,1.928260087966919,-3.6180343627929688,-2.614023447036743
1772811167934919000,0.4639189453125,1.994839072227478,-3.498192310333252,-3.1099038124084473
1772811167944799000,0.473799072265625,1.960218071937561,-3.091261625289917,-3.6057839393615723
1772811167954679000,0.483678955078125,1.918140172958374,-2.8090999126434326,-4.108588218688965
1772811167964559400,0.493559326171875,1.8467674255371094,-2.6273393630981445,-4.542150497436523
1772811167974439400,0.503439453125,1.8467674255371094,-2.7865962982177734,-4.981039047241211
1772811167984319500,0.513319580078125,1.7988306283950806,-3.343196392059326,-5.153611660003662
1772811167994199600,0.523199462890625,1.7226642370224,-3.601522922515869,-5.191961288452148
1772811168004080600,0.53308056640625,1.754622220993042,-3.6942007541656494,-5.302216053009033
1772811168013961700,0.542961669921875,1.7865800857543945,-3.5551838874816895,-5.519529819488525
1772811168023842800,0.5528427734375,1.8121464252471924,-3.1876678466796875,-5.831119537353516
1772811168033724200,0.56272412109375,1.873399019241333,-2.729604721069336,-6.201298236846924
1772811168043605200,0.572605224609375,1.9522285461425781,-2.3786003589630127,-6.568814277648926
1772811168053486300,0.582486328125,2.0145463943481445,-2.262486457824707,-6.799976348876953
1772811168063367400,0.592367431640625,2.0805928707122803,-2.4089603424072266,-6.835662841796875
1772811168073248800,0.602248779296875,2.181260108947754,-2.789792060852051,-6.623675346374512
1772811168083129900,0.6121298828125,2.3234729766845703,-3.3724911212921143,-6.146437168121338
1772811168093011000,0.622010986328125,2.507763385772705,-4.087283134460449,-5.413003444671631
1772811168102892000,0.63189208984375,2.7048373222351074,-4.689157009124756,-4.476104259490967
1772811168112773400,0.6417734375,2.885931968688965,-5.082372188568115,-3.4358742237091064
1772811168122654500,0.651654541015625,3.0569069385528564,-5.328314781188965,-2.417482376098633
1772811168132535600,0.66153564453125,3.1421279907226562,-5.27185583114624,-1.4949642419815063
1772811168142416600,0.671416748046875,3.157041549682617,-4.8835673332214355,-0.7578018307685852
1772811168152298000,0.681298095703125,3.1011152267456055,-4.355729579925537,-0.21451744437217712
1772811168162179000,0.691178955078125,3.0158941745758057,-3.9274935722351074,0.1988048106431961
1772811168172060200,0.70106005859375,2.929075241088867,-3.6633081436157227,0.5119922757148743
1772811168181941500,0.71094140625,2.856104612350464,-3.511507987976074,0.7111965417861938
1772811168191822600,0.720822509765625,2.79059100151062,-3.5290849208831787,0.8123965859413147
1772811168211584800,0.740584716796875,2.7698183059692383,-3.7336153984069824,0.6872281432151794
1772811168221465900,0.7504658203125,2.782068967819214,-3.677156448364258,0.462457537651062
1772811168231347200,0.76034716796875,2.7698183059692383,-3.4902026653289795,0.19081532955169678
1772811168241228300,0.770228271484375,2.7335994243621826,-3.2506515979766846,-0.08775108307600021
1772811168251109400,0.780109375,2.6558351516723633,-2.9144277572631836,-0.29334694147109985
1772811168260990700,0.78999072265625,2.5157530307769775,-2.387655019760132,-0.4552670121192932
1772811168270871800,0.799871826171875,2.415085554122925,-1.9146779775619507,-0.6166543960571289
1772811168280753000,0.8097529296875,2.3655507564544678,-1.489637851715088,-0.7146586775779724
1772811168290634000,0.819634033203125,2.3666160106658936,-1.1807115077972412,-0.7364965677261353
1772811168300515000,0.82951513671875,2.4763381481170654,-1.0960229635238647,-0.6576670408248901
1772811168310396400,0.839396484375,2.5940499305725098,-0.913862943649292,-0.678439736366272
1772811168320277500,0.849277587890625,2.671281337738037,-0.616121768951416,-0.6432859897613525
1772811168330158600,0.85915869140625,2.676607847213745,-0.19001637399196625,-0.6390249729156494
1772811168340040000,0.8690400390625,2.7996456623077393,0.007057370617985725,-0.7380944490432739
1772811168349921000,0.878921142578125,2.905106782913208,0.1902827024459839,-0.7993471026420593
1772811168359802000,0.888802001953125,2.9083025455474854,0.3543332815170288,-0.8563387393951416
1772811168369683200,0.89868310546875,2.82574462890625,0.5125249028205872,-0.9239829778671265
1772811168379564500,0.908564453125,2.70164155960083,0.6376934051513672,-0.9420924186706543
1772811168389445600,0.918445556640625,2.4161508083343506,0.571647047996521,-0.7647260427474976
1772811168399326700,0.92832666015625,2.1493022441864014,0.5103943943977356,-0.5042691230773926
1772811168409207800,0.938207763671875,1.998034954071045,0.318114310503006,-0.21824586391448975
1772811168419089200,0.948089111328125,1.905889630317688,0.17377111315727234,0.014514215290546417
1772811168428970200,0.95797021484375,1.6214642524719238,-0.00519315991550684,0.18868480622768402
1772811168438851300,0.967851318359375,1.2480894327163696,0.13968268036842346,0.18389111757278442
1772811168448732400,0.977732421875,0.9157271385192871,0.2973416745662689,0.06404896825551987
1772811168458613800,0.98761376953125,0.48908910155296326,0.39428067207336426,-0.07603318244218826
1772811168468494800,0.997494873046875,-0.06751107424497604,0.6147902011871338,-0.2667153477668762
1772811168478376000,1.0073759765625,-0.6715154647827148,0.9173250794410706,-0.44887542724609375
1772811168488257300,1.01725732421875,-1.2052124738693237,1.1607377529144287,-0.5644565224647522
1772811168498138000,1.02713818359375,-1.61054527759552,1.3088093996047974,-0.599077582359314
1772811168508019000,1.03701904296875,-1.8896443843841553,1.3966935873031616,-0.5692501664161682
1772811168517899500,1.0468994140625,-2.049433946609497,1.4094767570495605,-0.49681228399276733
1772811168527780400,1.0567802734375,-2.0973706245422363,1.3423651456832886,-0.3716438114643097
1772811168537661000,1.066660888671875,-2.055292844772339,1.2166640758514404,-0.18575532734394073
1772811168547541800,1.076541748046875,-1.9839200973510742,1.0318409204483032,0.060853179544210434
1772811168557422300,1.08642236328125,-1.8779264688491821,0.7905586957931519,0.39534592628479004
1772811168567303200,1.09630322265625,-1.7181369066238403,0.3649859130382538,0.8150597810745239
1772811168577183700,1.106183837890625,-1.66061270236969,0.005459475331008434,1.2353062629699707
1772811168587064600,1.116064697265625,-1.652623176574707,-0.20759323239326477,1.5809842348098755
1772811168596945400,1.1259453125,-1.611077904701233,-0.399873286485672,1.9074875116348267
1772811168606826000,1.135825927734375,-1.586044192314148,-0.5468796491622925,2.181260108947754
1772811168616706800,1.145706787109375,-1.581250548362732,-0.6209154725074768,2.3969759941101074
1772811168626587400,1.15558740234375,-1.6009578704833984,-0.6720481514930725,2.562624454498291
1772811168636468200,1.16546826171875,-1.6488947868347168,-0.7130607962608337,2.690988779067993
1772811168646348800,1.175348876953125,-1.7223979234695435,-0.7482144832611084,2.746915102005005
1772811168656229600,1.185229736328125,-1.8315874338150024,-0.7482144832611084,2.6888582706451416
1772811168666110200,1.195110107421875,-1.9338527917861938,-0.7402250170707703,2.573277235031128
1772811168675991000,1.204990966796875,-2.0281286239624023,-0.7759113311767578,2.4124224185943604
1772811168685871600,1.21487158203125,-2.1463727951049805,-0.8893618583679199,2.2094898223876953
1772811168695752400,1.22475244140625,-2.2592906951904297,-0.9878987669944763,2.0038938522338867
1772811168705633000,1.234633056640625,-2.2363877296447754,-1.0113345384597778,1.77646005153656
1772811168715513900,1.244513916015625,-2.312553882598877,-1.0049430131912231,1.5804516077041626
1772811168725394400,1.25439453125,-2.6422529220581055,-1.094957709312439,1.5564831495285034
1772811168735275300,1.264275146484375,-2.9932572841644287,-1.1657977104187012,1.4542179107666016
1772811168745155800,1.27415576171875,-3.2190933227539062,-1.199353575706482,1.2949609756469727
1772811168755036700,1.28403662109375,-3.488072156906128,-1.22864830493927,1.3045483827590942
1772811168764917200,1.293917236328125,-3.8470661640167236,-1.320261001586914,1.5703315734863281
1772811168774798000,1.303798095703125,-4.301933765411377,-1.5402379035949707,1.9793927669525146
1772811168784679000,1.313678955078125,-4.788759231567383,-1.8108148574829102,2.229729652404785
1772811168794559500,1.3235595703125,-5.302216053009033,-2.2172129154205322,2.161552906036377
1772811168804440300,1.3334404296875,-5.665471076965332,-2.6081645488739014,1.8654096126556396
1772811168814321000,1.34332080078125,-5.842837333679199,-2.8702194690704346,1.3759210109710693
1772811168824201700,1.35320166015625,-5.7325825691223145,-3.0875332355499268,0.8097334504127502
1772811168834082300,1.363082275390625,-5.31819486618042,-3.116827964782715,0.3585943281650543
1772811168843963100,1.372963134765625,-4.696613788604736,-2.9346678256988525,0.14554162323474884
1772811168863724500,1.392724609375,-3.2270827293395996,-2.0659453868865967,0.3878890872001648
1772811168873605000,1.402605224609375,-2.5096278190612793,-1.5620758533477783,0.6627270579338074
1772811168883486000,1.41248583984375,-1.9104169607162476,-1.0768482685089111,0.9109334945678711
1772811168893366500,1.422366455078125,-1.4624736309051514,-0.6592649817466736,1.05527663230896
1772811168903247400,1.432247314453125,-1.1349050998687744,-0.3572627604007721,1.0616682767868042
1772811168913128200,1.442128173828125,-0.9617998003959656,0.05020054429769516,0.9146618843078613
1772811168923008800,1.4520087890625,-0.8621976375579834,0.19347849488258362,0.8182555437088013
1772811168932889600,1.4618896484375,-0.8366313576698303,0.17483638226985931,0.6850975751876831
1772811168942770200,1.471770263671875,-0.8707197904586792,0.06884265691041946,0.5439502000808716
1772811168952651000,1.481651123046875,-0.9239829778671265,-0.08615318685770035,0.39854171872138977
1772811168962531600,1.491531494140625,-0.9623324275016785,-0.2869553565979004,0.26804694533348083
1772811168972412400,1.501412353515625,-0.9942903518676758,-0.4834964871406555,0.14554162323474884
1772811168982293000,1.51129296875,-0.9996166825294495,-0.6997449994087219,0.04540685936808586
1772811168992173800,1.521173828125,-0.9570060968399048,-0.8936229348182678,0.005459475331008434
1772811169002054700,1.5310546875,-0.8574039936065674,-1.0411618947982788,0.017710005864501
1772811169011936000,1.54093603515625,-0.7444860339164734,-1.115197777748108,0.02623211406171322
1772811169021817000,1.550817138671875,-0.641155481338501,-1.1061429977416992,0.013981583528220654
1772811169031698200,1.5606982421875,-0.5484775304794312,-1.0123997926712036,-0.00945421401411295
1772811169041579300,1.570579345703125,-0.46698489785194397,-0.8920250535011292,-0.04780369997024536
1772811169051460400,1.58046044921875,-0.39348170161247253,-0.7673892378807068,-0.10159950703382492
1772811169061341400,1.590341552734375,-0.3386206328868866,-0.6486123204231262,-0.17989638447761536
1772811169071222500,1.600222412109375,-0.30772799253463745,-0.5585975646972656,-0.271509051322937
1772811169081104000,1.610103759765625,-0.30186906456947327,-0.5037364959716797,-0.3561974763870239
1772811169090985000,1.61998486328125,-0.3205111622810364,-0.4557996392250061,-0.4238417148590088
1772811169100866000,1.629865966796875,-0.35886064171791077,-0.41159120202064514,-0.48243123292922974
1772811169110747100,1.6397470703125,-0.41159120202064514,-0.34980592131614685,-0.5324985980987549
1772811169120628200,1.649628173828125,-0.43502700328826904,-0.2773679792881012,-0.5708481073379517
1772811169130509300,1.65950927734375,-0.4893554449081421,-0.20439743995666504,-0.5671196579933167
1772811169140390400,1.669390380859375,-0.5804354548454285,-0.12183951586484909,-0.6102628707885742
1772811169150271500,1.679271484375,-0.6427533626556396,-0.013715268112719059,-0.7279744744300842
1772811169160152800,1.68915283203125,-0.6406228542327881,0.16524900496006012,-0.8424903154373169
1772811169170034000,1.699033935546875,-0.574043869972229,0.34314802289009094,-0.9111998081207275
1772811169179915000,1.7089150390625,-0.44994068145751953,0.47470805048942566,-0.9133303165435791
1772811169189796000,1.718796142578125,-0.26884588599205017,0.5791038870811462,-0.8360987305641174
1772811169199677200,1.72867724609375,-0.03342264145612717,0.6632596850395203,-0.6864292025566101
1772811169209558300,1.738558349609375,0.24887219071388245,0.7362302541732788,-0.46698489785194397
1772811169219439400,1.748439453125,0.5876259803771973,0.8230492472648621,-0.20386481285095215
1772811169229320700,1.75832080078125,0.9684576988220215,0.9301081895828247,0.05446159839630127
1772811169239201800,1.768201904296875,1.3583441972732544,1.0435588359832764,0.288286954164505
1772811169249083000,1.778082763671875,1.759948492050171,1.1367692947387695,0.49335017800331116
1772811169258964000,1.7879638671875,2.151432752609253,1.1772493124008179,0.6787060499191284
1772811169268845000,1.797844970703125,2.4971108436584473,1.1426283121109009,0.8470176458358765
1772811169278726100,1.80772607421875,2.7682204246520996,1.0403629541397095,0.9966871738433838
1772811169288607200,1.817607177734375,2.9466521739959717,0.877910315990448,1.1314430236816406
1772811169298488600,1.827488525390625,3.0521130561828613,0.6776407361030579,1.281112551689148
1772811169308369700,1.83736962890625,3.094723701477051,0.4198469817638397,1.461674690246582
1772811169318250800,1.847250732421875,3.069689989089966,0.12689951062202454,1.6683357954025269
1772811169328131800,1.8571318359375,2.9221510887145996,0.0006657897029072046,1.8153421878814697
1772811169338013000,1.867012939453125,2.8342666625976562,-0.37803539633750916,2.007089614868164
1772811169347894000,1.87689404296875,2.781536102294922,-0.7689871191978455,2.2339906692504883
1772811169357775000,1.886775146484375,2.611626625061035,-1.0097366571426392,2.365018129348755
1772811169367656200,1.89665625,2.439054012298584,-1.0912293195724487,2.3580939769744873
1772811169377537500,1.90653759765625,2.274470806121826,-1.106675624847412,2.230794906616211
1772811169387418600,1.916418701171875,2.1104202270507812,-1.0241177082061768,2.0145463943481445
1772811169397299700,1.9262998046875,1.9458370208740234,-0.7716502547264099,1.7024242877960205
1772811169407180800,1.936180908203125,1.776992678642273,-0.3961448669433594,1.2869714498519897
1772811169417062000,1.946061767578125,1.5634074211120605,0.05073317512869835,0.7586007714271545
1772811169426943000,1.95594287109375,1.3146682977676392,0.5588638782501221,0.1572595238685608
1772811169436824000,1.965823974609375,1.042493462562561,1.0840388536453247,-0.46698489785194397
1772811169446705400,1.975705322265625,0.7623292207717896,1.5937674045562744,-1.0582062005996704
1772811169456586500,1.98558642578125,0.5114596486091614,2.093242883682251,-1.5780547857284546
1772811169466467600,1.995467529296875,0.318114310503006,2.5594286918640137,-2.0265307426452637
1772811169476348700,2.0053486328125,0.19081532955169678,2.9573047161102295,-2.411623477935791
1772811169486229800,2.015229736328125,0.12583425641059875,3.288069009780884,-2.749844551086426
1772811169496110800,2.02511083984375,0.11944267153739929,3.5831470489501953,-3.0449225902557373
1772811169505991400,2.034991455078125,0.17004269361495972,3.7946019172668457,-3.2766175270080566
1772811169515872300,2.044872314453125,0.27763429284095764,3.891540765762329,-3.399122714996338
1772811169525752800,2.0547529296875,0.4262385666370392,3.872898817062378,-3.4071121215820312
1772811169535633400,2.06463330078125,0.5727123022079468,3.7669050693511963,-3.314966917037964
1772811169545514200,2.07451416015625,0.7005439400672913,3.564504861831665,-3.150916337966919
1772811169555394800,2.084394775390625,0.79854816198349,3.2758185863494873,-2.942124605178833
1772811169565275400,2.094275390625,0.869388222694397,2.9477174282073975,-2.6923203468322754
1772811169575156200,2.10415625,0.9093355536460876,2.597245693206787,-2.4100255966186523
1772811169585036800,2.114036865234375,0.9503481984138489,2.2020328044891357,-2.0760655403137207
1772811169594917600,2.123917724609375,0.9865671992301941,1.8270601034164429,-1.6712653636932373
1772811169604798200,2.133798095703125,1.0313082933425903,1.4957631826400757,-1.2121367454528809
1772811169614678800,2.1436787109375,1.0606030225753784,1.1799125671386719,-0.7178544402122498
1772811169624559600,2.1535595703125,1.0701903104782104,0.9423587322235107,-0.2251700758934021
1772811169634440200,2.163440185546875,1.0664619207382202,0.7852323651313782,0.2126532346010208
1772811169644320800,2.17332080078125,1.0345040559768677,0.7042723298072815,0.5514070391654968
1772811169654201600,2.18320166015625,0.9865671992301941,0.689358651638031,0.7612639665603638
1772811169664082200,2.193082275390625,0.9349018931388855,0.7559376358985901,0.832103967666626
1772811169673962800,2.202962646484375,0.9018787145614624,0.8853671550750732,0.7788407802581787
1772811169683843600,2.212843505859375,0.8880302906036377,1.0595377683639526,0.6062681078910828
1772811169693724200,2.22272412109375,0.8970850706100464,1.2624704837799072,0.32929959893226624
1772811169703605000,2.23260498046875,0.9258471727371216,1.449424147605896,0.007590002380311489
1772811169713485600,2.242485595703125,0.9684576988220215,1.6092137098312378,-0.29814061522483826
1772811169723366100,2.2523662109375,1.0211882591247559,1.7146748304367065,-0.5660544037818909
1772811169733247000,2.2622470703125,1.0664619207382202,1.7445021867752075,-0.7865639328956604
1772811169743127600,2.27212744140625,1.1106703281402588,1.6869779825210571,-0.9538103342056274
1772811169753008000,2.282008056640625,1.1660641431808472,1.5436999797821045,-1.0624672174453735
1772811169762889000,2.291888916015625,1.2321103811264038,1.327451467514038,-1.1381008625030518
1772811169772769500,2.30176953125,1.3066788911819458,1.0472872257232666,-1.1769829988479614
1772811169782650000,2.311650146484375,1.3844431638717651,0.7426218390464783,-1.1769829988479614
1772811169792531000,2.321531005859375,1.4899041652679443,0.41292276978492737,-1.137035608291626
1772811169802411500,2.33141162109375,1.6214642524719238,0.07416897267103195,-1.0464882850646973
1772811169812292000,2.3412919921875,1.7658075094223022,-0.25606271624565125,-0.9191892743110657
1772811169822173000,2.3511728515625,1.9032264947891235,-0.5293028354644775,-0.7599323391914368
1772811169832053500,2.361053466796875,2.031590700149536,-0.7652586698532104,-0.5830986499786377
1772811169841934300,2.370934326171875,2.1333234310150146,-0.968191385269165,-0.38868802785873413
1772811169851815000,2.38081494140625,2.1833908557891846,-1.1407641172409058,-0.19534270465373993
1772811169861695500,2.390695556640625,2.1338560581207275,-1.1887009143829346,-0.05366265028715134
1772811169871576300,2.400576416015625,2.0198729038238525,-1.1673957109451294,0.012383688241243362
1772811169881457000,2.410456787109375,2.0603528022766113,-1.3309136629104614,0.1620532125234604
1772811169891337500,2.42033740234375,2.0987021923065186,-1.4395705461502075,0.3159838020801544
1772811169901218300,2.43021826171875,2.0635485649108887,-1.4699305295944214,0.40812909603118896
1772811169911099000,2.440098876953125,1.982588529586792,-1.4267873764038086,0.44754382967948914
1772811169920979500,2.4499794921875,1.8547569513320923,-1.3724589347839355,0.4257059395313263
1772811169930860300,2.4598603515625,1.6592811346054077,-1.2430293560028076,0.32397326827049255
1772811169940740900,2.469740966796875,1.4169336557388306,-1.143959879875183,0.17803215980529785
1772811169950621700,2.47962158203125,1.1724556684494019,-1.1002840995788574,0.08428897708654404
1772811169960502300,2.489502197265625,0.8512787222862244,-0.9783113598823547,-0.01584579423069954
1772811169970382800,2.4993828125,0.4715122580528259,-0.8318376541137695,-0.08029423654079437
1772811169980263700,2.509263671875,0.0294279046356678,-0.6177197098731995,-0.08615318685770035
1772811169990144300,2.519144287109375,-0.46805015206336975,-0.2901511490345001,-0.1026647686958313
1772811170000024800,2.52902490234375,-0.9372987151145935,-0.0834900289773941,-0.11544793099164963
1772811170009905000,2.53890478515625,-1.3309136629104614,-0.016378426924347878,-0.042477384209632874
1772811170019785200,2.54878515625,-1.6819179058074951,-0.029161589220166206,0.023568956181406975
1772811170029665500,2.55866552734375,-1.988181233406067,-0.03874896094202995,-0.0073236869648098946
1772811170039545900,2.5685458984375,-2.252366542816162,-0.029694220051169395,-0.07603318244218826
1772811170049426200,2.57842626953125,-2.492050886154175,0.04913527891039848,-0.15166689455509186
1772811170059306500,2.588306396484375,-2.675808906555176,0.11997530609369278,-0.22783324122428894
1772811170069186600,2.5981865234375,-2.7700846195220947,0.07523423433303833,-0.2155826985836029
1772811170079067000,2.60806689453125,-2.8244130611419678,-0.05259738489985466,-0.13249215483665466
1772811170088947200,2.617947265625,-2.857968807220459,-0.20919112861156464,-0.04514054208993912
1772811170098827500,2.62782763671875,-2.892590045928955,-0.3423490524291992,0.008655265904963017
1772811170108707800,2.637707763671875,-2.9490489959716797,-0.46432173252105713,0.031558431684970856
1772811170118588200,2.647588134765625,-3.011899471282959,-0.6278396844863892,0.05872265249490738
1772811170128468200,2.65746826171875,-3.0747499465942383,-0.8531429171562195,0.1098553016781807
1772811170138348500,2.6673486328125,-3.1269478797912598,-1.1599388122558594,0.1897500604391098
1772811170148228900,2.677228759765625,-3.1338720321655273,-1.454484224319458,0.2925480008125305
1772811170158109200,2.687109130859375,-3.076347827911377,-1.6739284992218018,0.40919435024261475
1772811170167989500,2.696989501953125,-2.9410593509674072,-1.8220001459121704,0.5327649116516113
1772811170177869600,2.70686962890625,-2.7423877716064453,-1.9093517065048218,0.6659228801727295
1772811170187750000,2.71675,-2.5085623264312744,-1.9477012157440186,0.7964176535606384
1772811170197630200,2.726630126953125,-2.28166127204895,-1.9418421983718872,0.9221187233924866
1772811170207510500,2.736510498046875,-2.088315963745117,-1.8853832483291626,1.0419608354568481
1772811170217390800,2.746390869140625,-1.932787537574768,-1.7804548740386963,1.1479545831680298
1772811170227271200,2.756271240234375,-1.8145432472229004,-1.6425031423568726,1.2406325340270996
1772811170237151200,2.766151123046875,-1.7410401105880737,-1.4773873090744019,1.2997546195983887
1772811170247031600,2.776031494140625,-1.7314527034759521,-1.313336730003357,1.3098746538162231
1772811170256912000,2.785911865234375,-1.7873790264129639,-1.1428946256637573,1.288569450378418
1772811170266792200,2.795792236328125,-1.8726000785827637,-0.9729850888252258,1.25554621219635
1772811170276672500,2.805672607421875,-1.9642127752304077,-0.8078691959381104,1.2118704319000244
1772811170286552800,2.815552734375,-2.059553861618042,-0.6507428288459778,1.1367692947387695
1772811170296433000,2.825432861328125,-2.1570255756378174,-0.49255120754241943,1.024916648864746
1772811170306313200,2.835313232421875,-2.252899169921875,-0.3530017137527466,0.8640618920326233
1772811170316193500,2.845193603515625,-2.3450443744659424,-0.24487745761871338,0.6584660410881042
1772811170326073900,2.855073974609375,-2.4292004108428955,-0.150068998336792,0.4352933168411255
1772811170335954200,2.8649541015625,-2.4973771572113037,-0.0600542314350605,0.22650165855884552
1772811170345834500,2.87483447265625,-2.536792039871216,0.00918789766728878,0.05446159839630127
1772811170365595000,2.894594970703125,-2.5330634117126465,0.08801739662885666,-0.1255679428577423
1772811170375475200,2.90447509765625,-2.4792675971984863,0.09600687772035599,-0.16125427186489105
1772811170385355500,2.91435546875,-2.4046993255615234,0.0720384493470192,-0.17510269582271576
1772811170395235800,2.92423583984375,-2.308292865753174,-0.0009321055840700865,-0.17084163427352905
1772811170405116000,2.934115966796875,-2.2012338638305664,-0.09840371459722519,-0.15539531409740448
1772811170414996200,2.943996337890625,-2.094707489013672,-0.18469005823135376,-0.13195951282978058
1772811170424876500,2.95387646484375,-1.9887138605117798,-0.2347574532032013,-0.10053424537181854
1772811170434756900,2.9637568359375,-1.883785367012024,-0.25499746203422546,-0.06165212765336037
1772811170444637200,2.97363720703125,-1.7825853824615479,-0.2342248111963272,-0.006258423440158367
1772811170454517500,2.983517578125,-1.6755263805389404,-0.1926795393228531,0.05712475627660751
1772811170464397600,2.9933974609375,-1.5647389888763428,-0.1735047996044159,0.1002679318189621
1772811170474278000,3.00327783203125,-1.4614083766937256,-0.17403742671012878,0.11624687910079956
1772811170484158200,3.013158203125,-1.3660672903060913,-0.17563532292842865,0.13009530305862427
1772811170494038500,3.02303857421875,-1.2717914581298828,-0.17563532292842865,0.15939006209373474
1772811170503919000,3.032919189453125,-1.181776762008667,-0.1921469122171402,0.2083921730518341
1772811170513799700,3.042799560546875,-1.0997514724731445,-0.21451744437217712,0.2834932506084442
1772811170523680300,3.05268017578125,-1.0251829624176025,-0.23529008030891418,0.36605116724967957
1772811170533560600,3.062560546875,-0.959669291973114,-0.2491385042667389,0.4539354145526886
1772811170543441200,3.072441162109375,-0.9042755961418152,-0.27044376730918884,0.5370259881019592
1772811170553321700,3.08232177734375,-0.8568713665008545,-0.28961852192878723,0.6073333621025085
1772811170563202300,3.092202392578125,-0.8163913488388062,-0.3103911578655243,0.6584660410881042
1772811170573083000,3.102082763671875,-0.7886945009231567,-0.3423490524291992,0.6749776005744934
1772811170582963500,3.11196337890625,-0.7807050347328186,-0.3759048581123352,0.6249102354049683
1772811170592844000,3.121843994140625,-0.7636607885360718,-0.3572627604007721,0.4619249105453491
1772811170602724600,3.131724609375,-0.704006016254425,-0.2773679792881012,0.20253323018550873
1772811170612605200,3.141605224609375,-0.6033385992050171,-0.16498269140720367,-0.0834900289773941
1772811170622485500,3.151485595703125,-0.46858277916908264,-0.0009321055840700865,-0.31731536984443665
1772811170632366000,3.161365966796875,-0.29814061522483826,0.17803215980529785,-0.4467448890209198
1772811170642246700,3.17124658203125,-0.08135949820280075,0.34368064999580383,-0.4803006947040558
1772811170652127200,3.181127197265625,0.18655426800251007,0.4912196397781372,-0.44408172369003296
1772811170662007800,3.1910078125,0.48855647444725037,0.6089312434196472,-0.36471959948539734
1772811170671888400,3.200888427734375,0.8123965859413147,0.6872281432151794,-0.25606271624565125
1772811170681769000,3.21076904296875,1.1330409049987793,0.7127944827079773,-0.13675320148468018
1772811170691649500,3.2206494140625,1.4281189441680908,0.6813691854476929,-0.020639481022953987
1772811170701529900,3.23052978515625,1.6885758638381958,0.6265081167221069,0.1002679318189621
1772811170711410400,3.240410400390625,1.9122811555862427,0.5588638782501221,0.2185121774673462
1772811170721291000,3.250291015625,2.0997674465179443,0.4629901647567749,0.34368064999580383
1772811170731171600,3.260171630859375,2.2467739582061768,0.31917959451675415,0.4954806864261627
1772811170741052200,3.27005224609375,2.335723400115967,0.14927005767822266,0.693087100982666
1772811170750932700,3.2799326171875,2.369811773300171,-0.050466857850551605,0.9471524357795715
1772811170760813300,3.289813232421875,2.369811773300171,-0.2683132588863373,1.2326430082321167
1772811170770694000,3.29969384765625,2.3362560272216797,-0.506932258605957,1.5266557931900024
1772811170780574500,3.309574462890625,2.26594877243042,-0.7199850082397461,1.7833843231201172
1772811170790455000,3.319455078125,2.176999092102051,-0.9607345461845398,1.9591528177261353
1772811170800335600,3.329335693359375,2.121072769165039,-1.2739219665527344,2.1493022441864014
1772811170810216000,3.3392158203125,2.036916971206665,-1.5359768867492676,2.3272013664245605
1772811170820096500,3.349096435546875,1.885649561882019,-1.7250611782073975,2.4305319786071777
1772811170829977000,3.35897705078125,1.6891084909439087,-1.8204022645950317,2.4417171478271484
1772811170839857700,3.368857666015625,1.5048178434371948,-1.8001621961593628,2.34371280670166
1772811170849738200,3.37873828125,1.3514199256896973,-1.6840485334396362,2.107224464416504
1772811170859618800,3.388618896484375,1.2171967029571533,-1.4976273775100708,1.7311863899230957
1772811170869499400,3.39849951171875,1.100017786026001,-1.2542146444320679,1.2603398561477661
1772811170879380000,3.4083798828125,0.9711208343505859,-0.9341029524803162,0.7404913306236267
1772811170889260300,3.41826025390625,0.8278428912162781,-0.5287702083587646,0.1897500604391098
1772811170899140900,3.428140869140625,0.7064028978347778,-0.029694220051169395,-0.334892213344574
1772811170909021400,3.438021484375,0.6281059980392456,0.5279712080955505,-0.8057386875152588
1772811170918902000,3.447902099609375,0.5833649635314941,1.087234616279602,-1.2009514570236206
1772811170928782600,3.457782470703125,0.5460807085037231,1.5873757600784302,-1.5168020725250244
1772811170938663200,3.4676630859375,0.5024049282073975,1.9911106824874878,-1.7506273984909058
1772811170948543700,3.477543701171875,0.4640554189682007,2.2787318229675293,-1.883252739906311
1772811170958424300,3.48742431640625,0.4725775420665741,2.528003454208374,-1.9439728260040283
1772811170968304600,3.4973046875,0.5141227841377258,2.7229466438293457,-1.9482338428497314
1772811170978185200,3.507185302734375,0.5865607261657715,2.8816709518432617,-1.9146779775619507
1772811170988065800,3.517065673828125,0.6834996938705444,2.9035089015960693,-1.8944380283355713
1772811170997946600,3.526946533203125,0.7964176535606384,2.841191053390503,-1.8667411804199219
1772811171007827700,3.53682763671875,0.9034766554832458,2.727740526199341,-1.79962956905365
1772811171017708800,3.546708740234375,0.9524787664413452,2.6840646266937256,-1.6819179058074951
1772811171027590000,3.55658984375,0.9572724103927612,2.6105613708496094,-1.5460968017578125
1772811171037471000,3.566470947265625,0.991893470287323,2.4118897914886475,-1.3868399858474731
1772811171047352000,3.57635205078125,1.0771145820617676,2.093242883682251,-1.1673957109451294
1772811171057233200,3.586233154296875,1.141563057899475,1.8297232389450073,-0.9484840035438538
1772811171067114200,3.5961142578125,1.2331756353378296,1.5106768608093262,-0.7828355431556702
1772811171076995300,3.605995361328125,1.3428977727890015,1.2241209745407104,-0.6358291506767273
1772811171086876400,3.61587646484375,1.4638051986694336,0.9732514023780823,-0.5032038688659668
1772811171096757500,3.625757568359375,1.595897912979126,0.7628618478775024,-0.3902859091758728
1772811171106638300,3.635638427734375,1.7333168983459473,0.5988112688064575,-0.3061301112174988
1772811171116519700,3.645519775390625,1.868605375289917,0.4864259660243988,-0.24061639606952667
1772811171126400800,3.65540087890625,1.9991002082824707,0.3777690827846527,-0.17616795003414154
1772811171136281900,3.66528173828125,2.125333786010742,0.273905873298645,-0.07763107866048813
1772811171146162700,3.67516259765625,2.2387845516204834,0.1806953251361847,0.04647212103009224
1772811171156043800,3.685043701171875,2.3261361122131348,0.10612688213586807,0.19081532955169678
1772811171165924900,3.6949248046875,2.400171995162964,0.020373165607452393,0.33462589979171753
1772811171175806000,3.704805908203125,2.4619572162628174,-0.07283739000558853,0.48376280069351196
1772811171185687000,3.71468701171875,2.5056328773498535,-0.1830921620130539,0.6440849304199219
1772811171195568000,3.724568115234375,2.539188861846924,-0.3045322000980377,0.810798704624176
1772811171205449200,3.73444921875,2.5599613189697266,-0.43928804993629456,0.9881650805473328
1772811171215330300,3.744330322265625,2.587125539779663,-0.5815007090568542,1.171390414237976
1772811171225211400,3.75421142578125,2.623344659805298,-0.7093323469161987,1.3508872985839844
1772811171235092500,3.764092529296875,2.6600961685180664,-0.8025429248809814,1.5357105731964111
1772811171244973600,3.7739736328125,2.6744773387908936,-0.8712524175643921,1.7082831859588623
1772811171254854700,3.783854736328125,2.6542372703552246,-0.9213197827339172,1.8334516286849976
1772811171264735700,3.79373583984375,2.6063003540039062,-0.9623324275016785,1.8973674774169922
1772811171274616800,3.803616943359375,2.542384624481201,-0.9958882331848145,1.9000306129455566
1772811171284498000,3.813497802734375,2.459294080734253,-1.0257155895233154,1.8542243242263794
1772811171294379000,3.82337890625,2.330929756164551,-1.0241177082061768,1.751426339149475
1772811171304260000,3.833260009765625,2.1636834144592285,-0.9873661398887634,1.5772558450698853
1772811171314141200,3.84314111328125,1.9815232753753662,-0.9372987151145935,1.3418325185775757
1772811171324022300,3.853022216796875,1.7876453399658203,-0.8728502988815308,1.0712556838989258
1772811171333903400,3.8629033203125,1.5745925903320312,-0.796151340007782,0.7974829077720642
1772811171343784400,3.872784423828125,1.3503546714782715,-0.7034733891487122,0.5418196320533752
1772811171353665500,3.88266552734375,1.1234534978866577,-0.5884249210357666,0.30107009410858154
1772811171363546600,3.892546630859375,0.886432409286499,-0.4552670121192932,0.06191844120621681
1772811171373427700,3.902427734375,0.622247040271759,-0.3087932765483856,-0.1782984882593155
1772811171383308800,3.912308837890625,0.3170490562915802,-0.15113426744937897,-0.4131890833377838
1772811171393190000,3.92218994140625,-0.04034685716032982,0.004394211806356907,-0.6315681338310242
1772811171403071000,3.932071044921875,-0.4430164694786072,0.1609879434108734,-0.8211849927902222
1772811171412952000,3.9419521484375,-0.8808397650718689,0.30905959010124207,-0.9708545207977295
1772811171422833200,3.951833251953125,-1.3325115442276,0.43209752440452576,-1.0763156414031982
1772811171432714200,3.96171435546875,-1.761812686920166,0.5492765307426453,-1.156743049621582
1772811171442595300,3.97159521484375,-2.138383388519287,0.672314465045929,-1.2297135591506958
1772811171452476200,3.98147607421875,-2.4435813426971436,0.7846997380256653,-1.300553560256958
1772811171462357200,3.991357177734375,-2.684330940246582,0.8747144937515259,-1.3516862392425537
1772811171472238600,4.001238525390625,-2.8553056716918945,0.9380977153778076,-1.3772525787353516
1772811171482119700,4.01111962890625,-2.962897300720215,0.9721861481666565,-1.387905240058899
1772811171492000500,4.02100048828125,-3.0348026752471924,0.9551419019699097,-1.380448341369629
1772811171501881600,4.030881591796875,-3.0736846923828125,0.9221187233924866,-1.3607410192489624
1772811171511762400,4.040762451171875,-3.0848701000213623,0.8757797479629517,-1.3527514934539795
1772811171521643300,4.050643310546875,-3.081141471862793,0.8214513063430786,-1.3719263076782227
1772811171531524000,4.060524169921875,-3.0731520652770996,0.756470263004303,-1.429450511932373
1772811171541405200,4.0704052734375,-3.066760540008545,0.6696512699127197,-1.5157368183135986
1772811171551286000,4.0802861328125,-3.050781488418579,0.5796365141868591,-1.6068168878555298
1772811171561166800,4.090166748046875,-3.0193562507629395,0.49388280510902405,-1.6845811605453491
1772811171571047700,4.100047607421875,-2.982604742050171,0.39428067207336426,-1.737311601638794
1772811171580928500,4.109928466796875,-2.9288089275360107,0.2850911617279053,-1.7453011274337769
1772811171590809600,4.1198095703125,-2.8510446548461914,0.16951005160808563,-1.694701075553894
1772811171600690400,4.1296904296875,-2.753572940826416,0.0390152782201767,-1.5833810567855835
1772811171610571300,4.1395712890625,-2.6529057025909424,-0.12077425420284271,-1.4086778163909912
1772811171620452000,4.1494521484375,-2.554368734359741,-0.29760798811912537,-1.1753851175308228
1772811171630333000,4.1593330078125,-2.4542338848114014,-0.4803006947040558,-0.8946881890296936
1772811171640214000,4.169214111328125,-2.3652844429016113,-0.6608628630638123,-0.5815007090568542
1772811171650094800,4.1790947265625,-2.2848570346832275,-0.8398271203041077,-0.25659534335136414
1772811171659975700,4.1889755859375,-2.218810796737671,-0.9926924705505371,0.051798440515995026
1772811171669856500,4.1988564453125,-2.173004388809204,-1.1215893030166626,0.3314301073551178
1772811171679737600,4.208737548828125,-2.1458401679992676,-1.2195935249328613,0.5807017683982849
1772811171689618400,4.218618408203125,-2.119208574295044,-1.2803136110305786,0.8006786704063416
1772811171699499300,4.228499267578125,-2.097903251647949,-1.3170652389526367,0.9972198009490967
1772811171709380000,4.238380126953125,-2.0734024047851562,-1.3298484086990356,1.176184058189392
1772811171719261000,4.248260986328125,-2.049433946609497,-1.2973577976226807,1.3359736204147339
1772811171729142000,4.25814208984375,-2.0217370986938477,-1.2398335933685303,1.4632725715637207
1772811171739022800,4.26802294921875,-2.000431776046753,-1.1860377788543701,1.5554178953170776
1772811171748903700,4.277903564453125,-1.9855180978775024,-1.1354377269744873,1.6241273880004883
1772811171758784500,4.287784423828125,-1.9722023010253906,-1.077913522720337,1.6688684225082397
1772811171768665600,4.29766552734375,-1.942907452583313,-1.0198566913604736,1.6800537109375
1772811171778546400,4.30754638671875,-1.8997642993927002,-0.9692566394805908,1.670466423034668
1772811171788427300,4.31742724609375,-1.8480991125106812,-0.9404945373535156,1.6363779306411743
1772811171798308000,4.32730810546875,-1.791107416152954,-0.9005471467971802,1.571396827697754
1772811171808189000,4.33718896484375,-1.737311601638794,-0.8254460692405701,1.4749904870986938
1772811171818070000,4.347070068359375,-1.6962989568710327,-0.7247786521911621,1.3333104848861694
1772811171827950800,4.356950927734375,-1.6558189392089844,-0.5974797010421753,1.141563057899475
1772811171837831700,4.366831787109375,-1.6148062944412231,-0.4408859312534332,0.9189229607582092
1772811171847712500,4.37671240234375,-1.563673734664917,-0.2677806317806244,0.6845649480819702
1772811171857593300,4.38659326171875,-1.4986926317214966,-0.08402266353368759,0.45606595277786255
1772811171867474400,4.396474365234375,-1.4454294443130493,0.0768321305513382,0.27337324619293213
1772811171877355300,4.406355224609375,-1.412406325340271,0.24887219071388245,0.12050793319940567
1772811171887236000,4.416236083984375,-1.2653999328613281,0.3783017098903656,-0.022237375378608704
1772811171897117000,4.426116943359375,-1.065130352973938,0.42783647775650024,-0.14900372922420502
1772811171906998000,4.435998046875,-0.888829231262207,0.42357540130615234,-0.27097639441490173
1772811171916878800,4.44587890625,-0.7087997198104858,0.3591269552707672,-0.38762277364730835
1772811171926759700,4.455759765625,-0.5085301995277405,0.25260061025619507,-0.48243123292922974
1772811171936640500,4.465640625,-0.2965427339076996,0.19241322576999664,-0.5996102094650269
1772811171946521300,4.475521240234375,-0.08242476731538773,0.1806953251361847,-0.7087997198104858
1772811171956402400,4.48540234375,0.1050616130232811,0.1892174333333969,-0.7817702889442444
1772811171966283300,4.495283203125,0.2659164071083069,0.18335849046707153,-0.7929555177688599
1772811171976164000,4.5051640625,0.39481329917907715,0.156194269657135,-0.7535408139228821
1772811171986045000,4.515044921875,0.4688491225242615,0.09600687772035599,-0.6805702447891235
1772811171995926000,4.524926025390625,0.5098617672920227,0.048070017248392105,-0.6081323027610779
1772811172005806800,4.534806884765625,0.5695165395736694,0.043808963149785995,-0.5575323104858398
1772811172015688000,4.54468798828125,0.6632596850395203,0.08428897708654404,-0.5111933350563049
1772811172025569000,4.554569091796875,0.7846997380256653,0.1098553016781807,-0.4653870165348053
1772811172035450000,4.5644501953125,0.9370324015617371,0.10665950924158096,-0.42597225308418274
1772811172045331200,4.574331298828125,1.1495524644851685,0.09920266270637512,-0.3727090656757355
1772811172055212300,4.58421240234375,1.4179989099502563,0.08801739662885666,-0.2874879837036133
1772811172065093400,4.59409326171875,1.7327842712402344,0.03195790573954582,-0.15805847942829132
1772811172074974200,4.60397412109375,2.067276954650879,-0.1038631945848465,0.03315632790327072
1772811172084855300,4.613855224609375,2.4017698764801025,-0.2647179961204529,0.2877542972564697
1772811172094736400,4.623736328125,2.7154898643493652,-0.4063980281352997,0.5860280990600586
1772811172104617500,4.633617431640625,2.995121479034424,-0.5768402218818665,0.8869650363922119
1772811172114498600,4.64349853515625,3.223088026046753,-0.7787076234817505,1.1783145666122437
1772811172124379600,4.653379638671875,3.3738226890563965,-0.9661940336227417,1.4760557413101196
1772811172134260500,4.663260498046875,3.4393365383148193,-1.083905577659607,1.802026391029358
1772811172144141600,4.6731416015625,3.475555419921875,-1.153680443763733,2.0928432941436768
1772811172154022700,4.683022705078125,3.466500759124756,-1.1936278343200684,2.3314623832702637
1772811172163903700,4.69290380859375,3.4132375717163086,-1.1930952072143555,2.494447708129883
1772811172173784800,4.702784912109375,3.2859385013580322,-1.1515498161315918,2.538123607635498
1772811172183666000,4.712666015625,3.073418378829956,-1.0881667137145996,2.4614245891571045
1772811172193547000,4.722547119140625,2.806037187576294,-1.0338382720947266,2.289384365081787
1772811172203428000,4.732427978515625,2.502437114715576,-0.9741834998130798,2.0694074630737305
1772811172213309000,4.742308837890625,2.180727481842041,-0.906539261341095,1.8238643407821655
1772811172223190000,4.75218994140625,1.9176075458526611,-0.851678192615509,1.5357105731964111
1772811172233071000,4.762071044921875,1.5927021503448486,-0.7824360728263855,1.2118704319000244
1772811172242952200,4.7719521484375,1.2171967029571533,-0.654604434967041,0.8400934338569641
1772811172252833300,4.781833251953125,0.9157271385192871,-0.5257075428962708,0.4054659307003021
1772811172262714400,4.79171435546875,0.6605965495109558,-0.38402751088142395,-0.030226852744817734
1772811172272595500,4.801595458984375,0.428901731967926,-0.21944428980350494,-0.4414185583591461
1772811172282476300,4.811476318359375,0.23395849764347076,-0.01597895286977291,-0.8334355354309082
1772811172292357400,4.821357421875,0.0624510757625103,0.2311621904373169,-1.1998862028121948
1772811172302238500,4.831238525390625,-0.08029423654079437,0.5294359922409058,-1.5519558191299438
1772811172312119600,4.84111962890625,-0.1777658462524414,0.8676571249961853,-1.8976337909698486
1772811172322000600,4.851000732421875,-0.21877849102020264,1.2362383604049683,-2.2252023220062256
1772811172331881700,4.8608818359375,-0.2209090292453766,1.6138741970062256,-2.4989750385284424
1772811172341762600,4.870762451171875,-0.18895111978054047,1.9600849151611328,-2.700309991836548
1772811172351644000,4.880643798828125,-0.0882837176322937,2.438920736312866,-2.7109625339508057
1772811172361524700,4.890524658203125,0.12210582941770554,2.683398723602295,-2.437189817428589
1772811172371405800,4.90040576171875,0.11198582500219345,2.524674654006958,-2.4190802574157715
1772811172381287000,4.910286865234375,0.1567268967628479,2.6562345027923584,-2.283259153366089
1772811172391168000,4.92016796875,0.20626164972782135,2.8495798110961914,-2.0829896926879883
1772811172401049000,4.930049072265625,0.20200060307979584,2.8490471839904785,-1.9855180978775024
1772811172410930200,4.93993017578125,0.20732691884040833,2.752108335494995,-1.8449032306671143
1772811172420811000,4.94981103515625,0.24354587495326996,2.669017791748047,-1.6536884307861328
1772811172430692000,4.959692138671875,0.30479851365089417,2.5630240440368652,-1.4432989358901978
1772811172440573200,4.9695732421875,0.39001959562301636,2.371276617050171,-1.2297135591506958
1772811172450454300,4.979454345703125,0.496013343334198,2.127331256866455,-1.0171935558319092
1772811172460335400,4.98933544921875,0.6073333621025085,1.8615480661392212,-0.787629246711731
1772811172470216400,4.999216552734375,0.7261102795600891,1.5723289251327515,-0.5500754714012146
1772811172480097500,5.00909765625,0.8422240018844604,1.2713919878005981,-0.31305432319641113
1772811172489978400,5.018978271484375,0.9370324015617371,0.9954887628555298,-0.06538055092096329
1772811172499859200,5.028859130859375,1.042493462562561,0.730238139629364,0.17217321693897247
1772811172509739800,5.03873974609375,1.1751188039779663,0.5065327882766724,0.3884217143058777
1772811172519620000,5.0486201171875,1.2869714498519897,0.33715590834617615,0.5849628448486328
1772811172529500700,5.058500732421875,1.3610073328018188,0.22743375599384308,0.7586007714271545
1772811172539381000,5.068381103515625,1.4345104694366455,0.15393057465553284,0.8917587399482727
1772811172549261600,5.078261474609375,1.5048178434371948,0.11025477200746536,0.9886977076530457
1772811172559142000,5.088141845703125,1.5628747940063477,0.09321055561304092,1.0712556838989258
1772811172569022500,5.0980224609375,1.608148455619812,0.09693898260593414,1.147421956062317
1772811172578902800,5.10790283203125,1.642769455909729,0.07882949709892273,1.2299798727035522
1772811172588783400,5.117783447265625,1.6566178798675537,0.04154527932405472,1.3247883319854736
1772811172598663700,5.12766357421875,1.6566178798675537,-0.003195790573954582,1.4345104694366455
1772811172608544300,5.137544189453125,1.6406389474868774,-0.0564589649438858,1.54103684425354
1772811172618424800,5.1474248046875,1.6225295066833496,-0.12623372673988342,1.6267905235290527
1772811172628305200,5.15730517578125,1.6038874387741089,-0.18695375323295593,1.6837821006774902
1772811172638185500,5.167185546875,1.5820494890213013,-0.21997691690921783,1.7056200504302979
1772811172648066000,5.177066162109375,1.541569471359253,-0.2588590383529663,1.697097897529602
1772811172657946600,5.186946533203125,1.4723273515701294,-0.3217095732688904,1.663009524345398
1772811172667827000,5.196826904296875,1.3588768243789673,-0.4143875241279602,1.5985610485076904
1772811172677707500,5.20670751953125,1.1783145666122437,-0.503337025642395,1.491502046585083
1772811172687587800,5.216587890625,0.9839040040969849,-0.5699160099029541,1.3221251964569092
1772811172697468400,5.226468505859375,0.823581874370575,-0.608798086643219,1.0962892770767212
1772811172707348700,5.2363486328125,0.6936197280883789,-0.6178528666496277,0.8454197645187378
1772811172717229300,5.246229248046875,0.5759080648422241,-0.5757749080657959,0.5833649635314941
1772811172727109600,5.256109619140625,0.45553332567214966,-0.5273054242134094,0.3223753869533539
1772811172736990200,5.265990234375,0.3319627344608307,-0.48362964391708374,0.08162581920623779
1772811172746870500,5.27587060546875,0.1945437490940094,-0.41705065965652466,-0.13355740904808044
1772811172756751000,5.285751220703125,0.02197105996310711,-0.3451453745365143,-0.33063116669654846
1772811172766631400,5.29563134765625,-0.18522270023822784,-0.3073285222053528,-0.5042691230773926
1772811172776512000,5.305511962890625,-0.43076592683792114,-0.2886864244937897,-0.6539386510848999
1772811172786392600,5.315392578125,-0.7162565588951111,-0.28921905159950256,-0.774846076965332
1772811172796273000,5.32527294921875,-1.040096640586853,-0.3025348484516144,-0.8563387393951416
1772811172806153500,5.335153564453125,-1.3586105108261108,-0.3195790648460388,-0.9149281978607178
1772811172816033800,5.34503369140625,-1.6488947868347168,-0.3392864465713501,-0.9527450799942017
1772811172825914400,5.354914306640625,-1.8901770114898682,-0.33662328124046326,-0.9777787327766418
1772811172835794700,5.364794677734375,-2.0781960487365723,-0.2924148440361023,-0.9804419279098511
1772811172845675300,5.37467529296875,-2.2204086780548096,-0.23648850619792938,-0.9783113598823547
1772811172855555600,5.3845556640625,-2.337054967880249,-0.1832253336906433,-0.9905619025230408
1772811172865436200,5.394436279296875,-2.4483749866485596,-0.1177116185426712,-1.0203893184661865
1772811172875316500,5.40431640625,-2.560760259628296,-0.05326317623257637,-1.0704567432403564
1772811172885197000,5.414197021484375,-2.67474365234375,0.015446321107447147,-1.131709337234497
1772811172895077400,5.424077392578125,-2.7908573150634766,0.06764423102140427,-1.1769829988479614
1772811172904958000,5.4339580078125,-2.897916316986084,0.08894950151443481,-1.194559931755066
1772811172914838500,5.443838623046875,-2.962897300720215,0.09267792850732803,-1.1732546091079712
1772811172924718800,5.45371875,-2.9948551654815674,0.06391581147909164,-1.1162630319595337
1772811172934599400,5.463599365234375,-2.9948551654815674,-0.009054739959537983,-1.0129324197769165
1772811172944479700,5.473479736328125,-2.9538426399230957,-0.12570109963417053,-0.8653934597969055
1772811172954360300,5.4833603515625,-2.8659584522247314,-0.2684464156627655,-0.6912228465080261
1772811172964240600,5.49324072265625,-2.7306699752807617,-0.42184436321258545,-0.4946817457675934
1772811172974121200,5.503121337890625,-2.551172971725464,-0.6024065017700195,-0.2997385263442993
1772811172984001500,5.51300146484375,-2.3588929176330566,-0.8080024123191833,-0.11012161523103714
1772811172993882000,5.522882080078125,-2.1618192195892334,-1.0295772552490234,0.07576686888933182
1772811173003762400,5.532762451171875,-1.9663432836532593,-1.2229225635528564,0.26378586888313293
1772811173013643000,5.54264306640625,-1.7799222469329834,-1.3805814981460571,0.46139225363731384
1772811173023523300,5.5525234375,-1.6169369220733643,-1.497760534286499,0.6584660410881042
1772811173033404000,5.56240380859375,-1.489105224609375,-1.5781879425048828,0.8438218832015991
1772811173043284200,5.5722841796875,-1.3953620195388794,-1.6165374517440796,1.0147966146469116
1772811173053164800,5.582164794921875,-1.3335767984390259,-1.6309185028076172,1.1692599058151245
1772811173063045000,5.592045166015625,-1.2914988994598389,-1.6234616041183472,1.306146264076233
1772811173072925700,5.60192578125,-1.270726203918457,-1.6026890277862549,1.4217272996902466
1772811173082806300,5.61180615234375,-1.2627367973327637,-1.5670026540756226,1.5058830976486206
1772811173092686600,5.6216865234375,-1.253682017326355,-1.5180004835128784,1.5554178953170776
1772811173102567200,5.631567138671875,-1.236637830734253,-1.43863844871521,1.5719294548034668
1772811173112447500,5.641447509765625,-1.2073431015014648,-1.3544825315475464,1.5618095397949219
1772811173122328000,5.651328125,-1.174319863319397,-1.2761857509613037,1.54103684425354
1772811173132208400,5.66120849609375,-1.1295788288116455,-1.1861709356307983,1.5170683860778809
1772811173142089000,5.6710888671875,-1.0747177600860596,-1.0929603576660156,1.4808495044708252
1772811173151969300,5.68096923828125,-1.010801911354065,-1.0221203565597534,1.4472936391830444
1772811173161849900,5.690849853515625,-0.9484840035438538,-0.9507476687431335,1.4286515712738037
1772811173171730400,5.70073046875,-0.8861660957336426,-0.8586024045944214,1.4110746383666992
1772811173181610800,5.71061083984375,-0.8313050270080566,-0.767522394657135,1.370061993598938
1772811173191491300,5.7204912109375,-0.7828355431556702,-0.684431791305542,1.292830467224121
1772811173201371600,5.73037158203125,-0.7434207797050476,-0.6162549257278442,1.196424126625061
1772811173211252200,5.740252197265625,-0.7130607962608337,-0.5470128059387207,1.0792450904846191
1772811173221132500,5.750132568359375,-0.6768417954444885,-0.4852275252342224,0.9386303424835205
1772811173231013000,5.76001318359375,-0.6438186168670654,-0.43622541427612305,0.7815039753913879
1772811173240893400,5.7698935546875,-0.6123933792114258,-0.3909517228603363,0.6201165318489075
1772811173250774000,5.77977392578125,-0.5852291584014893,-0.34248220920562744,0.4539354145526886
1772811173260654600,5.789654541015625,-0.5559344291687012,-0.2785664200782776,0.2781669497489929
1772811173270535000,5.799534912109375,-0.5186501741409302,-0.21038953959941864,0.09867003560066223
1772811173280415500,5.80941552734375,-0.45846277475357056,-0.14061477780342102,-0.06591317802667618
1772811173290295800,5.8192958984375,-0.370045930147171,-0.06338317692279816,-0.21291954815387726
1772811173300176400,5.82917626953125,-0.2624543011188507,0.007989476434886456,-0.35033854842185974
1772811173310056700,5.839056640625,-0.14634057879447937,0.07190528512001038,-0.47817015647888184
1772811173319937300,5.848937255859375,-0.028628956526517868,0.15020215511322021,-0.5964143872261047
1772811173329817900,5.85881787109375,0.08695213496685028,0.22477060556411743,-0.6986796855926514
1772811173339698200,5.8686982421875,0.20093533396720886,0.28975167870521545,-0.7759113311767578
1772811173349578800,5.878578857421875,0.3127880096435547,0.36538538336753845,-0.8217176795005798
1772811173359459000,5.888458984375,0.4257059395313263,0.43675804138183594,-0.838229238986969
1772811173369339600,5.898339599609375,0.5119922757148743,0.468183308839798,-0.8339681625366211
1772811173379220000,5.908219970703125,0.5711144208908081,0.49801069498062134,-0.8456860780715942
1772811173389100500,5.9181005859375,0.6323670744895935,0.5624591112136841,-0.8893618583679199
1772811173398980900,5.92798095703125,0.7261102795600891,0.6157222986221313,-0.943690299987793
1772811173408861400,5.937861328125,0.8400934338569641,0.6412886381149292,-0.9868335127830505
1772811173418742000,5.947741943359375,0.9737840294837952,0.6215812563896179,-1.005475640296936
1772811173428622300,5.957622314453125,1.1303777694702148,0.5709812641143799,-0.9852356314659119
1772811173438503000,5.9675029296875,1.3013525009155273,0.4767054319381714,-0.9010797739028931
1772811173448383200,5.97738330078125,1.4840452671051025,0.348341166973114,-0.7295723557472229
1772811173458263800,5.987263916015625,1.667270541191101,0.1880190074443817,-0.47763752937316895
1772811173468144000,5.99714404296875,1.844104290008545,0.022370534017682076,-0.15805847942829132
1772811173478024700,6.007024658203125,1.9889801740646362,-0.13528846204280853,0.20253323018550873
1772811173487905000,6.016905029296875,2.082723379135132,-0.29028430581092834,0.5652554631233215
1772811173497785900,6.026785888671875,2.110952854156494,-0.4111917316913605,0.9125313758850098
1772811173507667000,6.0366669921875,2.0651464462280273,-0.524642288684845,1.218794584274292
1772811173517548000,6.046548095703125,1.9506306648254395,-0.6162549257278442,1.486175775527954
1772811173527429000,6.05642919921875,1.7881779670715332,-0.6897581219673157,1.6986958980560303
1772811173537310500,6.066310546875,1.6475632190704346,-0.7334339618682861,1.8446369171142578
1772811173547191600,6.076191650390625,1.5309168100357056,-0.7776423692703247,1.9367822408676147
1772811173557072600,6.08607275390625,1.40201997756958,-0.8170571327209473,1.9522285461425781
1772811173566953700,6.09595361328125,1.2901673316955566,-0.8325034379959106,1.9064222574234009
1772811173576834800,6.105834716796875,1.2001525163650513,-0.8000128865242004,1.7871127128601074
1772811173586716200,6.115716064453125,1.1133335828781128,-0.7435539364814758,1.561276912689209
1772811173596597200,6.12559716796875,1.0046766996383667,-0.688160240650177,1.2171967029571533
1772811173606478300,6.135478271484375,0.8475502729415894,-0.6098633408546448,0.8150597810745239
1772811173626240500,6.155240478515625,0.5194491147994995,-0.3776359260082245,0.12476898729801178
1772811173636121900,6.165121826171875,0.41398802399635315,-0.2263685017824173,-0.11757846176624298
1772811173646003000,6.1750029296875,0.3213101029396057,-0.030360009521245956,-0.34714275598526
1772811173655884000,6.184884033203125,0.23395849764347076,0.2024000734090805,-0.6006754636764526
1772811173665765000,6.19476513671875,0.17217321693897247,0.48416227102279663,-0.8712524175643921
1772811173675646200,6.204646240234375,0.14820478856563568,0.7882950305938721,-1.1450251340866089
1772811173685527600,6.214527587890625,0.16045531630516052,1.0924277305603027,-1.404949426651001
1772811173695408600,6.22440869140625,0.1945437490940094,1.3912341594696045,-1.6456990242004395
1772811173705289700,6.234289794921875,0.24088270962238312,1.6703331470489502,-1.8603495359420776
1772811173715170800,6.2441708984375,0.29521116614341736,1.9313228130340576,-2.045172691345215
1772811173725052200,6.25405224609375,0.3490069508552551,2.176866054534912,-2.18898344039917
1772811173734933200,6.263933349609375,0.5087965130805969,2.643984079360962,-2.0329222679138184
1772811173744814300,6.273814453125,0.56312495470047,2.504967212677002,-1.9812569618225098
1772811173754695400,6.2836953125,0.5018723011016846,2.4628891944885254,-2.075000286102295
1772811173764576800,6.29357666015625,0.5402217507362366,2.6072325706481934,-2.043574810028076
1772811173774457900,6.303457763671875,0.550341784954071,2.657299757003784,-1.950364351272583
1772811173784339000,6.3133388671875,0.5242428183555603,2.5076303482055664,-1.8923075199127197
1772811173794220000,6.323219970703125,0.5114596486091614,2.3489060401916504,-1.8150758743286133
1772811173804101000,6.33310107421875,0.5103943943977356,2.210954427719116,-1.6877769231796265
1772811173813982200,6.342982177734375,0.500806987285614,2.0298595428466797,-1.5269221067428589
1772811173823863600,6.352863525390625,0.5029375553131104,1.7970995903015137,-1.338370442390442
1772811173833744600,6.36274462890625,0.5189164876937866,1.5600783824920654,-1.119991421699524
1772811173843625700,6.372625732421875,0.5412870049476624,1.3374383449554443,-0.8904271721839905
1772811173853506800,6.3825068359375,0.5604617595672607,1.1526151895523071,-0.7008102536201477
1772811173863388200,6.39238818359375,0.5780386328697205,1.0151960849761963,-0.5665870308876038
1772811173873269200,6.402269287109375,0.5849628448486328,0.9086697697639465,-0.4930838644504547
1772811173883150300,6.412150390625,0.5860280990600586,0.8298403024673462,-0.445679634809494
1772811173893031400,6.422031494140625,0.6057354807853699,0.7792402505874634,-0.39294907450675964
1772811173902912500,6.43191259765625,0.6568681001663208,0.7595328688621521,-0.3146522045135498
1772811173912793900,6.4417939453125,0.7309039235115051,0.7590002417564392,-0.20333217084407806
1772811173922675000,6.451675048828125,0.8028092384338379,0.7621960639953613,-0.062184758484363556
1772811173932556000,6.46155615234375,0.8592681884765625,0.7478150129318237,0.09973529726266861
1772811173942437000,6.47143701171875,0.9018787145614624,0.7147918343544006,0.2755037844181061
1772811173952318500,6.481318359375,0.9343692660331726,0.6503433585166931,0.462457537651062
1772811173962199600,6.491199462890625,0.9652619361877441,0.5608612298965454,0.65953129529953
1772811173972080600,6.50108056640625,0.9998829960823059,0.4617917239665985,0.8715187311172485
1772811173981961700,6.510961669921875,1.0515482425689697,0.3675159215927124,1.0936261415481567
1772811173991842800,6.5208427734375,1.1261167526245117,0.272707462310791,1.3189294338226318
1772811174001724000,6.530723876953125,1.2193272113800049,0.1842905879020691,1.5399715900421143
1772811174011605000,6.54060498046875,1.330647349357605,0.10120003670454025,1.7354474067687988
1772811174021485800,6.55048583984375,1.4307820796966553,0.01438105758279562,1.8718011379241943
1772811174031367000,6.560366943359375,1.4851105213165283,-0.09853687882423401,1.9293253421783447
1772811174041248000,6.570248046875,1.4638051986694336,-0.21997691690921783,1.9042917490005493
1772811174051128800,6.58012890625,1.3860410451889038,-0.30306747555732727,1.7929716110229492
1772811174061010000,6.590010009765625,1.3114725351333618,-0.3637875020503998,1.620931625366211
1772811174070891000,6.59989111328125,1.256078839302063,-0.39894118905067444,1.4078788757324219
1772811174080771800,6.609771728515625,1.231045126914978,-0.404800146818161,1.1793798208236694
1772811174090653000,6.61965283203125,1.2353062629699707,-0.40373486280441284,0.9492829442024231
1772811174100534000,6.629533935546875,1.268329381942749,-0.39308223128318787,0.7575355172157288
1772811174110414800,6.639414794921875,1.3018851280212402,-0.38509276509284973,0.6233122944831848
1772811174120296000,6.6492958984375,1.310407280921936,-0.40320223569869995,0.5141227841377258
1772811174130177000,6.659177001953125,1.2571440935134888,-0.4330296218395233,0.40919435024261475
1772811174140057900,6.669057861328125,1.1213229894638062,-0.47777068614959717,0.307461678981781
1772811174149939000,6.67893896484375,0.9151945114135742,-0.5400885939598083,0.20945744216442108
1772811174159820000,6.688820068359375,0.6424870491027832,-0.6103960275650024,0.1237037256360054
1772811174169700900,6.698700927734375,0.32503852248191833,-0.6823012828826904,0.05925528332591057
1772811174179582000,6.70858203125,-0.01584579423069954,-0.7893602848052979,0.03049316816031933
1772811174189463000,6.718463134765625,-0.3514038026332855,-0.9145287275314331,0.039547909051179886
1772811174199343900,6.72834375,-0.6555365324020386,-1.0402297973632812,0.06138581037521362
1772811174209225000,6.738224853515625,-0.9069387316703796,-1.1494193077087402,0.05872265249490738
1772811174219106000,6.74810595703125,-1.1040124893188477,-1.2165309190750122,0.0006657897029072046
1772811174228987000,6.75798681640625,-1.2696609497070312,-1.242629885673523,-0.11438266932964325
1772811174238868000,6.767867919921875,-1.4150694608688354,-1.2463582754135132,-0.2779006361961365
1772811174248749000,6.7777490234375,-1.5333136320114136,-1.2436951398849487,-0.45793014764785767
1772811174258630000,6.7876298828125,-1.6238610744476318,-1.2261183261871338,-0.6086649298667908
1772811174268511000,6.797510986328125,-1.6915053129196167,-1.2085415124893188,-0.7098649740219116
1772811174278392000,6.80739208984375,-1.737311601638794,-1.2138677835464478,-0.7647260427474976
1772811174288273000,6.81727294921875,-1.7703348398208618,-1.2341078519821167,-0.7844334244728088
1772811174298154000,6.827154052734375,-1.803890585899353,-1.2831099033355713,-0.792422890663147
1772811174308035000,6.83703515625,-1.8358485698699951,-1.3496888875961304,-0.7913576364517212
1772811174317916000,6.846916015625,-1.8550232648849487,-1.4215941429138184,-0.7801723480224609
1772811174327797000,6.856796875,-1.8678064346313477,-1.4913688898086548,-0.7593997120857239
1772811174337678000,6.866677978515625,-1.8720674514770508,-1.5717962980270386,-0.7348986864089966
1772811174347559000,6.876558837890625,-1.8672738075256348,-1.6277226209640503,-0.7093323469161987
1772811174357440000,6.88643994140625,-1.8278590440750122,-1.649027943611145,-0.7002776265144348
1772811174367321000,6.896321044921875,-1.8092169761657715,-1.636777400970459,-0.6688523292541504
1772811174377202000,6.906201904296875,-1.7969664335250854,-1.594699501991272,-0.5857617855072021
1772811174387083000,6.9160830078125,-1.7362463474273682,-1.5419689416885376,-0.4717785716056824
1772811174396964000,6.925964111328125,-1.664873719215393,-1.4711289405822754,-0.3380880057811737
1772811174406845000,6.935844970703125,-1.6132084131240845,-1.3821793794631958,-0.1830921620130539
1772811174416726000,6.94572607421875,-1.5626084804534912,-1.275120496749878,-0.0414121188223362
1772811174426607000,6.955607177734375,-1.5466294288635254,-1.146223545074463,0.09121318906545639
1772811174436488000,6.965488037109375,-1.5498253107070923,-1.0056087970733643,0.21052271127700806
1772811174446369000,6.975369140625,-1.5791200399398804,-0.8889623880386353,0.32450589537620544
1772811174456250000,6.98525,-1.6345137357711792,-0.7733812928199768,0.43795645236968994
1772811174466131000,6.995130859375,-1.6915053129196167,-0.6684528589248657,0.5412870049476624
1772811174476012000,7.005011962890625,-1.724528431892395,-0.5709812641143799,0.6339649558067322
1772811174485893000,7.01489306640625,-1.7346484661102295,-0.49321702122688293,0.7175881266593933
1772811174495774000,7.02477392578125,-1.7314527034759521,-0.4527370035648346,0.7878955602645874
1772811174505654800,7.03465478515625,-1.7133432626724243,-0.4324969947338104,0.8459523916244507
1772811174515535600,7.04453564453125,-1.6760590076446533,-0.41705065965652466,0.8890955448150635
1772811174525416400,7.05441650390625,-1.6211979389190674,-0.41332224011421204,0.9205208420753479
1772811174535297300,7.06429736328125,-1.556216835975647,-0.4330296218395233,0.9253145456314087
1772811174545178000,7.07417822265625,-1.4875073432922363,-0.45486751198768616,0.8976176977157593
1772811174555059000,7.084058837890625,-1.4145368337631226,-0.47457489371299744,0.8560724258422852
1772811174564939800,7.093939697265625,-1.3277177810668945,-0.48842331767082214,0.8028092384338379
1772811174574820600,7.103820556640625,-1.2132019996643066,-0.5038696527481079,0.7447523474693298
1772811174584701400,7.113701416015625,-1.0869683027267456,-0.5214464664459229,0.6755102276802063
1772811174594582300,7.123582275390625,-0.9586040377616882,-0.5310338735580444,0.5807017683982849
1772811174604463000,7.133463134765625,-0.8366313576698303,-0.5182507038116455,0.450206995010376
1772811174614344000,7.143343994140625,-0.7178544402122498,-0.48682543635368347,0.30053746700286865
1772811174624224800,7.153224853515625,-0.6022733449935913,-0.4426169991493225,0.1428784728050232
1772811174634105600,7.163105712890625,-0.4840291142463684,-0.39734330773353577,-0.0073236869648098946
1772811174643986400,7.172986328125,-0.37324169278144836,-0.3536674976348877,-0.1495363712310791
1772811174653867300,7.1828671875,-0.2816290557384491,-0.29454535245895386,-0.2779006361961365
1772811174663748000,7.192748046875,-0.21505007147789001,-0.23009692132472992,-0.3908185660839081
1772811174673628700,7.202628662109375,-0.16551531851291656,-0.15872426331043243,-0.4888227880001068
1772811174693390300,7.222390380859375,-0.08189213275909424,0.0804273933172226,-0.6661891937255859
1772811174703271200,7.232271240234375,-0.04886896535754204,0.21411797404289246,-0.7492797374725342
1772811174713152000,7.242152099609375,-0.02010684832930565,0.36591801047325134,-0.8115976452827454
1772811174723032800,7.25203271484375,0.003861580276861787,0.549143373966217,-0.8451534509658813
1772811174732913700,7.26191357421875,0.005459475331008434,0.7158570885658264,-0.8462187051773071
1772811174742794500,7.27179443359375,-0.029694220051169395,0.8633961081504822,-0.8499471545219421
1772811174752675300,7.28167529296875,-0.062184758484363556,1.0626003742218018,-0.8957534432411194
1772811174762556200,7.29155615234375,-0.04673843830823898,1.304947853088379,-0.9841703176498413
1772811174772437000,7.30143701171875,0.052863702178001404,1.4998910427093506,-1.1098713874816895
1772811174782317800,7.31131787109375,0.20040270686149597,1.642103672027588,-1.2084083557128906
1772811174792198700,7.32119873046875,0.3884217143058777,1.715606927871704,-1.2318440675735474
1772811174802079500,7.33107958984375,0.635030210018158,1.7150743007659912,-1.1604714393615723
1772811174811960300,7.340960205078125,0.9295755624771118,1.6623437404632568,-1.0001492500305176
1772811174821841200,7.350841064453125,1.2486220598220825,1.5494258403778076,-0.7604650259017944
1772811174831722000,7.360721923828125,1.561276912689209,1.3736573457717896,-0.45366910099983215
1772811174841602800,7.370602783203125,1.8419737815856934,1.14569091796875,-0.08402266353368759
1772811174851483600,7.380483642578125,2.0949738025665283,0.8884297609329224,0.33888694643974304
1772811174861364500,7.390364501953125,2.3117549419403076,0.6514086723327637,0.7852323651313782
1772811174871245000,7.4002451171875,2.483795166015625,0.46445488929748535,1.2198598384857178
1772811174881126000,7.4101259765625,2.607898235321045,0.32330748438835144,1.6273231506347656
1772811174891007000,7.420007080078125,2.6840646266937256,0.1981390118598938,1.9969695806503296
1772811174900887800,7.4298876953125,2.711228847503662,0.08202528953552246,2.3074939250946045
1772811174910768400,7.439768310546875,2.7096309661865234,-0.004793685860931873,2.527470827102661
1772811174920649200,7.449649169921875,2.681934118270874,-0.06391581147909164,2.638258218765259
1772811174930530000,7.459530029296875,2.622812032699585,-0.07030738890171051,2.6190836429595947
1772811174940411000,7.469410888671875,2.5216119289398193,-0.021837901324033737,2.45876145362854
1772811174950291700,7.479291748046875,2.3868560791015625,0.060187388211488724,2.157291889190674
1772811174960172500,7.489172607421875,2.2281317710876465,0.14381057024002075,1.751426339149475
1772811174970053400,7.499053466796875,2.037982225418091,0.18588848412036896,1.281112551689148
1772811174979934200,7.508934326171875,1.7998958826065063,0.20453059673309326,0.7538071274757385
1772811174989815000,7.51881494140625,1.53357994556427,0.18642111122608185,0.2137184888124466
1772811174999695600,7.528695556640625,1.2395672798156738,0.11984214931726456,-0.31198906898498535
1772811175009575700,7.53857568359375,0.9178577065467834,0.018642112612724304,-0.8110650181770325
1772811175019455700,7.548455810546875,0.5796365141868591,-0.11132004112005234,-1.2542146444320679
1772811175029335800,7.558335693359375,0.23449113965034485,-0.2396842986345291,-1.6366442441940308
1772811175039215900,7.5682158203125,-0.09094687551259995,-0.35526537895202637,-1.9722023010253906
1772811175049096000,7.578095947265625,-0.37910065054893494,-0.4287685751914978,-2.272073984146118
1772811175058976000,7.58797607421875,-0.6145238876342773,-0.42131173610687256,-2.5325307846069336
1772811175068856000,7.59785595703125,-0.796151340007782,-0.31372010707855225,-2.7514424324035645
1772811175078736100,7.607736083984375,-0.9266461133956909,-0.12463583052158356,-2.9250805377960205
1772811175088616400,7.617616455078125,-1.0118671655654907,0.11558109521865845,-3.0475857257843018
1772811175098496500,7.62749658203125,-1.0800440311431885,0.4143875241279602,-3.085935354232788
1772811175108376600,7.63737646484375,-1.1157304048538208,0.7563371062278748,-3.0449225902557373
1772811175118256600,7.647256591796875,-1.0954903364181519,1.1110697984695435,-2.9655604362487793
1772811175128136700,7.65713671875,-1.052879810333252,1.4519541263580322,-2.857436180114746
1772811175138016800,7.667016845703125,-1.010269284248352,1.788044810295105,-2.7061688899993896
1772811175147896800,7.676896728515625,-0.9697892665863037,2.1166787147521973,-2.5128235816955566
1772811175157777000,7.68677685546875,-0.8994818925857544,2.394712448120117,-2.2843244075775146
1772811175167657000,7.696656982421875,-0.8025429248809814,2.6258745193481445,-2.03505277633667
1772811175177537300,7.706537353515625,-0.6789723634719849,2.8149588108062744,-1.782052755355835
1772811175187417300,7.716417236328125,-0.5362270474433899,2.9379968643188477,-1.5413031578063965
1772811175197297400,7.72629736328125,-0.3817638158798218,2.981139898300171,-1.320261001586914
1772811175207177500,7.736177490234375,-0.22730059921741486,2.945453643798828,-1.106675624847412
1772811175217057500,7.7460576171875,-0.07709844410419464,2.8447861671447754,-0.8936229348182678
1772811175226937600,7.7559375,0.07736476510763168,2.678605079650879,-0.6960165500640869
1772811175236817700,7.765817626953125,0.23395849764347076,2.460226058959961,-0.5261070132255554
1772811175246697700,7.77569775390625,0.3926827609539032,2.2061607837677,-0.3908185660839081
1772811175256577800,7.785577880859375,0.5396891236305237,1.9286595582962036,-0.2917490601539612
1772811175266458000,7.7954580078125,0.6776407361030579,1.6484953165054321,-0.2299637645483017
1772811175276338200,7.805338134765625,0.8118639588356018,1.38857102394104,-0.2017342746257782
1772811175286218200,7.81521826171875,0.949815571308136,1.1291793584823608,-0.1878858506679535
1772811175296098300,7.825098388671875,1.1005504131317139,0.8522108197212219,-0.1644500494003296
1772811175305978400,7.834978271484375,1.260872483253479,0.6439517736434937,-0.13409005105495453
1772811175315858400,7.8448583984375,1.4116073846817017,0.4846948981285095,-0.10958898812532425
1772811175325738500,7.854738525390625,1.5309168100357056,0.316915899515152,-0.06697844713926315
1772811175335618600,7.86461865234375,1.620398998260498,0.14434321224689484,0.022503692656755447
1772811175345498600,7.87449853515625,1.7024242877960205,-0.017576847225427628,0.1471395194530487
1772811175355379000,7.88437890625,1.7791231870651245,-0.13795162737369537,0.2973416745662689
1772811175365259000,7.894259033203125,1.8473000526428223,-0.2215748131275177,0.4619249105453491
1772811175375139000,7.90413916015625,1.91547691822052,-0.31372010707855225,0.6371607184410095
1772811175385019100,7.91401904296875,1.9889801740646362,-0.4063980281352997,0.8400934338569641
1772811175394899200,7.923899169921875,2.0742013454437256,-0.47404226660728455,1.057407259941101
1772811175404779300,7.933779296875,2.1647486686706543,-0.5134570002555847,1.2672641277313232
1772811175414659300,7.943659423828125,2.2441108226776123,-0.5267727971076965,1.4382388591766357
1772811175424539400,7.953539306640625,2.2989718914031982,-0.5374254584312439,1.5570157766342163
1772811175434419500,7.96341943359375,2.30483078956604,-0.5613938570022583,1.608148455619812
1772811175444299500,7.973299560546875,2.2536981105804443,-0.566720187664032,1.566070556640625
1772811175454179800,7.983179931640625,2.170074939727783,-0.5560675859451294,1.4190641641616821
1772811175464060000,7.993059814453125,2.0901801586151123,-0.5427517890930176,1.2028156518936157
1772811175473940000,8.00293994140625,2.036916971206665,-0.5049349069595337,0.9737840294837952
1772811175483820000,8.012820068359375,1.998034954071045,-0.4665854275226593,0.7825692296028137
1772811175493700000,8.0227001953125,1.9575549364089966,-0.4474106729030609,0.6344975829124451
1772811175503580400,8.032580322265625,1.9016284942626953,-0.46338963508605957,0.508263885974884
1772811175513461000,8.0424609375,1.8227990865707397,-0.5060001611709595,0.40013960003852844
1772811175523341600,8.052341552734376,1.7061526775360107,-0.5779054760932922,0.3063964247703552
1772811175533222000,8.062221923828124,1.536243200302124,-0.6727139353752136,0.21638165414333344
1772811175543102500,8.0721025390625,1.293363094329834,-0.7749792337417603,0.12636688351631165
1772811175552983000,8.081983154296875,0.9700555801391602,-0.8751139640808105,0.043808963149785995
1772811175562863400,8.09186328125,0.5514070391654968,-0.9566066265106201,-0.02756369300186634
1772811175572744000,8.101743896484376,0.0762995034456253,-0.9970866441726685,-0.08135949820280075
1772811175582624500,8.11162451171875,-0.4041343629360199,-1.0205224752426147,-0.1266331970691681
1772811175592504800,8.1215048828125,-0.863262951374054,-1.0338382720947266,-0.17510269582271576
1772811175602385400,8.131385498046875,-1.2930967807769775,-1.0231856107711792,-0.24061639606952667
1772811175612266000,8.141265869140625,-1.6611453294754028,-0.9779118895530701,-0.35566484928131104
1772811175622146300,8.151146240234375,-1.9908443689346313,-0.9139961004257202,-0.5117259621620178
1772811175632027000,8.16102685546875,-2.2800633907318115,-0.8564718961715698,-0.6890923380851746
1772811175641907200,8.1709072265625,-2.511758327484131,-0.7717834115028381,-0.8744481801986694
1772811175651787800,8.180787841796874,-2.680602550506592,-0.6785728931427002,-1.0576735734939575
1772811175661668400,8.19066845703125,-2.7924551963806152,-0.6119939088821411,-1.223854660987854
1772811175671549000,8.200548828125,-2.8670237064361572,-0.5741770267486572,-1.3596757650375366
1772811175681429200,8.21042919921875,-2.911764621734619,-0.5672528147697449,-1.4560821056365967
1772811175691309800,8.220309814453126,-2.9352004528045654,-0.5992107391357422,-1.518399953842163
1772811175711070700,8.24007080078125,-2.9149603843688965,-0.738760232925415,-1.483778953552246
1772811175720951300,8.249951416015625,-2.857968807220459,-0.8266444802284241,-1.3772525787353516
1772811175730832000,8.259831787109375,-2.7652909755706787,-0.9145287275314331,-1.2494210004806519
1772811175740712200,8.269712158203125,-2.6576993465423584,-0.9699224233627319,-1.126915693283081
1772811175750592800,8.2795927734375,-2.545314073562622,-0.9938908815383911,-1.0097366571426392
1772811175760473000,8.28947314453125,-2.436657190322876,-1.0056087970733643,-0.8835029602050781
1772811175770353700,8.299353759765625,-2.3253371715545654,-1.0040109157562256,-0.7327681183815002
1772811175780234200,8.309234130859375,-2.2113540172576904,-0.9576718807220459,-0.5585975646972656
1772811175790114600,8.319114501953125,-2.1005666255950928,-0.8884297609329224,-0.3530017137527466
1772811175799995100,8.3289951171875,-1.99244225025177,-0.8154592514038086,-0.13302478194236755
1772811175809875700,8.338875732421876,-1.883252739906311,-0.7419560551643372,0.10825740545988083
1772811175819756300,8.34875634765625,-1.781520128250122,-0.6620612740516663,0.3511374890804291
1772811175829636600,8.35863671875,-1.689907431602478,-0.5821664929389954,0.5748428106307983
1772811175839517200,8.36851708984375,-1.606284260749817,-0.5028043985366821,0.7559376358985901
1772811175849397500,8.3783974609375,-1.5290526151657104,-0.4138548672199249,0.8731166124343872
1772811175859278000,8.388278076171876,-1.4507557153701782,-0.31318747997283936,0.9269124269485474
1772811175869158700,8.39815869140625,-1.3852421045303345,-0.1981390118598938,0.9349018931388855
1772811175879039000,8.4080390625,-1.3287830352783203,-0.10013477504253387,0.9253145456314087
1772811175888919600,8.41791943359375,-1.2717914581298828,-0.013315794058144093,0.9178577065467834
1772811175898800000,8.427800048828125,-1.211604118347168,0.042610540986061096,0.9189229607582092
1772811175908680400,8.437680419921875,-1.1641998291015625,0.06231791526079178,0.9311735033988953
1772811175918561000,8.44756103515625,-1.124252438545227,0.06072001904249191,0.9402282238006592
1772811175928441600,8.457441650390624,-1.0869683027267456,0.043675802648067474,0.9370324015617371
1772811175938322200,8.467322265625,-1.052347183227539,0.03355580195784569,0.9056071639060974
1772811175948202500,8.477202392578125,-1.0267808437347412,0.01012000348418951,0.8454197645187378
1772811175958083000,8.4870830078125,-1.0113345384597778,-0.029294747859239578,0.7697860598564148
1772811175967963400,8.49696337890625,-1.0022798776626587,-0.0942758247256279,0.6904239058494568
1772811175977844000,8.506843994140626,-1.0006818771362305,-0.1794968992471695,0.6195839047431946
1772811175987724500,8.516724609375,-1.0134650468826294,-0.2732400894165039,0.5583312511444092
1772811175997605000,8.526605224609375,-1.040629267692566,-0.3675159215927124,0.517318606376648
1772811176007486200,8.536486328125,-1.065130352973938,-0.4436822533607483,0.492284893989563
1772811176017367600,8.546367431640626,-1.0507493019104004,-0.5102612376213074,0.4768385887145996
1772811176027248600,8.55624853515625,-1.0081387758255005,-0.5406212210655212,0.4411522448062897
1772811176037130000,8.5661298828125,-0.9479513764381409,-0.5448822975158691,0.3878890872001648
1772811176047011000,8.576010986328125,-0.8440881967544556,-0.5390233397483826,0.3255711793899536
1772811176056892400,8.585892333984376,-0.7072018384933472,-0.5326317548751831,0.2552637755870819
1772811176066773500,8.5957734375,-0.5713807344436646,-0.5294359922409058,0.16524900496006012
1772811176076654600,8.605654541015625,-0.4472775161266327,-0.536892831325531,0.05126580595970154
1772811176086536000,8.615535888671875,-0.33063116669654846,-0.5315665006637573,-0.08455529063940048
1772811176096417000,8.6254169921875,-0.2203763872385025,-0.516120195388794,-0.2113216519355774
1772811176106298400,8.63529833984375,-0.11118687689304352,-0.49268439412117004,-0.2917490601539612
1772811176116179500,8.645179443359375,-0.006791055202484131,-0.48309701681137085,-0.3114564120769501
1772811176126060800,8.655060791015625,0.04593949019908905,-0.5065327882766724,-0.30826061964035034
1772811176135942000,8.66494189453125,0.043808963149785995,-0.5166528224945068,-0.3338269591331482
1772811176145823000,8.674822998046874,0.0390152782201767,-0.49215173721313477,-0.4036017060279846
1772811176155704300,8.684704345703125,0.048070017248392105,-0.46019384264945984,-0.49042069911956787
1772811176165585400,8.69458544921875,0.06564686447381973,-0.4149201512336731,-0.5836312770843506
1772811176175466800,8.704466796875,0.11145319789648056,-0.33289486169815063,-0.670982837677002
1772811176185347800,8.714347900390624,0.22437113523483276,-0.21997691690921783,-0.7093323469161987
1772811176195229200,8.724229248046875,0.3873564600944519,-0.05752423033118248,-0.6454165577888489
1772811176205110300,8.7341103515625,0.5546028017997742,0.13528846204280853,-0.47923544049263
1772811176214991400,8.743991455078126,0.7053375840187073,0.3621895909309387,-0.25073641538619995
1772811176224872700,8.753872802734374,0.819320797920227,0.650875985622406,-0.026498429477214813
1772811176234753800,8.76375390625,0.8768450617790222,0.9672592878341675,0.12689951062202454
1772811176244635100,8.77363525390625,0.8720513582229614,1.2937625646591187,0.1854890137910843
1772811176254516200,8.78351611328125,0.8384955525398254,1.629320502281189,0.15779216587543488
1772811176264397600,8.7933974609375,0.8086681962013245,1.9872491359710693,0.06990791857242584
1772811176274278700,8.803278564453125,0.773514449596405,2.394712448120117,-0.10319740325212479
1772811176284159700,8.81315966796875,0.6760428547859192,2.8288073539733887,-0.3817638158798218
1772811176294041000,8.823041015625,0.4954806864261627,3.2213568687438965,-0.7354313135147095
1772811176303922200,8.832922119140624,0.26325324177742004,3.531348466873169,-1.107740879058838
1772811176313803500,8.842803466796875,0.028895273804664612,3.7705001831054688,-1.4235914945602417
1772811176323684600,8.8526845703125,-0.1777658462524414,3.948399305343628,-1.6419705152511597
1772811176333565700,8.862565673828126,-0.3434143364429474,4.01923942565918,-1.794303297996521
1772811176343447000,8.872447021484374,-0.4701806902885437,4.003260135650635,-1.921069622039795
1772811176353328000,8.882328125,-0.7034733891487122,4.060251712799072,-2.0377159118652344
1772811176363209500,8.89220947265625,-0.9554082155227661,4.109253883361816,-2.1698086261749268
1772811176373090600,8.902090576171876,-1.137035608291626,4.009652137756348,-2.268345594406128
1772811176382972000,8.911971923828125,-1.3495557308197021,3.784881353378296,-2.3237392902374268
1772811176392853000,8.92185302734375,-1.5753916501998901,3.507380247116089,-2.3700780868530273
1772811176402734000,8.931734130859375,-1.8001621961593628,3.3715591430664062,-2.3807308673858643
1772811176412615400,8.941615478515626,-2.019073963165283,3.3752875328063965,-2.326402425765991
1772811176422496500,8.95149658203125,-2.2220065593719482,3.4631717205047607,-2.2646172046661377
1772811176432377900,8.9613779296875,-2.395644426345825,3.596329689025879,-2.2172129154205322
1772811176442259000,8.971259033203125,-2.5325307846069336,3.695931911468506,-2.1825919151306152
1772811176452140300,8.981140380859374,-2.699777126312256,3.779555082321167,-2.1623518466949463
1772811176462021400,8.991021484375,-2.863295078277588,3.864776134490967,-2.0963053703308105
1772811176471902500,9.00090234375,-2.9591689109802246,3.9457361698150635,-1.9045580625534058
1772811176481783800,9.01078369140625,-2.9996488094329834,3.947334051132202,-1.5993599891662598
1772811176491665000,9.020664794921874,-2.9980509281158447,3.9350833892822266,-1.2217241525650024
1772811176501546000,9.0305458984375,-2.8947205543518066,3.8701024055480957,-0.8675239682197571
1772811176511426600,9.040426513671875,-2.7999119758605957,3.888744592666626,-0.5857617855072021
1772811176521307400,9.050307373046875,-2.7407898902893066,3.967573881149292,-0.35566484928131104
1772811176531188000,9.06018798828125,-2.6662213802337646,3.947334051132202,-0.15219952166080475
1772811176541068800,9.07006884765625,-2.5442488193511963,3.9643781185150146,0.0027963167522102594
1772811176550949400,9.079949462890625,-2.3636865615844727,3.9611823558807373,0.09227845072746277
1772811176560830200,9.089830322265625,-2.187918186187744,4.070904731750488,0.1950763761997223
1772811176570710800,9.099710693359375,-2.044107437133789,4.3670477867126465,0.2685795724391937
1772811176580591600,9.109591552734376,-1.8843179941177368,4.598209857940674,0.27284061908721924
1772811176590472200,9.11947216796875,-1.6073495149612427,4.527369976043701,0.23928481340408325
1772811176600353000,9.12935302734375,-1.3287830352783203,4.494346618652344,0.19827216863632202
1772811176610233600,9.139233642578125,-1.1056103706359863,4.356395244598389,0.1902827024459839
1772811176620114400,9.149114501953125,-0.9149281978607178,4.048001289367676,0.2520679831504822
1772811176629995000,9.1589951171875,-0.7593997120857239,3.675691843032837,0.3687143325805664
1772811176639875800,9.168875732421874,-0.6475470662117004,3.441866397857666,0.5183838605880737
1772811176649756400,9.17875634765625,-0.5921533703804016,3.426420211791992,0.6707165241241455
1772811176659637200,9.18863720703125,-0.5676522850990295,3.546794891357422,0.786297619342804
1772811176669517800,9.198517822265625,-0.519715428352356,3.704453945159912,0.8544744849205017
1772811176679398700,9.208398681640626,-0.39294907450675964,3.790207624435425,0.8843019008636475
1772811176689279200,9.218279296875,-0.19108164310455322,3.7417380809783936,0.9157271385192871
1772811176699160000,9.22816015625,0.02516685053706169,3.6032538414001465,0.9945566654205322
1772811176709040600,9.23804052734375,0.20572902262210846,3.4205610752105713,1.1271820068359375
1772811176718921500,9.24792138671875,0.32503852248191833,3.1776812076568604,1.2587419748306274
1772811176728802300,9.25780224609375,0.37670382857322693,2.926811456680298,1.3679314851760864
1772811176738683000,9.267682861328124,0.3932153880596161,2.722813606262207,1.4755231142044067
1772811176748563700,9.277563720703125,0.39854171872138977,2.5923187732696533,1.600158929824829
1772811176758444300,9.2874443359375,0.40866172313690186,2.416017770767212,1.7508937120437622
1772811176768325000,9.2973251953125,0.4432827830314636,2.210954427719116,1.9255969524383545
1772811176778205700,9.307205810546876,0.5348954200744629,2.0069565773010254,2.077929735183716
1772811176788086500,9.31708642578125,0.693087100982666,1.7401080131530762,2.1988370418548584
1772811176797967000,9.326967041015624,0.8459523916244507,1.3981584310531616,2.284058094024658
1772811176807848000,9.336847900390625,0.9210534691810608,1.0157287120819092,2.3266687393188477
1772811176817728500,9.346728515625,0.8688555359840393,0.6332991719245911,2.3080265522003174
1772811176827609300,9.356609375,0.6627270579338074,0.22370533645153046,2.1098875999450684
1772811176837490000,9.366489990234374,0.4304996132850647,0.08788423985242844,1.7626116275787354
1772811176847370800,9.376370849609375,0.3207774758338928,0.2934800982475281,1.4675337076187134
1772811176857251300,9.386251220703125,0.2707100808620453,0.43675804138183594,1.273123025894165
1772811176867132200,9.396132080078125,0.3026680052280426,0.4767054319381714,1.1873693466186523
1772811176877013000,9.406012939453126,0.4214448928833008,0.5257075428962708,1.1974893808364868
1772811176886893600,9.4158935546875,0.5988112688064575,0.5411538481712341,1.2576767206192017
1772811176896774400,9.4257744140625,0.7841671109199524,0.5326317548751831,1.3120051622390747
1772811176906655000,9.435655029296875,0.8699208498001099,0.5091959834098816,1.3365062475204468
1772811176916535800,9.445535888671875,0.8054723739624023,0.6183854937553406,1.196956753730774
1772811176926416400,9.45541650390625,0.7032070755958557,0.6434191465377808,1.025449275970459
1772811176936297200,9.465297119140626,0.689358651638031,0.751543402671814,0.953544020652771
1772811176946177800,9.475177734375,0.7053375840187073,0.827177107334137,0.9157271385192871
1772811176956058600,9.48505859375,0.7218492031097412,0.7771097421646118,0.9375650882720947
1772811176965939200,9.494939208984375,0.7197186946868896,0.7270423769950867,0.995621919631958
1772811176975820000,9.504820068359376,0.697880744934082,0.6743118166923523,1.0637987852096558
1772811176985700600,9.51470068359375,0.6488786339759827,0.5784381031990051,1.112268328666687
1772811176995581400,9.52458154296875,0.5657880902290344,0.5054675340652466,1.1128009557724
1772811177005462500,9.534462646484375,0.4539354145526886,0.45966121554374695,1.0648640394210815
1772811177015343600,9.544343505859375,0.3442132771015167,0.4202464520931244,1.0046766996383667
1772811177025225000,9.554224853515626,0.2797648310661316,0.4149201512336731,0.9583377242088318
1772811177035106000,9.56410595703125,0.25366586446762085,0.4388885796070099,0.9141292572021484
1772811177044987100,9.573987060546875,0.24567639827728271,0.48362964391708374,0.8592681884765625
1772811177054868200,9.5838681640625,0.2179795503616333,0.5640570521354675,0.7926892042160034
1772811177064749600,9.59374951171875,0.1615205854177475,0.6924213171005249,0.7159902453422546
1772811177074630700,9.603630615234374,0.1375521570444107,0.8990824222564697,0.6355628371238708
1772811177084511700,9.61351171875,0.18282584846019745,1.0796445608139038,0.5567333698272705
1772811177094392800,9.623392822265625,0.23875218629837036,1.1068087816238403,0.46938174962997437
1772811177104274200,9.633274169921876,0.273905873298645,0.9779118895530701,0.405998557806015
1772811177114155300,9.6431552734375,0.28455850481987,0.7898929119110107,0.3825627565383911
1772811177124036400,9.653036376953125,0.2664490342140198,0.6311686635017395,0.3740406632423401
1772811177133917700,9.662917724609375,0.21478375792503357,0.5805686116218567,0.3553985357284546
1772811177143798800,9.672798828125,0.1572595238685608,0.6215812563896179,0.30160272121429443
1772811177153680000,9.682679931640624,0.13009530305862427,0.6455497145652771,0.28136274218559265
1772811177163561000,9.69256103515625,0.08269108086824417,0.6801707744598389,0.3319627344608307
1772811177173442300,9.7024423828125,0.19560901820659637,0.4724443852901459,0.3591269552707672
1772811177183323400,9.712323486328126,0.3676490783691406,0.2775011360645294,0.4070638120174408
1772811177193204500,9.72220458984375,0.450206995010376,0.14487583935260773,0.41345539689064026
1772811177203085800,9.7320859375,0.48908910155296326,0.08202528953552246,0.3825627565383911
1772811177212967000,9.741966796875,0.4869585931301117,0.050600018352270126,0.3964111804962158
1772811177222848000,9.751847900390626,0.462457537651062,0.01438105758279562,0.4443480372428894
1772811177232729000,9.76172900390625,0.40919435024261475,-0.03621895983815193,0.4864259660243988
1772811177242610400,9.7716103515625,0.31864693760871887,-0.0846884474158287,0.5050680637359619
1772811177252491500,9.781491455078125,0.24514377117156982,-0.08255792409181595,0.5141227841377258
1772811177262372600,9.79137255859375,0.20253323018550873,-0.09853687882423401,0.4917522668838501
1772811177272253700,9.801253662109374,0.1806953251361847,-0.1081242486834526,0.428901731967926
1772811177282135000,9.811135009765625,0.16045531630516052,-0.1315600425004959,0.33249539136886597
1772811177292016000,9.82101611328125,0.14128057658672333,-0.16192005574703217,0.2275669276714325
1772811177301897200,9.830897216796876,0.11731214821338654,-0.15659373998641968,0.16311848163604736
1772811177311778300,9.8407783203125,0.09121318906545639,-0.11504846066236496,0.133291095495224
1772811177321659600,9.85065966796875,0.0858868733048439,-0.08362318575382233,0.13968268036842346
1772811177331540700,9.860540771484375,0.0954742431640625,-0.050600018352270126,0.14074794948101044
1772811177341421800,9.870421875,0.07150581479072571,-0.019707374274730682,0.13116057217121124
1772811177351303200,9.88030322265625,0.0342215895652771,0.002130527049303055,0.14074794948101044
1772811177361184300,9.890184326171875,0.007590002380311489,0.01012000348418951,0.1386174112558365
1772811177371065300,9.9000654296875,-0.042477384209632874,0.013848425820469856,0.11944267153739929
1772811177380946400,9.909946533203126,-0.08988160640001297,0.04474106803536415,0.12157320231199265
1772811177390827800,9.919827880859375,-0.07976160943508148,-0.001597895286977291,0.16045531630516052
