time,seconds_elapsed,z,y,x
1772811074707044900,0.324044921875,-2.989192485809326,-2.413442611694336,0.5713961124420166
1772811074726806500,0.343806640625,-2.593344211578369,-2.3297080993652344,0.48995786905288696
1772811074746568000,0.36356787109375,-3.037707805633545,-1.6569676399230957,0.9099487662315369
1772811074766329600,0.38332958984375,-2.5623202323913574,-1.952153205871582,0.9151138067245483
1772811074786091000,0.403091064453125,-5.010555267333984,-1.9824786186218262,0.7105103731155396
1772811074805852700,0.422852783203125,-5.476995468139648,-3.4700984954833984,0.2305891513824463
1772811074825614000,0.442614013671875,-1.531571865081787,-4.497079849243164,0.5746078491210938
1772811074845375700,0.462375732421875,-2.7707910537719727,-5.576025009155273,0.523688554763794
1772811074865137200,0.48213720703125,-4.646420955657959,-6.066216468811035,2.225904703140259
1772811074884898800,0.50189892578125,-5.534543037414551,-6.83007287979126,3.4053359031677246
1772811074904660500,0.521660400390625,-3.143329620361328,-6.5648040771484375,1.8047752380371094
1772811074924422000,0.541421875,-2.7701406478881836,-7.236617088317871,2.26871919631958
1772811074944183600,0.56118359375,-3.9123470783233643,-8.471057891845703,3.1691203117370605
1772811074963945000,0.580945068359375,-1.2150225639343262,-8.276834487915039,2.6747207641601562
1772811074983706600,0.60070654296875,2.3326807022094727,-8.423197746276855,2.248204231262207
1772811075003467800,0.6204677734375,2.346597194671631,-7.763237953186035,1.3462409973144531
1772811075023229000,0.64022900390625,-1.3307380676269531,-8.004697799682617,1.085576057434082
1772811075042990300,0.659990234375,-3.3277273178100586,-8.606292724609375,-0.5540094375610352
1772811075062751500,0.67975146484375,-1.0446038246154785,-9.23290729522705,-2.869067668914795
1772811075082512600,0.6995126953125,2.0992865562438965,-10.328296661376953,-3.3765907287597656
1772811075102273800,0.719273681640625,2.6862411499023438,-11.147910118103027,-2.469503879547119
1772811075122035000,0.739034912109375,-0.6553570032119751,-10.899056434631348,0.25956249237060547
1772811075141796000,0.758796142578125,-1.711820363998413,-9.721226692199707,3.952411651611328
1772811075161557200,0.77855712890625,-0.6206002235412598,-7.933039665222168,6.929805755615234
1772811075181318400,0.798318359375,0.44376087188720703,-6.083964824676514,7.87114953994751
1772811075201079800,0.818079833984375,0.7841434478759766,-4.452104091644287,7.309676647186279
1772811075220841000,0.837841064453125,0.18229198455810547,-3.158712387084961,6.753244876861572
1772811075240602000,0.85760205078125,-0.7548339366912842,-2.4446706771850586,6.217470645904541
1772811075260363300,0.87736328125,-1.6240981817245483,-1.978888988494873,5.169071674346924
1772811075280124400,0.89712451171875,-2.8262929916381836,-1.3269672393798828,3.552323341369629
1772811075299885600,0.916885498046875,-4.221194744110107,-1.9234700202941895,3.00645112991333
1772811075319646700,0.936646728515625,-5.325031757354736,-3.083462715148926,1.5735316276550293
1772811075339408000,0.956407958984375,-5.8728227615356445,-3.851851463317871,-0.7490129470825195
1772811075359169300,0.976169189453125,-5.340455532073975,-4.112268447875977,-2.7359235286712646
1772811075378930400,0.995930419921875,-2.090243101119995,-3.7683939933776855,-4.4753522872924805
1772811075398691600,1.015691650390625,2.399350881576538,-2.9585208892822266,-3.3376553058624268
1772811075418452700,1.03545263671875,5.7875213623046875,-2.0250988006591797,-0.681272029876709
1772811075438214000,1.0552138671875,8.645637512207031,-0.6219921112060547,1.1483378410339355
1772811075457975000,1.07497509765625,9.778264999389648,0.8274116516113281,2.2456812858581543
1772811075477736200,1.094736083984375,8.516717910766602,1.871753215789795,2.839996814727783
1772811075497497900,1.114497802734375,5.208829402923584,2.142544746398926,3.10235595703125
1772811075517260500,1.134260498046875,1.8449809551239014,2.178610324859619,2.9956283569335938
1772811075537023000,1.15402294921875,-1.0543755292892456,2.208409309387207,2.9150705337524414
1772811075556785700,1.17378564453125,-3.540186882019043,2.3849596977233887,2.521359443664551
1772811075576548000,1.193548095703125,-4.440797805786133,2.0816664695739746,2.7174019813537598
1772811075596310800,1.213310791015625,-4.214648723602295,1.233078956604004,3.083888530731201
1772811075616073500,1.233073486328125,-1.6300779581069946,0.8320813179016113,2.931845188140869
1772811075635836000,1.2528359375,-0.6907106041908264,-0.24707889556884766,2.182994842529297
1772811075655598600,1.2725986328125,0.18833178281784058,-0.815394401550293,0.8678812980651855
1772811075675361300,1.292361328125,0.6354245543479919,-1.5175142288208008,0.16414308547973633
1772811075695123700,1.312123779296875,0.22667032480239868,-2.192777156829834,-0.05863618850708008
1772811075714886400,1.331886474609375,-0.501553475856781,-2.382274627685547,-0.401003360748291
1772811075734648800,1.35164892578125,-0.46816039085388184,-2.4498682022094727,-0.7359194755554199
1772811075754411500,1.37141162109375,-0.055075228214263916,-2.662890911102295,-0.7005033493041992
1772811075774174000,1.391174072265625,-0.8076860904693604,-3.1581339836120605,-0.40009546279907227
1772811075793936600,1.4109365234375,-0.5644747614860535,-3.287764549255371,-0.13945674896240234
1772811075813699300,1.43069921875,-2.231956958770752,-3.590610980987549,-0.37073326110839844
1772811075833461800,1.450461669921875,-3.5903725624084473,-3.867281913757324,-0.5479722023010254
1772811075853224400,1.470224365234375,-3.347973346710205,-4.008200645446777,-0.7945380210876465
1772811075872987000,1.48998681640625,-3.6870548725128174,-4.144224643707275,-1.2674202919006348
1772811075892749600,1.50974951171875,-3.5415048599243164,-4.327681541442871,-1.5257139205932617
1772811075912512300,1.52951220703125,-2.592073678970337,-4.361587047576904,-1.9868817329406738
1772811075932274700,1.549274658203125,-1.6844905614852905,-4.480101585388184,-2.3984994888305664
1772811075952037400,1.569037353515625,-1.2477710247039795,-4.736804008483887,-2.7210631370544434
1772811075971800000,1.588800048828125,-0.7863624095916748,-5.09141731262207,-2.891735553741455
1772811075991562500,1.6085625,-0.5564301013946533,-5.453226089477539,-3.085975170135498
1772811076011331300,1.628331298828125,-0.558259904384613,-5.682222366333008,-3.5080971717834473
1772811076031093500,1.648093505859375,-0.412853479385376,-5.950368881225586,-3.91581392288208
1772811076050855700,1.667855712890625,0.13149946928024292,-5.9530768394470215,-4.341102600097656
1772811076070617600,1.68761767578125,0.589651346206665,-5.976208686828613,-4.7004475593566895
1772811076090379800,1.7073798828125,0.27389609813690186,-6.654753684997559,-4.400857448577881
1772811076110142000,1.727141845703125,-0.5239964723587036,-7.561731338500977,-4.561991214752197
1772811076129903900,1.74690380859375,-0.22768497467041016,-7.992001533508301,-5.3625264167785645
1772811076149666000,1.766666015625,0.9145034551620483,-8.14572811126709,-6.124519348144531
1772811076169428200,1.78642822265625,2.4180002212524414,-7.984107494354248,-6.4703569412231445
1772811076189190100,1.806190185546875,2.8636064529418945,-7.328469276428223,-5.582371234893799
1772811076208952300,1.825952392578125,2.431534767150879,-5.9202728271484375,-4.415614604949951
1772811076228714500,1.845714599609375,1.1222833395004272,-4.474656105041504,-2.9129176139831543
1772811076248476400,1.865476318359375,-0.11942893266677856,-3.22222638130188,-1.4219646453857422
1772811076268238600,1.885238525390625,0.26752591133117676,-2.368715524673462,-0.2620258331298828
1772811076288000800,1.905000732421875,-0.3022592067718506,-1.9639155864715576,-0.4660835266113281
1772811076307762700,1.9247626953125,-1.4640620946884155,-2.2058610916137695,0.04813957214355469
1772811076327524900,1.94452490234375,-2.746255397796631,-2.355705738067627,-0.23065567016601562
1772811076347286800,1.964286865234375,-3.0657920837402344,-2.668259382247925,-0.8650102615356445
1772811076367049000,1.984049072265625,-2.291256904602051,-3.167886257171631,-1.5252175331115723
1772811076386811100,2.00381103515625,-1.578056812286377,-3.8093249797821045,-2.084834575653076
1772811076406573000,2.023572998046875,-1.08818519115448,-4.367023944854736,-2.8181605339050293
1772811076426335200,2.043335205078125,-0.5683072805404663,-4.767664909362793,-3.6181750297546387
1772811076446097400,2.063097412109375,-0.08198672533035278,-4.934045791625977,-4.271446228027344
1772811076465859300,2.082859375,0.4430995583534241,-5.001680374145508,-4.521937847137451
1772811076485621500,2.10262158203125,0.9082316756248474,-4.7917680740356445,-4.64659309387207
1772811076505383400,2.122383544921875,0.33995479345321655,-4.51890230178833,-4.472761154174805
1772811076525145000,2.14214501953125,-0.7391919493675232,-4.4125165939331055,-3.949004650115967
1772811076544906800,2.16190673828125,-1.2944531440734863,-4.089483261108398,-3.9111580848693848
1772811076564668700,2.181668701171875,-1.619099736213684,-3.8649559020996094,-4.057584285736084
1772811076584430300,2.201430419921875,-1.6261420249938965,-3.693983554840088,-4.264445781707764
1772811076604192000,2.22119189453125,-1.6163480281829834,-3.671208620071411,-4.07990026473999
1772811076623953700,2.24095361328125,-2.591808319091797,-3.328005790710449,-3.906388759613037
1772811076643715600,2.260715576171875,-2.698446273803711,-3.272304058074951,-3.869377613067627
1772811076663477200,2.280477294921875,-2.8901209831237793,-3.0271942615509033,-3.64970064163208
1772811076683239000,2.300239013671875,-3.0818042755126953,-2.915041446685791,-3.184234142303467
1772811076703000800,2.320000732421875,-3.144836902618408,-3.0715742111206055,-2.6127848625183105
1772811076722762500,2.339762451171875,-2.726912498474121,-3.359513282775879,-1.3390464782714844
1772811076742524200,2.359524169921875,-2.054187536239624,-3.6802730560302734,0.38515806198120117
1772811076762285800,2.379285888671875,-1.5675694942474365,-3.617069721221924,1.9983649253845215
1772811076782047700,2.3990478515625,-1.0343241691589355,-3.125852584838867,4.183673858642578
1772811076801809400,2.418809326171875,-1.3399748802185059,-3.5395922660827637,6.997131824493408
1772811076821571000,2.438571044921875,-1.649756908416748,-3.034590721130371,7.965951919555664
1772811076841333000,2.4583330078125,-1.2129414081573486,-1.655529499053955,8.110801696777344
1772811076861094700,2.4780947265625,-1.002061367034912,-0.22147798538208008,8.385887145996094
1772811076880856300,2.497856201171875,-1.3409637212753296,0.8541431427001953,8.917510986328125
1772811076900618000,2.517617919921875,-1.5044150352478027,1.5204954147338867,8.99135971069336
1772811076920380000,2.5373798828125,-1.703932762145996,2.2687039375305176,7.89898157119751
1772811076940141600,2.5571416015625,-2.6131346225738525,2.69765567779541,6.301431655883789
1772811076959903200,2.5769033203125,-3.3505637645721436,2.905010223388672,4.808849811553955
1772811076979665200,2.5966650390625,-4.123973846435547,2.8001766204833984,3.612015724182129
1772811076999426600,2.616426513671875,-3.825394630432129,2.411970615386963,3.0286684036254883
1772811077019187200,2.636187255859375,-3.6536097526550293,1.3269729614257812,2.8626227378845215
1772811077038948000,2.655947998046875,-3.2968215942382812,0.5415191650390625,2.3343982696533203
1772811077058709000,2.675708984375,-2.833268404006958,0.01555490493774414,1.6420040130615234
1772811077078470000,2.695469970703125,-1.9694678783416748,-0.6094570159912109,1.182485580444336
1772811077098230500,2.71523046875,-0.7541296482086182,-1.1517186164855957,0.9791150093078613
1772811077117991400,2.734991455078125,0.18226075172424316,-1.9457387924194336,1.1117525100708008
1772811077137752300,2.75475244140625,0.6049087047576904,-2.58404541015625,1.3640103340148926
1772811077157513200,2.77451318359375,0.6116132736206055,-3.0818610191345215,1.456005573272705
1772811077177273900,2.79427392578125,0.24104464054107666,-3.213292121887207,1.1562080383300781
1772811077197034800,2.81403466796875,-0.34913408756256104,-3.3814096450805664,0.9409418106079102
1772811077216795600,2.833795654296875,-1.0738624334335327,-3.819988250732422,0.7746715545654297
1772811077236556300,2.853556396484375,-1.3332288265228271,-4.157887935638428,0.4518709182739258
1772811077256317200,2.873317138671875,-1.4975764751434326,-4.575683116912842,0.011690139770507812
1772811077276078000,2.893078125,-1.7028419971466064,-4.928689956665039,-0.7855205535888672
1772811077295839000,2.9128388671875,-1.7459509372711182,-5.061482906341553,-1.7302117347717285
1772811077315599600,2.932599609375,-1.6229060888290405,-5.161757469177246,-2.588655471801758
1772811077335360500,2.952360595703125,-1.3313755989074707,-5.1891770362854,-3.2641568183898926
1772811077355121400,2.972121337890625,-1.0028290748596191,-5.173492908477783,-3.9003686904907227
1772811077374882300,2.99188232421875,-0.815142035484314,-5.119087219238281,-4.4282145500183105
1772811077394643000,3.011642822265625,-0.7605852484703064,-5.171082496643066,-4.874725341796875
1772811077414403800,3.03140380859375,-0.7909753322601318,-5.356133460998535,-5.364975452423096
1772811077434164700,3.051164794921875,-0.5798393487930298,-5.498907566070557,-6.244823455810547
1772811077453925400,3.07092529296875,0.014247655868530273,-5.394956588745117,-6.983068466186523
1772811077473686300,3.090686279296875,0.5257434248924255,-5.064747333526611,-7.430533409118652
1772811077493447200,3.110447265625,0.6410980820655823,-4.8196940422058105,-7.617439270019531
1772811077513208600,3.13020849609375,0.1476370096206665,-5.120735168457031,-7.16776704788208
1772811077532969700,3.1499697265625,-1.3570067882537842,-6.393483638763428,-6.152783393859863
1772811077552731000,3.16973095703125,-2.2176692485809326,-7.021049499511719,-5.484735012054443
1772811077572492300,3.1894921875,-1.679488182067871,-7.573454856872559,-3.913388729095459
1772811077592253400,3.20925341796875,-1.075992465019226,-7.887300968170166,-1.6095848083496094
1772811077612014600,3.2290146484375,-0.9352489709854126,-7.668226718902588,-0.5132169723510742
1772811077631775700,3.248775634765625,-1.2713500261306763,-6.835439682006836,0.25755977630615234
1772811077651537200,3.268537109375,-1.5187561511993408,-5.3029584884643555,1.3271808624267578
1772811077671298300,3.28829833984375,-0.9324630498886108,-3.617689609527588,2.4659767150878906
1772811077691059500,3.3080595703125,-0.3737943172454834,-2.116422176361084,3.5353527069091797
1772811077710820900,3.32782080078125,-0.6633930206298828,-1.1728143692016602,3.225235939025879
1772811077730582000,3.34758203125,-1.925790786743164,-1.038297414779663,1.6572866439819336
1772811077750343400,3.367343505859375,-3.821835517883301,-1.1755051612854004,0.2466573715209961
1772811077770104600,3.3871044921875,-5.400418281555176,-1.7604589462280273,0.10944175720214844
1772811077789865700,3.40686572265625,-5.892566204071045,-1.6546077728271484,0.009045600891113281
1772811077809627100,3.426627197265625,-5.701818943023682,-1.463876724243164,-0.3827705383300781
1772811077829388300,3.44638818359375,-5.294499397277832,-1.6176278591156006,-0.8425540924072266
1772811077849149400,3.4661494140625,-4.698756694793701,-1.9105660915374756,-1.4661965370178223
1772811077868910600,3.48591064453125,-4.0587849617004395,-2.2345328330993652,-2.0960278511047363
1772811077888672000,3.505672119140625,-3.1459414958953857,-2.5727436542510986,-2.5645017623901367
1772811077908433200,3.52543310546875,-2.1914525032043457,-2.958763360977173,-2.8934521675109863
1772811077928194300,3.5451943359375,-1.4855109453201294,-3.25639009475708,-3.2957940101623535
1772811077947955700,3.564955810546875,-0.6959409117698669,-3.4867475032806396,-3.595919132232666
1772811077967716900,3.584716796875,-0.142592191696167,-3.6104085445404053,-3.9132604598999023
1772811077987478300,3.604478271484375,0.06562447547912598,-3.546875476837158,-4.116687297821045
1772811078007239700,3.62423974609375,0.010412812232971191,-3.4082889556884766,-4.1917290687561035
1772811078027001300,3.64400146484375,0.03289198875427246,-3.173438787460327,-4.0846476554870605
1772811078046763000,3.663762939453125,-0.20522093772888184,-2.89029598236084,-3.8737387657165527
1772811078066524700,3.683524658203125,-0.7710731029510498,-2.5752367973327637,-3.5406126976013184
1772811078086286300,3.703286376953125,-1.699875831604004,-2.2976536750793457,-3.2048306465148926
1772811078106048000,3.723048095703125,-2.1890196800231934,-2.000868797302246,-2.863407611846924
1772811078125809400,3.742809326171875,-2.6694183349609375,-1.9321422576904297,-2.4455580711364746
1772811078145571000,3.762571044921875,-2.81386399269104,-1.7776331901550293,-2.1713595390319824
1772811078165332700,3.782332763671875,-2.881632089614868,-1.7236628532409668,-1.6606240272521973
1772811078185094400,3.802094482421875,-2.8006296157836914,-1.9193849563598633,-0.8579287528991699
1772811078204856000,3.82185595703125,-2.8349435329437256,-2.232884407043457,-0.10941839218139648
1772811078224617700,3.84161767578125,-3.0665998458862305,-2.0989599227905273,0.41800737380981445
1772811078244379400,3.86137939453125,-3.264716625213623,-1.9575872421264648,1.065988540649414
1772811078264141000,3.88114111328125,-3.300912618637085,-2.0317845344543457,2.3100690841674805
1772811078283902700,3.90090283203125,-3.826591730117798,-2.504617214202881,4.041355609893799
1772811078303664400,3.920664306640625,-3.8783860206604004,-2.3991518020629883,4.947060585021973
1772811078323426000,3.940426025390625,-3.3262739181518555,-1.622640609741211,4.931420803070068
1772811078343187700,3.960187744140625,-2.817970037460327,-0.42542362213134766,5.047060966491699
1772811078362949400,3.979949462890625,-2.5627658367156982,0.5517959594726562,5.554854393005371
1772811078382711000,3.9997109375,-2.3552920818328857,1.2246475219726562,6.290464401245117
1772811078402472700,4.01947265625,-1.9955034255981445,1.8391141891479492,6.608088970184326
1772811078422234400,4.039234375,-2.036491870880127,2.3992719650268555,6.196376323699951
1772811078441996000,4.05899609375,-2.2224972248077393,2.8638176918029785,5.240060329437256
1772811078461757400,4.07875732421875,-2.6960244178771973,2.6877989768981934,4.606754779815674
1772811078481519000,4.09851904296875,-2.8643674850463867,1.9990930557250977,4.3633904457092285
1772811078501281000,4.118281005859375,-2.6923086643218994,1.3723645210266113,3.9678072929382324
1772811078521043200,4.138043212890625,-2.409055471420288,0.6461896896362305,3.6947507858276367
1772811078540805400,4.157805419921875,-1.824791431427002,-0.2523045539855957,3.604435920715332
1772811078560567600,4.177567626953125,-1.491923213005066,-0.744255542755127,3.291469097137451
1772811078580329700,4.197329833984375,-1.0128870010375977,-1.190605640411377,2.9411582946777344
1772811078600092000,4.217091796875,-0.5708191394805908,-1.2354531288146973,2.142894744873047
1772811078619854000,4.23685400390625,-0.12056493759155273,-1.4764437675476074,1.3167738914489746
1772811078639616300,4.2566162109375,0.4871840476989746,-1.9231986999511719,0.7645230293273926
1772811078659378400,4.27637841796875,0.650423526763916,-2.4500060081481934,0.4140639305114746
1772811078679140600,4.296140625,0.2409815788269043,-2.7705817222595215,0.038042545318603516
1772811078698902800,4.31590283203125,-0.7464156150817871,-2.904644012451172,-0.17720890045166016
1772811078718665000,4.3356650390625,-1.5657341480255127,-3.1157007217407227,-0.2393479347229004
1772811078738427100,4.35542724609375,-2.3170523643493652,-3.371213436126709,-0.36691904067993164
1772811078758189300,4.375189208984375,-2.994345188140869,-3.614839553833008,-0.7381062507629395
1772811078777951500,4.394951416015625,-3.0510597229003906,-3.7354884147644043,-1.492337703704834
1772811078797713700,4.414713623046875,-2.5209832191467285,-3.3947324752807617,-2.5612049102783203
1772811078817475800,4.434475830078125,-2.03315806388855,-3.1259238719940186,-3.1928791999816895
1772811078837238000,4.454238037109375,-1.6430555582046509,-3.0876433849334717,-3.4153876304626465
1772811078857000200,4.474000244140625,-1.831719160079956,-3.292903423309326,-3.2676711082458496
1772811078876762400,4.493762451171875,-2.333608627319336,-3.505793571472168,-3.232344150543213
1772811078896524500,4.513524658203125,-2.525822162628174,-3.7881534099578857,-3.332542896270752
1772811078916286700,4.53328662109375,-2.2590177059173584,-4.0496625900268555,-3.572653293609619
1772811078936049000,4.553048828125,-1.7689709663391113,-4.291749000549316,-3.851454257965088
1772811078955811000,4.57281103515625,-1.133594036102295,-4.410591125488281,-4.063022136688232
1772811078975573200,4.5925732421875,-0.5161860585212708,-4.340215682983398,-4.344542026519775
1772811078995335700,4.612335693359375,-0.3177857995033264,-4.175215721130371,-4.7520318031311035
1772811079015098400,4.632098388671875,-1.1932021379470825,-4.535297393798828,-4.649642467498779
1772811079034861000,4.651861083984375,-2.235288619995117,-5.260159492492676,-5.003078937530518
1772811079054623700,4.671623779296875,-2.15244722366333,-5.684826850891113,-5.6176958084106445
1772811079074386700,4.69138671875,-1.4815449714660645,-5.938597679138184,-5.973295211791992
1772811079094149400,4.7111494140625,-1.050133466720581,-5.821768760681152,-4.871032238006592
1772811079113912000,4.730912109375,-0.8757296204566956,-5.401462554931641,-2.6267218589782715
1772811079133675000,4.750675048828125,-1.387394905090332,-4.558233737945557,-1.39168119430542
1772811079153437700,4.770437744140625,-2.162395477294922,-3.6226272583007812,-1.1602754592895508
1772811079173200400,4.790200439453125,-2.5360960960388184,-2.7927730083465576,-0.9751091003417969
1772811079192963300,4.80996337890625,-2.6480164527893066,-2.0869557857513428,-0.47376346588134766
1772811079212726000,4.82972607421875,-2.6814017295837402,-1.3773422241210938,0.10524845123291016
1772811079232488700,4.84948876953125,-2.940267562866211,-0.8710970878601074,0.5795001983642578
1772811079252251600,4.869251708984375,-3.495379686355591,-0.5942606925964355,0.5171051025390625
1772811079272014300,4.889014404296875,-3.849414587020874,-0.5942974090576172,0.45630741119384766
1772811079291777000,4.908777099609375,-3.8063900470733643,-0.8631954193115234,0.4913663864135742
1772811079311540000,4.9285400390625,-3.466890335083008,-1.4274511337280273,0.861846923828125
1772811079331302700,4.948302734375,-3.07902455329895,-1.8257436752319336,1.0103139877319336
1772811079351065300,4.9680654296875,-2.7722389698028564,-2.041689872741699,0.6502590179443359
1772811079370828300,4.987828369140625,-2.663454532623291,-2.0980024337768555,0.022394180297851562
1772811079390591000,5.007591064453125,-2.1131820678710938,-2.09006404876709,-0.6649880409240723
1772811079410353700,5.027353759765625,-1.5347719192504883,-1.934443473815918,-1.2734904289245605
1772811079430116600,5.04711669921875,-1.5500752925872803,-1.787705898284912,-1.8210816383361816
1772811079449879300,5.06687939453125,-2.1337244510650635,-1.78596830368042,-2.115119457244873
1772811079469642000,5.08664208984375,-2.6558616161346436,-1.7097315788269043,-2.574748992919922
1772811079489405000,5.106405029296875,-2.999009609222412,-1.7284526824951172,-3.025665760040283
1772811079509167000,5.1261669921875,-2.9035167694091797,-1.7224435806274414,-3.548643112182617
1772811079528929300,5.14592919921875,-2.719712734222412,-1.6152215003967285,-3.926562786102295
1772811079548691700,5.165691650390625,-2.6271419525146484,-1.589296817779541,-4.0302557945251465
1772811079568454000,5.185453857421875,-2.5595593452453613,-1.4454607963562012,-4.087615013122559
1772811079588216000,5.205216064453125,-2.5275604724884033,-1.176039218902588,-4.15743350982666
1772811079607978200,5.224978271484375,-2.5683298110961914,-0.9578299522399902,-3.940788507461548
1772811079627740700,5.24474072265625,-2.4353413581848145,-0.9032487869262695,-3.334717273712158
1772811079647502800,5.2645029296875,-2.2960119247436523,-1.0233445167541504,-2.453011989593506
1772811079667265000,5.28426513671875,-2.3167500495910645,-1.254112720489502,-1.4023799896240234
1772811079687027200,5.304027099609375,-2.3587400913238525,-1.4050350189208984,-0.23195219039916992
1772811079706789600,5.32378955078125,-2.4097201824188232,-1.5222887992858887,1.0087995529174805
1772811079726551800,5.3435517578125,-2.4019668102264404,-1.6023263931274414,2.2337794303894043
1772811079746314000,5.36331396484375,-2.5363359451293945,-1.5851526260375977,3.783151149749756
1772811079766076200,5.383076171875,-2.9006052017211914,-2.079549789428711,5.612154960632324
1772811079785838300,5.40283837890625,-2.490230083465576,-1.4614782333374023,6.256525039672852
1772811079805600800,5.422600830078125,-2.058577060699463,-0.5757741928100586,6.430941581726074
1772811079825363000,5.442363037109375,-1.932434320449829,0.23474788665771484,6.698399066925049
1772811079845125000,5.462125,-2.2094709873199463,0.42670297622680664,7.24963903427124
1772811079864887300,5.48188720703125,-2.701155662536621,0.37560558319091797,7.327827453613281
1772811079884649700,5.501649658203125,-3.4026308059692383,0.8269805908203125,6.503101348876953
1772811079904412000,5.521411865234375,-3.9797141551971436,1.4870414733886719,5.4158148765563965
1772811079924174000,5.541174072265625,-3.7248358726501465,2.277615547180176,4.430079460144043
1772811079943936300,5.560936279296875,-2.9665279388427734,2.788511276245117,4.051705837249756
1772811079963698700,5.58069873046875,-2.1922171115875244,2.6966800689697266,3.9844417572021484
1772811079983460900,5.6004609375,-2.228186845779419,2.142578125,3.661393165588379
1772811080003222300,5.62022216796875,-2.3729147911071777,1.6348609924316406,3.1766157150268555
1772811080022983400,5.6399833984375,-2.2824361324310303,1.149470329284668,2.599473476409912
1772811080042744300,5.659744384765625,-1.8124065399169922,0.7314229011535645,1.9576215744018555
1772811080062505500,5.67950537109375,-0.9147934913635254,0.34450244903564453,1.603039264678955
1772811080082266400,5.699266357421875,-0.2487659454345703,-0.12289190292358398,1.7016339302062988
1772811080102027300,5.71902734375,-0.09123015403747559,-0.6243162155151367,1.8989229202270508
1772811080121788400,5.738788330078125,-0.40613627433776855,-1.124539852142334,1.9961094856262207
1772811080141549300,5.75854931640625,-0.7515592575073242,-1.4598603248596191,1.9518141746520996
1772811080161310500,5.778310546875,-1.0747815370559692,-1.682462215423584,1.8179311752319336
1772811080181071400,5.7980712890625,-1.1641316413879395,-1.7478909492492676,1.6655263900756836
1772811080200832300,5.817832275390625,-1.1528205871582031,-1.7809934616088867,1.4791145324707031
1772811080220593400,5.837593505859375,-0.915623664855957,-1.770461082458496,0.6635823249816895
1772811080240354300,5.857354248046875,-0.8071194887161255,-1.708989143371582,0.0974264144897461
1772811080260115500,5.877115478515625,-1.0804989337921143,-1.840944766998291,-0.26190757751464844
1772811080279876400,5.89687646484375,-1.4436192512512207,-1.8443365097045898,-0.8834748268127441
1772811080299637500,5.916637451171875,-1.9107435941696167,-1.5530166625976562,-1.5260958671569824
1772811080319398400,5.9363984375,-2.2347984313964844,-1.3028039932250977,-1.865767002105713
1772811080339159300,5.9561591796875,-2.126711845397949,-1.1885557174682617,-2.0534839630126953
1772811080358920400,5.97592041015625,-2.148012399673462,-1.4440608024597168,-2.168367862701416
1772811080378681300,5.995681396484375,-2.17110276222229,-1.7009339332580566,-2.347445011138916
1772811080398442500,6.0154423828125,-1.9855880737304688,-1.9688854217529297,-2.5420398712158203
1772811080418203400,6.035203369140625,-1.6407201290130615,-2.1811351776123047,-2.7239937782287598
1772811080437964300,6.05496435546875,-1.0496724843978882,-2.3215384483337402,-2.8363900184631348
1772811080457725400,6.074725341796875,-0.650800347328186,-2.3946714401245117,-2.802157402038574
1772811080477486300,6.094486328125,-0.6289374828338623,-2.4909379482269287,-2.7187323570251465
1772811080497247500,6.11424755859375,-0.6374675035476685,-2.5056283473968506,-2.795907974243164
1772811080517008400,6.13400830078125,-0.8688395023345947,-2.468029499053955,-2.8519554138183594
1772811080536769500,6.15376953125,-1.821244478225708,-3.3372011184692383,-2.1201276779174805
1772811080556530700,6.17353076171875,-2.8898539543151855,-4.341546058654785,-2.2653965950012207
1772811080576291800,6.193291748046875,-2.177488327026367,-4.397690773010254,-3.170994281768799
1772811080596053000,6.213052978515625,-1.0699553489685059,-4.360320091247559,-3.6107735633850098
1772811080615814100,6.232814208984375,-0.18374097347259521,-3.7451510429382324,-3.6056408882141113
1772811080635575300,6.2525751953125,-0.14168238639831543,-3.2869982719421387,-2.839296817779541
1772811080655336400,6.27233642578125,-0.7461712956428528,-2.925351142883301,-2.0052008628845215
1772811080675097600,6.29209765625,-1.7102360725402832,-2.537170886993408,-1.6674437522888184
1772811080694858800,6.311858642578125,-2.7697134017944336,-2.1118030548095703,-1.4096684455871582
1772811080714619600,6.33161962890625,-3.6009159088134766,-1.5298714637756348,-1.299726963043213
1772811080734380800,6.351380859375,-4.114783763885498,-0.8355541229248047,-1.208014965057373
1772811080754142000,6.371141845703125,-4.284963607788086,-0.27671003341674805,-0.9541234970092773
1772811080773903000,6.390903076171875,-4.492661952972412,-0.003920078277587891,-0.5255513191223145
1772811080793664300,6.410664306640625,-4.7749223709106445,0.12908315658569336,-0.1711115837097168
1772811080813425400,6.43042529296875,-4.656123161315918,-0.12227201461791992,0.1371016502380371
1772811080833186600,6.4501865234375,-4.1505560874938965,-0.6843843460083008,0.24096155166625977
1772811080852947700,6.46994775390625,-3.2041969299316406,-1.0407342910766602,0.3072233200073242
1772811080872708900,6.489708984375,-2.6422016620635986,-1.3235249519348145,0.34391117095947266
1772811080892470000,6.509469970703125,-2.2059874534606934,-1.6443219184875488,0.3684253692626953
1772811080912231200,6.529231201171875,-1.5386464595794678,-1.9033203125,0.28006553649902344
1772811080931992300,6.548992431640625,-0.7144742608070374,-2.0139646530151367,-0.05736541748046875
1772811080951753500,6.56875341796875,0.08776772022247314,-1.9118051528930664,-0.671729564666748
1772811080971514400,6.588514404296875,0.2316751480102539,-1.7123613357543945,-1.4502878189086914
1772811080991275500,6.608275634765625,0.04982352256774902,-1.455976963043213,-2.1518282890319824
1772811081011037200,6.628037109375,-0.6234689950942993,-1.1217708587646484,-2.697291851043701
1772811081030798600,6.647798583984375,-1.414421796798706,-0.8380765914916992,-3.0154366493225098
1772811081050560300,6.667560302734375,-2.0008273124694824,-0.7095546722412109,-3.1313109397888184
1772811081070321700,6.68732177734375,-2.1414291858673096,-0.5755934715270996,-3.124469757080078
1772811081090083300,6.707083251953125,-2.3835649490356445,-0.4604620933532715,-2.957030773162842
1772811081109845000,6.726844970703125,-2.4908201694488525,-0.33240175247192383,-2.704286575317383
1772811081129606400,6.7466064453125,-2.478867292404175,-0.3062443733215332,-2.2204880714416504
1772811081149368000,6.7663681640625,-1.9357917308807373,-0.26645898818969727,-1.7273364067077637
1772811081169129500,6.78612939453125,-1.7932376861572266,-0.1811203956604004,-1.1072931289672852
1772811081188891100,6.80589111328125,-1.8327255249023438,-0.0592951774597168,-0.46864986419677734
1772811081208652500,6.825652587890625,-1.7269666194915771,-0.14269685745239258,0.3325209617614746
1772811081228414200,6.845414306640625,-1.6131755113601685,-0.2909412384033203,1.3520469665527344
1772811081248175900,6.86517578125,-1.7521026134490967,-0.37023353576660156,2.402193069458008
1772811081267937300,6.884937255859375,-2.161827564239502,-0.45769453048706055,3.412299156188965
1772811081287699000,6.904698974609375,-2.8090786933898926,-0.3762845993041992,4.280794143676758
1772811081307460400,6.92446044921875,-3.5342235565185547,-0.12616443634033203,5.153172492980957
1772811081327222000,6.944221923828125,-4.202998161315918,0.041169166564941406,6.241915225982666
1772811081346983400,6.9639833984375,-4.951498985290527,-0.6503353118896484,7.6800642013549805
1772811081366745000,6.9837451171875,-4.660397529602051,-0.42583370208740234,7.627812385559082
1772811081386506800,7.0035068359375,-3.8146755695343018,0.15258407592773438,7.114842414855957
1772811081406268200,7.02326806640625,-3.1974334716796875,0.8868608474731445,6.6808905601501465
1772811081426029800,7.04302978515625,-2.574155330657959,1.472334861755371,6.319840431213379
1772811081445791200,7.062791259765625,-2.093229055404663,1.6274728775024414,6.1456685066223145
1772811081465553000,7.082552978515625,-2.1042563915252686,1.6689062118530273,5.487877368927002
1772811081485314300,7.102314208984375,-2.512368679046631,1.7036657333374023,4.429488182067871
1772811081505076500,7.122076416015625,-2.573713779449463,1.7981138229370117,3.492982864379883
1772811081524839000,7.1418388671875,-2.369112491607666,1.7046489715576172,2.8727283477783203
1772811081544601000,7.16160107421875,-2.088603973388672,1.2203526496887207,2.751187801361084
1772811081564363500,7.181363525390625,-2.0780913829803467,0.3588275909423828,2.6835126876831055
1772811081584125700,7.201125732421875,-1.7800447940826416,-0.3160128593444824,2.302781581878662
1772811081603888000,7.22088818359375,-1.549863576889038,-0.8302569389343262,1.8265767097473145
1772811081623650300,7.240650390625,-1.1960543394088745,-1.2406601905822754,1.2745022773742676
1772811081643412700,7.260412841796875,-0.6672910451889038,-1.6256489753723145,0.8465995788574219
1772811081663175000,7.2801748046875,0.012337684631347656,-2.030374526977539,0.3529496192932129
1772811081682937300,7.299937255859375,0.4789764881134033,-2.5179643630981445,-0.2865738868713379
1772811081702699800,7.31969970703125,1.0573456287384033,-2.918022632598877,-0.9313559532165527
1772811081722462000,7.3394619140625,1.3860738277435303,-3.013904094696045,-1.5415396690368652
1772811081742224400,7.359224365234375,1.110129952430725,-2.842923164367676,-1.6883115768432617
1772811081761986600,7.378986572265625,0.36924099922180176,-2.696066379547119,-1.4719462394714355
1772811081781749000,7.3987490234375,-0.0026437044143676758,-2.3971638679504395,-1.411606788635254
1772811081801511400,7.418511474609375,-0.18738842010498047,-2.2408409118652344,-1.430555820465088
1772811081821273600,7.438273681640625,-0.472265362739563,-2.2217087745666504,-1.495227336883545
1772811081841036000,7.4580361328125,-0.9771512150764465,-2.04646635055542,-1.749021053314209
1772811081860798200,7.477798095703125,-1.7953211069107056,-1.5817251205444336,-2.1561427116394043
1772811081880560600,7.497560546875,-2.88907527923584,-1.1800174713134766,-2.4676132202148438
1772811081900323000,7.517322998046875,-3.750868797302246,-0.8676314353942871,-2.676413059234619
1772811081920085200,7.537085205078125,-4.251488208770752,-0.7863030433654785,-2.7275214195251465
1772811081939847700,7.55684765625,-3.7926337718963623,-0.7444305419921875,-2.533674716949463
1772811081959609900,7.57660986328125,-2.9594225883483887,-0.9565248489379883,-2.177097797393799
1772811081979372300,7.596372314453125,-2.2988457679748535,-1.3484764099121094,-1.9684596061706543
1772811081999134500,7.616134521484375,-1.8862411975860596,-1.7785439491271973,-2.074397563934326
1772811082018896600,7.635896728515625,-1.4782156944274902,-2.0718650817871094,-2.4022326469421387
1772811082038658800,7.655658935546875,-1.0115611553192139,-2.2600646018981934,-2.6920619010925293
1772811082058421000,7.6754208984375,-0.4036264419555664,-2.3343091011047363,-2.845724105834961
1772811082078183200,7.69518310546875,-0.14730030298233032,-2.9210290908813477,-2.412262439727783
1772811082097945300,7.7149453125,-0.4063531756401062,-4.150720596313477,-1.8538317680358887
1772811082117707800,7.734707763671875,-0.058277666568756104,-4.298096656799316,-2.2489395141601562
1772811082137470000,7.754469970703125,0.43491822481155396,-4.257266998291016,-2.730494976043701
1772811082157232000,7.774232177734375,1.3177884817123413,-3.857379913330078,-3.0573906898498535
1772811082176994300,7.793994384765625,1.736591100692749,-3.361677646636963,-2.547502040863037
1772811082196756500,7.813756591796875,1.1323823928833008,-2.966320037841797,-1.5342326164245605
1772811082216518700,7.8335185546875,0.04189658164978027,-2.445883274078369,-0.9779696464538574
1772811082236280800,7.85328076171875,-1.463366150856018,-1.7668590545654297,-0.5663876533508301
1772811082256043000,7.87304296875,-2.8682069778442383,-0.8439245223999023,-0.43396615982055664
1772811082275805200,7.89280517578125,-3.9939498901367188,-0.06593036651611328,-0.3421649932861328
1772811082295567400,7.9125673828125,-4.520181655883789,0.4478030204772949,-0.004584789276123047
1772811082315329500,7.93232958984375,-4.807895660400391,0.7079691886901855,0.48903560638427734
1772811082335091700,7.952091796875,-5.008190155029297,0.9020991325378418,0.7585983276367188
1772811082354854000,7.97185400390625,-5.1244964599609375,1.086143970489502,0.9437799453735352
1772811082374616000,7.991615966796875,-4.942402362823486,0.9063186645507812,1.2449660301208496
1772811082394378200,8.011378173828126,-4.173950672149658,0.25359153747558594,1.1902165412902832
1772811082414140700,8.031140625,-3.1220412254333496,-0.552544116973877,1.0215182304382324
1772811082433902800,8.05090283203125,-2.0374279022216797,-1.2874131202697754,0.5855069160461426
1772811082453665000,8.0706650390625,-0.7714715600013733,-1.6448607444763184,0.14228582382202148
1772811082473427200,8.09042724609375,0.21859490871429443,-1.4637203216552734,-0.43152761459350586
1772811082493189400,8.110189453125,0.7168018817901611,-1.0307550430297852,-0.7299985885620117
1772811082512950500,8.129950439453125,0.7805284261703491,-0.7013454437255859,-0.903174877166748
1772811082532712000,8.1497119140625,0.33764636516571045,-0.4673933982849121,-1.1497116088867188
1772811082552473000,8.16947314453125,-0.6967381238937378,-0.2700986862182617,-1.4771819114685059
1772811082572234500,8.189234375,-1.4519191980361938,-0.09731721878051758,-1.6615757942199707
1772811082591995600,8.20899560546875,-1.9111813306808472,-0.0623016357421875,-1.6299138069152832
1772811082611757000,8.228757080078125,-2.275310516357422,0.045443058013916016,-1.6708359718322754
1772811082631518200,8.248518310546874,-2.4262547492980957,-0.02201080322265625,-1.5112524032592773
1772811082651279600,8.268279541015625,-2.1722123622894287,-0.16764593124389648,-1.3878822326660156
1772811082671040800,8.288040771484376,-1.9970588684082031,-0.2140212059020996,-1.373006820678711
1772811082690802200,8.30780224609375,-2.085310697555542,-0.23657512664794922,-1.3845739364624023
1772811082710563300,8.327563232421875,-2.1546003818511963,-0.18500852584838867,-1.3531999588012695
1772811082730324700,8.34732470703125,-2.330622434616089,-0.36060237884521484,-0.8668851852416992
1772811082750086100,8.367086181640625,-2.5427136421203613,-0.32346487045288086,-0.35995912551879883
1772811082769847300,8.386847412109375,-2.9984941482543945,-0.2442936897277832,0.10360431671142578
1772811082789608700,8.406608642578124,-3.4381117820739746,-0.2106614112854004,0.5189695358276367
1772811082809369900,8.426369873046875,-3.675222158432007,-0.16070222854614258,1.0950803756713867
1772811082829131300,8.44613134765625,-3.8220419883728027,-0.0015921592712402344,1.7082901000976562
1772811082848892400,8.465892333984375,-3.9552106857299805,-0.12392663955688477,2.610851287841797
1772811082868653800,8.48565380859375,-4.033166885375977,-0.7675938606262207,3.582810401916504
1772811082888415000,8.5054150390625,-3.364814043045044,-0.7064385414123535,3.5620970726013184
1772811082908176400,8.52517626953125,-2.6528027057647705,-0.5134496688842773,3.6079959869384766
1772811082927937500,8.5449375,-1.9271576404571533,0.2968578338623047,3.5975193977355957
1772811082947699000,8.564698974609374,-1.5089335441589355,1.065262794494629,4.024176597595215
1772811082967460000,8.584460205078125,-1.187439203262329,1.406397819519043,4.841891765594482
1772811082987221500,8.604221435546876,-0.8469371795654297,1.566533088684082,5.24874210357666
1772811083006983400,8.6239833984375,-0.4739091396331787,1.512908935546875,5.022600173950195
1772811083026745600,8.64374560546875,-0.34124135971069336,1.5000391006469727,4.161481857299805
1772811083046507800,8.6635078125,-0.4088714122772217,1.6293816566467285,3.3760833740234375
1772811083066270000,8.68327001953125,-0.42255115509033203,1.5605807304382324,3.0104403495788574
1772811083086032100,8.7030322265625,-0.24795937538146973,0.961482048034668,2.8712520599365234
1772811083105794300,8.722794189453126,-0.13090407848358154,0.4316277503967285,2.386134624481201
1772811083125556500,8.742556396484375,0.0847853422164917,-0.09873294830322266,1.7374463081359863
1772811083145318400,8.762318359375,0.41012346744537354,-0.682713508605957,1.0893869400024414
1772811083165080800,8.782080810546875,0.9815585613250732,-1.1183013916015625,0.5129904747009277
1772811083184842800,8.8018427734375,1.1242895126342773,-1.6496262550354004,0.22387361526489258
1772811083204605000,8.82160498046875,1.1291279792785645,-1.9782476425170898,-0.19650030136108398
1772811083224367000,8.8413671875,1.3316473960876465,-2.1008710861206055,-0.5353598594665527
1772811083244129300,8.86112939453125,1.3602348566055298,-2.140744686126709,-0.44800758361816406
1772811083263891500,8.880891357421875,1.417227864265442,-2.008819580078125,-0.2821049690246582
1772811083283653600,8.900653564453124,1.2533221244812012,-1.9277563095092773,0.26382875442504883
1772811083303415800,8.920415771484375,0.9743260741233826,-1.7052803039550781,0.708099365234375
1772811083323178000,8.940177978515624,0.14166182279586792,-1.7810206413269043,1.0452995300292969
1772811083342940200,8.959940185546875,-0.48091644048690796,-1.882354736328125,1.1291532516479492
1772811083362702300,8.979702392578124,-0.8691019415855408,-1.9022197723388672,1.1400766372680664
1772811083382464500,8.999464599609375,-1.1893421411514282,-2.0456438064575195,1.0866975784301758
1772811083402226700,9.019226806640624,-0.8030657172203064,-2.2326912879943848,0.31250572204589844
1772811083421988900,9.03898876953125,-0.39251554012298584,-2.41658353805542,-0.44693470001220703
1772811083441751000,9.0587509765625,0.16892793774604797,-2.5465619564056396,-0.5716409683227539
1772811083461513200,9.07851318359375,0.14371958374977112,-2.5231027603149414,-0.3992042541503906
1772811083481275400,9.098275390625,-0.4324544668197632,-2.7756905555725098,-0.124786376953125
1772811083501037000,9.118037109375,-0.7582582235336304,-2.979846239089966,-0.08556842803955078
1772811083520798000,9.1377978515625,-0.640342116355896,-3.1920948028564453,-0.057567596435546875
1772811083540559000,9.15755908203125,-0.9315052032470703,-3.057753562927246,0.6038179397583008
1772811083560320000,9.177320068359375,-1.5918757915496826,-2.9313504695892334,1.406214714050293
1772811083580081200,9.1970810546875,-1.7994661331176758,-3.0468978881835938,1.7010431289672852
1772811083599842000,9.216842041015624,-1.6635282039642334,-3.870072841644287,1.7712020874023438
1772811083619603000,9.23660302734375,-1.882922887802124,-4.351284503936768,0.9931640625
1772811083639364000,9.256364013671876,-2.1559038162231445,-4.736551284790039,0.7454366683959961
1772811083659125000,9.276125,-2.496067523956299,-4.512739658355713,0.07686710357666016
1772811083678886100,9.29588623046875,-2.6961569786071777,-3.920807123184204,-0.36916065216064453
1772811083698647000,9.31564697265625,-2.65575909614563,-3.512920379638672,-0.3228607177734375
1772811083718408200,9.335408203125,-2.3212971687316895,-3.1193759441375732,-0.19344091415405273
1772811083738169000,9.355169189453125,-2.4500629901885986,-2.6390693187713623,0.0042858123779296875
1772811083757930200,9.37493017578125,-2.699613332748413,-2.3348584175109863,0.27851343154907227
1772811083777691100,9.394691162109375,-2.850123167037964,-1.6488374471664429,0.31396007537841797
1772811083797452300,9.414452392578125,-2.1201529502868652,-1.6727125644683838,0.39920902252197266
1772811083817213200,9.434213134765624,-1.7058467864990234,-1.3580776453018188,0.3558359146118164
1772811083836974000,9.45397412109375,-1.6032485961914062,-1.2548153400421143,0.7504062652587891
1772811083856735200,9.4737353515625,-2.1324849128723145,-0.8368617296218872,0.6770162582397461
1772811083876496100,9.49349609375,-2.0906291007995605,-1.007354974746704,0.7463202476501465
1772811083896257300,9.51325732421875,-2.8457770347595215,-2.1179118156433105,1.0142030715942383
1772811083916018200,9.53301806640625,-3.9802675247192383,-2.508887529373169,0.8597559928894043
1772811083935779300,9.552779296875,-4.070450305938721,-2.7481329441070557,0.8648948669433594
1772811083955540200,9.572540283203125,-2.449354648590088,-2.9696874618530273,2.0880680084228516
1772811083975301400,9.59230126953125,-1.5321459770202637,-3.7963030338287354,2.7548155784606934
1772811083995062300,9.612062255859374,-0.6272354125976562,-4.115901947021484,3.205909490585327
1772811084014824000,9.631823974609375,1.2905769348144531,-3.5845389366149902,3.148676872253418
1772811084034585300,9.65158544921875,1.3416996002197266,-1.7648788690567017,1.8528945446014404
1772811084054346800,9.6713466796875,0.5338382720947266,-1.1584752798080444,1.4415704011917114
1772811084074108200,9.691108154296876,1.0334558486938477,-1.1388016939163208,1.9494187831878662
1772811084093869600,9.71086962890625,0.6538887023925781,-0.9395429491996765,1.9544942378997803
1772811084113631200,9.73063134765625,0.9723653793334961,-1.6255748271942139,2.5949432849884033
1772811084133392600,9.750392578125,0.10744380950927734,-2.1829171180725098,2.6369454860687256
1772811084153154000,9.770154052734375,-0.8536233901977539,-1.4222512245178223,1.9669684171676636
1772811084172915500,9.78991552734375,-1.2887754440307617,-1.3442548513412476,1.772136926651001
1772811084192677000,9.809677001953125,-2.0787510871887207,-1.4510070085525513,2.0290591716766357
1772811084212438500,9.8294384765625,-2.7650327682495117,-1.095729947090149,1.611349105834961
1772811084232200000,9.849199951171874,-2.2997217178344727,-0.7623947858810425,0.8595501184463501
1772811084251961300,9.86896142578125,-1.3772311210632324,-0.7687058448791504,0.4533635973930359
1772811084271723000,9.888722900390626,-0.5264892578125,-0.7202072143554688,0.6559242606163025
1772811084291484400,9.908484375,0.00007152557373046875,-0.6052379608154297,1.1264137029647827
1772811084311245800,9.928245849609375,0.013846397399902344,-0.7605187892913818,1.3822886943817139
1772811084331007200,9.94800732421875,-0.2662773132324219,-0.6734724044799805,1.4785940647125244
1772811084350769000,9.967768798828125,-0.5152063369750977,-0.6803121566772461,1.2477748394012451
1772811084370530300,9.9875302734375,0.02955913543701172,-0.8913331031799316,0.9791067838668823
1772811084390291700,10.007291748046875,0.4252357482910156,-1.2833833694458008,1.3485010862350464
1772811084410053000,10.02705322265625,0.49415111541748047,-1.3853650093078613,1.9964849948883057
1772811084429814500,10.046814453125,-1.1302146911621094,-1.2416915893554688,2.4137566089630127
1772811084449576200,10.066576171875,-1.327486515045166,-1.2252211570739746,2.3007266521453857
1772811084469337600,10.086337646484376,-0.577446460723877,-1.336939811706543,1.9785363674163818
1772811084489099000,10.10609912109375,-0.47241687774658203,-1.0520596504211426,1.2105965614318848
1772811084508861400,10.125861328125,-1.3472905158996582,-1.2581548690795898,1.0984463691711426
1772811084528623900,10.145623779296875,-2.029846668243408,-1.3813738822937012,1.2092758417129517
1772811084548386300,10.16538623046875,-2.047028064727783,-1.210301399230957,1.5811042785644531
1772811084568149000,10.18514892578125,-1.3664393424987793,-0.7556867599487305,1.4116437435150146
1772811084587911400,10.204911376953126,-1.5935211181640625,-1.0156745910644531,1.6922879219055176
1772811084607673900,10.224673828125,-0.8135709762573242,-0.8577761650085449,1.5370210409164429
1772811084627436300,10.244436279296876,0.4829549789428711,-0.775752067565918,1.1963974237442017
1772811084647199000,10.264198974609375,1.0539336204528809,-0.6921133995056152,1.105912446975708
1772811084666961400,10.28396142578125,0.5234584808349609,-0.5813908576965332,1.2167147397994995
1772811084686723800,10.303723876953125,0.17813873291015625,-0.4939422607421875,1.4484062194824219
1772811084706486300,10.323486328125,0.3935379981994629,-0.4703068733215332,1.4113086462020874
1772811084726249000,10.3432490234375,0.6738667488098145,-0.46772098541259766,1.2402828931808472
