time,seconds_elapsed,z,y,x
1772811138218564400,0.173564453125,-0.10426266491413116,-0.257127970457077,-1.0123997926712036
1772811138238324500,0.193324462890625,0.05978791415691376,-0.4360922574996948,-1.3399683237075806
1772811138248204500,0.20320458984375,0.16471637785434723,-0.6512755155563354,-1.489105224609375
1772811138258084900,0.2130849609375,0.2707100808620453,-0.8664587140083313,-1.5881747007369995
1772811138267965000,0.22296484375,0.38522592186927795,-1.0379661321640015,-1.598294734954834
1772811138277845000,0.232844970703125,0.47896912693977356,-1.191364049911499,-1.5247915983200073
1772811138287725000,0.24272509765625,0.5167859792709351,-1.3511536121368408,-1.3953620195388794
1772811138297605000,0.252605224609375,0.500806987285614,-1.4427663087844849,-1.2467577457427979
1772811138307485400,0.2624853515625,0.45553332567214966,-1.446494698524475,-1.1237198114395142
1772811138317365500,0.272365478515625,0.383095383644104,-1.4156020879745483,-1.0422271490097046
1772811138327245600,0.28224560546875,0.31438589096069336,-1.3681977987289429,-0.9958882331848145
1772811138337125600,0.292125732421875,0.24887219071388245,-1.3266525268554688,-0.9921598434448242
1772811138347005700,0.302005615234375,0.1759016364812851,-1.3271851539611816,-1.0438251495361328
1772811138356886000,0.311885986328125,0.09174582362174988,-1.3884378671646118,-1.1508840322494507
1772811138366766000,0.32176611328125,0.01717737503349781,-1.300553560256958,-1.3836441040039062
1772811138376646100,0.331646240234375,-0.02383527159690857,-1.2606061697006226,-1.6041537523269653
1772811138386526200,0.341526123046875,-0.0552605465054512,-1.2510188817977905,-1.8017600774765015
1772811138396406300,0.35140625,-0.06325002014636993,-1.3058799505233765,-1.9844528436660767
1772811138406286600,0.36128662109375,0.07416897267103195,-1.4241241216659546,-2.0808591842651367
1772811138416166700,0.371166748046875,0.32024484872817993,-1.5775221586227417,-2.0925769805908203
1772811138426046700,0.381046630859375,0.5785712599754333,-1.7655410766601562,-2.0382485389709473
1772811138435926800,0.3909267578125,0.7511439323425293,-1.883785367012024,-1.9295917749404907
1772811138445806800,0.400806884765625,0.9301081895828247,-2.0110843181610107,-1.833717942237854
1772811138455687200,0.410687255859375,1.1708577871322632,-2.0286612510681152,-1.6568843126296997
1772811138465567200,0.420567138671875,1.3466262817382812,-2.0030949115753174,-1.4273200035095215
1772811138475447300,0.430447265625,1.4952305555343628,-2.0526297092437744,-1.2137346267700195
1772811138485327400,0.440327392578125,1.7013590335845947,-2.139448642730713,-1.0560755729675293
1772811138495207400,0.45020751953125,1.8478327989578247,-2.2118866443634033,-1.0422271490097046
1772811138505088000,0.460087890625,1.9192054271697998,-2.4228086471557617,-1.1093387603759766
1772811138514968600,0.469968505859375,2.012415885925293,-2.515486717224121,-1.3175978660583496
1772811138524849000,0.479848876953125,2.0843212604522705,-2.5128235816955566,-1.6116105318069458
1772811138534729500,0.4897294921875,2.110952854156494,-2.723745584487915,-1.7463663816452026
1772811138544610000,0.499610107421875,2.0086874961853027,-2.9005794525146484,-1.7431706190109253
1772811138554490400,0.509490478515625,1.9373148679733276,-3.249985933303833,-1.6803200244903564
1772811138564371000,0.519370849609375,1.7679380178451538,-3.0550427436828613,-1.451820969581604
1772811138574251500,0.52925146484375,1.5682010650634766,-2.6417202949523926,-1.137035608291626
1772811138584131800,0.5391318359375,1.5319820642471313,-2.530932903289795,-0.716789186000824
1772811138594012400,0.549012451171875,1.4931000471115112,-2.5383899211883545,-0.25979113578796387
1772811138603893000,0.55889306640625,1.4249231815338135,-2.402568817138672,0.19667427241802216
1772811138613773300,0.568773193359375,1.4190641641616821,-2.184189796447754,0.5940175652503967
1772811138623654000,0.57865380859375,1.4776536226272583,-1.967941164970398,0.9045419096946716
1772811138633534500,0.588534423828125,1.5277210474014282,-1.7884442806243896,1.1090724468231201
1772811138643414800,0.598414794921875,1.6044200658798218,-1.6467642784118652,1.20175039768219
1772811138653295400,0.60829541015625,1.6337147951126099,-1.5466294288635254,1.2299798727035522
1772811138663175700,0.61817578125,1.6049526929855347,-1.409743070602417,1.2816451787948608
1772811138673056300,0.62805615234375,1.5474283695220947,-1.3591431379318237,1.3748557567596436
1772811138682936800,0.637936767578125,1.4648704528808594,-1.4054820537567139,1.5122747421264648
1772811138692817400,0.6478173828125,1.3620725870132446,-1.4923009872436523,1.712544322013855
1772811138702697700,0.65769775390625,1.2523504495620728,-1.6691347360610962,1.9149442911148071
1772811138712578300,0.667578369140625,1.154878854751587,-1.8251959085464478,2.0150790214538574
1772811138722459000,0.677458984375,1.075516700744629,-1.8864485025405884,1.9964369535446167
1772811138732339200,0.687339111328125,1.0419608354568481,-1.945038080215454,1.888845443725586
1772811138742219800,0.6972197265625,1.0701903104782104,-2.0520970821380615,1.6433022022247314
1772811138761980700,0.716980712890625,1.0233187675476074,-2.3056297302246094,1.1788471937179565
1772811138771861200,0.726861328125,0.9045419096946716,-2.6017730236053467,1.1649987697601318
1772811138781741600,0.736741455078125,0.7655249834060669,-2.952244758605957,1.2747209072113037
1772811138791622100,0.7466220703125,0.6376934051513672,-3.2920637130737305,1.439304232597351
1772811138801502700,0.756502685546875,0.5530049204826355,-3.5003228187561035,1.5767232179641724
1772811138811383000,0.766383056640625,0.5242428183555603,-3.5386722087860107,1.6406389474868774
1772811138821263600,0.776263671875,0.5487438440322876,-3.4752891063690186,1.6512916088104248
1772811138831144200,0.786144287109375,0.6781733632087708,-3.4752891063690186,1.5772558450698853
1772811138841024500,0.7960244140625,0.8715187311172485,-3.518432378768921,1.4105420112609863
1772811138850905000,0.805905029296875,1.0259819030761719,-3.541867971420288,1.2677967548370361
1772811138860785700,0.81578564453125,1.1069419384002686,-3.6052513122558594,1.2070767879486084
1772811138870666200,0.825666259765625,1.1948262453079224,-3.690472364425659,1.1277146339416504
1772811138880546600,0.835546630859375,1.3088093996047974,-3.642535448074341,0.974849283695221
1772811138890427100,0.84542724609375,1.3966935873031616,-3.4124386310577393,0.7937544584274292
1772811138900307500,0.855307373046875,1.473925232887268,-3.070488929748535,0.6004091501235962
1772811138910188000,0.86518798828125,1.5405042171478271,-2.6827330589294434,0.43742382526397705
1772811138920068600,0.875068603515625,1.6017568111419678,-2.311488628387451,0.33728906512260437
1772811138929949000,0.884948974609375,1.670466423034668,-2.014812707901001,0.3266364336013794
1772811138939829500,0.89482958984375,1.7402411699295044,-1.8278590440750122,0.4214448928833008
1772811138949710000,0.9047099609375,1.8201358318328857,-1.791107416152954,0.6126596927642822
1772811138959590400,0.91459033203125,1.91547691822052,-1.8678064346313477,0.8816387057304382
1772811138969471000,0.924470947265625,2.0358517169952393,-1.9791264533996582,1.1820430755615234
1772811138979351600,0.9343515625,2.1892497539520264,-2.0377159118652344,1.4483588933944702
1772811138989231900,0.94423193359375,2.3628876209259033,-1.979659080505371,1.6358453035354614
1772811138999112700,0.95411279296875,2.54398250579834,-1.793770670890808,1.7136095762252808
1772811139008993800,0.963993896484375,2.7282731533050537,-1.5162694454193115,1.688043236732483
1772811139018874600,0.97387451171875,2.9035089015960693,-1.2494210004806519,1.6070832014083862
1772811139028755700,0.983755615234375,3.0659615993499756,-1.0427597761154175,1.5511568784713745
1772811139038636800,0.99363671875,3.197521686553955,-0.9490166306495667,1.5724620819091797
1772811139048518000,1.003517822265625,3.2928626537323,-0.9655282497406006,1.6699336767196655
1772811139058399000,1.01339892578125,3.326418399810791,-1.0582062005996704,1.8078854084014893
1772811139068279800,1.02327978515625,3.2955257892608643,-1.2137346267700195,1.9618159532546997
1772811139078161000,1.033160888671875,3.198054313659668,-1.4241241216659546,2.1178770065307617
1772811139088042000,1.0430419921875,3.039330005645752,-1.6792547702789307,2.2734055519104004
1772811139097923000,1.052923095703125,2.8374626636505127,-1.9668759107589722,2.4156181812286377
1772811139107804200,1.06280419921875,2.617485523223877,-2.223071813583374,2.5296013355255127
1772811139117685200,1.072685302734375,2.3959107398986816,-2.426004409790039,2.5855276584625244
1772811139127566300,1.08256640625,2.186053991317749,-2.4979097843170166,2.5604939460754395
1772811139137447200,1.092447265625,1.9804580211639404,-2.3599581718444824,2.4262707233428955
1772811139147328300,1.102328369140625,1.8030916452407837,-2.0473034381866455,2.1780643463134766
1772811139157209300,1.112209228515625,1.632649540901184,-1.6238610744476318,1.813744306564331
1772811139167090400,1.12209033203125,1.4515546560287476,-1.1641998291015625,1.3343757390975952
1772811139176971500,1.131971435546875,1.2486220598220825,-0.695483922958374,0.7958850264549255
1772811139186852400,1.141852294921875,1.0195903778076172,-0.27843326330184937,0.27603641152381897
1772811139196733400,1.1517333984375,0.7831018567085266,0.039547909051179886,-0.1687111109495163
1772811139206614500,1.161614501953125,0.5354281067848206,0.26218798756599426,-0.5058670043945312
1772811139216495600,1.17149560546875,0.28615641593933105,0.4198469817638397,-0.7322354912757874
1772811139226376700,1.181376708984375,0.06831002235412598,0.5364933609962463,-0.8749808073043823
1772811139236257800,1.1912578125,-0.09733845293521881,0.6343644261360168,-0.9889640212059021
1772811139246139000,1.201138916015625,-0.22676797211170197,0.7376949787139893,-1.0965555906295776
1772811139256019700,1.211019775390625,-0.3093259036540985,0.8570045232772827,-1.1892335414886475
1772811139265900800,1.22090087890625,-0.34554484486579895,0.990695059299469,-1.2733893394470215
1772811139275782000,1.230781982421875,-0.3226417005062103,1.115863561630249,-1.3825788497924805
1772811139285663000,1.2406630859375,-0.27896589040756226,1.2660657167434692,-1.5029536485671997
1772811139295544000,1.2505439453125,-0.2304963916540146,1.425855278968811,-1.5972294807434082
1772811139305425200,1.260425048828125,-0.15646058320999146,1.5611436367034912,-1.664873719215393
1772811139315306000,1.270305908203125,-0.0739026591181755,1.6698005199432373,-1.6840485334396362
1772811139325187000,1.28018701171875,0.015579478815197945,1.758750081062317,-1.6441011428833008
1772811139335068200,1.290068115234375,0.11837740987539291,1.8216006755828857,-1.568467378616333
1772811139344949200,1.29994921875,0.23342587053775787,1.8535585403442383,-1.4736589193344116
1772811139354830300,1.309830322265625,0.3559311628341675,1.8482322692871094,-1.3692630529403687
1772811139364711200,1.319711181640625,0.48429542779922485,1.8061542510986328,-1.2803136110305786
1772811139374592300,1.32959228515625,0.6041375994682312,1.7353142499923706,-1.2052124738693237
1772811139384473300,1.339473388671875,0.719186007976532,1.6452995538711548,-1.1231871843338013
1772811139394354400,1.3493544921875,0.8331692218780518,1.5430341958999634,-1.0166609287261963
1772811139404235500,1.359235595703125,0.9689903259277344,1.4322468042373657,-0.9032102823257446
1772811139414116600,1.36911669921875,1.1080071926116943,1.3012193441390991,-0.7801723480224609
1772811139423997700,1.378997802734375,1.2582093477249146,1.151017189025879,-0.6214480996131897
1772811139433878500,1.38887841796875,1.4190641641616821,0.9954887628555298,-0.44035330414772034
1772811139443759600,1.398759521484375,1.570864200592041,0.8378297686576843,-0.2523342967033386
1772811139453640700,1.408640625,1.6981632709503174,0.6838991641998291,-0.07123950123786926
1772811139463521800,1.418521728515625,1.8073527812957764,0.5400885939598083,0.10293108969926834
1772811139473403000,1.42840283203125,1.9117485284805298,0.40213698148727417,0.27603641152381897
1772811139483283700,1.43828369140625,2.012948513031006,0.272707462310791,0.45180490612983704
1772811139493164800,1.448164794921875,2.1082897186279297,0.14008215069770813,0.6243776082992554
1772811139503045400,1.45804541015625,2.187119245529175,0.04420843720436096,0.7953523993492126
1772811139512925700,1.46792578125,2.239849805831909,0.025566324591636658,0.9466198086738586
1772811139522806000,1.477805908203125,2.3085591793060303,-0.023435797542333603,1.129845142364502
1772811139532686300,1.487686279296875,2.383660316467285,-0.12197267264127731,1.317864179611206
1772811139542566700,1.497566650390625,2.4374561309814453,-0.1928126960992813,1.4563484191894531
1772811139552447000,1.507447021484375,2.428401470184326,-0.16777899861335754,1.5522221326828003
1772811139562327300,1.517327392578125,2.368746519088745,-0.04527369886636734,1.5964305400848389
1772811139572207600,1.52720751953125,2.3176138401031494,0.030360009521245956,1.6353126764297485
1772811139582088000,1.537087890625,2.2643508911132812,0.06231791526079178,1.6646074056625366
1772811139591968300,1.54696826171875,2.1674118041992188,0.12303793430328369,1.6337147951126099
1772811139601848800,1.556848876953125,2.0544939041137695,0.2263685017824173,1.5474283695220947
1772811139611729200,1.566729248046875,1.9261295795440674,0.3637875020503998,1.4227925539016724
1772811139621609500,1.576609375,1.7482305765151978,0.46924859285354614,1.2400999069213867
1772811139631489800,1.58648974609375,1.5325146913528442,0.524642288684845,1.0020134449005127
1772811139641370000,1.5963701171875,1.2550135850906372,0.608798086643219,0.7133271098136902
1772811139651250400,1.60625048828125,0.9796429872512817,0.6428865194320679,0.3697795867919922
1772811139661130800,1.616130859375,0.7213165760040283,0.6860297322273254,0.014514215290546417
1772811139671011000,1.626010986328125,0.48482805490493774,0.696682333946228,-0.3103911578655243
1772811139680891400,1.635891357421875,0.3021353781223297,0.6727139353752136,-0.5511407256126404
1772811139690771700,1.645771728515625,0.1572595238685608,0.6135917901992798,-0.7002776265144348
1772811139700652000,1.655652099609375,0.024634219706058502,0.4852275252342224,-0.7945534586906433
1772811139710532400,1.665532470703125,-0.10532793402671814,0.2924148440361023,-0.8744481801986694
1772811139720412700,1.67541259765625,-0.21718059480190277,0.08415582031011581,-0.9357008337974548
1772811139730293000,1.68529296875,-0.3109237849712372,-0.10492845624685287,-0.9783113598823547
1772811139740173300,1.69517333984375,-0.3865574896335602,-0.31744852662086487,-0.9852356314659119
1772811139750054000,1.705053955078125,-0.46485435962677,-0.536892831325531,-0.9623324275016785
1772811139759934200,1.714934326171875,-0.5724459886550903,-0.6998781561851501,-0.9309071898460388
1772811139769814500,1.724814453125,-0.6523407697677612,-0.8687223792076111,-0.8994818925857544
1772811139779694800,1.73469482421875,-0.6906902194023132,-1.0450235605239868,-0.8376966118812561
1772811139789575200,1.7445751953125,-0.6970818042755127,-1.242629885673523,-0.7402250170707703
1772811139799455500,1.75445556640625,-0.6736460328102112,-1.468465805053711,-0.607599675655365
1772811139809335800,1.764335693359375,-0.6299701929092407,-1.7124111652374268,-0.45899543166160583
1772811139819216100,1.774216064453125,-0.5948165059089661,-1.9803248643875122,-0.29441219568252563
1772811139829096400,1.784096435546875,-0.5857617855072021,-2.2487711906433105,-0.10532793402671814
1772811139838976800,1.793976806640625,-0.611328125,-2.5113587379455566,0.11092056334018707
1772811139848857000,1.803857177734375,-0.6731134057044983,-2.7590324878692627,0.3367564380168915
1772811139858737400,1.8137373046875,-0.7743134498596191,-2.9726178646087646,0.5599291324615479
1772811139868617700,1.82361767578125,-0.913862943649292,-3.129211664199829,0.752741813659668
1772811139878498000,1.833498046875,-1.0805766582489014,-3.2256178855895996,0.9013460874557495
1772811139888378400,1.84337841796875,-1.2515515089035034,-3.252782106399536,1.0020134449005127
1772811139898259000,1.853259033203125,-1.3953620195388794,-3.208041191101074,1.0600703954696655
1772811139908139300,1.86313916015625,-1.496562123298645,-3.129211664199829,1.0909630060195923
1772811139918019600,1.87301953125,-1.561010479927063,-3.0471863746643066,1.099485158920288
1772811139927900000,1.88289990234375,-1.598294734954834,-2.9598348140716553,1.0728535652160645
1772811139937780200,1.8927802734375,-1.6030884981155396,-2.885798931121826,1.0046766996383667
1772811139947660500,1.90266064453125,-1.563673734664917,-2.833068370819092,0.9396955966949463
1772811139957540900,1.912540771484375,-1.5721957683563232,-2.7403903007507324,0.8448871374130249
1772811139967421200,1.922421142578125,-1.5647389888763428,-2.6365272998809814,0.7101312875747681
1772811139977301500,1.932301513671875,-1.5279873609542847,-2.5667524337768555,0.5684512257575989
1772811139987181800,1.942181884765625,-1.484311580657959,-2.49910831451416,0.4539354145526886
1772811139997062100,1.952062255859375,-1.501355767250061,-2.4032344818115234,0.32450589537620544
1772811140006943000,1.96194287109375,-1.5290526151657104,-2.271141767501831,0.1609879434108734
1772811140016823600,1.971823486328125,-1.4992252588272095,-2.1443755626678467,-0.00519315991550684
1772811140026704100,1.9817041015625,-1.4555494785308838,-2.028794288635254,-0.14634057879447937
1772811140036585000,1.9915849609375,-1.417199969291687,-1.9228006601333618,-0.2757700979709625
1772811140046465500,2.001465576171875,-1.3607410192489624,-1.8136111497879028,-0.39348170161247253
1772811140056346400,2.011346435546875,-1.3021514415740967,-1.7140090465545654,-0.5127912163734436
1772811140066227000,2.02122705078125,-1.2755199670791626,-1.5760574340820312,-0.6214480996131897
1772811140076107500,2.031107421875,-1.2803136110305786,-1.425855278968811,-0.7498123645782471
1772811140085988400,2.04098828125,-1.3016188144683838,-1.275120496749878,-0.8866987228393555
1772811140095869000,2.050868896484375,-1.3261198997497559,-1.090829849243164,-1.0092040300369263
1772811140105749500,2.06074951171875,-1.3639367818832397,-0.9022781848907471,-1.1088061332702637
1772811140115630300,2.07063037109375,-1.4187978506088257,-0.7057371139526367,-1.216397762298584
1772811140125511000,2.080510986328125,-1.4113410711288452,-0.5251749157905579,-1.313336730003357
1772811140135391700,2.090391845703125,-1.3516862392425537,-0.37870118021965027,-1.3415662050247192
1772811140145272300,2.100272216796875,-1.2797809839248657,-0.30360010266304016,-1.2840420007705688
1772811140155153000,2.11015283203125,-1.1972230672836304,-0.30892643332481384,-1.1604714393615723
1772811140165033700,2.12003369140625,-1.107208251953125,-0.35633066296577454,-0.9942903518676758
1772811140174914300,2.129914306640625,-1.0315746068954468,-0.38349485397338867,-0.8339681625366211
1772811140184795100,2.139795166015625,-0.9586040377616882,-0.4580633044242859,-0.661928117275238
1772811140194675700,2.14967578125,-0.8861660957336426,-0.5507412552833557,-0.4707133173942566
1772811140204556300,2.159556396484375,-0.8547407984733582,-0.5997433662414551,-0.3237069547176361
1772811140214437000,2.16943701171875,-0.8483492136001587,-0.5997433662414551,-0.216115340590477
1772811140224317700,2.179317626953125,-0.8653934597969055,-0.5496760010719299,-0.1213068813085556
1772811140234198300,2.1891982421875,-0.8952208161354065,-0.4708464741706848,-0.02436790242791176
1772811140253959700,2.208959716796875,-0.9761808514595032,-0.2700442969799042,0.1284974068403244
1772811140263840500,2.218840576171875,-1.027846097946167,-0.14966952800750732,0.1567268967628479
1772811140273721000,2.22872119140625,-1.0672608613967896,-0.043675802648067474,0.14873741567134857
1772811140283601700,2.2386015625,-1.0997514724731445,0.04474106803536415,0.11571425199508667
1772811140293482500,2.248482421875,-1.1290462017059326,0.12996214628219604,0.08748476952314377
1772811140303363000,2.258363037109375,-1.161536693572998,0.21038953959941864,0.0576573871076107
1772811140313244000,2.268243896484375,-1.194027304649353,0.2535327076911926,0.036352116614580154
1772811140323124500,2.27812451171875,-1.2201261520385742,0.260456919670105,0.031558431684970856
1772811140333005000,2.288005126953125,-1.2504862546920776,0.2577937841415405,0.060320548713207245
1772811140342886000,2.297885986328125,-1.2701935768127441,0.24288007616996765,0.1050616130232811
1772811140352766500,2.307766357421875,-1.2797809839248657,0.21891164779663086,0.16311848163604736
1772811140362647000,2.31764697265625,-1.2755199670791626,0.1885516494512558,0.23875218629837036
1772811140372527900,2.32752783203125,-1.2749873399734497,0.21145480871200562,0.30479851365089417
1772811140382408400,2.337408447265625,-1.2515515089035034,0.23808640241622925,0.37670382857322693
1772811140392289000,2.3472890625,-1.194559931755066,0.20399796962738037,0.5114596486091614
1772811140402169900,2.357169921875,-1.1349050998687744,0.11504846066236496,0.6334323287010193
1772811140412050400,2.367050537109375,-1.1104040145874023,0.2125200778245926,0.6163880825042725
1772811140421931300,2.37693115234375,-1.0118671655654907,0.2503369152545929,0.49761122465133667
1772811140431811800,2.386811767578125,-0.7242460250854492,0.022370534017682076,0.43209752440452576
1772811140441692400,2.3966923828125,-0.5303680896759033,-0.28069692850112915,0.39374804496765137
1772811140451573200,2.4065732421875,-0.4131890833377838,-0.5917539000511169,0.36658382415771484
1772811140461453800,2.416453857421875,-0.16551531851291656,-0.8463518619537354,0.3777690827846527
1772811140471334700,2.426334716796875,0.09494160860776901,-0.9720529913902283,0.49867647886276245
1772811140481215200,2.43621533203125,0.3021353781223297,-0.9773792624473572,0.6744449734687805
1772811140491095800,2.446095703125,0.5769733786582947,-1.0897645950317383,0.9231839776039124
1772811140500977000,2.455976806640625,0.8086681962013245,-1.0972213745117188,1.1948262453079224
1772811140510858000,2.46585791015625,1.0281124114990234,-1.0775140523910522,1.4478262662887573
1772811140520739300,2.4757392578125,1.2273167371749878,-0.9677919149398804,1.663009524345398
1772811140530620400,2.485620361328125,1.3982915878295898,-0.7941539287567139,1.8068201541900635
1772811140540501800,2.495501708984375,1.5436999797821045,-0.6045370697975159,1.9016284942626953
1772811140550382800,2.5053828125,1.6715316772460938,-0.43675804138183594,1.977794885635376
1772811140560264200,2.51526416015625,1.7652747631072998,-0.2972085177898407,2.042243242263794
1772811140570145300,2.525145263671875,1.8254622220993042,-0.1880190074443817,2.0891149044036865
1772811140580026600,2.535026611328125,1.8547569513320923,-0.10492845624685287,2.1178770065307617
1772811140589907700,2.54490771484375,1.8590179681777954,-0.04846949130296707,2.1285297870635986
1772811140599789000,2.5547890625,1.8371801376342773,-0.012783162295818329,2.1194748878479004
1772811140609670100,2.564670166015625,1.7876453399658203,0.001597895286977291,2.0757992267608643
1772811140619551500,2.574551513671875,1.7061526775360107,-0.010652635246515274,1.9964369535446167
1772811140629432600,2.5844326171875,1.603354811668396,-0.04633896425366402,1.8723337650299072
1772811140639314000,2.59431396484375,1.4851105213165283,-0.09321055561304092,1.692836880683899
1772811140649195000,2.604195068359375,1.3631378412246704,-0.1315600425004959,1.457413673400879
1772811140659076000,2.614076171875,1.2331756353378296,-0.14807163178920746,1.1820430755615234
1772811140668957400,2.62395751953125,1.0893651247024536,-0.13475583493709564,0.8811060786247253
1772811140678838800,2.6338388671875,0.9306408762931824,-0.09480845183134079,0.550341784954071
1772811140688720000,2.643719970703125,0.7612639665603638,-0.012250530533492565,0.18868480622768402
1772811140698601000,2.65360107421875,0.5956154465675354,0.13315793871879578,-0.1926795393228531
1772811140708482300,2.663482421875,0.44221752882003784,0.33236223459243774,-0.5628586411476135
1772811140718363400,2.67336328125,0.31385326385498047,0.5432844161987305,-0.8994818925857544
1772811140728244700,2.68324462890625,0.22117534279823303,0.7685876488685608,-1.1887009143829346
1772811140738125800,2.693125732421875,0.17164058983325958,1.0093371868133545,-1.4161347150802612
1772811140748007200,2.703007080078125,0.16311848163604736,1.2484889030456543,-1.5828484296798706
1772811140757888300,2.71288818359375,0.17377111315727234,1.4588783979415894,-1.6739284992218018
1772811140767769600,2.72276953125,0.21105533838272095,1.6037542819976807,-1.6840485334396362
1772811140777650700,2.732650634765625,0.26378586888313293,1.6905732154846191,-1.6073495149612427
1772811140787532000,2.742531982421875,0.32344064116477966,1.7342489957809448,-1.4560821056365967
1772811140797413000,2.7524130859375,0.38948696851730347,1.733716368675232,-1.2520841360092163
1772811140807294500,2.76229443359375,0.4534027874469757,1.6937689781188965,-1.0017471313476562
1772811140817175600,2.772175537109375,0.5071985721588135,1.6165374517440796,-0.7247786521911621
1772811140827057000,2.782056884765625,0.5444828271865845,1.4998910427093506,-0.43928804993629456
1772811140836938000,2.79193798828125,0.5743101835250854,1.3603415489196777,-0.15805847942829132
1772811140846819000,2.801819091796875,0.5945501923561096,1.2181288003921509,0.09387634694576263
1772811140856700400,2.811700439453125,0.6068007349967957,1.0977541208267212,0.29041746258735657
1772811140866581800,2.821581787109375,0.6169207096099854,1.007206678390503,0.41824910044670105
1772811140876462800,2.831462890625,0.6323670744895935,0.9347687363624573,0.4725775420665741
1772811140886344000,2.841343994140625,0.6531397104263306,0.8570045232772827,0.4581964612007141
1772811140896225300,2.851225341796875,0.68083655834198,0.7946866154670715,0.4033353924751282
1772811140906106400,2.8611064453125,0.7138597369194031,0.7494128942489624,0.31971222162246704
1772811140925868800,2.880868896484375,0.7372955083847046,0.5922865271568298,0.13488899171352386
1772811140935750100,2.890750244140625,0.7703186869621277,0.5060001611709595,0.04167843610048294
1772811140945631200,2.90063134765625,0.786297619342804,0.42184436321258545,-0.03555316850543022
1772811140955512600,2.9105126953125,0.7884281873703003,0.3249053657054901,-0.07177212834358215
1772811140965393700,2.9203935546875,0.7958850264549255,0.22050954401493073,-0.04886896535754204
1772811140975275000,2.93027490234375,0.8187881708145142,0.11078740656375885,0.008122634142637253
1772811140985156000,2.940156005859375,0.8518113493919373,0.013848425820469856,0.08322371542453766
1772811140995037400,2.950037353515625,0.8880302906036377,-0.06231791526079178,0.15033531188964844
1772811141004918300,2.959918212890625,0.9279776811599731,-0.13582110404968262,0.20945744216442108
1772811141014799000,2.969799072265625,0.9700555801391602,-0.19547586143016815,0.27337324619293213
1772811141034560800,2.989560791015625,1.0600703954696655,-0.29454535245895386,0.41398802399635315
1772811141044441600,2.999441650390625,1.0733861923217773,-0.348341166973114,0.4779038429260254
1772811141054322400,3.009322509765625,1.05527663230896,-0.39947381615638733,0.5311670303344727
1772811141064203300,3.019203369140625,1.0211882591247559,-0.4559327960014343,0.5737775564193726
1772811141074084000,3.029083984375,0.9711208343505859,-0.5054675340652466,0.5918870568275452
1772811141083965000,3.03896484375,0.8986829519271851,-0.5539370179176331,0.6025396585464478
1772811141093845800,3.048845703125,0.8177229166030884,-0.5954822897911072,0.6094638705253601
1772811141103726600,3.0587265625,0.7346323728561401,-0.6221138834953308,0.6179860234260559
1772811141113607400,3.068607421875,0.6355628371238708,-0.6380928754806519,0.6158554553985596
1772811141123488300,3.07848828125,0.5061333179473877,-0.637560248374939,0.5865607261657715
1772811141133369000,3.088369140625,0.3447459042072296,-0.612526535987854,0.5301017761230469
1772811141143250000,3.09825,0.14660689234733582,-0.578970730304718,0.4400869905948639
1772811141153130800,3.108130859375,-0.09680582582950592,-0.5592633485794067,0.30053746700286865
1772811141163011600,3.118011474609375,-0.35939326882362366,-0.5193159580230713,0.12050793319940567
1772811141172892400,3.127892333984375,-0.59002286195755,-0.46871596574783325,-0.07603318244218826
1772811141182773200,3.137773193359375,-0.7663239240646362,-0.40266960859298706,-0.26565009355545044
1772811141192654000,3.147654052734375,-0.884035587310791,-0.3211769461631775,-0.4408859312534332
1772811141202535000,3.157534912109375,-0.9447556138038635,-0.22903165221214294,-0.5958817601203918
1772811141212415700,3.167415771484375,-0.9607345461845398,-0.1267663538455963,-0.7093323469161987
1772811141222296800,3.177296875,-0.9543429613113403,-0.018109479919075966,-0.7652586698532104
1772811141232177700,3.187177734375,-0.9506145119667053,0.070840023458004,-0.7689871191978455
1772811141242058500,3.19705859375,-0.9468861222267151,0.17150743305683136,-0.6773744225502014
1772811141251939300,3.206939208984375,-0.9788440465927124,0.17044216394424438,-0.5676522850990295
1772811141261820200,3.216820068359375,-1.0491514205932617,0.18588848412036896,-0.4600606858730316
1772811141271701000,3.226700927734375,-1.1508840322494507,0.24288007616996765,-0.3183806240558624
1772811141281581800,3.236581787109375,-1.2749873399734497,0.25300008058547974,-0.17670059204101562
1772811141291462700,3.246462646484375,-1.3852421045303345,0.23915165662765503,-0.04673843830823898
1772811141301343500,3.256343505859375,-1.4683326482772827,0.2269011288881302,0.060320548713207245
1772811141311224300,3.266224365234375,-1.531715750694275,0.19174742698669434,0.1279647797346115
1772811141321105200,3.276105224609375,-1.5785874128341675,0.11611372232437134,0.1572595238685608
1772811141330986000,3.285986083984375,-1.6041537523269653,0.005858949385583401,0.1705753207206726
1772811141340866800,3.29586669921875,-1.6116105318069458,-0.13741900026798248,0.19081532955169678
1772811141350747600,3.30574755859375,-1.6121431589126587,-0.3067958950996399,0.22170796990394592
1772811141360628500,3.31562841796875,-1.6100126504898071,-0.5022717714309692,0.26804694533348083
1772811141370509300,3.32550927734375,-1.6068168878555298,-0.717987596988678,0.3213101029396057
1772811141380390100,3.33539013671875,-1.6100126504898071,-0.8958866000175476,0.3681817054748535
1772811141390271000,3.34527099609375,-1.6238610744476318,-1.1068087816238403,0.4539354145526886
1772811141400151800,3.35515185546875,-1.6409052610397339,-1.346493124961853,0.5577986240386963
1772811141410032600,3.36503271484375,-1.6409052610397339,-1.5611436367034912,0.668053388595581
1772811141419913500,3.37491357421875,-1.622795820236206,-1.7598153352737427,0.8166576623916626
1772811141429794300,3.384794189453125,-1.5716631412506104,-1.9547585248947144,0.9972198009490967
1772811141439675400,3.39467529296875,-1.4816484451293945,-2.1640827655792236,1.2006851434707642
1772811141449556200,3.40455615234375,-1.3532841205596924,-2.3819291591644287,1.407346248626709
1772811141459437000,3.41443701171875,-1.1934946775436401,-2.5875251293182373,1.5980284214019775
1772811141469318000,3.42431787109375,-1.0187914371490479,-2.8106977939605713,1.751958966255188
1772811141479198700,3.43419873046875,-0.8254460692405701,-3.0040431022644043,1.8552895784378052
1772811141489079600,3.44407958984375,-0.6038712859153748,-3.144657850265503,1.9298580884933472
1772811141498960100,3.453960205078125,-0.37856802344322205,-3.239466428756714,1.977794885635376
1772811141508841000,3.463841064453125,-0.1820269078016281,-3.2900664806365967,2.001763343811035
1772811141518721500,3.473721435546875,-0.029161589220166206,-3.3406662940979004,2.057689666748047
1772811141528602000,3.48360205078125,0.056592125445604324,-3.4109737873077393,2.16208553314209
1772811141538483000,3.49348291015625,0.08748476952314377,-3.50578236579895,2.284590721130371
1772811141548363500,3.503363525390625,0.08269108086824417,-3.5819485187530518,2.398041248321533
1772811141558244000,3.513244140625,0.044341593980789185,-3.610710620880127,2.482729911804199
1772811141568125000,3.523125,-0.029694220051169395,-3.5824811458587646,2.513622522354126
1772811141578005500,3.533005615234375,-0.11811109632253647,-3.4892706871032715,2.482729911804199
1772811141587886000,3.542885986328125,-0.21238692104816437,-3.3310790061950684,2.394312858581543
1772811141597767000,3.552766845703125,-0.3114564120769501,-3.1265485286712646,2.260089635848999
1772811141607647500,3.5626474609375,-0.4094606637954712,-2.8948535919189453,2.0949738025665283
1772811141617528000,3.572528076171875,-0.5127912163734436,-2.6157546043395996,1.9138790369033813
1772811141627408600,3.58240869140625,-0.6187849640846252,-2.2983059883117676,1.717337965965271
1772811141637289500,3.59228955078125,-0.7215828895568848,-1.9627480506896973,1.5074810981750488
1772811141647170000,3.602170166015625,-0.8163913488388062,-1.6042869091033936,1.2827104330062866
1772811141657050600,3.612050537109375,-0.9032102823257446,-1.2458256483078003,1.0419608354568481
1772811141666931500,3.621931396484375,-0.9873661398887634,-0.9262466430664062,0.8081355690956116
1772811141676812000,3.63181201171875,-1.0555429458618164,-0.6492781043052673,0.6036049723625183
1772811141686692600,3.641692626953125,-1.1029472351074219,-0.4138548672199249,0.44275015592575073
1772811141696573200,3.6515732421875,-1.1412967443466187,-0.25140219926834106,0.3229080140590668
1772811141706454000,3.6614541015625,-1.1684609651565552,-0.14807163178920746,0.24301324784755707
1772811141716334600,3.67133447265625,-1.1897661685943604,-0.0756337121129036,0.18176059424877167
1772811141726215200,3.681215087890625,-1.2009514570236206,-0.047404225915670395,0.13382373750209808
1772811141736096000,3.691095947265625,-1.1972230672836304,-0.06231791526079178,0.09600687772035599
1772811141745976600,3.7009765625,-1.168993592262268,-0.08575371652841568,0.06831002235412598
1772811141755857200,3.710857177734375,-1.136502981185913,-0.1512674242258072,0.07150581479072571
1772811141765738000,3.720738037109375,-1.1056103706359863,-0.25193482637405396,0.10399635136127472
1772811141775618600,3.73061865234375,-1.065130352973938,-0.37976643443107605,0.18761953711509705
1772811141785499100,3.7404990234375,-1.010269284248352,-0.5262401700019836,0.3207774758338928
1772811141795380000,3.7503798828125,-0.943690299987793,-0.6940191984176636,0.47044700384140015
1772811141805260500,3.760260498046875,-0.8755134344100952,-0.8506129384040833,0.6131923198699951
1772811141815141000,3.77014111328125,-0.804673433303833,-0.9587371945381165,0.7250449657440186
1772811141825022000,3.78002197265625,-0.7269092202186584,-0.9970866441726685,0.7921565771102905
1772811141834902500,3.789902587890625,-0.6475470662117004,-0.9917603135108948,0.8081355690956116
1772811141844783000,3.799783203125,-0.5676522850990295,-0.9635308384895325,0.7905586957931519
1772811141854664000,3.809663818359375,-0.4888227880001068,-0.8921582102775574,0.7490134239196777
1772811141864544500,3.81954443359375,-0.41585224866867065,-0.7882950305938721,0.6829670667648315
1772811141874425000,3.829425048828125,-0.35886064171791077,-0.663126528263092,0.6115944385528564
1772811141884305700,3.8393056640625,-0.3109237849712372,-0.5113264918327332,0.546613335609436
1772811141894186500,3.8491865234375,-0.271509051322937,-0.36059170961380005,0.4912196397781372
1772811141904067000,3.859067138671875,-0.24114902317523956,-0.2119874358177185,0.45073962211608887
1772811141913947600,3.86894775390625,-0.21824586391448975,-0.07456845045089722,0.42251014709472656
1772811141923828500,3.878828369140625,-0.21824586391448975,0.01651158556342125,0.3788343369960785
1772811141933709000,3.888708984375,-0.25553008913993835,0.06870950013399124,0.28242799639701843
1772811141943589600,3.898589599609375,-0.29760798811912537,0.11185266822576523,0.12743215262889862
1772811141953470500,3.908470458984375,-0.3103911578655243,0.1464737355709076,-0.07123950123786926
1772811141963351000,3.91835107421875,-0.2874879837036133,0.1842905879020691,-0.28908589482307434
1772811141973231600,3.928231689453125,-0.2294311374425888,0.25300008058547974,-0.4941491186618805
1772811141983112200,3.9381123046875,-0.11544793099164963,0.3153179883956909,-0.6358291506767273
1772811141992993000,3.947992919921875,0.05872265249490738,0.358993798494339,-0.6715154647827148
1772811142002873600,3.95787353515625,0.2701774537563324,0.3728422224521637,-0.5948165059089661
1772811142012754400,3.96775439453125,0.49814385175704956,0.3579285442829132,-0.4328964650630951
1772811142022635000,3.977635009765625,0.7074681520462036,0.3211769461631775,-0.20706059038639069
1772811142032515600,3.987515625,0.8736492395401001,0.2721748352050781,0.05073317512869835
1772811142042396400,3.997396484375,0.9902955889701843,0.21837902069091797,0.3127880096435547
1772811142052277000,4.007277099609375,1.0472872257232666,0.1699095368385315,0.5370259881019592
1772811142062157800,4.01715771484375,1.057407259941101,0.16138742864131927,0.719186007976532
1772811142072038400,4.027038330078125,1.038232445716858,0.18056216835975647,0.8539418578147888
1772811142081919200,4.036919189453125,1.0020134449005127,0.20399796962738037,0.9615334868431091
1772811142091799800,4.0467998046875,0.9636639952659607,0.22477060556411743,1.0515482425689697
1772811142101680600,4.0566806640625,0.9210534691810608,0.22423797845840454,1.1234534978866577
1772811142111561200,4.066561279296875,0.8811060786247253,0.2173137664794922,1.1681946516036987
1772811142121442000,4.076442138671875,0.8384955525398254,0.19600848853588104,1.189499855041504
1772811142131322600,4.086322509765625,0.780971348285675,0.17257268726825714,1.1745861768722534
1772811142141203500,4.096203369140625,0.7245123386383057,0.1608547866344452,1.109605073928833
1772811142151084000,4.106083984375,0.6520744562149048,0.13475583493709564,1.015861988067627
1772811142160964900,4.11596484375,0.5657880902290344,0.09534108638763428,0.8869650363922119
1772811142170845400,4.125845458984375,0.4773712158203125,0.052197910845279694,0.6989460587501526
1772811142180726300,4.135726318359375,0.3841606676578522,0.023435797542333603,0.45713120698928833
1772811142190606800,4.14560693359375,0.2792322039604187,0.01704421639442444,0.1572595238685608
1772811142200487400,4.1554873046875,0.1615205854177475,0.034621063619852066,-0.18522270023822784
1772811142210368300,4.1653681640625,0.03475422412157059,0.08202528953552246,-0.5522059798240662
1772811142220248800,4.175248779296875,-0.09840371459722519,0.16138742864131927,-0.905340850353241
1772811142230129700,4.185129638671875,-0.20972375571727753,0.28495800495147705,-1.2089409828186035
1772811142240010200,4.19501025390625,-0.29387956857681274,0.43143174052238464,-1.4608757495880127
1772811142249891000,4.20489111328125,-0.3609911799430847,0.6151896715164185,-1.665406346321106
1772811142259771600,4.214771728515625,-0.4078627824783325,0.8404929041862488,-1.8273264169692993
1772811142269652500,4.224652587890625,-0.422776460647583,1.0924277305603027,-1.9487664699554443
1772811142279533000,4.234532958984375,-0.4137217104434967,1.3406341075897217,-2.0281286239624023
1772811142289414000,4.244413818359375,-0.38815540075302124,1.5728615522384644,-2.0462381839752197
1772811142299294500,4.25429443359375,-0.34554484486579895,1.7624784708023071,-2.004692792892456
1772811142309175300,4.26417529296875,-0.2960101068019867,1.9153437614440918,-1.9061559438705444
1772811142319056000,4.274055908203125,-0.24114902317523956,2.0197396278381348,-1.7708674669265747
1772811142328936700,4.283936767578125,-0.1873532235622406,2.068741798400879,-1.6041537523269653
1772811142348698000,4.303697998046875,-0.09893634915351868,2.012815475463867,-1.2094736099243164
1772811142358578700,4.31357861328125,-0.05685843899846077,1.9259964227676392,-0.9745829701423645
1772811142368459300,4.323459228515625,-0.008921582251787186,1.800827980041504,-0.7215828895568848
1772811142378340000,4.333340087890625,0.06191844120621681,1.6452995538711548,-0.4611259400844574
1772811142388220700,4.343220703125,0.1476721614599228,1.4700636863708496,-0.21824586391448975
1772811142398101500,4.3531015625,0.23129534721374512,1.2879035472869873,-0.012117372825741768
1772811142407982000,4.362982177734375,0.31864693760871887,1.103613018989563,0.15459637343883514
1772811142417863000,4.37286279296875,0.4028027653694153,0.927311897277832,0.2888195812702179
1772811142427743500,4.382743408203125,0.4869585931301117,0.7669897079467773,0.39055225253105164
1772811142437624300,4.392624267578125,0.5673859715461731,0.62477707862854,0.4592617452144623
1772811142447505000,4.4025048828125,0.6408891677856445,0.516120195388794,0.49920910596847534
1772811142457385700,4.4123857421875,0.7053375840187073,0.4484759569168091,0.5141227841377258
1772811142467266300,4.422266357421875,0.7633944749832153,0.4159854054450989,0.5040028095245361
1772811142477147000,4.43214697265625,0.819320797920227,0.42237699031829834,0.47417542338371277
1772811142487027700,4.44202783203125,0.874181866645813,0.44634541869163513,0.43795645236968994
1772811142496908300,4.451908203125,0.9253145456314087,0.4761728048324585,0.4028027653694153
1772811142506789400,4.461789306640625,0.9780450463294983,0.491086483001709,0.38469329476356506
1772811142516670500,4.47167041015625,1.0339714288711548,0.491086483001709,0.3932153880596161
1772811142526551300,4.48155126953125,1.0914956331253052,0.47404226660728455,0.41878172755241394
1772811142546313200,4.501313232421875,1.2283819913864136,0.3904190957546234,0.5061333179473877
1772811142556194300,4.5111943359375,1.3040157556533813,0.32650327682495117,0.5711144208908081
1772811142566075400,4.521075439453125,1.3966935873031616,0.260456919670105,0.6376934051513672
1772811142575956200,4.530956298828125,1.4962958097457886,0.18269269168376923,0.7085334062576294
1772811142585837300,4.54083740234375,1.6022895574569702,0.11185266822576523,0.7820366024971008
1772811142595718100,4.55071826171875,1.7136095762252808,0.030892642214894295,0.8635292649269104
1772811142605599200,4.56059912109375,1.8148095607757568,-0.07350318133831024,0.9524787664413452
1772811142615480000,4.57047998046875,1.8989653587341309,-0.18748638033866882,1.0483524799346924
1772811142625361200,4.580361083984375,1.9751317501068115,-0.3110569417476654,1.1500850915908813
1772811142635242000,4.590241943359375,2.0491676330566406,-0.4298338294029236,1.2528830766677856
1772811142645123000,4.600123046875,2.106691837310791,-0.5448822975158691,1.3551483154296875
1772811142655004200,4.610004150390625,2.1482369899749756,-0.6556696891784668,1.4467610120773315
1772811142664885000,4.619885009765625,2.16208553314209,-0.7542065978050232,1.4973610639572144
1772811142674766000,4.62976611328125,2.09710431098938,-0.8681897521018982,1.4606094360351562
1772811142684647000,4.63964697265625,1.9410432577133179,-0.9342361092567444,1.315200924873352
1772811142694528000,4.649528076171875,1.7530243396759033,-0.9145287275314331,1.0845714807510376
1772811142704409000,4.6594091796875,1.5751253366470337,-0.814393937587738,0.7921565771102905
1772811142714290000,4.6692900390625,1.4100093841552734,-0.6636591553688049,0.4832301735877991
1772811142724171000,4.6791708984375,1.2528830766677856,-0.4809664785861969,0.18761953711509705
1772811142734051800,4.6890517578125,1.1085398197174072,-0.27164220809936523,-0.07283739000558853
1772811142743933000,4.698932861328125,0.9641966223716736,-0.058589495718479156,-0.3002711534500122
1772811142753813800,4.708813720703125,0.8028092384338379,0.141680046916008,-0.5037364959716797
1772811142763694800,4.71869482421875,0.6057354807853699,0.29454535245895386,-0.6965491771697998
1772811142773576000,4.728575927734375,0.3404848575592041,0.4069306552410126,-0.8851008415222168
1772811142783456800,4.738456787109375,0.015046847052872181,0.5049349069595337,-1.0464882850646973
1772811142793337900,4.748337890625,-0.33595749735832214,0.5816338658332825,-1.1764503717422485
1772811142803218700,4.75821875,-0.6789723634719849,0.6231791377067566,-1.2675304412841797
1772811142813099800,4.768099853515625,-0.9761808514595032,0.6732465624809265,-1.337837815284729
1772811142822980600,4.777980712890625,-1.2057451009750366,0.7462170720100403,-1.412406325340271
1772811142832861700,4.78786181640625,-1.3639367818832397,0.8245139718055725,-1.4912357330322266
1772811142842742800,4.79774267578125,-1.4443641901016235,0.9139961004257202,-1.5594125986099243
1772811142852623600,4.80762353515625,-1.46407151222229,0.9795098304748535,-1.6116105318069458
1772811142862504700,4.817504638671875,-1.4560821056365967,0.9880319237709045,-1.6323832273483276
1772811142872385500,4.827385498046875,-1.4358420372009277,0.9321056008338928,-1.6084147691726685
1772811142882266600,4.8372666015625,-1.4203957319259644,0.8053392171859741,-1.5269221067428589
1772811142892147500,4.8471474609375,-1.4235914945602417,0.6279728412628174,-1.3958946466445923
1772811142902028500,4.857028564453125,-1.4486252069473267,0.40320223569869995,-1.2307788133621216
1772811142911909600,4.86690966796875,-1.4933663606643677,0.14860425889492035,-1.0390313863754272
1772811142921790500,4.87679052734375,-1.56047785282135,-0.11664635688066483,-0.825978696346283
1772811142931671600,4.886671630859375,-1.6270568370819092,-0.3675159215927124,-0.6166543960571289
1772811142941552400,4.896552490234375,-1.6861790418624878,-0.5880254507064819,-0.4339617192745209
1772811142951433500,4.90643359375,-1.739442229270935,-0.7792402505874634,-0.2853574752807617
1772811142961314600,4.916314453125,-1.7895095348358154,-0.9507476687431335,-0.15379741787910461
1772811142971195400,4.9261953125,-1.8172063827514648,-1.0796445608139038,-0.041944749653339386
1772811142981076500,4.936076416015625,-1.8145432472229004,-1.2096067667007446,0.06458160281181335
1772811142990957300,4.945957275390625,-1.786846399307251,-1.356080412864685,0.17643427848815918
1772811143000838400,4.95583837890625,-1.7330505847930908,-1.510011076927185,0.30533117055892944
1772811143010719200,4.96571923828125,-1.6441011428833008,-1.6703331470489502,0.44221752882003784
1772811143020600300,4.975600341796875,-1.531715750694275,-1.829590082168579,0.5748428106307983
1772811143030481200,4.985481201171875,-1.409743070602417,-1.9744659662246704,0.701609194278717
1772811143040362200,4.9953623046875,-1.288303017616272,-2.0948407649993896,0.819320797920227
1772811143050243300,5.005243408203125,-1.1721893548965454,-2.1848554611206055,0.9194555878639221
1772811143060124200,5.015124267578125,-1.069923996925354,-2.265815496444702,1.0020134449005127
1772811143070005200,5.025005126953125,-0.9921598434448242,-2.3286659717559814,1.075516700744629
1772811143079886000,5.034885986328125,-0.9362334609031677,-2.370211362838745,1.1367692947387695
1772811143089767200,5.04476708984375,-0.9058734774589539,-2.3728744983673096,1.1820430755615234
1772811143099648000,5.05464794921875,-0.8936229348182678,-2.3393187522888184,1.208674669265747
1772811143109529000,5.064529052734375,-0.9037429690361023,-2.2732722759246826,1.2230557203292847
1772811143119410000,5.074409912109375,-0.9127976894378662,-2.1795291900634766,1.226784110069275
1772811143129291000,5.084291015625,-0.9255808591842651,-2.059154510498047,1.2161314487457275
1772811143139172000,5.094172119140625,-0.9522124528884888,-1.9190722703933716,1.1879019737243652
1772811143149053000,5.104052978515625,-0.9996166825294495,-1.7614132165908813,1.1410304307937622
1772811143158934000,5.11393408203125,-1.0550103187561035,-1.5659373998641968,1.0829734802246094
1772811143168814800,5.12381494140625,-1.1120020151138306,-1.3523520231246948,1.0211882591247559
1772811143178696000,5.133696044921875,-1.1748524904251099,-1.1414299011230469,0.9546092748641968
1772811143188577000,5.143576904296875,-1.236637830734253,-0.9368992447853088,0.8752471208572388
1772811143198457900,5.153457763671875,-1.2867051362991333,-0.7419560551643372,0.77724289894104
1772811143208339000,5.1633388671875,-1.3165326118469238,-0.5576654672622681,0.668586015701294
1772811143218219800,5.1732197265625,-1.337837815284729,-0.4058654010295868,0.5721796751022339
1772811143228100900,5.183100830078125,-1.3394356966018677,-0.28069692850112915,0.5018723011016846
1772811143237981700,5.192981689453125,-1.3165326118469238,-0.18695375323295593,0.4539354145526886
1772811143247862800,5.20286279296875,-1.2669978141784668,-0.1368863582611084,0.4209122359752655
1772811143257743600,5.21274365234375,-1.204147219657898,-0.13315793871879578,0.39374804496765137
1772811143267624700,5.222624755859375,-1.149286150932312,-0.15765899419784546,0.3697795867919922
1772811143277505800,5.232505859375,-1.1061429977416992,-0.1981390118598938,0.3404848575592041
1772811143287386600,5.24238671875,-1.0747177600860596,-0.26525062322616577,0.31545117497444153
1772811143297267700,5.252267822265625,-1.0571409463882446,-0.3456780016422272,0.3117227256298065
1772811143307148500,5.2621484375,-1.0374335050582886,-0.4282359480857849,0.3367564380168915
1772811143317029600,5.272029541015625,-1.0235850811004639,-0.5006738305091858,0.3783017098903656
1772811143326910700,5.28191064453125,-1.0065408945083618,-0.5571328401565552,0.42730382084846497
1772811143336791600,5.29179150390625,-0.9841703176498413,-0.5933517813682556,0.46512067317962646
1772811143346672600,5.301672607421875,-0.9612671732902527,-0.6056023240089417,0.48855647444725037
1772811143356553500,5.311553466796875,-0.9367660880088806,-0.5896233320236206,0.49441543221473694
1772811143366434600,5.3214345703125,-0.9048082232475281,-0.5496760010719299,0.47470805048942566
1772811143376315400,5.3313154296875,-0.86805659532547,-0.5038696527481079,0.44221752882003784
1772811143386196500,5.341196533203125,-0.8270439505577087,-0.45007383823394775,0.4054659307003021
1772811143396077600,5.35107763671875,-0.7865639328956604,-0.38509276509284973,0.36125749349594116
1772811143405958400,5.36095849609375,-0.7455512881278992,-0.314785361289978,0.31119009852409363
1772811143415839500,5.370839599609375,-0.7056038975715637,-0.26258745789527893,0.2685795724391937
1772811143425720300,5.38072021484375,-0.6624607443809509,-0.2173137664794922,0.24940481781959534
1772811143435601400,5.390601318359375,-0.6060017943382263,-0.17683374881744385,0.2510027289390564
1772811143445482500,5.400482421875,-0.5410206913948059,-0.13795162737369537,0.2611227333545685
1772811143455363300,5.41036328125,-0.46485435962677,-0.10066740214824677,0.28136274218559265
1772811143465244400,5.420244384765625,-0.38282907009124756,-0.07616633921861649,0.3026680052280426
1772811143475125200,5.430125244140625,-0.2970753610134125,-0.051132649183273315,0.3314301073551178
1772811143485006300,5.44000634765625,-0.21025638282299042,-0.034621063619852066,0.3601922392845154
1772811143494887200,5.44988720703125,-0.14793847501277924,-0.047936856746673584,0.3692469596862793
1772811143504767700,5.459767822265625,-0.1170458272099495,-0.047936856746673584,0.3063964247703552
1772811143514648000,5.46964794921875,-0.06165212765336037,-0.013848425820469856,0.17430374026298523
1772811143524528600,5.479528564453125,0.056059494614601135,0.03355580195784569,0.043808963149785995
1772811143534409000,5.489408935546875,0.23023007810115814,0.10120003670454025,-0.028628956526517868
1772811143544289300,5.499289306640625,0.439554363489151,0.21145480871200562,-0.0600542314350605
1772811143554169900,5.509169921875,0.7175881266593933,0.2876211404800415,-0.05206475406885147
1772811143564050200,5.51905029296875,1.0403629541397095,0.30040431022644043,0.011851056478917599
1772811143573930500,5.528930419921875,1.3583441972732544,0.2721748352050781,0.11944267153739929
1772811143583811000,5.53881103515625,1.6172032356262207,0.24128219485282898,0.2419479787349701
1772811143593691400,5.54869140625,1.7945696115493774,0.20879164338111877,0.3553985357284546
1772811143603572000,5.558572021484375,1.9378474950790405,0.14753900468349457,0.4203796088695526
1772811143613452300,5.568452392578125,2.0241339206695557,0.11664635688066483,0.4880238473415375
1772811143623332600,5.57833251953125,2.047569751739502,0.11185266822576523,0.5828322768211365
1772811143633213200,5.588213134765625,2.0305254459381104,0.11451582610607147,0.7010765671730042
1772811143643093500,5.598093505859375,1.9745991230010986,0.13262531161308289,0.840626060962677
1772811143652973800,5.607973876953125,1.8973674774169922,0.1747032105922699,0.9950892925262451
1772811143662854400,5.6178544921875,1.788710594177246,0.2167811244726181,1.1388999223709106
1772811143672734700,5.627734619140625,1.655019998550415,0.2551306188106537,1.2528830766677856
1772811143682615300,5.637615234375,1.506948471069336,0.295610636472702,1.3338431119918823
1772811143692495600,5.64749560546875,1.359942078590393,0.33182957768440247,1.3663336038589478
1772811143702376000,5.6573759765625,1.2219904661178589,0.3728422224521637,1.3338431119918823
1772811143712256500,5.667256591796875,1.1032135486602783,0.43143174052238464,1.2161314487457275
1772811143722136800,5.67713671875,0.9945566654205322,0.49694544076919556,1.0052093267440796
1772811143732017200,5.68701708984375,0.8944218754768372,0.5768402218818665,0.7095986604690552
1772811143741897700,5.696897705078125,0.8097334504127502,0.6684528589248657,0.3559311628341675
1772811143751778000,5.706778076171875,0.7346323728561401,0.7637939453125,-0.04886896535754204
1772811143761658600,5.71665869140625,0.6611291766166687,0.8372971415519714,-0.4803006947040558
1772811143771539000,5.7265390625,0.5876259803771973,0.8889623880386353,-0.9154608249664307
1772811143781419300,5.736419189453125,0.5061333179473877,0.9246487617492676,-1.3335767984390259
1772811143791299800,5.7462998046875,0.4304996132850647,0.9566066265106201,-1.7048211097717285
1772811143801180200,5.75618017578125,0.3655185401439667,0.969389796257019,-2.020671844482422
1772811143811060500,5.766060546875,0.3223753869533539,0.9763140082359314,-2.2742044925689697
1772811143820941000,5.775941162109375,0.2941458821296692,0.9954887628555298,-2.46701717376709
1772811143830821400,5.7858212890625,0.28455850481987,1.0402297973632812,-2.5825982093811035
1772811143840702000,5.795701904296875,0.31065747141838074,1.1014825105667114,-2.6236109733581543
1772811143850582300,5.805582275390625,0.37244275212287903,1.1648656129837036,-2.5937836170196533
1772811143860462600,5.815462646484375,0.4587291181087494,1.229846715927124,-2.500040292739868
1772811143870343200,5.82534326171875,0.5636575818061829,1.28470778465271,-2.3509035110473633
1772811143880223500,5.835223388671875,0.6819018125534058,1.309741497039795,-2.154895067214966
1772811143890103800,5.845103759765625,0.7884281873703003,1.3070783615112305,-1.9120148420333862
1772811143899984400,5.854984375,0.869388222694397,1.2761857509613037,-1.6265242099761963
1772811143909864700,5.86486474609375,0.9247819185256958,1.2138677835464478,-1.2962925434112549
1772811143919745300,5.874745361328125,0.949815571308136,1.128646731376648,-0.9341029524803162
1772811143929625600,5.88462548828125,0.9482176899909973,1.0380992889404297,-0.5596628189086914
1772811143939506000,5.894505859375,0.9317061305046082,0.9347687363624573,-0.19427743554115295
1772811143949386500,5.904386474609375,0.8933566212654114,0.8293076753616333,0.14021530747413635
1772811143959266800,5.914266845703125,0.840626060962677,0.721716046333313,0.41771647334098816
1772811143969147400,5.9241474609375,0.7836344838142395,0.6364949345588684,0.6313018202781677
1772811143979027700,5.93402783203125,0.7271755337715149,0.5699160099029541,0.7937544584274292
1772811143988908000,5.943907958984375,0.6819018125534058,0.5198485851287842,0.9173250794410706
1772811143998788900,5.953788818359375,0.6515418291091919,0.5017391443252563,1.0116008520126343
1772811144008670000,5.963669921875,0.6344975829124451,0.5299686193466187,1.0781798362731934
1772811144018551300,5.97355126953125,0.6313018202781677,0.5970802307128906,1.1234534978866577
1772811144028432400,5.983432373046875,0.6430196762084961,0.6860297322273254,1.1362366676330566
1772811144038313500,5.9933134765625,0.655802845954895,0.7946866154670715,1.1186598539352417
1772811144048194600,6.003194580078125,0.6733797192573547,0.9070718884468079,1.067527174949646
1772811144058076000,6.013075927734375,0.6877607703208923,0.9938908815383911,0.9961545467376709
1772811144067957000,6.02295703125,0.6984133720397949,1.0562087297439575,0.9210534691810608
1772811144077838000,6.032838134765625,0.7245123386383057,1.1020151376724243,0.8635292649269104
1772811144087719400,6.042719482421875,0.7559376358985901,1.1126677989959717,0.8379629254341125
1772811144097600500,6.0526005859375,0.7980155348777771,1.0721877813339233,0.8507460951805115
1772811144107481600,6.062481689453125,0.8427566289901733,0.9869666695594788,0.9024113416671753
1772811144117363000,6.072363037109375,0.8784429430961609,0.8474171161651611,0.9807082414627075
1772811144127244000,6.082244140625,0.9002808332443237,0.6689854860305786,1.080310344696045
1772811144137125000,6.092125,0.9178577065467834,0.46392226219177246,1.1990872621536255
1772811144147006200,6.102006103515625,0.9524787664413452,0.2503369152545929,1.3317126035690308
1772811144156887600,6.111887451171875,1.0046766996383667,0.026098955422639847,1.4781862497329712
1772811144166768600,6.1217685546875,1.0494177341461182,-0.1880190074443817,1.6166706085205078
1772811144176649700,6.131649658203125,1.0909630060195923,-0.3765706419944763,1.7247947454452515
1772811144186531000,6.141531005859375,1.1266493797302246,-0.524642288684845,1.7876453399658203
1772811144196412200,6.151412109375,1.1612703800201416,-0.6359623074531555,1.788710594177246
1772811144206293200,6.161293212890625,1.1900324821472168,-0.7211834192276001,1.7306537628173828
1772811144216174600,6.171174560546875,1.2054787874221802,-0.776044487953186,1.6188011169433594
1772811144226055700,6.1810556640625,1.206544041633606,-0.7925560474395752,1.461674690246582
1772811144235936800,6.190936767578125,1.1804451942443848,-0.8021434545516968,1.25554621219635
1772811144255699200,6.21069921875,0.9391629695892334,-0.9044087529182434,0.6882933974266052
1772811144265580300,6.220580322265625,0.7612639665603638,-0.9001476764678955,0.3591269552707672
1772811144275461400,6.23046142578125,0.6281059980392456,-0.8809729218482971,0.04274369776248932
1772811144285342700,6.2403427734375,0.5418196320533752,-0.8708529472351074,-0.22410480678081512
1772811144295223800,6.250223876953125,0.4912196397781372,-0.8788424134254456,-0.4366248846054077
1772811144305105000,6.26010498046875,0.4629901647567749,-0.8958866000175476,-0.6086649298667908
1772811144314986200,6.269986328125,0.450206995010376,-0.9305076599121094,-0.7471492290496826
1772811144324867300,6.279867431640625,0.4491417407989502,-0.9901624321937561,-0.8616650104522705
1772811144334748400,6.28974853515625,0.43742382526397705,-1.0620677471160889,-0.9628650546073914
1772811144344629800,6.299629638671875,0.3932153880596161,-1.1270488500595093,-1.0614019632339478
1772811144354510800,6.3095107421875,0.30053746700286865,-1.1819099187850952,-1.1540799140930176
1772811144364392000,6.319391845703125,0.14820478856563568,-1.2218573093414307,-1.215865135192871
1772811144374273000,6.32927294921875,-0.07603318244218826,-1.2362383604049683,-1.2467577457427979
1772811144384154400,6.339154296875,-0.3492732644081116,-1.2159982919692993,-1.2552798986434937
1772811144394035500,6.349035400390625,-0.6544712781906128,-1.1606045961380005,-1.2440946102142334
1772811144403916500,6.35891650390625,-0.9484840035438538,-1.061002492904663,-1.2126693725585938
1772811144413798000,6.3687978515625,-1.2121367454528809,-0.9161266088485718,-1.1641998291015625
1772811144423679000,6.378678955078125,-1.4326462745666504,-0.7781749963760376,-1.0938924551010132
1772811144433560000,6.38856005859375,-1.61054527759552,-0.6588655114173889,-0.9974861145019531
1772811144443441400,6.39844140625,-1.762345314025879,-0.5688506960868835,-0.8936229348182678
1772811144453322500,6.408322509765625,-1.8917748928070068,-0.5219791531562805,-0.8233155608177185
1772811144463203600,6.41820361328125,-2.005758047103882,-0.491086483001709,-0.7854986786842346
1772811144473085000,6.4280849609375,-2.1069581508636475,-0.4617917239665985,-0.7631281614303589
1772811144482966000,6.437966064453125,-2.1900486946105957,-0.43089908361434937,-0.7279744744300842
1772811144492847000,6.44784716796875,-2.2369203567504883,-0.42290961742401123,-0.6571344137191772
1772811144502727700,6.457727783203125,-2.2598233222961426,-0.44155174493789673,-0.5639238953590393
1772811144512608000,6.46760791015625,-2.2603559494018555,-0.48362964391708374,-0.4573975205421448
1772811144522488600,6.477488525390625,-2.2305285930633545,-0.5550022721290588,-0.3476753830909729
1772811144532369000,6.487368896484375,-2.1863203048706055,-0.6721813082695007,-0.25553008913993835
1772811144542249200,6.497249267578125,-2.1309266090393066,-0.818122386932373,-0.1782984882593155
1772811144552129800,6.5071298828125,-2.058488607406616,-0.9757813811302185,-0.10586056113243103
1772811144562010000,6.517010009765625,-1.9711370468139648,-1.14569091796875,-0.03235737979412079
1772811144571890400,6.526890380859375,-1.8720674514770508,-1.3326447010040283,0.056059494614601135
1772811144581771000,6.53677099609375,-1.7703348398208618,-1.5254573822021484,0.16844479739665985
1772811144591651300,6.5466513671875,-1.665406346321106,-1.7060195207595825,0.29521116614341736
1772811144601532000,6.556531982421875,-1.5695326328277588,-1.8508954048156738,0.4161185622215271
1772811144611412200,6.566412109375,-1.4923009872436523,-1.9435733556747437,0.5226449370384216
1772811144621292500,6.57629248046875,-1.4353094100952148,-1.9883143901824951,0.6115944385528564
1772811144631173000,6.586173095703125,-1.3980252742767334,-2.008554458618164,0.677108108997345
1772811144641053400,6.596053466796875,-1.3868399858474731,-1.9984344244003296,0.7095986604690552
1772811144650933800,6.605933837890625,-1.4028189182281494,-1.9478343725204468,0.7133271098136902
1772811144670694700,6.625694580078125,-1.5045515298843384,-1.7267922163009644,0.6494112610816956
1772811144680575000,6.635574951171875,-1.5652716159820557,-1.5915037393569946,0.5908218026161194
1772811144690455600,6.64545556640625,-1.6121431589126587,-1.4333120584487915,0.5247754454612732
1772811144700335900,6.6553359375,-1.6393073797225952,-1.2383688688278198,0.45659857988357544
1772811144710216200,6.66521630859375,-1.6510252952575684,-1.0343708992004395,0.38629117608070374
1772811144720096800,6.6750966796875,-1.6542210578918457,-0.8346339464187622,0.3271690607070923
1772811144729977000,6.68497705078125,-1.6456990242004395,-0.6471475958824158,0.29095008969306946
1772811144739857400,6.694857421875,-1.628122091293335,-0.4894886016845703,0.26272061467170715
1772811144749738000,6.704738037109375,-1.6078821420669556,-0.3488737940788269,0.24248060584068298
1772811144759618300,6.714618408203125,-1.5785874128341675,-0.2221074402332306,0.22543638944625854
1772811144769499000,6.724498779296875,-1.538640022277832,-0.0942758247256279,0.20200060307979584
1772811144779379200,6.734379150390625,-1.4912357330322266,0.014913689345121384,0.15779216587543488
1772811144789259500,6.744259521484375,-1.429450511932373,0.10226529836654663,0.09494160860776901
1772811144799140000,6.75414013671875,-1.355414628982544,0.1789642721414566,0.03741738200187683
1772811144809020400,6.7640205078125,-1.2760525941848755,0.23276008665561676,-0.007856318727135658
1772811144818900700,6.773900634765625,-1.1956251859664917,0.2689790427684784,-0.05632580816745758
1772811144828781300,6.78378125,-1.1183935403823853,0.2844253480434418,-0.10319740325212479
1772811144838661600,6.79366162109375,-1.0502166748046875,0.2828274667263031,-0.14367741346359253
1772811144848542000,6.8035419921875,-0.9777787327766418,0.28549063205718994,-0.1687111109495163
1772811144858422500,6.813422607421875,-0.8984166383743286,0.27696850895881653,-0.18895111978054047
1772811144868302800,6.823302734375,-0.8195871114730835,0.2455432415008545,-0.19374480843544006
1772811144878183400,6.833183349609375,-0.7444860339164734,0.2024000734090805,-0.18362480401992798
1772811144888063700,6.843063720703125,-0.6715154647827148,0.15712636709213257,-0.18042901158332825
1772811144897944000,6.852944091796875,-0.6038712859153748,0.1225053071975708,-0.19587533175945282
1772811144907824400,6.862824462890625,-0.5362270474433899,0.09853687882423401,-0.2209090292453766
1772811144917705000,6.872705078125,-0.46272385120391846,0.08841687440872192,-0.2480732500553131
1772811144927585300,6.882585205078125,-0.3753722310066223,0.1081242486834526,-0.27417218685150146
1772811144937465900,6.8924658203125,-0.26884588599205017,0.14274531602859497,-0.301336407661438
1772811144947346200,6.90234619140625,-0.1452753096818924,0.19654111564159393,-0.32743537425994873
1772811144957226500,6.9122265625,-0.0030626326333731413,0.26098957657814026,-0.3428817093372345
1772811144967107000,6.922107177734375,0.16258583962917328,0.32863378524780273,-0.3343595862388611
1772811144976987400,6.9319873046875,0.3506048619747162,0.4005391001701355,-0.2912164032459259
1772811144986867700,6.94186767578125,0.5583312511444092,0.468183308839798,-0.19427743554115295
1772811144996748300,6.951748291015625,0.7788407802581787,0.5193159580230713,-0.04514054208993912
1772811145006629400,6.96162939453125,0.9908282160758972,0.515587568283081,0.12157320231199265
1772811145016510500,6.971510498046875,1.1463567018508911,0.45540016889572144,0.24727429449558258
1772811145026391600,6.9813916015625,1.226251482963562,0.4053327739238739,0.29095008969306946
1772811145036272600,6.991272705078125,1.2076094150543213,0.3723095953464508,0.30053746700286865
1772811145046153500,7.001153564453125,1.06273353099823,0.3355579972267151,0.3495396077632904
1772811145056034600,7.01103466796875,0.8134618401527405,0.25140219926834106,0.4592617452144623
1772811145065915600,7.02091552734375,0.5780386328697205,0.09108003228902817,0.580169141292572
1772811145075796700,7.030796630859375,0.5034701824188232,-0.022370534017682076,0.6877607703208923
1772811145085677800,7.040677734375,0.6547375917434692,0.013315794058144093,0.7846997380256653
1772811145095559000,7.050558837890625,0.970588207244873,0.1789642721414566,0.8784429430961609
1772811145105440000,7.06043994140625,1.3540830612182617,0.3675159215927124,0.9588703513145447
1772811145115321000,7.070321044921875,1.7386432886123657,0.5086633563041687,1.0435588359832764
1772811145125202000,7.080201904296875,2.0539612770080566,0.591221272945404,1.1255841255187988
1772811145135083000,7.0900830078125,2.2771339416503906,0.6178528666496277,1.2081420421600342
1772811145144964000,7.099964111328125,2.4017698764801025,0.5933517813682556,1.285373568534851
1772811145154845200,7.10984521484375,2.4614245891571045,0.5230444073677063,1.3381041288375854
1772811145164726300,7.119726318359375,2.454500436782837,0.4293012022972107,1.3540830612182617
1772811145174607400,7.129607421875,2.3831276893615723,0.3542001247406006,1.34822416305542
1772811145184488200,7.13948828125,2.3027002811431885,0.30413272976875305,1.3050810098648071
1772811145194369300,7.149369384765625,2.2441108226776123,0.295610636472702,1.2161314487457275
1772811145204250400,7.15925048828125,2.190847635269165,0.31372010707855225,1.0867019891738892
1772811145214131500,7.16913134765625,2.1178770065307617,0.36112433671951294,0.9380977153778076
1772811145224012500,7.179012451171875,2.017209529876709,0.4143875241279602,0.7644597291946411
1772811145233893600,7.1888935546875,1.8765949010849,0.4149201512336731,0.5652554631233215
1772811145243774700,7.198774658203125,1.6896411180496216,0.3675159215927124,0.3676490783691406
1772811145253655800,7.20865576171875,1.479251503944397,0.2647179961204529,0.15939006209373474
1772811145263536600,7.21853662109375,1.2523504495620728,0.13049478828907013,-0.06378265470266342
1772811145273417700,7.228417724609375,1.0121334791183472,0.019174743443727493,-0.29281431436538696
1772811145283298800,7.238298828125,0.7681881785392761,-0.07936213165521622,-0.5367596745491028
1772811145293180000,7.248179931640625,0.5391564965248108,-0.16245268285274506,-0.783900797367096
1772811145303061000,7.25806103515625,0.32503852248191833,-0.19600848853588104,-1.027846097946167
1772811145312942000,7.267942138671875,0.13062794506549835,-0.16724637150764465,-1.2648673057556152
1772811145322823200,7.2778232421875,-0.038216330111026764,-0.06178528442978859,-1.4907031059265137
1772811145332704000,7.2877041015625,-0.17190690338611603,0.10173266381025314,-1.7058863639831543
1772811145342585000,7.297585205078125,-0.27097639441490173,0.32650327682495117,-1.890709638595581
1772811145352466200,7.307466064453125,-0.32690274715423584,0.5922865271568298,-2.0377159118652344
1772811145362347300,7.31734716796875,-0.34980592131614685,0.8724508285522461,-2.1474380493164062
1772811145372228400,7.327228271484375,-0.35513222217559814,1.1600719690322876,-2.2166802883148193
1772811145382109400,7.337109375,-0.34447959065437317,1.4503562450408936,-2.2395834922790527
1772811145391990500,7.346990478515625,-0.3237069547176361,1.7150743007659912,-2.1996359825134277
1772811145401871400,7.356871337890625,-0.28961852192878723,1.95209538936615,-2.088315963745117
1772811145411752400,7.36675244140625,-0.24114902317523956,2.1401143074035645,-1.9269285202026367
1772811145421633500,7.376633544921875,-0.19374480843544006,2.261554479598999,-1.7341158390045166
1772811145431514600,7.3865146484375,-0.16125427186489105,2.3329272270202637,-1.5226610898971558
1772811145441395700,7.396395751953125,-0.13941636681556702,2.3590261936187744,-1.3021514415740967
1772811145451276800,7.40627685546875,-0.12450267374515533,2.3377208709716797,-1.0869683027267456
1772811145461158000,7.416157958984375,-0.1074584573507309,2.2839250564575195,-0.8866987228393555
1772811145471038700,7.426038818359375,-0.09254477173089981,2.2045629024505615,-0.7098649740219116
1772811145480919800,7.435919921875,-0.07496792078018188,2.111884832382202,-0.5511407256126404
1772811145490801000,7.44580078125,-0.05579317733645439,2.0170764923095703,-0.410525918006897
1772811145500682000,7.455681884765625,-0.03129211440682411,1.917474389076233,-0.30826061964035034
1772811145510563000,7.46556298828125,-0.0030626326333731413,1.8114806413650513,-0.2347574532032013
1772811145520444000,7.47544384765625,0.024101587012410164,1.7076174020767212,-0.17137427628040314
1772811145530325000,7.485324951171875,0.05819002166390419,1.6335816383361816,-0.11917635798454285
1772811145540206000,7.4952060546875,0.09281108528375626,1.5808510780334473,-0.09147950261831284
1772811145550087200,7.505087158203125,0.12583425641059875,1.5318489074707031,-0.07816371321678162
1772811145559968000,7.514968017578125,0.16684690117835999,1.4961626529693604,-0.06431528180837631
1772811145569849000,7.52484912109375,0.21105533838272095,1.4737920761108398,-0.04833633080124855
1772811145579730200,7.534730224609375,0.2515353560447693,1.4402363300323486,-0.01904158480465412
1772811145589611300,7.544611328125,0.3069290518760681,1.393364667892456,0.032091062515974045
1772811145599492000,7.5544921875,0.3735080361366272,1.3251878023147583,0.09227845072746277
1772811145609373200,7.564373291015625,0.4486091136932373,1.2447603940963745,0.156194269657135
1772811145619254300,7.574254150390625,0.5332975387573242,1.1488866806030273,0.22170796990394592
1772811145629135400,7.58413525390625,0.6328997015953064,1.0263813734054565,0.2978743016719818
1772811145639016200,7.59401611328125,0.7532744407653809,0.8687223792076111,0.38948696851730347
1772811145648897300,7.603897216796875,0.8933566212654114,0.6913560032844543,0.49281755089759827
1772811145658778400,7.6137783203125,1.0483524799346924,0.4846948981285095,0.5988112688064575
1772811145668659500,7.623659423828125,1.2166640758514404,0.2700442969799042,0.7138597369194031
1772811145678540300,7.633540283203125,1.390302062034607,0.05273054540157318,0.8464850187301636
1772811145688421400,7.64342138671875,1.5772558450698853,-0.1512674242258072,0.9934914112091064
1772811145698302500,7.653302490234375,1.7636768817901611,-0.3339601159095764,1.1319756507873535
1772811145708183300,7.663183349609375,1.9218685626983643,-0.4996086061000824,1.2422304153442383
1772811145718064400,7.673064453125,2.0694074630737305,-0.6567349433898926,1.3146682977676392
1772811145727945500,7.682945556640625,2.1940433979034424,-0.809600293636322,1.3546156883239746
1772811145737826600,7.69282666015625,2.275003433227539,-0.9518129825592041,1.322657823562622
1772811145747707600,7.702707763671875,2.305896043777466,-1.0876340866088867,1.2070767879486084
1772811145757588500,7.71258837890625,2.3027002811431885,-1.1776487827301025,1.0259819030761719
1772811145767469600,7.722469482421875,2.284590721130371,-1.250086784362793,0.8102660775184631
1772811145777350700,7.7323505859375,2.2787318229675293,-1.3315794467926025,0.5982786417007446
1772811145787231500,7.7422314453125,2.2670140266418457,-1.426387906074524,0.41878172755241394
1772811145797112600,7.752112548828125,2.2467739582061768,-1.5440994501113892,0.28615641593933105
1772811145806993700,7.76199365234375,2.235588550567627,-1.6724637746810913,0.20306585729122162
1772811145816874800,7.771874755859375,2.235588550567627,-1.8114806413650513,0.15939006209373474
1772811145826755600,7.781755615234375,2.2041633129119873,-1.9483669996261597,0.1375521570444107
1772811145836636700,7.79163671875,2.1232032775878906,-2.0751333236694336,0.11997530609369278
1772811145846517800,7.801517822265625,1.9591528177261353,-2.1603543758392334,0.08801739662885666
1772811145856398800,7.81139892578125,1.6891084909439087,-2.1635501384735107,0.032091062515974045
1772811145866279700,7.82127978515625,1.3333104848861694,-2.112950086593628,-0.04514054208993912
1772811145876160800,7.831160888671875,0.9093355536460876,-1.9968364238739014,-0.12982898950576782
1772811145886041900,7.841041748046875,0.4400869905948639,-1.8263943195343018,-0.22410480678081512
1772811145895923000,7.8509228515625,-0.04727106913924217,-1.619733214378357,-0.33009853959083557
1772811145905803800,7.8608037109375,-0.523443877696991,-1.393897294998169,-0.456332266330719
1772811145915684900,7.870684814453125,-0.9479513764381409,-1.1472887992858887,-0.5958817601203918
1772811145925566000,7.88056591796875,-1.2930967807769775,-0.8926908373832703,-0.7407576441764832
1772811145935447000,7.890447021484375,-1.5642063617706299,-0.6396907567977905,-0.8765787482261658
1772811145945327900,7.900327880859375,-1.7660738229751587,-0.3909517228603363,-1.0033451318740845
1772811145955209000,7.910208984375,-1.8971011638641357,-0.16192005574703217,-1.1109366416931152
1772811145965090000,7.920090087890625,-1.9780611991882324,0.026631588116288185,-1.1961578130722046
1772811145974971100,7.92997119140625,-2.033987522125244,0.13422320783138275,-1.2478231191635132
1772811145984852000,7.93985205078125,-2.0734024047851562,0.1560611128807068,-1.2600735425949097
1772811145994733000,7.949733154296875,-2.1026971340179443,0.08628634363412857,-1.2265177965164185
1772811146004613600,7.959613525390625,-2.1314592361450195,-0.0846884474158287,-1.1231871843338013
1772811146014494200,7.969494140625,-2.1506338119506836,-0.3121222257614136,-0.9671261310577393
1772811146024375000,7.979375,-2.133589744567871,-0.5480780601501465,-0.774846076965332
1772811146034255600,7.989255615234375,-2.074467658996582,-0.8021434545516968,-0.5596628189086914
1772811146044136200,7.99913623046875,-1.9919096231460571,-1.0993520021438599,-0.34075117111206055
1772811146054016800,8.009016845703124,-1.8859158754348755,-1.4333120584487915,-0.12716583907604218
1772811146063897300,8.0188974609375,-1.7639431953430176,-1.7747290134429932,0.0762995034456253
1772811146073778000,8.02877783203125,-1.6377094984054565,-2.0900471210479736,0.2664490342140198
1772811146083658500,8.038658447265625,-1.5040189027786255,-2.3627545833587646,0.45180490612983704
1772811146093539000,8.0485390625,-1.3692630529403687,-2.5774052143096924,0.6115944385528564
1772811146103419600,8.058419677734374,-1.2217241525650024,-2.697779893875122,0.7356976270675659
1772811146113300200,8.06830029296875,-1.0709893703460693,-2.752640962600708,0.8171902894973755
1772811146123181000,8.07818115234375,-0.9404945373535156,-2.7547714710235596,0.8491482138633728
1772811146133061600,8.0880615234375,-0.8424903154373169,-2.702573537826538,0.8416913151741028
1772811146142942200,8.097942138671876,-0.7753787040710449,-2.5955145359039307,0.7932218313217163
1772811146152822800,8.10782275390625,-0.7498123645782471,-2.4453125,0.7223818302154541
1772811146162703400,8.117703369140624,-0.7604650259017944,-2.2535650730133057,0.6499438881874084
1772811146172584000,8.127583984375,-0.8099997639656067,-2.0160112380981445,0.588691234588623
1772811146182464500,8.137464599609375,-0.8930903077125549,-1.7550216913223267,0.5524722933769226
1772811146192345000,8.147344970703125,-1.0070735216140747,-1.498293161392212,0.5359607338905334
1772811146202226000,8.157225830078126,-1.1508840322494507,-1.2570109367370605,0.5370259881019592
1772811146212106500,8.1671064453125,-1.3064125776290894,-1.0375666618347168,0.5444828271865845
1772811146221987000,8.176987060546875,-1.4523537158966064,-0.8484823703765869,0.5316996574401855
1772811146231867600,8.18686767578125,-1.5833810567855835,-0.6982802152633667,0.49494805932044983
1772811146241748200,8.196748291015625,-1.690440058708191,-0.5688506960868835,0.448076456785202
1772811146251628800,8.20662890625,-1.7650084495544434,-0.45113909244537354,0.4022701382637024
1772811146261509400,8.21650927734375,-1.803890585899353,-0.3526022136211395,0.36125749349594116
1772811146271390000,8.226389892578124,-1.8060210943222046,-0.2732400894165039,0.318114310503006
1772811146281270500,8.2362705078125,-1.7841832637786865,-0.21092218160629272,0.25899219512939453
1772811146291151000,8.246151123046875,-1.744768500328064,-0.16777899861335754,0.18655426800251007
1772811146301032000,8.256031982421876,-1.6973642110824585,-0.14540846645832062,0.13009530305862427
1772811146310912500,8.26591259765625,-1.6409052610397339,-0.13528846204280853,0.1002679318189621
1772811146320793000,8.27579296875,-1.5743262767791748,-0.13901689648628235,0.08801739662885666
1772811146330673700,8.285673583984375,-1.5130736827850342,-0.1507347822189331,0.07523423433303833
1772811146340554200,8.29555419921875,-1.4502230882644653,-0.16724637150764465,0.060320548713207245
1772811146350434800,8.305434814453125,-1.3932315111160278,-0.1693768948316574,0.028362641111016273
1772811146360315400,8.3153154296875,-1.3468925952911377,-0.15339794754981995,-0.022237375378608704
1772811146370196000,8.325196044921874,-1.303749442100525,-0.1267663538455963,-0.09574055671691895
1772811146380076500,8.33507666015625,-1.2680630683898926,-0.08628634363412857,-0.1830921620130539
1772811146389957400,8.344957275390625,-1.2424967288970947,-0.04101264476776123,-0.271509051322937
1772811146399838000,8.354837890625,-1.2126693725585938,0.025566324591636658,-0.35033854842185974
1772811146409718500,8.364718505859376,-1.1716567277908325,0.10492845624685287,-0.41531962156295776
1772811146419599000,8.37459912109375,-1.119458794593811,0.1789642721414566,-0.46751752495765686
1772811146429479700,8.384479736328124,-1.0544776916503906,0.24181482195854187,-0.49042069911956787
1772811146439360300,8.3943603515625,-0.9836376905441284,0.2966758906841278,-0.4930838644504547
1772811146449240800,8.40424072265625,-0.9069387316703796,0.33289486169815063,-0.47710490226745605
1772811146459121400,8.414121337890625,-0.8249134421348572,0.3392864465713501,-0.44940805435180664
1772811146469002000,8.424001953125,-0.7572692036628723,0.316915899515152,-0.414254367351532
1772811146478882600,8.433882568359374,-0.6960165500640869,0.30306747555732727,-0.4099932909011841
1772811146488763400,8.443763427734375,-0.6107954978942871,0.31265485286712646,-0.43982067704200745
1772811146498644000,8.45364404296875,-0.49627965688705444,0.3249053657054901,-0.4616585671901703
1772811146508524500,8.463524658203125,-0.366317480802536,0.32650327682495117,-0.45366910099983215
1772811146518405400,8.4734052734375,-0.21238692104816437,0.33182957768440247,-0.4126564562320709
1772811146528286000,8.483285888671874,-0.030759483575820923,0.3296990692615509,-0.3428817093372345
1772811146538166800,8.493166748046875,0.17909742891788483,0.34088432788848877,-0.2209090292453766
1772811146548047400,8.50304736328125,0.42357540130615234,0.3451453745365143,-0.04301001504063606
1772811146557928200,8.51292822265625,0.6946849822998047,0.32810115814208984,0.1902827024459839
1772811146567808800,8.522808837890626,0.9684576988220215,0.2684464156627655,0.45606595277786255
1772811146577689600,8.532689697265624,1.2230557203292847,0.17044216394424438,0.7415565848350525
1772811146587570200,8.542570068359375,1.44463050365448,0.05379580706357956,1.032906174659729
1772811146597451000,8.552450927734375,1.6353126764297485,-0.0756337121129036,1.3221251964569092
1772811146607331600,8.56233154296875,1.7780579328536987,-0.2311621904373169,1.5996263027191162
1772811146617212400,8.57221240234375,1.8771275281906128,-0.39414751529693604,1.8696706295013428
1772811146627093000,8.582093017578124,1.935184359550476,-0.5496760010719299,2.1200075149536133
1772811146636973800,8.591973876953125,1.960750699043274,-0.6865623593330383,2.3277339935302734
1772811146646854400,8.6018544921875,1.9612833261489868,-0.8213181495666504,2.489121437072754
1772811146656735200,8.6117353515625,1.9394453763961792,-0.9267792701721191,2.6057677268981934
1772811146666615800,8.62161572265625,1.9032264947891235,-1.0077393054962158,2.6595635414123535
1772811146676496600,8.63149658203125,1.8488980531692505,-1.0482193231582642,2.628138303756714
1772811146686377500,8.64137744140625,1.7807211875915527,-1.0247834920883179,2.5125572681427
1772811146696258000,8.651258056640625,1.697097897529602,-0.9464866518974304,2.3117549419403076
1772811146706139000,8.661138916015625,1.5985610485076904,-0.8186550140380859,2.056091785430908
1772811146716019500,8.67101953125,1.473925232887268,-0.6498107314109802,1.741839051246643
1772811146725900300,8.680900390625,1.3317126035690308,-0.4751075208187103,1.3817799091339111
1772811146735780900,8.69078076171875,1.1831083297729492,-0.33715590834617615,0.9817734956741333
1772811146745661700,8.70066162109375,0.995621919631958,-0.1608547866344452,0.5210469961166382
1772811146755542300,8.710542236328125,0.7681881785392761,0.04154527932405472,0.004926843568682671
1772811146765423000,8.720423095703126,0.5242428183555603,0.260456919670105,-0.5165196657180786
1772811146775303700,8.7303037109375,0.3032006323337555,0.4852275252342224,-0.9905619025230408
1772811146785184500,8.7401845703125,0.11624687910079956,0.7089328765869141,-1.4017536640167236
1772811146795065000,8.750065185546875,-0.04034685716032982,0.9331708550453186,-1.7538232803344727
1772811146804946000,8.75994580078125,-0.1633847951889038,1.162735104560852,-2.030259132385254
1772811146814826500,8.769826416015626,-0.2246374487876892,1.3954951763153076,-2.2049622535705566
1772811146824707300,8.779707275390624,-0.22783324122428894,1.6202658414840698,-2.2944445610046387
1772811146834588000,8.789587890625,-0.17190690338611603,1.8120132684707642,-2.286454916000366
1772811146844468700,8.79946875,-0.06697844713926315,1.9441059827804565,-2.1857876777648926
1772811146854349300,8.809349365234375,0.07097318023443222,2.0202722549438477,-2.004160165786743
1772811146864230100,8.819230224609376,0.20945744216442108,2.0106849670410156,-1.7548885345458984
1772811146874110700,8.82911083984375,0.3463438153266907,1.9153437614440918,-1.4385051727294922
1772811146883991600,8.838991455078125,0.4683164656162262,1.7598153352737427,-1.0757830142974854
1772811146893872000,8.8488720703125,0.5759080648422241,1.5393058061599731,-0.6864292025566101
1772811146903753000,8.8587529296875,0.6653902530670166,1.2868382930755615,-0.2826943099498749
1772811146913633500,8.868633544921876,0.743687093257904,1.0396971702575684,0.09707213938236237
1772811146923514400,8.878514404296874,0.7958850264549255,0.8106655478477478,0.4075964689254761
1772811146933395000,8.88839501953125,0.8262450098991394,0.6045370697975159,0.6494112610816956
1772811146943275800,8.89827587890625,0.8464850187301636,0.43089908361434937,0.8347671031951904
1772811146953156400,8.90815625,0.8651271462440491,0.3105243146419525,0.9716535210609436
1772811146963037200,8.918037109375,0.8763124346733093,0.2503369152545929,1.054744005203247
1772811146972917800,8.927917724609374,0.8848345279693604,0.24341271817684174,1.087234616279602
1772811146982798600,8.937798583984375,0.8885629177093506,0.2684464156627655,1.0659292936325073
1772811146992679400,8.947679443359375,0.8757797479629517,0.31851378083229065,0.9966871738433838
1772811147002559700,8.957559814453125,0.8448871374130249,0.3824295997619629,0.8715187311172485
1772811147012440300,8.9674404296875,0.7974829077720642,0.4538022577762604,0.7048049569129944
1772811147022321000,8.97732080078125,0.7298386693000793,0.5592633485794067,0.5194491147994995
1772811147032201500,8.987201416015624,0.6589986681938171,0.6764423251152039,0.3175816833972931
1772811147042082000,8.99708203125,0.5998765230178833,0.7771097421646118,0.12157320231199265
1772811147051962600,9.006962646484375,0.5514070391654968,0.8554065823554993,-0.05579317733645439
1772811147061843200,9.01684326171875,0.5125249028205872,0.8985497951507568,-0.21025638282299042
1772811147071723800,9.026723876953126,0.48429542779922485,0.8996150493621826,-0.3295659124851227
1772811147081604400,9.036604248046874,0.4635227918624878,0.8713855743408203,-0.40626487135887146
1772811147091485000,9.04648486328125,0.4576638340950012,0.8277097344398499,-0.445679634809494
1772811147101365500,9.056365478515625,0.47417542338371277,0.7531412839889526,-0.44514700770378113
1772811147111246000,9.06624609375,0.5066659450531006,0.6343644261360168,-0.41159120202064514
1772811147121126700,9.076126708984376,0.5482112169265747,0.5006738305091858,-0.3609911799430847
1772811147131007200,9.08600732421875,0.5956154465675354,0.36538538336753845,-0.31784799695014954
1772811147140887800,9.0958876953125,0.6488786339759827,0.2258358597755432,-0.2912164032459259
1772811147150768000,9.10576806640625,0.7095986604690552,0.10173266381025314,-0.26565009355545044
1772811147160648700,9.115648681640625,0.7836344838142395,-0.003195790573954582,-0.23529008030891418
1772811147170529300,9.125529296875,0.869388222694397,-0.10013477504253387,-0.18628795444965363
1772811147180409900,9.135409912109376,0.9530113935470581,-0.19441059231758118,-0.11757846176624298
1772811147190290400,9.14529052734375,1.0217208862304688,-0.2828274667263031,-0.02330263890326023
1772811147200171000,9.1551708984375,1.0691250562667847,-0.373374879360199,0.08375634253025055
1772811147210051600,9.165051513671875,1.079777717590332,-0.5001412034034729,0.1950763761997223
1772811147219932200,9.17493212890625,1.0307756662368774,-0.6482128500938416,0.2840258777141571
1772811147229812700,9.184812744140626,0.9530113935470581,-0.7488802671432495,0.32344064116477966
1772811147249574000,9.204573974609374,0.8874976634979248,-0.8261118531227112,0.3255711793899536
1772811147259454500,9.214454345703125,0.8933566212654114,-0.8484823703765869,0.30533117055892944
1772811147269335000,9.2243349609375,0.8896281719207764,-0.8458192348480225,0.273905873298645
1772811147279215600,9.234215576171875,0.886432409286499,-0.8442213535308838,0.2414153516292572
1772811147289096200,9.24409619140625,0.8811060786247253,-0.8548739552497864,0.22916480898857117
1772811147298976800,9.253976806640624,0.8677902817726135,-0.8777771592140198,0.23289324343204498
1772811147308857000,9.263857177734375,0.8214513063430786,-0.9171919226646423,0.22809955477714539
1772811147318737700,9.273737548828125,0.7309039235115051,-0.9768466353416443,0.21212059259414673
1772811147328618200,9.2836181640625,0.5972133874893188,-1.043958306312561,0.19560901820659637
1772811147338498800,9.293498779296876,0.4299669861793518,-1.098286747932434,0.18708691000938416
1772811147348379400,9.30337939453125,0.24301324784755707,-1.1472887992858887,0.17963005602359772
1772811147358260000,9.313260009765624,0.040080539882183075,-1.2197266817092896,0.1663142740726471
1772811147368140500,9.323140625,-0.1729721575975418,-1.2942951917648315,0.13701951503753662
1772811147378021000,9.333021240234375,-0.37856802344322205,-1.3480910062789917,0.08535423874855042
1772811147387901700,9.342901611328125,-0.5575323104858398,-1.3901689052581787,0.011851056478917599
1772811147397782300,9.3527822265625,-0.6960165500640869,-1.4349099397659302,-0.06751107424497604
1772811147407662800,9.362662841796874,-0.8036081790924072,-1.480716347694397,-0.15166689455509186
1772811147417543400,9.37254345703125,-0.8877639770507812,-1.5211963653564453,-0.24168166518211365
1772811147427424000,9.382424072265625,-0.9575387239456177,-1.5638068914413452,-0.324239581823349
1772811147437304600,9.3923046875,-1.017726182937622,-1.6218637228012085,-0.37803539633750916
1772811147447185200,9.40218505859375,-1.0789787769317627,-1.699095368385315,-0.399873286485672
1772811147457065500,9.4120654296875,-1.1402314901351929,-1.7939038276672363,-0.3801659345626831
1772811147466946000,9.421946044921874,-1.206810474395752,-1.9116153717041016,-0.32210904359817505
1772811147476826600,9.43182666015625,-1.2920315265655518,-2.034653425216675,-0.2251700758934021
1772811147486707200,9.441707275390625,-1.3831114768981934,-2.147571325302124,-0.09733845293521881
1772811147496587800,9.451587890625,-1.484311580657959,-2.251967191696167,0.0390152782201767
1772811147506468900,9.46146875,-1.5956315994262695,-2.3483734130859375,0.16418373584747314
1772811147516350200,9.47135009765625,-1.7090821266174316,-2.420278787612915,0.24993745982646942
1772811147526231300,9.481231201171875,-1.8182716369628906,-2.4580955505371094,0.28722167015075684
1772811147536112400,9.4911123046875,-1.9168086051940918,-2.4533019065856934,0.2877542972564697
1772811147545993500,9.500993408203126,-1.9892464876174927,-2.4069628715515137,0.2755037844181061
1772811147555874600,9.51087451171875,-2.0334548950195312,-2.336655616760254,0.27337324619293213
1772811147565755600,9.520755615234375,-2.050499200820923,-2.2604892253875732,0.29148274660110474
1772811147575637000,9.530636962890625,-2.035585403442383,-2.1896491050720215,0.3495396077632904
1772811147585518000,9.54051806640625,-1.9977686405181885,-2.1305270195007324,0.44701120257377625
1772811147595399200,9.550399169921874,-1.9365159273147583,-2.0804595947265625,0.5796365141868591
1772811147605280300,9.5602802734375,-1.8555558919906616,-2.0405123233795166,0.7388933897018433
1772811147615161300,9.570161376953125,-1.7527580261230469,-1.9952385425567627,0.9119987487792969
1772811147625042700,9.580042724609376,-1.6259915828704834,-1.9457038640975952,1.0867019891738892
1772811147634923800,9.589923828125,-1.4805831909179688,-1.9025607109069824,1.2464914321899414
1772811147644804900,9.599804931640625,-1.3197283744812012,-1.8610153198242188,1.3833777904510498
1772811147654686000,9.60968603515625,-1.1535472869873047,-1.807752251625061,1.5053504705429077
1772811147664567000,9.619567138671876,-0.9852356314659119,-1.7342489957809448,1.6054853200912476
1772811147674448100,9.6294482421875,-0.8371639847755432,-1.653821587562561,1.6869779825210571
1772811147684329500,9.63932958984375,-0.7114628553390503,-1.5691331624984741,1.7524917125701904
1772811147694210600,9.64921044921875,-0.611328125,-1.4865752458572388,1.8052221536636353
1772811147704091600,9.659091552734376,-0.5340964794158936,-1.4226593971252441,1.8616812229156494
1772811147713972700,9.66897265625,-0.4717785716056824,-1.3736573457717896,1.918672800064087
1772811147723853800,9.678853759765625,-0.422776460647583,-1.339036226272583,1.9783275127410889
1772811147733735000,9.68873486328125,-0.38282907009124756,-1.3209267854690552,2.032655954360962
1772811147743616000,9.698615966796876,-0.3535343408584595,-1.3134698867797852,2.072603464126587
1772811147753497300,9.708497314453124,-0.32743537425994873,-1.3347752094268799,2.095506429672241
1772811147763378400,9.71837841796875,-0.31252169609069824,-1.368863582611084,2.100832939147949
1772811147773259500,9.728259521484375,-0.29814061522483826,-1.4018868207931519,2.0800602436065674
1772811147783140600,9.738140625,-0.2960101068019867,-1.42372465133667,2.0257318019866943
1772811147793021700,9.748021728515624,-0.2997385263442993,-1.4317141771316528,1.9314559698104858
1772811147802903000,9.757903076171875,-0.315717488527298,-1.4317141771316528,1.8132116794586182
1772811147812784000,9.7677841796875,-0.34714275598526,-1.4157352447509766,1.6715316772460938
1772811147822665200,9.777665283203126,-0.39188382029533386,-1.3997563123703003,1.5191988945007324
1772811147832546300,9.78754638671875,-0.4408859312534332,-1.3725920915603638,1.3689967393875122
1772811147842427400,9.797427490234375,-0.49201858043670654,-1.3363730907440186,1.2241209745407104
1772811147852308500,9.80730859375,-0.5346291065216064,-1.3028173446655273,1.080310344696045
1772811147862189800,9.81718994140625,-0.5793702006340027,-1.2681962251663208,0.9343692660331726
1772811147872071000,9.82707080078125,-0.6214480996131897,-1.2064108848571777,0.7777755260467529
1772811147881952000,9.836951904296875,-0.6544712781906128,-1.1259835958480835,0.6057354807853699
1772811147891833000,9.8468330078125,-0.686961829662323,-1.0482193231582642,0.43156489729881287
1772811147901714200,9.856714111328126,-0.7178544402122498,-0.957139253616333,0.26698166131973267
1772811147911595300,9.86659521484375,-0.7471492290496826,-0.8367645144462585,0.1002679318189621
1772811147921476600,9.8764765625,-0.783900797367096,-0.7014760375022888,-0.07070686668157578
1772811147931357700,9.886357666015625,-0.8201197385787964,-0.5656549334526062,-0.23582270741462708
1772811147941238800,9.89623876953125,-0.8483492136001587,-0.4181159436702728,-0.3865574896335602
1772811147951120000,9.906119873046874,-0.8712524175643921,-0.24927166104316711,-0.5154544115066528
1772811147961001000,9.9160009765625,-0.8792418837547302,-0.07190528512001038,-0.6310355067253113
1772811147970882000,9.925882080078125,-0.8653934597969055,0.09054739773273468,-0.7263765931129456
1772811147980763400,9.935763427734376,-0.8414250016212463,0.22849902510643005,-0.783900797367096
1772811147990644500,9.94564453125,-0.8036081790924072,0.3547327518463135,-0.7993471026420593
1772811148000525300,9.955525390625,-0.7498123645782471,0.4538022577762604,-0.7945534586906433
1772811148010406400,9.965406494140625,-0.7008102536201477,0.48735806345939636,-0.7870965600013733
1772811148020287200,9.975287353515625,-0.6757765412330627,0.4942822754383087,-0.8078691959381104
1772811148030168000,9.98516796875,-0.6427533626556396,0.5075980424880981,-0.8584692478179932
1772811148040049000,9.995048828125,-0.5703154802322388,0.5150549411773682,-0.913862943649292
1772811148049929700,10.0049296875,-0.47817015647888184,0.5044022798538208,-0.9415597915649414
1772811148059810800,10.014810791015625,-0.3753722310066223,0.4713791012763977,-0.9234502911567688
1772811148069691600,10.024691650390626,-0.2683132588863373,0.42184436321258545,-0.8584692478179932
1772811148079572500,10.034572509765624,-0.14261215925216675,0.3717769682407379,-0.741290271282196
1772811148089453300,10.044453369140625,-0.004127896390855312,0.31744852662086487,-0.5745764970779419
1772811148099334400,10.05433447265625,0.13701951503753662,0.26152220368385315,-0.35513222217559814
1772811148109215200,10.06421533203125,0.2850911617279053,0.21411797404289246,-0.10319740325212479
1772811148119096000,10.074095947265626,0.43635857105255127,0.17310532927513123,0.1705753207206726
1772811148128977000,10.083976806640624,0.5822996497154236,0.12889689207077026,0.4358259439468384
1772811148138857700,10.093857666015625,0.7064028978347778,0.09374319016933441,0.6850975751876831
1772811148148738800,10.10373876953125,0.8182555437088013,0.059122126549482346,0.8944218754768372
1772811148158619600,10.11361962890625,0.9178577065467834,0.017576847225427628,1.05527663230896
1772811148168500500,10.12350048828125,1.003611445426941,-0.02077263966202736,1.1804451942443848
1772811148178381300,10.13338134765625,1.075516700744629,-0.047936856746673584,1.276318907737732
1772811148188262100,10.14326220703125,1.134638786315918,-0.07456845045089722,1.3546156883239746
1772811148198143200,10.153143310546875,1.1735209226608276,-0.10652635246515274,1.4190641641616821
1772811148208024000,10.163024169921876,1.1884346008300781,-0.12996214628219604,1.4675337076187134
1772811148217905000,10.17290478515625,1.1799125671386719,-0.1459411084651947,1.4952305555343628
1772811148227785700,10.18278564453125,1.1458240747451782,-0.1549958437681198,1.4872410297393799
1772811148237666800,10.192666748046875,1.092028260231018,-0.15020215511322021,1.4377062320709229
1772811148247547600,10.202547607421875,1.0147966146469116,-0.13422320783138275,1.3295820951461792
1772811148257428500,10.212428466796876,0.9226513504981995,-0.10492845624685287,1.1506177186965942
1772811148267309300,10.222309326171874,0.8187881708145142,-0.04633896425366402,0.9135966300964355
1772811148277190400,10.2321904296875,0.7095986604690552,0.02876211516559124,0.6089312434196472
1772811148287071200,10.2420712890625,0.5865607261657715,0.10918951034545898,0.2595248222351074
1772811148296952000,10.2519521484375,0.45127224922180176,0.18216006457805634,-0.111719511449337
1772811148306833000,10.2618330078125,0.29521116614341736,0.2870885133743286,-0.489888072013855
1772811148316713700,10.271713623046875,0.133291095495224,0.40266960859298706,-0.863262951374054
1772811148326594800,10.2815947265625,-0.01531316339969635,0.5177180767059326,-1.2094736099243164
1772811148336475600,10.2914755859375,-0.1447426825761795,0.630103349685669,-1.5120084285736084
1772811148346356500,10.3013564453125,-0.2539321780204773,0.7478150129318237,-1.7559537887573242
1772811148356237300,10.3112373046875,-0.34181642532348633,0.872983455657959,-1.933320164680481
1772811148366118100,10.3211181640625,-0.40253645181655884,1.0130655765533447,-2.0579559803009033
1772811148375999200,10.330999267578125,-0.433429092168808,1.1563435792922974,-2.1266653537750244
1772811148385880000,10.340880126953126,-0.43555963039398193,1.2868382930755615,-2.1303939819335938
1772811148395761000,10.350760986328124,-0.4217112064361572,1.3960278034210205,-2.0627496242523193
1772811148405641700,10.360641845703125,-0.38815540075302124,1.4796510934829712,-1.925863265991211
1772811148415522600,10.3705224609375,-0.3327617049217224,1.527055263519287,-1.7314527034759521
1772811148435284500,10.390284423828126,-0.20493006706237793,1.5382405519485474,-1.1807115077972412
1772811148445165300,10.400165283203124,-0.1213068813085556,1.52013099193573,-0.8376966118812561
1772811148455046100,10.410046142578125,-0.009986845776438713,1.4689984321594238,-0.46858277916908264
1772811148464927200,10.41992724609375,0.10879004001617432,1.3789836168289185,-0.11012161523103714
1772811148474808000,10.42980810546875,0.2270342856645584,1.2564783096313477,0.1945437490940094
1772811148484689000,10.43968896484375,0.3404848575592041,1.1243855953216553,0.43156489729881287
1772811148494569700,10.44956982421875,0.45180490612983704,0.9779118895530701,0.6094638705253601
1772811148504450300,10.4594501953125,0.5652554631233215,0.8266444802284241,0.7372955083847046
1772811148514331000,10.469330810546875,0.6728470921516418,0.675909698009491,0.8315713405609131
1772811148524211500,10.47921142578125,0.7756450176239014,0.5395559668540955,0.8960197567939758
1772811148534092000,10.489092041015626,0.8699208498001099,0.42290961742401123,0.9274450540542603
1772811148543972600,10.49897265625,0.9466198086738586,0.34194958209991455,0.9221187233924866
1772811148553853200,10.508853271484375,1.0025461912155151,0.2972085177898407,0.8890955448150635
1772811148563733800,10.518733642578125,1.0318409204483032,0.26631587743759155,0.840626060962677
1772811148573614300,10.5286142578125,1.0398303270339966,0.240216925740242,0.790026068687439
1772811148583495000,10.538494873046876,1.0291776657104492,0.21571587026119232,0.7415565848350525
1772811148593375500,10.54837548828125,0.9982850551605225,0.19494321942329407,0.6952176094055176
1772811148603256000,10.558256103515625,0.9631313681602478,0.18588848412036896,0.6456828713417053
1772811148613136600,10.56813671875,0.9237166047096252,0.19014954566955566,0.5918870568275452
1772811148623017200,10.578017333984375,0.8922913670539856,0.19654111564159393,0.5285038948059082
1772811148632897800,10.587897705078126,0.8683229088783264,0.1976063847541809,0.4523375332355499
1772811148642778400,10.5977783203125,0.8544744849205017,0.19441059231758118,0.3820301294326782
1772811148652659000,10.607658935546874,0.8491482138633728,0.16298532485961914,0.34794169664382935
1772811148662539500,10.61753955078125,0.8544744849205017,0.09587371349334717,0.353268027305603
1772811148672420000,10.627420166015625,0.865659773349762,-0.01012000348418951,0.4054659307003021
1772811148682300700,10.63730078125,0.8837692737579346,-0.14061477780342102,0.5034701824188232
1772811148692181200,10.64718115234375,0.9008134603500366,-0.2934800982475281,0.6291712522506714
1772811148702061800,10.657061767578124,0.9082702994346619,-0.4335622489452362,0.7447523474693298
1772811148711942400,10.6669423828125,0.9157271385192871,-0.5597959756851196,0.823581874370575
1772811148721823000,10.676822998046875,0.9258471727371216,-0.6519412994384766,0.8587355613708496
1772811148731703600,10.68670361328125,0.9439566135406494,-0.7153244614601135,0.840626060962677
1772811148741584100,10.696584228515626,0.9679250717163086,-0.7462170720100403,0.7671229243278503
1772811148751464700,10.706464599609374,1.0052093267440796,-0.7366297245025635,0.6536723375320435
1772811148761345300,10.71634521484375,1.0526134967803955,-0.7057371139526367,0.5237101912498474
1772811148771225900,10.726225830078125,1.0946913957595825,-0.6705833673477173,0.40812909603118896
1772811148781106400,10.7361064453125,1.1165293455123901,-0.6412886381149292,0.31917959451675415
1772811148790987000,10.745987060546875,1.1202577352523804,-0.6258423328399658,0.2701774537563324
1772811148800867600,10.75586767578125,1.1112029552459717,-0.6348970532417297,0.2510027289390564
1772811148810748200,10.765748046875,1.0819082260131836,-0.6673876047134399,0.2462090253829956
1772811148820628700,10.775628662109375,1.0100029706954956,-0.7243791818618774,0.22437113523483276
1772811148830509300,10.78550927734375,0.899215579032898,-0.7877624034881592,0.16524900496006012
1772811148840390000,10.795389892578125,0.7937544584274292,-0.8293076753616333,0.08162581920623779
1772811148850270500,10.8052705078125,0.7154576182365417,-0.8596676588058472,-0.018508953973650932
1772811148860150800,10.81515087890625,0.6717818379402161,-0.8719182014465332,-0.1261005699634552
1772811148870031400,10.82503125,0.672314465045929,-0.8681897521018982,-0.2198437601327896
1772811148879912000,10.834911865234375,0.7122617959976196,-0.8548739552497864,-0.27044376730918884
1772811148889792500,10.84479248046875,0.7719165682792664,-0.8575371503829956,-0.2805637717247009
1772811148899673000,10.854673095703125,0.8182555437088013,-0.8926908373832703,-0.2720416784286499
1772811148909553700,10.8645537109375,0.8294408321380615,-0.9459540247917175,-0.25979113578796387
1772811148919434200,10.874434326171874,0.7969502806663513,-0.9869666695594788,-0.24541008472442627
1772811148929314800,10.884314697265625,0.7138597369194031,-1.0104024410247803,-0.23262691497802734
1772811148939195400,10.8941953125,0.5769733786582947,-1.0263813734054565,-0.2113216519355774
1772811148949076000,10.904075927734375,0.3788343369960785,-1.024250864982605,-0.19321216642856598
1772811148958956500,10.91395654296875,0.13968268036842346,-1.0135982036590576,-0.17137427628040314
1772811148968837000,10.923837158203124,-0.11811109632253647,-0.9949561357498169,-0.1404816210269928
1772811148978717700,10.9337177734375,-0.35992592573165894,-0.9640634655952454,-0.11065424978733063
1772811148988598300,10.943598388671875,-0.5665870308876038,-0.940095067024231,-0.09361003339290619
1772811148998478800,10.953478759765625,-0.7338334321975708,-0.9054740071296692,-0.09733845293521881
1772811149008359400,10.963359375,-0.855273425579071,-0.8617981672286987,-0.1170458272099495
1772811149018239700,10.97323974609375,-0.947418749332428,-0.8250465989112854,-0.150068998336792
1772811149028120300,10.983120361328124,-1.0251829624176025,-0.7984150052070618,-0.17883111536502838
1772811149038000600,10.993000732421875,-1.0917619466781616,-0.7866970896720886,-0.1969406008720398
1772811149047881200,11.002881103515625,-1.1556777954101562,-0.7957518696784973,-0.19800585508346558
1772811149057761800,11.01276171875,-1.216397762298584,-0.8101329207420349,-0.1735047996044159
1772811149067642000,11.02264208984375,-1.27871572971344,-0.8074697256088257,-0.1308942586183548
1772811149077522700,11.032522705078126,-1.3463599681854248,-0.8234487175941467,-0.07496792078018188
1772811149087403300,11.0424033203125,-1.409743070602417,-0.8484823703765869,-0.00519315991550684
1772811149097283600,11.05228369140625,-1.4949642419815063,-0.8687223792076111,0.07843002676963806
1772811149107164200,11.0621640625,-1.5727283954620361,-0.8703203201293945,0.15459637343883514
1772811149117044500,11.07204443359375,-1.6377094984054565,-0.8772445321083069,0.22383849322795868
1772811149126925000,11.081925048828126,-1.6861790418624878,-0.8969519138336182,0.29680904746055603
1772811149136805600,11.0918056640625,-1.71440851688385,-0.9198550581932068,0.374573290348053
1772811149146686000,11.10168603515625,-1.71440851688385,-0.9566066265106201,0.4486091136932373
1772811149156566500,11.11156640625,-1.682983160018921,-1.0253161191940308,0.5263733267784119
1772811149166446800,11.12144677734375,-1.627589464187622,-1.121189832687378,0.6265081167221069
1772811149176327400,11.131327392578125,-1.5418357849121094,-1.237303614616394,0.7490134239196777
1772811149186208000,11.1412080078125,-1.4358420372009277,-1.3752552270889282,0.8800408244132996
1772811149196088300,11.15108837890625,-1.3122714757919312,-1.5371752977371216,1.0110682249069214
1772811149205969000,11.160968994140624,-1.1876356601715088,-1.7006932497024536,1.1426283121109009
1772811149215849500,11.170849365234375,-1.0661956071853638,-1.8679395914077759,1.2550135850906372
1772811149225729800,11.180729736328125,-0.9591366648674011,-2.0170764923095703,1.3311799764633179
1772811149235610400,11.1906103515625,-0.8755134344100952,-2.112950086593628,1.364735722541809
1772811149245490700,11.20049072265625,-0.808401882648468,-2.157158613204956,1.3684641122817993
1772811149255371300,11.210371337890624,-0.7636607885360718,-2.167278528213501,1.3594094514846802
1772811149265251800,11.220251953125,-0.7327681183815002,-2.1704745292663574,1.3684641122817993
1772811149275132200,11.230132080078125,-0.716789186000824,-2.1608870029449463,1.4057483673095703
1772811149285012700,11.2400126953125,-0.7162565588951111,-2.1310596466064453,1.4627399444580078
1772811149294893300,11.249893310546875,-0.7269092202186584,-2.0804595947265625,1.5133399963378906
1772811149304773600,11.259773681640626,-0.737561821937561,-2.0053586959838867,1.5548852682113647
1772811149314654200,11.269654296875,-0.7306376099586487,-1.891908049583435,1.5772558450698853
1772811149324534500,11.279534423828125,-0.716789186000824,-1.7464995384216309,1.5772558450698853
1772811149334415000,11.2894150390625,-0.699212372303009,-1.5973626375198364,1.5628747940063477
1772811149344295700,11.299295654296875,-0.6720481514930725,-1.4668679237365723,1.5564831495285034
1772811149354176000,11.309176025390625,-0.649677574634552,-1.3662004470825195,1.5554178953170776
1772811149364056600,11.319056640625,-0.6294375658035278,-1.2953604459762573,1.561276912689209
1772811149373937000,11.32893701171875,-0.6081323027610779,-1.2436951398849487,1.5676684379577637
1772811149383817500,11.3388173828125,-0.58256596326828,-1.212802529335022,1.5847126245498657
1772811149393698000,11.348697998046875,-0.5548691153526306,-1.195225715637207,1.5927021503448486
1772811149403578400,11.358578369140625,-0.5367596745491028,-1.1994867324829102,1.5852452516555786
1772811149413459000,11.368458984375,-0.5186501741409302,-1.2223899364471436,1.5570157766342163
1772811149423339500,11.378339599609374,-0.5053343772888184,-1.247423529624939,1.5128073692321777
1772811149433219800,11.3882197265625,-0.47657227516174316,-1.2650004625320435,1.4430326223373413
1772811149443100400,11.398100341796875,-0.4286354184150696,-1.267130970954895,1.3540830612182617
1772811149452980700,11.407980712890625,-0.36525222659111023,-1.259141445159912,1.243295669555664
1772811149462861300,11.417861328125,-0.2970753610134125,-1.2367709875106812,1.1133335828781128
1772811149472742000,11.427741943359376,-0.22676797211170197,-1.2112046480178833,0.9556745290756226
1772811149482622200,11.437622314453124,-0.1735047996044159,-1.182975172996521,0.7799060344696045
1772811149492502800,11.447502685546874,-0.14314478635787964,-1.1424951553344727,0.5876259803771973
1772811149502383600,11.457383544921875,-0.13835109770298004,-1.1025477647781372,0.39534592628479004
1772811149512264400,11.467264404296875,-0.1585911065340042,-1.0583393573760986,0.20626164972782135
1772811149522145500,11.4771455078125,-0.20812585949897766,-1.0034782886505127,0.032091062515974045
1772811149532026400,11.4870263671875,-0.2773679792881012,-0.9299750328063965,-0.11864372342824936
1772811149541907500,11.496907470703125,-0.3519364297389984,-0.8372971415519714,-0.24061639606952667
1772811149551788300,11.506788330078125,-0.42011329531669617,-0.7211834192276001,-0.3391532599925995
1772811149561669400,11.51666943359375,-0.47284385561943054,-0.5885580778121948,-0.42490699887275696
1772811149571550500,11.526550537109374,-0.5095954537391663,-0.44528016448020935,-0.498410165309906
1772811149581431300,11.536431396484375,-0.523443877696991,-0.29028430581092834,-0.5532712340354919
1772811149591312400,11.5463125,-0.5202480554580688,-0.13795162737369537,-0.6012080907821655
1772811149601193200,11.556193115234375,-0.5074648857116699,0.00426105409860611,-0.63263338804245
1772811149611074300,11.56607421875,-0.4850943684577942,0.1459411084651947,-0.6310355067253113
1772811149620955100,11.575955078125,-0.4430164694786072,0.27537062764167786,-0.6049365401268005
1772811149630836200,11.585836181640625,-0.39188382029533386,0.38189697265625,-0.5543364882469177
1772811149640717000,11.595717041015625,-0.3332943320274353,0.46445488929748535,-0.48243123292922974
1772811149650598100,11.60559814453125,-0.27470484375953674,0.5134570002555847,-0.38336169719696045
1772811149660479000,11.61547900390625,-0.2304963916540146,0.5113264918327332,-0.28802061080932617
1772811149670360000,11.625360107421875,-0.19800585508346558,0.49801069498062134,-0.2246374487876892
1772811149680241000,11.635240966796875,-0.150068998336792,0.49694544076919556,-0.2017342746257782
1772811149690122000,11.6451220703125,-0.08668582141399384,0.49747806787490845,-0.20706059038639069
1772811149700002800,11.6550029296875,-0.009986845776438713,0.5113264918327332,-0.2342248111963272
1772811149709884000,11.6648837890625,0.08269108086824417,0.533164381980896,-0.282161682844162
1772811149719764700,11.6747646484375,0.21212059259414673,0.5619264841079712,-0.32743537425994873
1772811149729645800,11.684645751953125,0.3788343369960785,0.5944170355796814,-0.34075117111206055
1772811149739526700,11.694526611328126,0.5663207173347473,0.6226465106010437,-0.3093259036540985
1772811149749407700,11.70440771484375,0.7474155426025391,0.6258423328399658,-0.23156166076660156
1772811149759288800,11.714288818359375,0.9066724181175232,0.6130591630935669,-0.11118687689304352
1772811149769169700,11.724169677734375,1.0408955812454224,0.5720465183258057,0.03741738200187683
1772811149779050800,11.73405078125,1.1436935663223267,0.503337025642395,0.19773954153060913
1772811149788931600,11.743931640625,1.221457839012146,0.42663803696632385,0.35167011618614197
1772811149798812700,11.753812744140625,1.2715251445770264,0.3494064211845398,0.48536068201065063
1772811149808693500,11.763693603515625,1.3008198738098145,0.26418536901474,0.6041375994682312
1772811149818574600,11.77357470703125,1.3146682977676392,0.17523585259914398,0.7223818302154541
1772811149828455400,11.783455322265626,1.3173315525054932,0.08628634363412857,0.8438218832015991
1772811149838336500,11.79333642578125,1.3120051622390747,0.0005326317623257637,0.9647293090820312
1772811149848217300,11.80321728515625,1.2949609756469727,-0.0990695059299469,1.0787124633789062
1772811149858098400,11.813098388671875,1.2779167890548706,-0.19654111564159393,1.1793798208236694
1772811149867979300,11.822979248046876,1.2518178224563599,-0.27696850895881653,1.256078839302063
1772811149877860400,11.8328603515625,1.2171967029571533,-0.34674328565597534,1.297624111175537
1772811149887741200,11.8427412109375,1.1703251600265503,-0.4159854054450989,1.2906999588012695
1772811149897622300,11.852622314453125,1.1085398197174072,-0.4655201733112335,1.2241209745407104
1772811149907503000,11.862503173828125,1.0179924964904785,-0.4942822754383087,1.0914956331253052
1772811149917384200,11.87238427734375,0.8970850706100464,-0.5113264918327332,0.899215579032898
1772811149927265000,11.88226513671875,0.7431544661521912,-0.511859118938446,0.65953129529953
1772811149937146000,11.89214599609375,0.5647228360176086,-0.47404226660728455,0.38948696851730347
1772811149947027000,11.90202685546875,0.35752907395362854,-0.39308223128318787,0.11145319789648056
1772811149956908000,11.911907958984376,0.133291095495224,-0.2588590383529663,-0.13409005105495453
1772811149966788900,11.921788818359374,-0.08242476731538773,-0.06391581147909164,-0.334892213344574
1772811149976670000,11.931669921875,-0.26884588599205017,0.19121479988098145,-0.5186501741409302
1772811149986550800,11.94155078125,-0.41531962156295776,0.4900212287902832,-0.7279744744300842
1772811149996432000,11.951431884765626,-0.5277048945426941,0.809600293636322,-0.9990840554237366
1772811150006313000,11.96131298828125,-0.6193175911903381,1.1105371713638306,-1.3346420526504517
1772811150016193800,11.97119384765625,-0.6944186687469482,1.4594110250473022,-1.6973642110824585
1772811150026074600,11.98107470703125,-0.8158587217330933,1.8530259132385254,-2.0030949115753174
1772811150035955700,11.990955810546875,-1.0033451318740845,2.210954427719116,-2.168743371963501
1772811150045836500,12.00083642578125,-1.2030819654464722,2.4373228549957275,-2.153829574584961
1772811150055717600,12.010717529296874,-1.3692630529403687,2.479933500289917,-1.9844528436660767
1772811150065598500,12.020598388671875,-1.5519558191299438,2.479933500289917,-1.7389096021652222
1772811150075479600,12.0304794921875,-1.8054884672164917,2.49910831451416,-1.5205305814743042
1772811150085360400,12.0403603515625,-2.1618192195892334,2.5033693313598633,-1.4283852577209473
1772811150095241500,12.050241455078124,-2.5564992427825928,2.475672483444214,-1.4656693935394287
1772811150105122300,12.060122314453125,-2.908568859100342,2.4873902797698975,-1.5668694972991943
1772811150115003400,12.07000341796875,-3.1471879482269287,2.594449281692505,-1.6515579223632812
1772811150124884200,12.07988427734375,-3.2734217643737793,2.7196178436279297,-1.682450532913208
1772811150134765300,12.089765380859374,-3.3357396125793457,2.8383946418762207,-1.6504926681518555
1772811150144646100,12.099646240234375,-3.338935375213623,2.9230830669403076,-1.5429010391235352
1772811150154527200,12.10952734375,-3.3410658836364746,3.0626325607299805,-1.4060146808624268
1772811150164408000,12.119407958984375,-3.3724911212921143,3.274087429046631,-1.2478231191635132
1772811150174289200,12.1292890625,-3.46250581741333,3.545197010040283,-1.0677934885025024
1772811150184170000,12.139169921875,-3.596196413040161,3.7816855907440186,-0.8669913411140442
1772811150194051000,12.149051025390625,-3.72029972076416,3.997401475906372,-0.6044039130210876
1772811150203932000,12.158931884765625,-3.819901943206787,4.147603511810303,-0.315717488527298
1772811150213813000,12.16881298828125,-3.9274935722351074,4.2333574295043945,-0.06591317802667618
1772811150223693800,12.17869384765625,-3.9871482849121094,4.4213762283325195,0.12956267595291138
1772811150233575000,12.188574951171875,-3.94826602935791,4.688224792480469,0.254731148481369
1772811150243455700,12.198455810546875,-3.8582513332366943,4.991292476654053,0.4070638120174408
1772811150253336800,12.2083369140625,-3.75545334815979,5.31673002243042,0.6733797192573547
1772811150263217700,12.2182177734375,-3.650524854660034,5.5271196365356445,1.0094703435897827
1772811150273098800,12.2280986328125,-3.497127056121826,5.551088333129883,1.407346248626709
1772811150282979600,12.2379794921875,-3.313369035720825,5.4482903480529785,1.8664748668670654
1772811150292860700,12.247860595703125,-3.1045773029327393,5.437637805938721,2.2877864837646484
1772811150302741500,12.257741455078126,-2.877143621444702,5.482378959655762,2.533329725265503
1772811150312622600,12.26762255859375,-2.6273393630981445,5.513271331787109,2.577005624771118
1772811150322503400,12.27750341796875,-2.357295036315918,5.595296859741211,2.533329725265503
1772811150332384500,12.287384521484375,-2.108556032180786,5.856818675994873,2.5061655044555664
1772811150342265300,12.297265380859375,-1.8560885190963745,6.315947532653809,2.558363437652588
1772811150352146400,12.307146484375,-1.592968463897705,6.487987518310547,2.5546350479125977
1772811150362027300,12.31702734375,-1.3415662050247192,6.307425498962402,2.459294080734253
1772811150371908400,12.326908447265625,-1.107208251953125,5.77852201461792,2.325070858001709
1772811150381789200,12.3367890625,-0.8318376541137695,5.177713394165039,2.313885450363159
1772811150391670300,12.346670166015626,-0.5601954460144043,4.834698677062988,2.5253403186798096
1772811150401551000,12.356551025390624,-0.3716438114643097,4.659995079040527,2.785797357559204
1772811150411432200,12.36643212890625,-0.25499746203422546,4.390483379364014,2.930673122406006
1772811150421313000,12.37631298828125,-0.15646058320999146,4.101264476776123,2.983936309814453
1772811150431194000,12.386194091796876,-0.04407527670264244,3.769967555999756,2.974881649017334
1772811150441075000,12.396074951171874,0.07470160722732544,3.3545148372650146,2.9184226989746094
1772811150450956000,12.4059560546875,0.16844479739665985,2.965693712234497,2.849713087081909
1772811150460836900,12.4158369140625,0.19667427241802216,2.6423861980438232,2.8071024417877197
1772811150470718000,12.425718017578125,0.20626164972782135,2.3185460567474365,2.791656255722046
1772811150480598800,12.435598876953126,0.20093533396720886,2.092710256576538,2.7772750854492188
1772811150490479900,12.44547998046875,0.2414153516292572,1.9749985933303833,2.7485129833221436
1772811150500360700,12.455360595703125,0.3452785313129425,1.939312219619751,2.67181396484375
1772811150510241500,12.465241455078125,0.500806987285614,1.9478343725204468,2.5317318439483643
1772811150520122600,12.47512255859375,0.6744449734687805,1.9451712369918823,2.329864501953125
1772811150530003500,12.48500341796875,0.8102660775184631,1.90202796459198,2.0757992267608643
1772811150539884500,12.494884521484375,0.8720513582229614,1.7763268947601318,1.8473000526428223
1772811150549765400,12.504765380859375,0.8667250275611877,1.641571044921875,1.6955000162124634
1772811150559646500,12.514646484375,0.8789755702018738,1.5733941793441772,1.6518242359161377
1772811150569527300,12.52452734375,0.9514135122299194,1.5542194843292236,1.6912389993667603
1772811150579408400,12.534408447265625,1.0446240901947021,1.5089458227157593,1.759948492050171
1772811150589289200,12.544289306640625,1.104811429977417,1.3502215147018433,1.7743295431137085
1772811150599170000,12.554170166015625,1.1484872102737427,1.1398320198059082,1.7215989828109741
1772811150609051100,12.564051025390626,1.1815104484558105,0.927311897277832,1.612942099571228
1772811150618932000,12.573931884765624,1.188967227935791,0.7744466066360474,1.4893715381622314
1772811150628813000,12.58381298828125,1.1655313968658447,0.6870949864387512,1.3892368078231812
1772811150638694000,12.59369384765625,1.1213229894638062,0.6705833673477173,1.3242557048797607
1772811150648575000,12.603574951171876,1.0653966665267944,0.7621960639953613,1.2347736358642578
1772811150658455800,12.613455810546874,1.0270471572875977,0.918789803981781,1.092028260231018
1772811150668336600,12.623336669921875,0.9982850551605225,1.1057435274124146,0.9237166047096252
1772811150678217700,12.6332177734375,0.928510308265686,1.317198395729065,0.710663914680481
1772811150688098600,12.6430986328125,0.8491482138633728,1.3912341594696045,0.4438154101371765
