time,seconds_elapsed,z,y,x
1772811155934754800,0.1797548828125,0.11677951365709305,0.13488899171352386,-0.6518081426620483
1772811155954515500,0.199515380859375,0.18815216422080994,-0.11385004222393036,0.22809955477714539
1772811155964396000,0.20939599609375,0.20572902262210846,-0.42597225308418274,0.567918598651886
1772811155974276400,0.2192763671875,0.22383849322795868,-0.9841703176498413,0.6344975829124451
1772811155984156700,0.22915673828125,0.24727429449558258,-1.396959900856018,0.6829670667648315
1772811155994037200,0.239037353515625,0.2744385302066803,-1.5354442596435547,0.7788407802581787
1772811156003917600,0.24891748046875,0.2850911617279053,-1.4811158180236816,0.8129292130470276
1772811156013798000,0.2587978515625,0.2978743016719818,-1.4587452411651611,0.7665902376174927
1772811156023678500,0.268678466796875,0.2755037844181061,-1.4337115287780762,0.7005439400672913
1772811156033558800,0.278558837890625,0.21584902703762054,-1.3900357484817505,0.6392912864685059
1772811156043439000,0.288439208984375,0.14128057658672333,-1.4369072914123535,0.5945501923561096
1772811156053319700,0.298319580078125,0.05073317512869835,-1.575924277305603,0.5471459627151489
1772811156063200000,0.308199951171875,-0.017976321280002594,-1.6243937015533447,0.4171838164329529
1772811156073080300,0.318080322265625,-0.012117372825741768,-1.8821874856948853,0.28615641593933105
1772811156082961000,0.3279609375,0.003861580276861787,-2.2502360343933105,0.18708691000938416
1772811156092841200,0.33784130859375,-0.017443690448999405,-2.5863265991210938,0.11464899033308029
1772811156102721500,0.347721435546875,-0.10000161081552505,-2.8451857566833496,0.0624510757625103
1772811156112602000,0.35760205078125,-0.26884588599205017,-2.9149603843688965,0.04593949019908905
1772811156122482400,0.367482421875,-0.5330312252044678,-2.856903553009033,0.04114580526947975
1772811156132362800,0.37736279296875,-0.8510124087333679,-2.7567689418792725,0.040080539882183075
1772811156142243300,0.387243408203125,-1.179113507270813,-2.5724782943725586,0.05446159839630127
1772811156152123600,0.39712353515625,-1.5082800388336182,-2.347175121307373,0.06831002235412598
1772811156162004000,0.40700390625,-1.833717942237854,-2.1825919151306152,0.0672447606921196
1772811156171884500,0.416884521484375,-2.1506338119506836,-2.043574810028076,0.03741738200187683
1772811156181764900,0.426764892578125,-2.4302656650543213,-1.9365159273147583,-0.017976321280002594
1772811156191645200,0.436645263671875,-2.649709939956665,-1.7852485179901123,-0.0978710874915123
1772811156201525800,0.44652587890625,-2.749844551086426,-1.3703283071517944,-0.24700798094272614
1772811156211406000,0.456406005859375,-2.4691476821899414,-0.414254367351532,-0.6928207874298096
1772811156221286700,0.46628662109375,-1.925330638885498,-0.2059953361749649,-0.8531429171562195
1772811156231167000,0.4761669921875,-1.2014840841293335,-0.05952160060405731,-0.9271787405014038
1772811156241047300,0.48604736328125,-0.5053343772888184,-0.1074584573507309,-0.8787092566490173
1772811156250927600,0.495927734375,0.17217321693897247,-0.27044376730918884,-0.741290271282196
1772811156260808200,0.50580810546875,0.8097334504127502,-0.4760396480560303,-0.5271722674369812
1772811156270688500,0.5156884765625,1.2715251445770264,-0.7274418473243713,-0.3375553786754608
1772811156280568800,0.52556884765625,1.2347736358642578,-1.0933598279953003,-0.37377434968948364
1772811156290449400,0.535449462890625,0.9647293090820312,-1.187103033065796,-0.44514700770378113
1772811156300329700,0.545329833984375,0.7697860598564148,-1.077913522720337,-0.4659196436405182
1772811156310210300,0.555210205078125,0.6382260322570801,-1.0081387758255005,-0.4749743640422821
1772811156320090600,0.565090576171875,0.5103943943977356,-0.9362334609031677,-0.4472775161266327
1772811156329971000,0.574970947265625,0.4534027874469757,-0.9367660880088806,-0.3285006284713745
1772811156339851300,0.584851318359375,0.48482805490493774,-1.0235850811004639,-0.16231952607631683
1772811156349731800,0.59473193359375,0.5780386328697205,-1.2025493383407593,-0.02756369300186634
1772811156359612200,0.604612060546875,0.7261102795600891,-1.3436968326568604,0.03368895873427391
1772811156369492500,0.614492431640625,0.9327713847160339,-1.3064125776290894,0.03795001283288002
1772811156379373000,0.624373046875,1.1607377529144287,-1.287770390510559,0.01717737503349781
1772811156389253400,0.63425341796875,1.3311799764633179,-1.531715750694275,-0.0009321055840700865
1772811156399134000,0.644134033203125,1.3934978246688843,-1.8353159427642822,0.018242638558149338
1772811156409014300,0.65401416015625,1.3844431638717651,-2.0622169971466064,0.052331071346998215
1772811156418894600,0.66389453125,1.3817799091339111,-2.2172129154205322,0.020373165607452393
1772811156428775000,0.67377490234375,1.4046831130981445,-2.519747734069824,-0.02010684832930565
1772811156438655500,0.683655517578125,1.4307820796966553,-2.798314094543457,0.027830010280013084
1772811156448535800,0.693535888671875,1.5628747940063477,-3.0683584213256836,0.11038793623447418
1772811156458416400,0.70341650390625,1.8552895784378052,-3.303781747817993,0.1098553016781807
1772811156468296700,0.713296630859375,2.2323927879333496,-3.4459943771362305,0.06138581037521362
1772811156478177000,0.723177001953125,2.5296013355255127,-3.3629038333892822,-0.02383527159690857
1772811156488057600,0.7330576171875,2.696847677230835,-3.2372026443481445,-0.1585911065340042
1772811156497938000,0.74293798828125,2.781003475189209,-3.199918508529663,-0.29441219568252563
1772811156507818200,0.752818359375,2.7991130352020264,-3.160503625869751,-0.36418697237968445
1772811156517698800,0.76269873046875,2.7724814414978027,-3.1232194900512695,-0.3002711534500122
1772811156527579100,0.7725791015625,2.7442519664764404,-3.072086811065674,-0.11917635798454285
1772811156537459700,0.782459716796875,2.741056203842163,-2.9011120796203613,0.08748476952314377
1772811156547340000,0.792340087890625,2.815092086791992,-2.5069644451141357,0.17643427848815918
1772811156557220600,0.802220703125,2.985534191131592,-1.8635454177856445,0.06937528401613235
1772811156567101000,0.812100830078125,3.217228889465332,-1.1732546091079712,-0.15060162544250488
1772811156576981500,0.8219814453125,3.420694351196289,-0.506932258605957,-0.4089280366897583
1772811156586861800,0.83186181640625,3.5479934215545654,-0.08082687109708786,-0.6933534145355225
1772811156596742100,0.8417421875,3.648128032684326,0.052863702178001404,-0.9143955707550049
1772811156606622700,0.851622802734375,3.7072501182556152,-0.014780531637370586,-1.0422271490097046
1772811156616503000,0.8615029296875,3.748262882232666,-0.2502037584781647,-1.107740879058838
1772811156626383600,0.871383544921875,3.7999281883239746,-0.649677574634552,-1.1514166593551636
1772811156636264000,0.881263916015625,3.848397731781006,-1.1450251340866089,-1.2819114923477173
1772811156646144500,0.89114453125,3.862246036529541,-1.6020231246948242,-1.5913705825805664
1772811156656024800,0.90102490234375,3.8686375617980957,-1.8923075199127197,-2.080326557159424
1772811156665905400,0.910905517578125,3.892606019973755,-2.0526297092437744,-2.6704823970794678
1772811156675785700,0.92078564453125,3.9197702407836914,-2.183657169342041,-3.1919291019439697
1772811156685666300,0.930666259765625,3.9250965118408203,-2.4046993255615234,-3.512040615081787
1772811156695546600,0.940546630859375,3.9011282920837402,-2.7823352813720703,-3.6190996170043945
1772811156705427200,0.95042724609375,3.8441364765167236,-3.290465831756592,-3.5392048358917236
1772811156715307500,0.9603076171875,3.803123950958252,-3.8161733150482178,-3.369295358657837
1772811156725188000,0.97018798828125,3.77862286567688,-4.22629976272583,-3.2121689319610596
1772811156735068400,0.980068359375,3.7519912719726562,-4.469180107116699,-3.1173605918884277
1772811156744949000,0.989948974609375,3.7669050693511963,-4.565053462982178,-3.065695285797119
1772811156754829300,0.999829345703125,3.8537240028381348,-4.616718769073486,-2.9996488094329834
1772811156764710000,1.0097099609375,3.9581198692321777,-4.761062145233154,-2.869154214859009
1772811156774590200,1.019590087890625,4.010317802429199,-4.927775859832764,-2.604968786239624
1772811156784470500,1.029470458984375,3.941608190536499,-5.091826438903809,-2.212951898574829
1772811156794351000,1.03935107421875,3.7748944759368896,-5.118458271026611,-1.7751284837722778
1772811156804231400,1.0492314453125,3.564504861831665,-4.862794876098633,-1.375654697418213
1772811156814112000,1.059112060546875,3.281677484512329,-4.289150238037109,-1.0310419797897339
1772811156823992300,1.068992431640625,2.919487953186035,-3.497127056121826,-0.7215828895568848
1772811156833873000,1.078872802734375,2.558363437652588,-2.6172192096710205,-0.33968591690063477
1772811156843753200,1.088753173828125,2.4214770793914795,-1.8965685367584229,0.05499422922730446
1772811156853633800,1.0986337890625,2.4209444522857666,-1.4177325963974,0.3687143325805664
1772811156863514000,1.10851416015625,2.3272013664245605,-1.0321072340011597,0.6973481178283691
1772811156873394700,1.118394775390625,2.215348720550537,-0.7817702889442444,1.0270471572875977
1772811156883275000,1.12827490234375,2.11574649810791,-0.678439736366272,1.3210599422454834
1772811156893155600,1.138155517578125,1.9836537837982178,-0.6704502105712891,1.5847126245498657
1772811156903036000,1.148035888671875,1.8350496292114258,-0.7684544920921326,1.8222664594650269
1772811156912916500,1.15791650390625,1.7034895420074463,-0.9447556138038635,2.047569751739502
1772811156922796800,1.167796875,1.6065505743026733,-1.2941620349884033,2.2728729248046875
1772811156932677400,1.177677490234375,1.486708402633667,-1.6377094984054565,2.468881368637085
1772811156942557700,1.1875576171875,1.3136030435562134,-1.938113808631897,2.617485523223877
1772811156952438300,1.197438232421875,1.1287798881530762,-2.2172129154205322,2.762361526489258
1772811156962318600,1.207318603515625,0.9487503170967102,-2.47074556350708,2.910433053970337
1772811156972199000,1.217198974609375,0.7852323651313782,-2.708832025527954,3.0366668701171875
1772811156982079500,1.22707958984375,0.6286386251449585,-2.912297248840332,3.139464855194092
1772811156991959800,1.236959716796875,0.4688491225242615,-3.007105827331543,3.1607699394226074
1772811157001841200,1.246841064453125,0.330364853143692,-3.111501693725586,3.17248797416687
1772811157011722500,1.256722412109375,0.21691428124904633,-3.19938588142395,3.168226957321167
1772811157021603800,1.266603759765625,0.12636688351631165,-3.1727542877197266,3.088864803314209
1772811157031485400,1.2764853515625,0.08056055754423141,-2.996985673904419,2.889127731323242
1772811157041366800,1.28636669921875,0.0810931846499443,-2.6859288215637207,2.5695488452911377
1772811157051248000,1.296248046875,0.1002679318189621,-2.2347896099090576,2.1136159896850586
1772811157061129700,1.306129638671875,0.1284974068403244,-1.7064189910888672,1.5516895055770874
1772811157071011000,1.316010986328125,0.12583425641059875,-1.1487535238265991,0.8986829519271851
1772811157080892400,1.325892333984375,0.07310371100902557,-0.5783049464225769,0.21531638503074646
1772811157090774000,1.33577392578125,-0.020639481022953987,0.015579478815197945,-0.3945469856262207
1772811157100655400,1.3456552734375,-0.14687320590019226,0.5972133874893188,-0.9085366129875183
1772811157110537000,1.355536865234375,-0.34128379821777344,1.1239861249923706,-1.358077883720398
1772811157120418300,1.365418212890625,-0.6129260063171387,1.58364737033844,-1.7362463474273682
1772811157130299600,1.375299560546875,-0.922385036945343,1.9543590545654297,-2.0212044715881348
1772811157140181000,1.385180908203125,-1.2302461862564087,2.2473065853118896,-2.2252023220062256
1772811157150062600,1.3950625,-1.4928336143493652,2.5056328773498535,-2.3706107139587402
1772811157159944000,1.40494384765625,-1.7064189910888672,2.7043046951293945,-2.4931161403656006
1772811157169825500,1.414825439453125,-1.8965685367584229,2.8523762226104736,-2.584196090698242
1772811157179707000,1.424706787109375,-2.045705556869507,2.973816394805908,-2.625741481781006
1772811157189588200,1.434588134765625,-2.1309266090393066,3.0627658367156982,-2.628937244415283
1772811157199469800,1.4444697265625,-2.1474380493164062,3.0973868370056152,-2.5879244804382324
1772811157209351200,1.45435107421875,-2.098435878753662,3.1021804809570312,-2.491518259048462
1772811157219232500,1.464232421875,-1.9908443689346313,3.0750162601470947,-2.3402507305145264
1772811157229114000,1.474114013671875,-1.8576864004135132,2.9865994453430176,-2.138916015625
1772811157238995500,1.483995361328125,-1.724528431892395,2.8481152057647705,-1.8720674514770508
1772811157248876800,1.493876708984375,-1.592968463897705,2.661694049835205,-1.5572820901870728
1772811157258758400,1.50375830078125,-1.459277868270874,2.442782402038574,-1.2377030849456787
1772811157268639700,1.5136396484375,-1.3367725610733032,2.21588134765625,-0.9655282497406006
1772811157278521000,1.52352099609375,-1.2281156778335571,2.001763343811035,-0.7460839152336121
1772811157288402700,1.533402587890625,-1.1237198114395142,1.831321120262146,-0.5607280731201172
1772811157298284000,1.543283935546875,-1.0076061487197876,1.7018916606903076,-0.4312985837459564
1772811157308165400,1.553165283203125,-0.8728502988815308,1.5650053024291992,-0.36844801902770996
1772811157318047000,1.563046875,-0.7183870673179626,1.427053689956665,-0.35939326882362366
1772811157327928300,1.57292822265625,-0.5585975646972656,1.2997546195983887,-0.3812311887741089
1772811157337809700,1.5828095703125,-0.3982754051685333,1.1804451942443848,-0.4243743419647217
1772811157347691300,1.592691162109375,-0.24487745761871338,1.032906174659729,-0.46378910541534424
1772811157357572600,1.602572509765625,-0.10852371901273727,0.861931324005127,-0.4568648934364319
1772811157367454200,1.6124541015625,0.003328948514536023,0.6760428547859192,-0.39188382029533386
1772811157377335600,1.62233544921875,0.11145319789648056,0.4810996353626251,-0.28322693705558777
1772811157387217000,1.632216796875,0.23981745541095734,0.28136274218559265,-0.15539531409740448
1772811157397098200,1.64209814453125,0.39001959562301636,0.09121318906545639,-0.01957421749830246
1772811157406979800,1.651979736328125,0.5684512257575989,-0.09254477173089981,0.09760477393865585
1772811157416861200,1.661861083984375,0.7665902376174927,-0.26991114020347595,0.17270584404468536
1772811157426742800,1.67174267578125,0.9482176899909973,-0.42064592242240906,0.22011007368564606
1772811157436624100,1.6816240234375,1.1026809215545654,-0.5378249287605286,0.23875218629837036
1772811157446505500,1.69150537109375,1.231045126914978,-0.6379597187042236,0.23981745541095734
1772811157456387000,1.701386962890625,1.330647349357605,-0.7476818561553955,0.24461114406585693
1772811157466268400,1.711268310546875,1.4094767570495605,-0.8653934597969055,0.26325324177742004
1772811157476149800,1.721149658203125,1.4829800128936768,-0.9783113598823547,0.2936132550239563
1772811157486031400,1.73103125,1.5543526411056519,-1.0667282342910767,0.32344064116477966
1772811157495912700,1.74091259765625,1.6278557777404785,-1.1157304048538208,0.3404848575592041
1772811157505793300,1.750793212890625,1.6986958980560303,-1.1503514051437378,0.35167011618614197
1772811157515674000,1.760674072265625,1.754622220993042,-1.1652650833129883,0.3644532859325409
1772811157525554700,1.7705546875,1.7588832378387451,-1.1679283380508423,0.35646381974220276
1772811157535435300,1.780435302734375,1.6992285251617432,-1.1530146598815918,0.2925480008125305
1772811157545316000,1.790316162109375,1.6113442182540894,-1.0938924551010132,0.16524900496006012
1772811157555196700,1.80019677734375,1.536775827407837,-0.9969534873962402,-0.01531316339969635
1772811157565077200,1.8100771484375,1.4962958097457886,-0.8376966118812561,-0.23156166076660156
1772811157574958000,1.8199580078125,1.5021547079086304,-0.6267744302749634,-0.4600606858730316
1772811157584838700,1.829838623046875,1.402552604675293,-0.35513222217559814,-0.7008102536201477
1772811157594719500,1.839719482421875,1.3343757390975952,-0.03555316850543022,-0.9410271644592285
1772811157604600000,1.84960009765625,1.3221251964569092,0.2749711573123932,-1.1412967443466187
1772811157614480600,1.859480712890625,1.3631378412246704,0.5306344032287598,-1.2691283226013184
1772811157624361500,1.869361572265625,1.406813621520996,0.689358651638031,-1.3298484086990356
1772811157634242000,1.879241943359375,1.4078788757324219,0.7617965936660767,-1.3399683237075806
1772811157644123000,1.889122802734375,1.3540830612182617,0.7506113052368164,-1.3144019842147827
1772811157654003500,1.89900341796875,1.2379693984985352,0.6574007272720337,-1.2467577457427979
1772811157663884000,1.908884033203125,1.097354531288147,0.525840699672699,-1.1487535238265991
1772811157673764900,1.918764892578125,0.9221187233924866,0.3559311628341675,-0.998018741607666
1772811157693526300,1.9385263671875,0.26272061467170715,-0.0882837176322937,-0.5500754714012146
1772811157703406800,1.94840673828125,-0.1495363712310791,-0.3604585528373718,-0.31252169609069824
1772811157713287400,1.958287353515625,-0.552738606929779,-0.6118607521057129,-0.11544793099164963
1772811157723168300,1.968168212890625,-0.9399619102478027,-0.8265113234519958,0.04221106693148613
1772811157733048800,1.978048828125,-1.2803136110305786,-1.0065408945083618,0.13648688793182373
1772811157742929700,1.9879296875,-1.5429010391235352,-1.1546125411987305,0.19294585287570953
1772811157752810200,1.997810302734375,-1.7250611782073975,-1.2840420007705688,0.22170796990394592
1772811157762690800,2.00769091796875,-1.8454358577728271,-1.409743070602417,0.2371542900800705
1772811157772571600,2.017571533203125,-1.9184064865112305,-1.5274547338485718,0.25419852137565613
1772811157782452200,2.0274521484375,-1.9301244020462036,-1.635578989982605,0.27124273777008057
1772811157792333000,2.0373330078125,-1.8901770114898682,-1.7426379919052124,0.29947221279144287
1772811157802213600,2.047213623046875,-1.8134779930114746,-1.8518275022506714,0.3442132771015167
1772811157812094500,2.057094482421875,-1.7128106355667114,-1.9413095712661743,0.4022701382637024
1772811157821975000,2.06697509765625,-1.5966968536376953,-2.0121495723724365,0.45180490612983704
1772811157831855600,2.076855712890625,-1.4944316148757935,-2.0829896926879883,0.4954806864261627
1772811157841736400,2.086736328125,-1.4134715795516968,-2.1426444053649902,0.5492765307426453
1772811157851617000,2.096616943359375,-1.3586105108261108,-2.1767327785491943,0.6115944385528564
1772811157861497900,2.106497802734375,-1.32505464553833,-2.2012338638305664,0.6877607703208923
1772811157871378400,2.11637841796875,-1.3069452047348022,-2.232659101486206,0.7868302464485168
1772811157881259000,2.126259033203125,-1.2946946620941162,-2.2598233222961426,0.9167923927307129
1772811157891139800,2.136139892578125,-1.282976746559143,-2.267812967300415,1.0723209381103516
1772811157901020400,2.1460205078125,-1.2771178483963013,-2.2699434757232666,1.2464914321899414
1772811157910901200,2.1559013671875,-1.290433645248413,-2.263551950454712,1.4307820796966553
1772811157920781800,2.16578173828125,-1.3191957473754883,-2.243844509124756,1.6241273880004883
1772811157930662400,2.175662353515625,-1.3474252223968506,-2.188450813293457,1.7988306283950806
1772811157940543200,2.185543212890625,-1.3740568161010742,-2.1106865406036377,1.9224011898040771
1772811157950423800,2.195423828125,-1.4129389524459839,-2.014280080795288,1.9831211566925049
1772811157960304400,2.205304443359375,-1.479517936706543,-1.8827201128005981,1.9809906482696533
1772811157970185200,2.215185302734375,-1.5530210733413696,-1.7229305505752563,1.9373148679733276
1772811157980065800,2.225065673828125,-1.6100126504898071,-1.538640022277832,1.8590179681777954
1772811157989946600,2.234946533203125,-1.6014904975891113,-1.3436968326568604,1.754622220993042
1772811157999827500,2.244827392578125,-1.6387747526168823,-1.101881980895996,1.6044200658798218
1772811158009708500,2.25470849609375,-1.6174695491790771,-0.8510124087333679,1.414803147315979
1772811158019589600,2.264589599609375,-1.4901704788208008,-0.6390249729156494,1.2395672798156738
1772811158029470700,2.274470703125,-1.3484904766082764,-0.47710490226745605,1.1570093631744385
1772811158039351800,2.284351806640625,-1.2179956436157227,-0.3796332776546478,1.134638786315918
1772811158049233000,2.29423291015625,-1.1173282861709595,-0.324239581823349,1.1191924810409546
1772811158059114000,2.304114013671875,-1.0571409463882446,-0.30240169167518616,1.0813755989074707
1772811158068995000,2.3139951171875,-1.0331724882125854,-0.3087932765483856,1.024916648864746
1772811158078876200,2.323876220703125,-1.0289113521575928,-0.34501221776008606,0.9721861481666565
1772811158088757200,2.33375732421875,-1.048086166381836,-0.39774277806282043,0.9317061305046082
1772811158098638300,2.343638427734375,-1.0912293195724487,-0.4707133173942566,0.8906934857368469
1772811158108519400,2.35351953125,-1.1503514051437378,-0.5538038611412048,0.8246471285820007
1772811158118400500,2.363400390625,-1.2153325080871582,-0.6475470662117004,0.7127944827079773
1772811158128281600,2.373281494140625,-1.2893683910369873,-0.7396923303604126,0.5450154542922974
1772811158138162700,2.38316259765625,-1.3564798831939697,-0.8206523656845093,0.34261539578437805
1772811158148043800,2.393043701171875,-1.4140042066574097,-0.8898945450782776,0.12050793319940567
1772811158157924900,2.4029248046875,-1.4693979024887085,-0.9367660880088806,-0.0978710874915123
1772811158167806000,2.412805908203125,-1.5168020725250244,-0.9554082155227661,-0.2869553565979004
1772811158177687000,2.42268701171875,-1.5599452257156372,-0.9543429613113403,-0.4318312108516693
1772811158187568000,2.432568115234375,-1.5956315994262695,-0.9266461133956909,-0.5277048945426941
1772811158197449500,2.442449462890625,-1.6238610744476318,-0.8691218495368958,-0.5783049464225769
1772811158207330600,2.45233056640625,-1.6297200918197632,-0.7764439582824707,-0.58256596326828
1772811158217211600,2.462211669921875,-1.6078821420669556,-0.6566017866134644,-0.5490102171897888
1772811158227092700,2.4720927734375,-1.5679347515106201,-0.5202480554580688,-0.49574699997901917
1772811158236973800,2.481973876953125,-1.5279873609542847,-0.3716438114643097,-0.4424838423728943
1772811158246855000,2.49185498046875,-1.5024210214614868,-0.1916142702102661,-0.4424838423728943
1772811158256736000,2.501736083984375,-1.446494698524475,0.011851056478917599,-0.4941491186618805
1772811158266617000,2.5116171875,-1.3373051881790161,0.22809955477714539,-0.5633912682533264
1772811158276498200,2.521498291015625,-1.2004188299179077,0.44754382967948914,-0.6182523369789124
1772811158286379300,2.531379150390625,-1.0374335050582886,0.6504765152931213,-0.6352965235710144
1772811158296260400,2.54126025390625,-0.8329029083251953,0.8118639588356018,-0.5788375735282898
1772811158306141400,2.551141357421875,-0.5921533703804016,0.9237166047096252,-0.42543962597846985
1772811158316022500,2.5610224609375,-0.324239581823349,0.9572724103927612,-0.19321216642856598
1772811158325903600,2.570903564453125,-0.04514054208993912,0.899215579032898,0.09653950482606888
1772811158335784700,2.58078466796875,0.2366216629743576,0.7516765594482422,0.4075964689254761
1772811158345665800,2.590665771484375,0.49441543221473694,0.5231775641441345,0.7026744484901428
1772811158355547000,2.600546875,0.7117291688919067,0.23555639386177063,0.9460871815681458
1772811158365428200,2.61042822265625,0.8672576546669006,-0.09893634915351868,1.1245187520980835
1772811158375309300,2.620309326171875,0.9721861481666565,-0.4270375072956085,1.2720577716827393
1772811158385190400,2.6301904296875,1.067527174949646,-0.7061365842819214,1.4478262662887573
1772811158395071500,2.640071533203125,1.1362366676330566,-0.9500818848609924,1.616137981414795
1772811158404952600,2.64995263671875,1.1857714653015137,-1.1354377269744873,1.7562201023101807
1772811158414833700,2.659833740234375,1.1990872621536255,-1.2499536275863647,1.8504959344863892
1772811158424714800,2.66971484375,1.1660641431808472,-1.3106735944747925,1.8792580366134644
1772811158434595800,2.679595947265625,1.1074745655059814,-1.3213262557983398,1.8275927305221558
1772811158444477000,2.689476806640625,1.0392976999282837,-1.2728567123413086,1.7066853046417236
1772811158454358000,2.69935791015625,0.9711208343505859,-1.1546125411987305,1.5255905389785767
1772811158464239000,2.709239013671875,0.9008134603500366,-1.0006818771362305,1.2768515348434448
1772811158474120200,2.7191201171875,0.823581874370575,-0.8217176795005798,0.9519461393356323
1772811158484001300,2.729001220703125,0.7383607625961304,-0.63263338804245,0.5609943866729736
1772811158493882400,2.73888232421875,0.6286386251449585,-0.4051996171474457,0.12210582941770554
1772811158503762700,2.7487626953125,0.5114596486091614,-0.17510269582271576,-0.34075117111206055
1772811158513643000,2.75864306640625,0.39481329917907715,0.06458160281181335,-0.7988144755363464
1772811158523523300,2.7685234375,0.3042658865451813,0.32450589537620544,-1.2190608978271484
1772811158533403400,2.7784033203125,0.24514377117156982,0.5961480736732483,-1.592968463897705
1772811158543283700,2.78828369140625,0.20306585729122162,0.865659773349762,-1.9184064865112305
1772811158553163800,2.798163818359375,0.17483638226985931,1.117061972618103,-2.1825919151306152
1772811158563044000,2.808044189453125,0.17004269361495972,1.3508872985839844,-2.3855245113372803
1772811158572924400,2.81792431640625,0.19134795665740967,1.5697989463806152,-2.530932903289795
1772811158582804700,2.8278046875,0.2376869171857834,1.7658075094223022,-2.6188173294067383
1772811158592684800,2.837684814453125,0.3117227256298065,1.9293253421783447,-2.644383430480957
1772811158602565000,2.847565185546875,0.40919435024261475,2.0635485649108887,-2.5980446338653564
1772811158612445200,2.857445068359375,0.5247754454612732,2.16208553314209,-2.4877898693084717
1772811158622325500,2.867325439453125,0.6616618037223816,2.309624433517456,-2.2507686614990234
1772811158632205800,2.877205810546875,0.7964176535606384,2.2931129932403564,-1.9301244020462036
1772811158642086000,2.8870859375,0.8613986968994141,2.2078917026519775,-1.6989622116088867
1772811158651966200,2.89696630859375,0.9130640029907227,2.1738033294677734,-1.4576799869537354
1772811158661846500,2.906846435546875,0.9333040118217468,2.0800602436065674,-1.224387288093567
1772811158671726600,2.9167265625,0.9625987410545349,1.9255969524383545,-1.0033451318740845
1772811158681607000,2.92660693359375,1.0142639875411987,1.7903084754943848,-0.7668565511703491
1772811158691487200,2.9364873046875,1.0765819549560547,1.6544873714447021,-0.5277048945426941
1772811158701367300,2.9463671875,1.1442261934280396,1.4829800128936768,-0.3093259036540985
1772811158711247600,2.95624755859375,1.220925211906433,1.3082767724990845,-0.1261005699634552
1772811158721128000,2.9661279296875,1.3066788911819458,1.1484872102737427,0.012916320003569126
1772811158731008000,2.976008056640625,1.3860410451889038,1.003611445426941,0.09387634694576263
1772811158740888300,2.985888427734375,1.4579463005065918,0.8938892483711243,0.12157320231199265
1772811158750768600,2.9957685546875,1.5346453189849854,0.7930886745452881,0.12583425641059875
1772811158760648700,3.005648681640625,1.6230621337890625,0.6982802152633667,0.1386174112558365
1772811158770529000,3.015529052734375,1.7130769491195679,0.6343644261360168,0.1423458456993103
1772811158780409300,3.025409423828125,1.8009611368179321,0.5869601964950562,0.12104056775569916
1772811158790289700,3.03528955078125,1.885649561882019,0.5539370179176331,0.0954742431640625
1772811158800169700,3.045169677734375,1.97300124168396,0.5203812122344971,0.07363633811473846
1772811158810050000,3.055050048828125,2.063015937805176,0.4857601523399353,0.06458160281181335
1772811158819930000,3.06493017578125,2.1375844478607178,0.44155174493789673,0.06990791857242584
1772811158829810400,3.074810546875,2.1839234828948975,0.39361485838890076,0.10186582803726196
1772811158839690800,3.084690673828125,2.2137508392333984,0.34727591276168823,0.165781632065773
1772811158849571000,3.094571044921875,2.239849805831909,0.31265485286712646,0.2520679831504822
1772811158859451100,3.104451171875,2.2766013145446777,0.2780337929725647,0.34314802289009094
1772811158869331500,3.11433154296875,2.3170812129974365,0.24607586860656738,0.43795645236968994
1772811158879211500,3.12421142578125,2.3469088077545166,0.2119874358177185,0.5316996574401855
1772811158889091800,3.134091796875,2.363952875137329,0.1784316450357437,0.6334323287010193
1772811158898972200,3.14397216796875,2.3778014183044434,0.15819163620471954,0.7319691777229309
1772811158908852500,3.1538525390625,2.3714096546173096,0.13422320783138275,0.8310387134552002
1772811158918732500,3.163732666015625,2.314418077468872,0.07137265801429749,0.9210534691810608
1772811158928612900,3.17361279296875,2.20096755027771,0,0.9524787664413452
1772811158938493000,3.183492919921875,2.06195068359375,-0.05432844161987305,0.9167923927307129
1772811158948373200,3.193373291015625,1.9026938676834106,-0.047936856746673584,0.8134618401527405
1772811158958253600,3.203253662109375,1.8078854084014893,-0.16777899861335754,0.7042723298072815
1772811158968134000,3.2131337890625,1.7178705930709839,-0.21571587026119232,0.5556681156158447
1772811158978014000,3.223013916015625,1.633182168006897,-0.2540653645992279,0.3884217143058777
1772811158987894300,3.232894287109375,1.561276912689209,-0.26418536901474,0.23076270520687103
1772811158997774600,3.242774658203125,1.4654030799865723,-0.29028430581092834,0.07097318023443222
1772811159007655400,3.252655517578125,1.310407280921936,-0.3440801203250885,-0.10586056113243103
1772811159017536500,3.26253662109375,1.0952240228652954,-0.3952127695083618,-0.30346694588661194
1772811159027417300,3.272417236328125,0.7996134161949158,-0.41172435879707336,-0.5330312252044678
1772811159037298200,3.282298095703125,0.4448806941509247,-0.4181159436702728,-0.7519428730010986
1772811159047179300,3.29217919921875,0.056592125445604324,-0.4090611934661865,-0.9149281978607178
1772811159057060000,3.30206005859375,-0.3290332853794098,-0.37870118021965027,-1.0038777589797974
1772811159066941000,3.31194091796875,-0.6773744225502014,-0.3259706497192383,-1.010269284248352
1772811159076822000,3.321822021484375,-0.9756482243537903,-0.2695116698741913,-0.9687240123748779
1772811159086702800,3.331702880859375,-1.224387288093567,-0.22423797845840454,-0.9042755961418152
1772811159096583700,3.341583740234375,-1.4363746643066406,-0.19867165386676788,-0.829707145690918
1772811159106464500,3.351464599609375,-1.6222631931304932,-0.19973690807819366,-0.7508776187896729
1772811159116345600,3.361345703125,-1.7703348398208618,-0.2258358597755432,-0.6757765412330627
1772811159126226400,3.371226318359375,-1.8853832483291626,-0.29081693291664124,-0.5905554890632629
1772811159136107300,3.381107177734375,-1.9839200973510742,-0.3946801424026489,-0.48669227957725525
1772811159145988000,3.390988037109375,-2.0568907260894775,-0.5262401700019836,-0.3530017137527466
1772811159155869200,3.400869140625,-2.1021645069122314,-0.6913560032844543,-0.19374480843544006
1772811159165750000,3.41075,-2.128263473510742,-0.8926908373832703,-0.011584741063416004
1772811159175630800,3.420630859375,-2.1367855072021484,-1.1238529682159424,0.19560901820659637
1772811159185512000,3.430511962890625,-2.124534845352173,-1.3736573457717896,0.4161185622215271
1772811159195392800,3.440392822265625,-2.098435878753662,-1.6431690454483032,0.6323670744895935
1772811159205273600,3.450273681640625,-2.058488607406616,-1.927061676979065,0.8326365947723389
1772811159215154400,3.460154541015625,-1.9993665218353271,-2.2003018856048584,1.0068072080612183
1772811159225035500,3.470035400390625,-1.9125474691390991,-2.4479756355285645,1.1442261934280396
1772811159234916400,3.479916259765625,-1.794303297996521,-2.6546366214752197,1.2374367713928223
1772811159244797200,3.489797119140625,-1.6558189392089844,-2.8138935565948486,1.288569450378418
1772811159254678300,3.49967822265625,-1.5077474117279053,-2.906571626663208,1.3072115182876587
1772811159264559000,3.50955908203125,-1.3639367818832397,-2.941725254058838,1.2912325859069824
1772811159274440000,3.51943994140625,-1.2377030849456787,-2.965693712234497,1.250752568244934
1772811159284321000,3.529321044921875,-1.13224196434021,-2.9678242206573486,1.2097399234771729
1772811159294201900,3.539201904296875,-1.0656629800796509,-2.931605339050293,1.1740535497665405
1772811159304082700,3.549082763671875,-1.0321072340011597,-2.870885133743286,1.1373019218444824
1772811159313963500,3.558963623046875,-1.0374335050582886,-2.7893924713134766,1.0840388536453247
1772811159323844600,3.5688447265625,-1.073119878768921,-2.697247266769409,1.0089377164840698
1772811159333725400,3.578725341796875,-1.1428946256637573,-2.5864598751068115,0.9189229607582092
1772811159343606300,3.588606201171875,-1.2318440675735474,-2.454899787902832,0.8102660775184631
1772811159353487400,3.5984873046875,-1.3362399339675903,-2.312154531478882,0.6829670667648315
1772811159363368200,3.6083681640625,-1.4587452411651611,-2.1651480197906494,0.5412870049476624
1772811159373249000,3.6182490234375,-1.5903053283691406,-2.008021831512451,0.38043224811553955
1772811159383129900,3.6281298828125,-1.7218652963638306,-1.8285248279571533,0.21425113081932068
1772811159393011000,3.638010986328125,-1.8347833156585693,-1.642103672027588,0.04647212103009224
1772811159402891800,3.647891845703125,-1.9178738594055176,-1.4439647197723389,-0.11544793099164963
1772811159412772600,3.657772705078125,-1.9791264533996582,-1.2367709875106812,-0.2640521824359894
1772811159422653700,3.66765380859375,-2.029726505279541,-1.0407624244689941,-0.39241644740104675
1772811159432534500,3.677534423828125,-2.0707390308380127,-0.851678192615509,-0.4893554449081421
1772811159442415400,3.687415283203125,-2.0973706245422363,-0.6641917824745178,-0.5415533185005188
1772811159452296400,3.69729638671875,-2.1074907779693604,-0.4809664785861969,-0.5660544037818909
1772811159462177300,3.70717724609375,-2.1074907779693604,-0.3020022213459015,-0.5703154802322388
1772811159472058000,3.71705810546875,-2.1032297611236572,-0.11717899143695831,-0.5681849122047424
1772811159481939000,3.72693896484375,-2.0909790992736816,0.06285054981708527,-0.5697828531265259
1772811159491820000,3.736820068359375,-2.0680758953094482,0.23489060997962952,-0.5820333361625671
1772811159501700400,3.746700439453125,-2.034520149230957,0.40746331214904785,-0.6054691672325134
1772811159511581000,3.756580810546875,-1.9812569618225098,0.5811012387275696,-0.6352965235710144
1772811159521461200,3.766461181640625,-1.9072211980819702,0.74248868227005,-0.6704502105712891
1772811159531341600,3.776341552734375,-1.811347484588623,0.8926908373832703,-0.7087997198104858
1772811159541222000,3.786221923828125,-1.6994948387145996,1.023718237876892,-0.7354313135147095
1772811159551102500,3.7961025390625,-1.580717921257019,1.128114104270935,-0.7444860339164734
1772811159560982800,3.805982666015625,-1.4512883424758911,1.205345630645752,-0.7098649740219116
1772811159570863000,3.815863037109375,-1.308010458946228,1.2506194114685059,-0.6331660151481628
1772811159580743400,3.825743408203125,-1.1610040664672852,1.2575435638427734,-0.5085301995277405
1772811159590624000,3.8356240234375,-1.0187914371490479,1.2186614274978638,-0.3514038026332855
1772811159600504300,3.84550439453125,-0.9069387316703796,1.1424951553344727,-0.20546270906925201
1772811159610384600,3.855384521484375,-0.8004123568534851,1.083905577659607,-0.11118687689304352
1772811159620265000,3.865264892578125,-0.6406228542327881,1.024250864982605,-0.06857633590698242
1772811159630145300,3.875145263671875,-0.45260384678840637,0.9411603212356567,-0.058988966047763824
1772811159640025900,3.88502587890625,-0.26085641980171204,0.8293076753616333,-0.07976160943508148
1772811159649906200,3.89490625,-0.06325002014636993,0.6982802152633667,-0.11757846176624298
1772811159659786500,3.904786376953125,0.14873741567134857,0.5672528147697449,-0.11438266932964325
1772811159669666800,3.914666748046875,0.3692469596862793,0.4378232955932617,-0.01531316339969635
1772811159679547400,3.92454736328125,0.5998765230178833,0.29933905601501465,0.19560901820659637
1772811159689427700,3.934427734375,0.8177229166030884,0.1411474198102951,0.5056006908416748
1772811159699308000,3.94430810546875,1.0068072080612183,-0.043675802648067474,0.8858997821807861
1772811159709188400,3.954188232421875,1.1586072444915771,-0.27643588185310364,1.2843083143234253
1772811159719068700,3.964068603515625,1.260872483253479,-0.5139896273612976,1.657683253288269
1772811159728949200,3.97394921875,1.3290493488311768,-0.7344992160797119,1.9639464616775513
1772811159738829600,3.98382958984375,1.3668662309646606,-0.9294424057006836,2.1935107707977295
1772811159748710000,3.9937099609375,1.369529366493225,-1.0950908660888672,2.3415822982788086
1772811159758590200,4.003590087890625,1.3381041288375854,-1.2090741395950317,2.4161508083343506
1772811159768470500,4.013470458984375,1.2917652130126953,-1.2564783096313477,2.4257380962371826
1772811159778351000,4.02335107421875,1.25554621219635,-1.2431625127792358,2.388453960418701
1772811159788231400,4.0332314453125,1.226251482963562,-1.1851056814193726,2.300037145614624
1772811159798111700,4.04311181640625,1.1884346008300781,-1.1025477647781372,2.140780210494995
1772811159807992000,4.052991943359375,1.1394325494766235,-0.9757813811302185,1.9245316982269287
1772811159817872600,4.06287255859375,1.0606030225753784,-0.7904255390167236,1.6598137617111206
1772811159827753000,4.0727529296875,0.9338366389274597,-0.5832318067550659,1.3247883319854736
1772811159837633300,4.08263330078125,0.7820366024971008,-0.3866906464099884,0.9205208420753479
1772811159847513600,4.092513671875,0.6270407438278198,-0.18162743747234344,0.5125249028205872
1772811159857394000,4.102393798828125,0.45979437232017517,0.04900212213397026,0.1141163557767868
1772811159867274500,4.1122744140625,0.2925480008125305,0.2743053436279297,-0.2725743055343628
1772811159877154800,4.12215478515625,0.12743215262889862,0.4852275252342224,-0.6235786080360413
1772811159887035100,4.13203515625,-0.025433165952563286,0.6972149610519409,-0.9207871556282043
1772811159896915500,4.14191552734375,-0.1442100554704666,0.9225181937217712,-1.1663304567337036
1772811159906796000,4.151796142578125,-0.2198437601327896,1.1542130708694458,-1.3761873245239258
1772811159916676400,4.16167626953125,-0.24594271183013916,1.3805814981460571,-1.5450315475463867
1772811159926556700,4.171556640625,-0.2299637645483017,1.602156400680542,-1.6808526515960693
1772811159936437000,4.18143701171875,-0.1735047996044159,1.8162742853164673,-1.781520128250122
1772811159946317300,4.1913173828125,-0.08562055230140686,1.9979017972946167,-1.8470337390899658
1772811159956198000,4.201197998046875,0.02623211406171322,2.1108195781707764,-1.858751654624939
1772811159966078200,4.211078125,0.13648688793182373,2.157691240310669,-1.8129453659057617
1772811159975958500,4.22095849609375,0.24354587495326996,2.1443755626678467,-1.7223979234695435
1772811159985838800,4.2308388671875,0.3356911540031433,2.0799269676208496,-1.605751633644104
1772811159995719400,4.240719482421875,0.4118575155735016,1.971802830696106,-1.4757894277572632
1772811160005600500,4.2506005859375,0.492284893989563,1.7816532850265503,-1.308010458946228
1772811160015481900,4.26048193359375,0.5668533444404602,1.5733941793441772,-1.1205240488052368
1772811160025363200,4.27036328125,0.6440849304199219,1.3651351928710938,-0.9538103342056274
1772811160035244300,4.280244384765625,0.7356976270675659,1.157941460609436,-0.813195526599884
1772811160045125600,4.290125732421875,0.8550071120262146,0.9741834998130798,-0.7024081349372864
1772811160055007000,4.300007080078125,0.9961545467376709,0.793621301651001,-0.6171870827674866
1772811160064888300,4.309888427734375,1.1452914476394653,0.6242444515228271,-0.5378249287605286
1772811160074769400,4.319769287109375,1.3008198738098145,0.4857601523399353,-0.47763752937316895
1772811160084650800,4.329650634765625,1.4536852836608887,0.3781685531139374,-0.4424838423728943
1772811160094532000,4.339531982421875,1.5767232179641724,0.29081693291664124,-0.4233090877532959
1772811160104413200,4.3494130859375,1.6736621856689453,0.22317270934581757,-0.41159120202064514
1772811160114294500,4.35929443359375,1.7610137462615967,0.16777899861335754,-0.4046669900417328
1772811160124176000,4.36917578125,1.8499633073806763,0.1225053071975708,-0.3950796127319336
1772811160134057200,4.37905712890625,1.9383801221847534,0.07510107755661011,-0.37750276923179626
1772811160143938300,4.388938232421875,2.0251991748809814,0.018109479919075966,-0.3290332853794098
1772811160153819600,4.398819580078125,2.106691837310791,-0.060187388211488724,-0.23209428787231445
1772811160163701000,4.408700927734375,2.186053991317749,-0.16618111729621887,-0.08029423654079437
1772811160173582300,4.418582275390625,2.2616875171661377,-0.2865558862686157,0.13542161881923676
1772811160183463400,4.42846337890625,2.3383865356445312,-0.4340948760509491,0.4022701382637024
1772811160193344800,4.4383447265625,2.40869402885437,-0.612526535987854,0.7111965417861938
1772811160203226000,4.44822607421875,2.454500436782837,-0.7803055047988892,1.0163946151733398
1772811160213107200,4.458107177734375,2.467816114425659,-0.9299750328063965,1.2720577716827393
1772811160222988500,4.467988525390625,2.4560983180999756,-1.036501407623291,1.469131588935852
1772811160232870000,4.477869873046875,2.4252054691314697,-1.0950908660888672,1.6124094724655151
1772811160242751000,4.4877509765625,2.3735404014587402,-1.0934929847717285,1.7077505588531494
1772811160252632300,4.49763232421875,2.2941782474517822,-1.0482193231582642,1.7562201023101807
1772811160262513700,4.507513671875,2.181260108947754,-0.9715203046798706,1.7658075094223022
1772811160272395000,4.51739501953125,2.0193402767181396,-0.8953539729118347,1.7231968641281128
1772811160282276000,4.527276123046875,1.7833843231201172,-0.8218508362770081,1.6065505743026733
1772811160292157400,4.537157470703125,1.5085463523864746,-0.7211834192276001,1.4158684015274048
1772811160302038800,4.547038818359375,1.2480894327163696,-0.5853623151779175,1.183640956878662
1772811160311919900,4.556919921875,1.0392976999282837,-0.4335622489452362,0.919988214969635
1772811160321801200,4.56680126953125,0.8677902817726135,-0.2700442969799042,0.6403565406799316
1772811160331682600,4.5766826171875,0.7010765671730042,-0.09054739773273468,0.36072486639022827
1772811160341564000,4.58656396484375,0.5263733267784119,0.10066740214824677,0.09334371984004974
1772811160351445000,4.596445068359375,0.34368064999580383,0.2886864244937897,-0.16018900275230408
1772811160361326300,4.606326416015625,0.1380847841501236,0.4394212067127228,-0.3796332776546478
1772811160371207700,4.616207763671875,-0.09680582582950592,0.5528717637062073,-0.5543364882469177
1772811160381088800,4.6260888671875,-0.34554484486579895,0.6412886381149292,-0.699212372303009
1772811160390970000,4.63597021484375,-0.5937512516975403,0.7105307579040527,-0.8115976452827454
1772811160400851500,4.6458515625,-0.8153260946273804,0.7701855301856995,-0.8781766295433044
1772811160410732800,4.65573291015625,-0.9857682585716248,0.8122634291648865,-0.8994818925857544
1772811160420614000,4.66561376953125,-1.0965555906295776,0.8117308020591736,-0.8914924263954163
1772811160430495200,4.6754951171875,-1.1711241006851196,0.760065495967865,-0.8568713665008545
1772811160440376600,4.68537646484375,-1.2297135591506958,0.6604633927345276,-0.8020102977752686
1772811160450257700,4.695257568359375,-1.290433645248413,0.5273054242134094,-0.7322354912757874
1772811160460139000,4.705138916015625,-1.3532841205596924,0.35047170519828796,-0.6480796933174133
1772811160470020400,4.715020263671875,-1.4267873764038086,0.1272989958524704,-0.5415533185005188
1772811160479901700,4.724901611328125,-1.5050841569900513,-0.11824425309896469,-0.41159120202064514
1772811160489782800,4.73478271484375,-1.5823158025741577,-0.35633066296577454,-0.28375956416130066
1772811160499664000,4.744663818359375,-1.660080075263977,-0.5693833827972412,-0.18575532734394073
1772811160509544400,4.75454443359375,-1.7346484661102295,-0.7542065978050232,-0.1213068813085556
1772811160519425300,4.76442529296875,-1.8054884672164917,-0.8926908373832703,-0.0930773988366127
1772811160529306000,4.77430615234375,-1.8741979598999023,-0.9709876775741577,-0.09733845293521881
1772811160539186700,4.784186767578125,-1.9279937744140625,-1.0034782886505127,-0.1303616166114807
1772811160549067500,4.794067626953125,-1.9769959449768066,-1.0157287120819092,-0.16178689897060394
1772811160558948400,4.8039482421875,-2.0116169452667236,-1.0093371868133545,-0.16498269140720367
1772811160568829000,4.813828857421875,-2.0318570137023926,-0.9960213899612427,-0.14261215925216675
1772811160578709800,4.823709716796875,-2.03878116607666,-1.00667405128479,-0.08562055230140686
1772811160588590300,4.83359033203125,-2.039846420288086,-1.043958306312561,0.005992107093334198
1772811160598471200,4.84347119140625,-2.030791759490967,-1.1078740358352661,0.12530162930488586
1772811160608352000,4.85335205078125,-2.010551691055298,-1.1835078001022339,0.27230799198150635
1772811160618232600,4.863232666015625,-1.9791264533996582,-1.2639352083206177,0.4347606897354126
1772811160628113400,4.873113525390625,-1.9285264015197754,-1.3603415489196777,0.6025396585464478
1772811160637994200,4.882994140625,-1.846501111984253,-1.4785857200622559,0.7617965936660767
1772811160647874800,4.892874755859375,-1.7389096021652222,-1.5733941793441772,0.9072050452232361
1772811160657755600,4.902755615234375,-1.6084147691726685,-1.62399423122406,1.0174598693847656
1772811160667636200,4.91263623046875,-1.476854681968689,-1.6389079093933105,1.0819082260131836
1772811160677517000,4.92251708984375,-1.3612736463546753,-1.6213310956954956,1.0952240228652954
1772811160687398000,4.93239794921875,-1.2643346786499023,-1.5749921798706055,1.057407259941101
1772811160697278500,4.942278564453125,-1.1769829988479614,-1.5142720937728882,0.9775124192237854
1772811160707159300,4.9521591796875,-1.0928272008895874,-1.4514214992523193,0.8736492395401001
1772811160717040000,4.9620400390625,-1.0044103860855103,-1.38857102394104,0.7607313394546509
1772811160726920700,4.971920654296875,-0.9064061045646667,-1.3177310228347778,0.6494112610816956
1772811160736801500,4.981801513671875,-0.8126628994941711,-1.267130970954895,0.5636575818061829
1772811160746682000,4.99168212890625,-0.7306376099586487,-1.2346404790878296,0.5103943943977356
1772811160756563000,5.00156298828125,-0.6629933714866638,-1.208008885383606,0.4784364700317383
1772811160766443800,5.01144384765625,-0.6060017943382263,-1.1851056814193726,0.45127224922180176
1772811160776324400,5.021324462890625,-0.5639238953590393,-1.1526151895523071,0.4107922613620758
1772811160786205200,5.031205078125,-0.5372923016548157,-1.1078740358352661,0.34740906953811646
1772811160796086000,5.0410859375,-0.5293028354644775,-1.0423603057861328,0.2515353560447693
1772811160805966600,5.050966552734375,-0.5309007167816162,-0.9480845332145691,0.13222584128379822
1772811160815847400,5.060847412109375,-0.5383575558662415,-0.8330360651016235,0.008655265904963017
1772811160825728300,5.070728271484375,-0.5543364882469177,-0.6918886303901672,-0.10159950703382492
1772811160835608800,5.08060888671875,-0.5708481073379517,-0.5390233397483826,-0.20279954373836517
1772811160845489700,5.09048974609375,-0.5948165059089661,-0.37923380732536316,-0.290683776140213
1772811160855370200,5.100370361328125,-0.628372311592102,-0.21784639358520508,-0.36312171816825867
1772811160865251000,5.1102509765625,-0.6566017866134644,-0.051132649183273315,-0.4233090877532959
1772811160875132000,5.1201318359375,-0.6752439141273499,0.10492845624685287,-0.4760396480560303
1772811160885012500,5.130012451171875,-0.6795049905776978,0.24128219485282898,-0.5213133096694946
1772811160894893300,5.139893310546875,-0.670982837677002,0.34141695499420166,-0.5506080985069275
1772811160904774100,5.149774169921875,-0.6454165577888489,0.39947381615638733,-0.5490102171897888
1772811160914654700,5.15965478515625,-0.5985449552536011,0.4282359480857849,-0.5186501741409302
1772811160924535600,5.16953564453125,-0.5335638523101807,0.4287685751914978,-0.4653870165348053
1772811160934416100,5.179416015625,-0.46378910541534424,0.40213698148727417,-0.4041343629360199
1772811160944297000,5.189296875,-0.3860248625278473,0.3547327518463135,-0.3285006284713745
1772811160954177800,5.199177734375,-0.30826061964035034,0.29933905601501465,-0.23742060363292694
1772811160964058400,5.209058349609375,-0.23848587274551392,0.22956429421901703,-0.12769846618175507
1772811160973939200,5.218939208984375,-0.1873532235622406,0.13475583493709564,-0.011584741063416004
1772811160983820000,5.228820068359375,-0.18362480401992798,0.01438105758279562,0.06884265691041946
1772811160993700600,5.23870068359375,-0.21185427904129028,-0.0756337121129036,0.04913527891039848
1772811161003581200,5.248581298828125,-0.20013637840747833,-0.11078740656375885,-0.03715106472373009
1772811161013461800,5.258461669921875,-0.11544793099164963,-0.08735160529613495,-0.10532793402671814
1772811161023342600,5.268342529296875,0.02143842913210392,-0.022370534017682076,-0.11118687689304352
1772811161033223200,5.27822314453125,0.1902827024459839,0.07510107755661011,-0.057923704385757446
1772811161043103700,5.288103759765625,0.3889543414115906,0.1885516494512558,0.052331071346998215
1772811161052984300,5.297984375,0.5988112688064575,0.28122955560684204,0.21478375792503357
1772811161062865200,5.307865234375,0.8017439842224121,0.34141695499420166,0.40972697734832764
1772811161072745700,5.317745849609375,0.9684576988220215,0.37390750646591187,0.6110618114471436
1772811161082626300,5.327626220703125,1.0835061073303223,0.38828855752944946,0.8065376281738281
1772811161092507000,5.3375068359375,1.1532809734344482,0.3808317184448242,0.9711208343505859
1772811161102387500,5.347387451171875,1.1948262453079224,0.3526022136211395,1.0941587686538696
1772811161112268300,5.357268310546875,1.20920729637146,0.3099916875362396,1.1905651092529297
1772811161122148900,5.36714892578125,1.1985546350479126,0.24341271817684174,1.2592746019363403
1772811161132029400,5.377029541015625,1.1623356342315674,0.14966952800750732,1.30561363697052
1772811161141910000,5.386909912109375,1.1026809215545654,0.04474106803536415,1.3327778577804565
1772811161151790600,5.39679052734375,1.0350366830825806,-0.07776423543691635,1.3412998914718628
1772811161161671400,5.40667138671875,0.9556745290756226,-0.21038953959941864,1.3391693830490112
1772811161171552000,5.416552001953125,0.8731166124343872,-0.3435474932193756,1.3285167217254639
1772811161181432600,5.4264326171875,0.7932218313217163,-0.45486751198768616,1.306146264076233
1772811161191313200,5.436313232421875,0.714392364025116,-0.5358275771141052,1.2592746019363403
1772811161201194000,5.446194091796875,0.6291712522506714,-0.5938844084739685,1.1612703800201416
1772811161211074600,5.456074462890625,0.5322322845458984,-0.6119939088821411,0.9924261569976807
1772811161220955100,5.465955078125,0.43316277861595154,-0.5842970609664917,0.7426218390464783
1772811161230835700,5.475835693359375,0.3223753869533539,-0.5257075428962708,0.4198469817638397
1772811161240716300,5.48571630859375,0.20093533396720886,-0.4181159436702728,0.060853179544210434
1772811161250597000,5.49559716796875,0.07896266132593155,-0.24714113771915436,-0.2912164032459259
1772811161260477700,5.505477783203125,-0.01957421749830246,-0.014913689345121384,-0.6129260063171387
1772811161270358300,5.515358154296875,-0.09680582582950592,0.25300008058547974,-0.9154608249664307
1772811161280238800,5.52523876953125,-0.15646058320999146,0.5320991277694702,-1.204147219657898
1772811161290119700,5.53511962890625,-0.18841849267482758,0.8159918785095215,-1.454484224319458
1772811161300000300,5.545000244140625,-0.18575532734394073,1.0812424421310425,-1.6377094984054565
1772811161309880800,5.554880859375,-0.1585911065340042,1.2937625646591187,-1.7468990087509155
1772811161319761400,5.564761474609375,-0.12077425420284271,1.4572805166244507,-1.774595856666565
1772811161329642000,5.57464208984375,-0.06857633590698242,1.5781879425048828,-1.7160063982009888
1772811161339522800,5.584522705078125,0.00013315794058144093,1.6303858757019043,-1.5876420736312866
1772811161349403400,5.5944033203125,0.06564686447381973,1.5984278917312622,-1.4209283590316772
1772811161359284000,5.604283935546875,0.11518161743879318,1.5089458227157593,-1.2281156778335571
1772811161369164500,5.61416455078125,0.15033531188964844,1.381646752357483,-1.015062928199768
1772811161379045000,5.624045166015625,0.17483638226985931,1.2021498680114746,-0.7849660515785217
1772811161388926000,5.633926025390625,0.18389111757278442,0.9933582544326782,-0.5293028354644775
1772811161398806500,5.643806640625,0.19347849488258362,0.788827657699585,-0.2613890469074249
1772811161408687000,5.65368701171875,0.23129534721374512,0.608798086643219,-0.03502053767442703
1772811161418567700,5.663567626953125,0.28668904304504395,0.4436822533607483,0.11092056334018707
1772811161428448500,5.673448486328125,0.33835431933403015,0.3190464377403259,0.19294585287570953
1772811161438329000,5.6833291015625,0.3916175067424774,0.2556632459163666,0.22064270079135895
1772811161448209700,5.693209716796875,0.4432827830314636,0.24181482195854187,0.1940111219882965
1772811161458090200,5.70309033203125,0.48003438115119934,0.26525062322616577,0.133291095495224
1772811161467970800,5.712970703125,0.5077311992645264,0.32224223017692566,0.06937528401613235
1772811161477851600,5.7228515625,0.5460807085037231,0.4143875241279602,0.00918789766728878
1772811161487732200,5.732732177734375,0.5977460145950317,0.5086633563041687,-0.050466857850551605
1772811161497612800,5.74261279296875,0.6462154984474182,0.6018738746643066,-0.1074584573507309
1772811161507493400,5.752493408203125,0.6872281432151794,0.6908233761787415,-0.14900372922420502
1772811161517374000,5.7623740234375,0.7335671186447144,0.7504781484603882,-0.16658058762550354
1772811161527254500,5.772254638671875,0.7841671109199524,0.7632613182067871,-0.13195951282978058
1772811161537135000,5.782135009765625,0.8427566289901733,0.7382276058197021,-0.05579317733645439
1772811161547015400,5.792015380859375,0.911466121673584,0.6972149610519409,0.04966791346669197
1772811161556896000,5.80189599609375,0.987099826335907,0.6311686635017395,0.16791217029094696
1772811161566776600,5.811776611328125,1.0653966665267944,0.5400885939598083,0.30000483989715576
1772811161576657200,5.8216572265625,1.141563057899475,0.4287685751914978,0.4209122359752655
1772811161586537700,5.831537841796875,1.214000940322876,0.30839377641677856,0.5146554112434387
1772811161596418300,5.841418212890625,1.2891020774841309,0.1981390118598938,0.5791038870811462
1772811161606299000,5.851298828125,1.3769862651824951,0.11611372232437134,0.6201165318489075
1772811161626060000,5.87106005859375,1.6054853200912476,-0.03834948688745499,0.6952176094055176
1772811161635940600,5.880940673828125,1.7285232543945312,-0.11611372232437134,0.7463502287864685
1772811161645821200,5.8908212890625,1.8536916971206665,-0.1747032105922699,0.8001460433006287
1772811161655701500,5.900701416015625,1.960218071937561,-0.2210421860218048,0.8470176458358765
1772811161665582000,5.91058203125,2.0358517169952393,-0.24341271817684174,0.882703959941864
1772811161675462700,5.920462646484375,2.0837886333465576,-0.23808640241622925,0.9040092825889587
1772811161685343200,5.93034326171875,2.0933759212493896,-0.20612849295139313,0.9029439687728882
1772811161695223800,5.940223876953125,2.042243242263794,-0.17683374881744385,0.8613986968994141
1772811161705104400,5.9501044921875,1.8957695960998535,-0.16138742864131927,0.7426218390464783
1772811161714985000,5.95998486328125,1.6960326433181763,-0.10066740214824677,0.5359607338905334
1772811161724865500,5.969865478515625,1.5202641487121582,-0.01651158556342125,0.2898848354816437
1772811161734746000,5.97974609375,1.3844431638717651,0.05699159950017929,0.040613170713186264
1772811161744626400,5.98962646484375,1.2486220598220825,0.10918951034545898,-0.20546270906925201
1772811161754507000,5.999507080078125,1.0962892770767212,0.1464737355709076,-0.43982067704200745
1772811161764387600,6.0093876953125,0.9434239864349365,0.17736637592315674,-0.6384923458099365
1772811161774268200,6.01926806640625,0.7974829077720642,0.19973690807819366,-0.7897597551345825
1772811161784148700,6.029148681640625,0.6563354730606079,0.20825901627540588,-0.8984166383743286
1772811161794029300,6.039029296875,0.4683164656162262,0.20186743140220642,-0.9751155972480774
1772811161803910000,6.048909912109375,0.231827974319458,0.18056216835975647,-1.0235850811004639
1772811161813790500,6.05879052734375,-0.03608580306172371,0.13315793871879578,-1.0470209121704102
1772811161823671000,6.068671142578125,-0.31305432319641113,0.06817686557769775,-1.0571409463882446
1772811161833551400,6.07855126953125,-0.59002286195755,0.013848425820469856,-1.0582062005996704
1772811161843432000,6.088431884765625,-0.8446208238601685,0.003728422336280346,-1.0635324716567993
1772811161853312500,6.0983125,-1.0550103187561035,0.0378168560564518,-1.0688587427139282
1772811161863193000,6.108193115234375,-1.2179956436157227,0.10918951034545898,-1.0624672174453735
1772811161873073700,6.11807373046875,-1.3367725610733032,0.21465060114860535,-1.0257155895233154
1772811161882954200,6.127954345703125,-1.4321136474609375,0.3025348484516144,-0.9532777070999146
1772811161892834800,6.137834716796875,-1.5130736827850342,0.3728422224521637,-0.8600671291351318
1772811161902715400,6.14771533203125,-1.5865768194198608,0.3968106508255005,-0.741290271282196
1772811161912596000,6.157595947265625,-1.6520905494689941,0.37071171402931213,-0.5751091241836548
1772811161922476500,6.1674765625,-1.702157974243164,0.306263267993927,-0.3727090656757355
1772811161932357000,6.177357177734375,-1.724528431892395,0.21518322825431824,-0.1591237336397171
1772811161942237400,6.187237548828125,-1.727191686630249,0.10013477504253387,0.04700475186109543
1772811161952118000,6.197117919921875,-1.7133432626724243,-0.029294747859239578,0.24088270962238312
1772811161961998600,6.20699853515625,-1.672330617904663,-0.16831164062023163,0.4102596044540405
1772811161971879200,6.216879150390625,-1.6041537523269653,-0.329166442155838,0.5492765307426453
1772811161981759700,6.226759765625,-1.5152041912078857,-0.4958801567554474,0.6653902530670166
1772811161991640300,6.236640380859375,-1.4108083248138428,-0.6487454771995544,0.7532744407653809
1772811162001521400,6.246521484375,-1.303216814994812,-0.805871844291687,0.8182555437088013
1772811162011402800,6.25640283203125,-1.194559931755066,-1.0013476610183716,0.8906934857368469
1772811162021284000,6.2662841796875,-1.0933598279953003,-1.205345630645752,0.974849283695221
1772811162031165400,6.27616552734375,-1.0044103860855103,-1.3859078884124756,1.0488851070404053
1772811162041046800,6.286046875,-0.9314398169517517,-1.5456973314285278,1.1069419384002686
1772811162050928000,6.29592822265625,-0.9021450281143188,-1.6857795715332031,1.15168297290802
1772811162060809500,6.3058095703125,-0.9069387316703796,-1.7933712005615234,1.1921629905700684
1772811162070690800,6.31569091796875,-0.9197219014167786,-1.850362777709961,1.2235883474349976
1772811162080572200,6.325572265625,-0.9271787405014038,-1.8855164051055908,1.2443609237670898
1772811162090453800,6.335453857421875,-0.9266461133956909,-1.9105501174926758,1.2699272632598877
1772811162100335000,6.345335205078125,-0.9207871556282043,-1.910017490386963,1.306146264076233
1772811162110216400,6.355216552734375,-0.9111998081207275,-1.8743311166763306,1.3487567901611328
1772811162120097800,6.365097900390625,-0.8957534432411194,-1.8258616924285889,1.3743231296539307
1772811162129979100,6.374979248046875,-0.8893618583679199,-1.758217453956604,1.3796494007110596
1772811162139860500,6.384860595703125,-0.8962860703468323,-1.66660475730896,1.3583441972732544
1772811162149741800,6.394741943359375,-0.9106671810150146,-1.545164704322815,1.3040157556533813
1772811162159623200,6.404623046875,-0.9234502911567688,-1.3986910581588745,1.2273167371749878
1772811162169504500,6.41450439453125,-0.9341029524803162,-1.2389014959335327,1.1330409049987793
1772811162179385900,6.4243857421875,-0.9420924186706543,-1.0759161710739136,1.0355693101882935
1772811162189267200,6.43426708984375,-0.9415597915649414,-0.9171919226646423,0.9183903336524963
1772811162199148800,6.444148681640625,-0.9341029524803162,-0.7765771150588989,0.7932218313217163
1772811162209030100,6.454030029296875,-0.9293092489242554,-0.6716486811637878,0.6627270579338074
1772811162218911500,6.463911376953125,-0.9245156049728394,-0.6109286546707153,0.5364933609962463
1772811162228792800,6.473792724609375,-0.9143955707550049,-0.5736443996429443,0.4123901426792145
1772811162238674200,6.483674072265625,-0.9042755961418152,-0.5645896792411804,0.29521116614341736
1772811162248555500,6.493555419921875,-0.8957534432411194,-0.5811012387275696,0.19294585287570953
1772811162258436900,6.503436767578125,-0.8957534432411194,-0.5992107391357422,0.1050616130232811
1772811162268318200,6.513318115234375,-0.8920250535011292,-0.6162549257278442,0.027297377586364746
1772811162278199600,6.523199462890625,-0.8909597992897034,-0.6274402141571045,-0.0414121188223362
1772811162288081000,6.533080810546875,-0.8914924263954163,-0.6173202395439148,-0.10692582279443741
1772811162297962500,6.54296240234375,-0.8861660957336426,-0.5890907049179077,-0.18149426579475403
1772811162307843800,6.55284375,-0.8765787482261658,-0.5294359922409058,-0.26937851309776306
1772811162317725200,6.56272509765625,-0.8643282055854797,-0.45060646533966064,-0.3572627604007721
1772811162327606500,6.5726064453125,-0.8472839593887329,-0.3488737940788269,-0.4360922574996948
1772811162337488000,6.58248779296875,-0.816923975944519,-0.2311621904373169,-0.506932258605957
1772811162347369200,6.592369140625,-0.7684544920921326,-0.11132004112005234,-0.5623259544372559
1772811162357250600,6.60225048828125,-0.6986796855926514,0.012783162295818329,-0.5932186245918274
1772811162367132000,6.6121318359375,-0.6134586334228516,0.12570109963417053,-0.5884249210357666
1772811162377013200,6.62201318359375,-0.523443877696991,0.21891164779663086,-0.5596628189086914
1772811162386894600,6.63189453125,-0.42543962597846985,0.30040431022644043,-0.5042691230773926
1772811162396776200,6.641776123046875,-0.3247722089290619,0.37444013357162476,-0.4126564562320709
1772811162406657500,6.651657470703125,-0.22144165635108948,0.438355952501297,-0.28003114461898804
1772811162416539000,6.661538818359375,-0.11278477311134338,0.4809664785861969,-0.10692582279443741
1772811162426420200,6.671420166015625,-0.0030626326333731413,0.503337025642395,0.08375634253025055
1772811162436301600,6.681301513671875,0.06458160281181335,0.4905538558959961,0.23129534721374512
1772811162446183000,6.691182861328125,0.09334371984004974,0.48682543635368347,0.2685795724391937
1772811162456064300,6.701064208984375,0.14500899612903595,0.4905538558959961,0.1950763761997223
1772811162465945600,6.710945556640625,0.25419852137565613,0.47350963950157166,0.0954742431640625
1772811162475827000,6.720826904296875,0.40812909603118896,0.43569278717041016,0.011851056478917599
1772811162485708300,6.730708251953125,0.5902891755104065,0.37870118021965027,-0.05313001945614815
1772811162495589600,6.740589599609375,0.7894934415817261,0.30892643332481384,-0.0930773988366127
1772811162505470500,6.750470458984375,1.003611445426941,0.23222744464874268,-0.09467529505491257
1772811162515351000,6.76035107421875,1.2241209745407104,0.14274531602859497,-0.045673172920942307
1772811162525231600,6.770231689453125,1.4409021139144897,0.04207791015505791,0.05499422922730446
1772811162535112200,6.7801123046875,1.6342474222183228,-0.06498107314109802,0.20306585729122162
1772811162544992800,6.78999267578125,1.8041568994522095,-0.1842905879020691,0.3729753792285919
1772811162554873600,6.79987353515625,1.9394453763961792,-0.3025348484516144,0.5370259881019592
1772811162564754200,6.809754150390625,2.031590700149536,-0.3957453966140747,0.6909565329551697
1772811162574634800,6.819634765625,2.0694074630737305,-0.4612590968608856,0.8368976712226868
1772811162584515600,6.829515625,2.0555591583251953,-0.49321702122688293,0.9641966223716736
1772811162594396200,6.839396240234375,1.998034954071045,-0.49268439412117004,1.0520808696746826
1772811162604276700,6.84927685546875,1.9021612405776978,-0.4538022577762604,1.1010830402374268
1772811162614157300,6.8591572265625,1.7775253057479858,-0.37976643443107605,1.1112029552459717
1772811162624038100,6.8690380859375,1.6283884048461914,-0.28069692850112915,1.0851041078567505
1772811162633918700,6.878918701171875,1.4547505378723145,-0.141680046916008,1.0068072080612183
1772811162643799300,6.88879931640625,1.2848409414291382,-0.013848425820469856,0.89495450258255
1772811162653679900,6.898679931640625,1.1117357015609741,0.08309055864810944,0.7511439323425293
1772811162663560700,6.908560791015625,0.9226513504981995,0.18056216835975647,0.5535375475883484
1772811162673441300,6.918441162109375,0.7042723298072815,0.29987168312072754,0.28189536929130554
1772811162683321900,6.92832177734375,0.4720448851585388,0.4138548672199249,-0.04673843830823898
1772811162693202700,6.93820263671875,0.22596903145313263,0.5251749157905579,-0.410525918006897
1772811162703083300,6.948083251953125,-0.01957421749830246,0.6428865194320679,-0.7812376618385315
1772811162712963800,6.9579638671875,-0.23848587274551392,0.7787076234817505,-1.1359703540802002
1772811162722844400,6.967844482421875,-0.4195806682109833,0.9081371426582336,-1.4582126140594482
1772811162732725200,6.977725341796875,-0.5708481073379517,1.0466214418411255,-1.7298548221588135
1772811162742605800,6.987605712890625,-0.6938860416412354,1.2165309190750122,-1.9434401988983154
1772811162752486400,6.997486328125,-0.7721828818321228,1.4114742279052734,-2.1106865406036377
1772811162762367000,7.007366943359375,-0.7993471026420593,1.5936342477798462,-2.2305285930633545
1772811162772247800,7.017247802734375,-0.7860313057899475,1.7678048610687256,-2.2901833057403564
1772811162782128400,7.02712841796875,-0.7386270761489868,1.9435733556747437,-2.278465509414673
1772811162792009000,7.037009033203125,-0.6603302359580994,2.097503900527954,-2.207625389099121
1772811162801889500,7.0468896484375,-0.5532712340354919,2.201367139816284,-2.0973706245422363
1772811162811770400,7.056770263671875,-0.4382227957248688,2.236520767211914,-1.9413095712661743
1772811162821651000,7.06665087890625,-0.3434143364429474,2.241847038269043,-1.7431706190109253
1772811162831531500,7.076531494140625,-0.2523342967033386,2.212019681930542,-1.5402379035949707
1772811162841412000,7.086412109375,-0.1687111109495163,2.123602867126465,-1.3341094255447388
1772811162851293000,7.09629296875,-0.10639319568872452,2.003227949142456,-1.1029472351074219
1772811162861173500,7.106173583984375,-0.04833633080124855,1.8887122869491577,-0.8643282055854797
1772811162871054000,7.11605419921875,0.02996053732931614,1.7768595218658447,-0.644883930683136
1772811162880935000,7.125934814453125,0.10612688213586807,1.6484953165054321,-0.47284385561943054
1772811162890815500,7.1358154296875,0.18335849046707153,1.5164026021957397,-0.3492732644081116
1772811162900696000,7.145696044921875,0.2691121995449066,1.3954951763153076,-0.27470484375953674
1772811162910576600,7.15557666015625,0.35646381974220276,1.2900341749191284,-0.24754060804843903
1772811162920457500,7.16545751953125,0.4411522448062897,1.1994867324829102,-0.2581932544708252
1772811162930338000,7.175338134765625,0.5242428183555603,1.1323751211166382,-0.2901511490345001
1772811162940218600,7.185218505859375,0.6153228282928467,1.0940256118774414,-0.34607750177383423
1772811162950099200,7.19509912109375,0.7026744484901428,1.0583393573760986,-0.41159120202064514
1772811162959980000,7.20497998046875,0.7894934415817261,1.0301098823547363,-0.46698489785194397
1772811162969860600,7.214860595703125,0.8837692737579346,0.9970866441726685,-0.5063996315002441
1772811162979741200,7.2247412109375,0.9716535210609436,0.9422255754470825,-0.5159870386123657
1772811162989622000,7.2346220703125,1.0440914630889893,0.8756465911865234,-0.4797680675983429
1772811162999502600,7.244502685546875,1.1133335828781128,0.7946866154670715,-0.40200382471084595
1772811163009383200,7.254383056640625,1.1793798208236694,0.7041391730308533,-0.27470484375953674
1772811163019263700,7.264263671875,1.2411651611328125,0.6109286546707153,-0.1213068813085556
1772811163029144600,7.27414453125,1.3066788911819458,0.5139896273612976,0.052863702178001404
1772811163039025200,7.284025146484375,1.3887041807174683,0.415452778339386,0.22596903145313263
1772811163048905700,7.29390576171875,1.469664216041565,0.32384011149406433,0.4012048840522766
1772811163058786300,7.303786376953125,1.5527547597885132,0.23009692132472992,0.5609943866729736
1772811163068667000,7.3136669921875,1.6363779306411743,0.13049478828907013,0.7074681520462036
1772811163078547700,7.323547607421875,1.7157400846481323,0.04101264476776123,0.8315713405609131
1772811163088428300,7.33342822265625,1.7897758483886719,-0.03834948688745499,0.9226513504981995
1772811163098308900,7.343308837890625,1.8579527139663696,-0.08841687440872192,0.9860345721244812
1772811163108189700,7.353189697265625,1.918140172958374,-0.1225053071975708,1.0153292417526245
1772811163118070300,7.3630703125,1.9618159532546997,-0.1555284708738327,1.0275797843933105
1772811163127950800,7.372950927734375,1.9788601398468018,-0.17736637592315674,0.999350368976593
1772811163137831700,7.382831787109375,1.9591528177261353,-0.16724637150764465,0.9391629695892334
1772811163147712300,7.392712158203125,1.9016284942626953,-0.15659373998641968,0.852876603603363
1772811163157592800,7.4025927734375,1.7924389839172363,-0.1603221595287323,0.735164999961853
1772811163167473400,7.412473388671875,1.6172032356262207,-0.1512674242258072,0.5604617595672607
1772811163177354200,7.422354248046875,1.439836859703064,-0.1363537311553955,0.3351585268974304
1772811163187234800,7.43223486328125,1.3141356706619263,-0.12037477642297745,0.10932266712188721
1772811163197115400,7.442115478515625,1.221457839012146,-0.10279793292284012,-0.07070686668157578
1772811163206996200,7.451996337890625,1.1431609392166138,-0.0942758247256279,-0.20812585949897766
1772811163216876800,7.461876708984375,1.0387650728225708,-0.10652635246515274,-0.31198906898498535
1772811163226757400,7.47175732421875,0.9125313758850098,-0.11877688020467758,-0.3727090656757355
1772811163236638000,7.481637939453125,0.7767102718353271,-0.1422126740217209,-0.4004059135913849
1772811163246518800,7.491518798828125,0.6094638705253601,-0.18109479546546936,-0.42597225308418274
1772811163256399400,7.5013994140625,0.37670382857322693,-0.23222744464874268,-0.4749743640422821
1772811163266280000,7.511280029296875,0.08162581920623779,-0.2876211404800415,-0.5596628189086914
1772811163276160800,7.521160888671875,-0.2502037584781647,-0.33662328124046326,-0.665656566619873
1772811163286041300,7.531041259765625,-0.5767070651054382,-0.37390750646591187,-0.7684544920921326
1772811163295922000,7.540921875,-0.86805659532547,-0.37923380732536316,-0.8696545362472534
1772811163305802500,7.550802490234375,-1.1114693880081177,-0.3547327518463135,-0.9692566394805908
1772811163315683300,7.560683349609375,-1.313336730003357,-0.3020022213459015,-1.069923996925354
1772811163325564000,7.57056396484375,-1.4880399703979492,-0.23648850619792938,-1.1641998291015625
1772811163335444500,7.580444580078125,-1.6622105836868286,-0.15765899419784546,-1.2499536275863647
1772811163345325000,7.590324951171875,-1.8299895524978638,-0.0756337121129036,-1.3218588829040527
1772811163355206000,7.600205810546875,-1.9839200973510742,-0.005326317623257637,-1.3836441040039062
1772811163365086500,7.61008642578125,-2.1266653537750244,0.04953475296497345,-1.4182652235031128
1772811163374967000,7.619967041015625,-2.2507686614990234,0.08788423985242844,-1.4113410711288452
1772811163384847600,7.62984765625,-2.3450443744659424,0.11504846066236496,-1.354882001876831
1772811163394728400,7.639728515625,-2.406829833984375,0.13102741539478302,-1.2542146444320679
1772811163404609000,7.649609130859375,-2.4100255966186523,0.14540846645832062,-1.137035608291626
1772811163414489600,7.659489501953125,-2.3487730026245117,0.19707375764846802,-1.0369008779525757
1772811163424370400,7.669370361328125,-2.2656824588775635,0.33609065413475037,-0.9591366648674011
1772811163434251000,7.6792509765625,-2.188450813293457,0.5251749157905579,-0.9085366129875183
1772811163444131600,7.689131591796875,-2.0904464721679688,0.7403581738471985,-0.8669913411140442
1772811163454012200,7.69901220703125,-2.0062906742095947,0.9406276941299438,-0.7993471026420593
1772811163463893000,7.70889306640625,-1.9540927410125732,1.0871014595031738,-0.6550039052963257
1772811163473773600,7.718773681640625,-1.950364351272583,1.1552783250808716,-0.44834280014038086
1772811163483654100,7.728654052734375,-1.9823222160339355,1.1648656129837036,-0.20333217084407806
1772811163493535000,7.738534912109375,-2.024400234222412,1.174985647201538,0.0390152782201767
1772811163503415600,7.74841552734375,-2.0473034381866455,1.2639352083206177,0.23608903586864471
1772811163513296100,7.758296142578125,-2.0483686923980713,1.4988257884979248,0.32450589537620544
1772811163523176700,7.7681767578125,-2.0478360652923584,1.8524932861328125,0.30533117055892944
1772811163533057300,7.778057373046875,-2.0563580989837646,2.257293462753296,0.2414153516292572
1772811163542937900,7.787937744140625,-2.084587574005127,2.614689350128174,0.22543638944625854
1772811163552818400,7.797818359375,-2.1506338119506836,2.9342684745788574,0.27230799198150635
1772811163562699000,7.807698974609375,-2.183124542236328,3.19792103767395,0.3825627565383911
1772811163572579600,7.81757958984375,-2.1671454906463623,3.3161654472351074,0.5311670303344727
1772811163582460200,7.827460205078125,-2.222539186477661,3.7087149620056152,0.5892238616943359
1772811163592340700,7.8373408203125,-2.238518238067627,3.983552932739258,0.6898912787437439
1772811163602221300,7.84722119140625,-2.1746022701263428,3.912712812423706,0.8821713328361511
1772811163612102000,7.857101806640625,-2.040379047393799,3.6277549266815186,1.110137701034546
1772811163621982500,7.866982421875,-1.9114822149276733,3.3790159225463867,1.3018851280212402
1772811163631863000,7.876863037109375,-1.8726000785827637,3.2549126148223877,1.462207317352295
1772811163641743600,7.88674365234375,-1.8619475364685059,3.10524320602417,1.650758981704712
1772811163651624200,7.896624267578125,-1.8518275022506714,2.900179862976074,1.8153421878814697
1772811163661504800,7.9065048828125,-1.8294569253921509,2.6849966049194336,1.9676748514175415
1772811163671385300,7.91638525390625,-1.7980316877365112,2.3382534980773926,2.077397108078003
1772811163681266000,7.926265869140625,-1.7895095348358154,2.0799269676208496,2.135986566543579
1772811163691146500,7.936146484375,-1.7666064500808716,1.8988322019577026,2.1445086002349854
1772811163701027000,7.946027099609375,-1.749029517173767,1.7555543184280396,2.1184096336364746
1772811163710907600,7.95590771484375,-1.7405074834823608,1.607482671737671,2.0789949893951416
1772811163720788500,7.96578857421875,-1.7250611782073975,1.4460952281951904,2.0246665477752686
1772811163730669000,7.9756689453125,-1.7064189910888672,1.3187962770462036,1.947434902191162
1772811163740549600,7.985549560546875,-1.7016253471374512,1.2809793949127197,1.8281253576278687
1772811163750430000,7.995429931640625,-1.685646414756775,1.3321120738983154,1.657683253288269
1772811163760310800,8.005310791015624,-1.665406346321106,1.3912341594696045,1.4776536226272583
1772811163770191400,8.01519140625,-1.6451663970947266,1.4365078210830688,1.3370388746261597
1772811163780072000,8.025072021484375,-1.6174695491790771,1.435975193977356,1.2321103811264038
1772811163789952500,8.034952392578125,-1.5791200399398804,1.4040173292160034,1.1729882955551147
1772811163799833000,8.0448330078125,-1.5354442596435547,1.38111412525177,1.1202577352523804
1772811163809713700,8.054713623046876,-1.5295852422714233,1.43118155002594,1.0472872257232666
1772811163819594200,8.06459423828125,-1.5370421409606934,1.547827959060669,0.962066113948822
1772811163829474800,8.074474853515625,-1.5876420736312866,1.7986974716186523,0.890160858631134
1772811163839355400,8.08435546875,-1.6078821420669556,1.7049542665481567,0.8427566289901733
1772811163849236000,8.094236083984375,-1.6014904975891113,1.3704615831375122,0.7708513140678406
1772811163859116500,8.104116455078126,-1.6025558710098267,1.175518274307251,0.7159902453422546
1772811163868997000,8.1139970703125,-1.5823158025741577,1.0924277305603027,0.7042723298072815
1772811163878877700,8.123877685546875,-1.588707447052002,1.2586088180541992,0.7356976270675659
1772811163888758300,8.13375830078125,-1.6116105318069458,1.3869731426239014,0.8134618401527405
1772811163898638800,8.143638916015625,-1.6164042949676514,1.3757878541946411,0.8763124346733093
1772811163908519400,8.15351953125,-1.6014904975891113,1.3363730907440186,0.9066724181175232
1772811163918400000,8.16339990234375,-1.5460968017578125,1.3299815654754639,0.9460871815681458
1772811163928280600,8.173280517578124,-1.4512883424758911,1.2287814617156982,0.9913608431816101
1772811163938161200,8.1831611328125,-1.3346420526504517,1.0104024410247803,1.0233187675476074
1772811163948041700,8.193041748046875,-1.2190608978271484,0.7605981826782227,1.0392976999282837
1772811163957922300,8.20292236328125,-1.12478506565094,0.5486106872558594,1.0435588359832764
1772811163967803000,8.212802978515626,-1.0566082000732422,0.38882118463516235,0.9988177418708801
1772811163977683500,8.222683349609374,-1.0022798776626587,0.31798115372657776,0.8651271462440491
1772811163987564300,8.232564208984375,-0.9410271644592285,0.2934800982475281,0.6233122944831848
1772811163997444900,8.24244482421875,-0.8946881890296936,0.3302316963672638,0.3255711793899536
1772811164007326000,8.252325927734375,-0.8616650104522705,0.5528717637062073,0.0342215895652771
1772811164017207000,8.26220703125,-0.8275765776634216,0.8586024045944214,-0.23156166076660156
1772811164027088400,8.27208837890625,-0.7791070938110352,1.1776487827301025,-0.4856269955635071
1772811164036969500,8.281969482421875,-0.7157239317893982,1.448225736618042,-0.7135934233665466
1772811164046850600,8.2918505859375,-0.644883930683136,1.5701984167099,-0.8787092566490173
1772811164056731600,8.301731689453124,-0.5644565224647522,1.490303635597229,-0.9362334609031677
1772811164066612700,8.31161279296875,-0.47284385561943054,1.4626067876815796,-0.8574039936065674
1772811164076493800,8.321493896484375,-0.36844801902770996,1.4588783979415894,-0.6981470584869385
1772811164086375000,8.331375,-0.28802061080932617,1.3907015323638916,-0.5415533185005188
1772811164096256000,8.341256103515626,-0.24168166518211365,1.2852404117584229,-0.41691750288009644
1772811164106137000,8.35113720703125,-0.21824586391448975,1.2953604459762573,-0.26085641980171204
1772811164116018400,8.361018310546875,-0.20279954373836517,1.430648922920227,-0.04514054208993912
1772811164125899500,8.3708994140625,-0.16711321473121643,1.5670026540756226,0.19720691442489624
1772811164135780600,8.380780517578126,-0.10799109190702438,1.574459433555603,0.4267711937427521
1772811164145661700,8.39066162109375,-0.030226852744817734,1.4791183471679688,0.6190512776374817
1772811164155542800,8.400542724609375,0.052331071346998215,1.363537311553955,0.7335671186447144
1772811164165423900,8.410423828125,0.14394372701644897,1.2660657167434692,0.7575355172157288
1772811164175305000,8.420304931640626,0.23076270520687103,1.250086784362793,0.7346323728561401
1772811164185186000,8.43018603515625,0.28722167015075684,1.2900341749191284,0.693087100982666
1772811164195067400,8.4400673828125,0.3021353781223297,1.3134698867797852,0.6424870491027832
1772811164204948500,8.449948486328125,0.2792322039604187,1.2767183780670166,0.5908218026161194
1772811164214829600,8.45982958984375,0.2275669276714325,1.1898993253707886,0.5327649116516113
1772811164224710700,8.469710693359374,0.1386174112558365,1.0801771879196167,0.48908910155296326
1772811164234591700,8.479591796875,-0.0025300008710473776,1.0199898481369019,0.49494805932044983
1772811164244472800,8.489472900390625,-0.19481006264686584,1.0460888147354126,0.5279712080955505
1772811164254354000,8.49935400390625,-0.4004059135913849,1.1046782732009888,0.5439502000808716
1772811164264235000,8.509235107421874,-0.5687175393104553,1.1494193077087402,0.5119922757148743
1772811164274116000,8.5191162109375,-0.6752439141273499,1.1898993253707886,0.4491417407989502
1772811164283997400,8.52899755859375,-0.7194523811340332,1.2058782577514648,0.3676490783691406
1772811164293878500,8.53887841796875,-0.7269092202186584,1.1797794103622437,0.27603641152381897
1772811164303759600,8.548759521484374,-0.7194523811340332,1.1430277824401855,0.19081532955169678
1772811164313640700,8.558640625,-0.7034733891487122,1.073785662651062,0.1141163557767868
1772811164323521800,8.568521728515625,-0.6779070496559143,0.9496824145317078,0.05712475627660751
1772811164333403000,8.57840283203125,-0.641155481338501,0.8111981749534607,0.019840532913804054
1772811164343284000,8.588283935546874,-0.5729786157608032,0.684431791305542,0.0006657897029072046
1772811164353165000,8.5981650390625,-0.4653870165348053,0.6221138834953308,0.008655265904963017
1772811164363046400,8.60804638671875,-0.33595749735832214,0.6306359767913818,0.03688475117087364
1772811164372927500,8.617927490234376,-0.19534270465373993,0.6556696891784668,0.05978791415691376
1772811164382808600,8.62780859375,-0.06591317802667618,0.7121286392211914,0.05819002166390419
1772811164392689700,8.637689697265625,0.048602648079395294,0.8298403024673462,0.031025800853967667
1772811164402570800,8.64757080078125,0.13542161881923676,0.927311897277832,-0.02809632569551468
1772811164412451800,8.657451904296876,0.20040270686149597,0.9534108638763428,-0.08242476731538773
1772811164422333000,8.6673330078125,0.23608903586864471,0.9209203124046326,-0.09574055671691895
1772811164432214000,8.677214111328125,0.2552637755870819,0.8703203201293945,-0.029161589220166206
1772811164442095400,8.687095458984375,0.2834932506084442,0.8213181495666504,0.11464899033308029
1772811164451976400,8.6969765625,0.32397326827049255,0.7765771150588989,0.3037332594394684
1772811164461857500,8.706857421875,0.36232274770736694,0.7344992160797119,0.49920910596847534
1772811164471738600,8.716738525390625,0.4012048840522766,0.6780402064323425,0.6819018125534058
1772811164481619700,8.72661962890625,0.4523375332355499,0.6157222986221313,0.835832417011261
1772811164491500800,8.736500732421876,0.5109270215034485,0.5747096538543701,0.953544020652771
1772811164501381600,8.746381591796874,0.5439502000808716,0.5502086281776428,1.003611445426941
1772811164511262200,8.75626220703125,0.5332975387573242,0.5336970090866089,0.9812408685684204
1772811164521142800,8.766142822265625,0.48536068201065063,0.5219791531562805,0.9104008674621582
1772811164531023400,8.7760234375,0.4400869905948639,0.5251749157905579,0.8448871374130249
1772811164540904200,8.785904296875,0.4310322403907776,0.5731117725372314,0.8060050010681152
1772811164550784800,8.79578466796875,0.44754382967948914,0.6237117648124695,0.7804386615753174
1772811164560665300,8.805665283203124,0.4715122580528259,0.6604633927345276,0.7516765594482422
1772811164570546000,8.8155458984375,0.4970785975456238,0.684431791305542,0.7032070755958557
1772811164580426500,8.825426513671875,0.5263733267784119,0.6982802152633667,0.6462154984474182
1772811164590307000,8.83530712890625,0.5556681156158447,0.7084002494812012,0.5870933532714844
1772811164600188000,8.84518798828125,0.5721796751022339,0.7163897156715393,0.529569149017334
1772811164610068500,8.855068359375,0.5844302177429199,0.7041391730308533,0.4826975464820862
1772811164619949000,8.864948974609375,0.6297038793563843,0.7265097498893738,0.4869585931301117
1772811164629829600,8.87482958984375,0.7202513217926025,0.7968171238899231,0.5391564965248108
1772811164639710200,8.884710205078125,0.8241145014762878,0.8426234722137451,0.6158554553985596
1772811164649590800,8.8945908203125,0.9029439687728882,0.8266444802284241,0.6866955161094666
1772811164659471400,8.904471435546874,0.9194555878639221,0.746749758720398,0.7127944827079773
1772811164669352000,8.91435205078125,0.8688555359840393,0.6380928754806519,0.6803039312362671
1772811164679232800,8.924232666015625,0.7804386615753174,0.49321702122688293,0.6020070314407349
1772811164689113300,8.93411328125,0.6712491512298584,0.3595264256000519,0.5013396739959717
1772811164698994000,8.943993896484375,0.5647228360176086,0.26205483078956604,0.41292276978492737
1772811164708874500,8.95387451171875,0.4640554189682007,0.20932428538799286,0.3676490783691406
1772811164718755000,8.963755126953124,0.37244275212287903,0.1747032105922699,0.34687644243240356
1772811164728635600,8.9736357421875,0.29947221279144287,0.1837579607963562,0.34794169664382935
1772811164738516200,8.98351611328125,0.2323606014251709,0.207726389169693,0.38149750232696533
1772811164748397000,8.99339697265625,0.16951005160808563,0.2503369152545929,0.4390217363834381
1772811164758277600,9.003277587890626,0.11837740987539291,0.295610636472702,0.4880238473415375
1772811164768158200,9.013158203125,0.08002792298793793,0.30945906043052673,0.49867647886276245
1772811164778038800,9.023038818359375,0.052331071346998215,0.314785361289978,0.4901543855667114
1772811164787919400,9.03291943359375,0.02197105996310711,0.29401272535324097,0.48482805490493774
1772811164797800000,9.042800048828125,-0.02703106217086315,0.24128219485282898,0.5077311992645264
1772811164807680800,9.0526806640625,-0.07976160943508148,0.1842905879020691,0.5625923275947571
1772811164817561300,9.062561279296874,-0.1308942586183548,0.1177116185426712,0.6217144131660461
1772811164827442000,9.07244189453125,-0.17883111536502838,0.05699159950017929,0.6669881343841553
1772811164837322500,9.082322509765625,-0.22836586833000183,0.01597895286977291,0.6888260245323181
1772811164847203000,9.092203125,-0.2757700979709625,-0.02450106106698513,0.6994786858558655
1772811164857083600,9.102083740234375,-0.32157641649246216,-0.07776423543691635,0.7080007791519165
1772811164866964200,9.111964111328126,-0.3583280146121979,-0.12303793430328369,0.710663914680481
1772811164876844800,9.1218447265625,-0.380698561668396,-0.17097479104995728,0.7042723298072815
1772811164886725600,9.1317255859375,-0.3945469856262207,-0.1938779652118683,0.6739123463630676
1772811164896606200,9.141606201171875,-0.39294907450675964,-0.2029327005147934,0.6233122944831848
1772811164906486800,9.15148681640625,-0.380698561668396,-0.16831164062023163,0.5450154542922974
1772811164916367400,9.161367431640626,-0.37856802344322205,-0.09214529395103455,0.4400869905948639
1772811164926248000,9.171248046875,-0.3615238070487976,0.02024000696837902,0.3218427300453186
1772811164936128500,9.18112841796875,-0.3114564120769501,0.14327794313430786,0.21158796548843384
1772811164946009000,9.191009033203125,-0.22410480678081512,0.25246745347976685,0.12689951062202454
1772811164955890000,9.200889892578125,-0.11864372342824936,0.3387537896633148,0.06564686447381973
1772811164965770500,9.2107705078125,0.014514215290546417,0.33609065413475037,0.05552686005830765
1772811164975651000,9.220651123046874,0.14074794948101044,0.31318747997283936,0.07523423433303833
1772811164985531600,9.23053173828125,0.22437113523483276,0.23808640241622925,0.10133319348096848
1772811164995412200,9.240412109375,0.2643185257911682,0.20453059673309326,0.13488899171352386
1772811165005292800,9.250292724609375,0.26378586888313293,0.18162743747234344,0.23129534721374512
1772811165015173400,9.26017333984375,0.22437113523483276,0.022370534017682076,0.29627642035484314
1772811165025054000,9.270053955078126,0.19827216863632202,-0.0564589649438858,0.31012484431266785
1772811165034934500,9.2799345703125,0.18655426800251007,-0.06444844603538513,0.3170490562915802
1772811165044814800,9.28981494140625,0.20200060307979584,-0.09108003228902817,0.3266364336013794
1772811165054695400,9.2996953125,0.19827216863632202,-0.055393703281879425,0.35167011618614197
1772811165064576000,9.309575927734375,0.18815216422080994,0.01704421639442444,0.36605116724967957
1772811165074456600,9.31945654296875,0.18442374467849731,0.10972214490175247,0.38469329476356506
1772811165084337200,9.329337158203124,0.18442374467849731,0.2071937620639801,0.4054659307003021
1772811165094217700,9.3392177734375,0.19241322576999664,0.2700442969799042,0.41824910044670105
1772811165104098300,9.349098388671875,0.19827216863632202,0.29880642890930176,0.4171838164329529
1772811165113979000,9.358978759765625,0.20679427683353424,0.2775011360645294,0.40386801958084106
1772811165123859500,9.368859375,0.20200060307979584,0.22903165221214294,0.38948696851730347
1772811165133740000,9.378739990234376,0.19134795665740967,0.17576847970485687,0.36605116724967957
1772811165143620600,9.38862060546875,0.17749953269958496,0.054861072450876236,0.34740906953811646
1772811165153501200,9.398501220703125,0.13542161881923676,0.015446321107447147,0.2850911617279053
1772811165163381800,9.4083818359375,0.09973529726266861,0.015446321107447147,0.2083921730518341
1772811165173262300,9.418262451171875,0.07363633811473846,0.030360009521245956,0.1284974068403244
1772811165183143000,9.428142822265626,0.06298370659351349,0.055393703281879425,0.06191844120621681
1772811165193023200,9.438023193359374,0.06298370659351349,0.08415582031011581,0.017710005864501
1772811165202903800,9.44790380859375,0.06138581037521362,0.1134505644440651,-0.0057257916778326035
1772811165212784400,9.457784423828125,0.06511422991752625,0.1315600425004959,-0.011584741063416004
1772811165222665000,9.4676650390625,0.07470160722732544,0.12942951917648315,-0.010519477538764477
1772811165232545500,9.477545654296875,0.07949528843164444,0.12463583052158356,-0.01105210930109024
1772811165242426000,9.487426025390626,0.08002792298793793,0.10439582169055939,-0.025433165952563286
1772811165252306700,9.497306640625,0.06777739524841309,0.0756337121129036,-0.05259738489985466
1772811165262187300,9.507187255859375,0.052863702178001404,0.06498107314109802,-0.07656581699848175
1772811165272067800,9.51706787109375,0.044874224811792374,0.05752423033118248,-0.09094687551259995
1772811165281948400,9.526948486328125,0.047537386417388916,0.052197910845279694,-0.09041424095630646
1772811165291829000,9.5368291015625,0.07789739221334457,0.04900212213397026,-0.07496792078018188
