time,seconds_elapsed,z,y,x
1772811387228973300,0.175973388671875,0.17377111315727234,-1.5707310438156128,0.8784429430961609
1772811387248734000,0.19573388671875,0.37617117166519165,-1.2026824951171875,1.0233187675476074
1772811387258614300,0.2056142578125,0.6078659892082214,-1.0434256792068481,1.0195903778076172
1772811387268494600,0.21549462890625,0.760198712348938,-1.1110697984695435,0.9034766554832458
1772811387278375000,0.225375,0.7474155426025391,-1.510543704032898,0.6861628890037537
1772811387288255500,0.23525537109375,0.6952176094055176,-2.1401143074035645,0.4901543855667114
1772811387298135600,0.245135498046875,0.6467481255531311,-2.8202850818634033,0.31917959451675415
1772811387308016000,0.25501611328125,0.504535436630249,-3.4551823139190674,0.09440898150205612
1772811387317896400,0.264896484375,0.20040270686149597,-3.7715654373168945,-0.21718059480190277
1772811387327776800,0.27477685546875,-0.16977638006210327,-3.928691864013672,-0.6257091760635376
1772811387337657000,0.284656982421875,-0.43875542283058167,-3.953192949295044,-1.1082735061645508
1772811387347537400,0.294537353515625,-0.544216513633728,-3.9212350845336914,-1.472061038017273
1772811387357417700,0.304417724609375,-0.5394228100776672,-3.5973949432373047,-1.6366442441940308
1772811387367298000,0.314298095703125,-0.4760396480560303,-2.8975167274475098,-1.7586169242858887
1772811387377178400,0.324178466796875,-0.3673827648162842,-1.9201375246047974,-1.9269285202026367
1772811387387058700,0.33405859375,-0.17616795003414154,-0.8495476841926575,-2.2299959659576416
1772811387396939300,0.343939208984375,0.15033531188964844,-0.19441059231758118,-2.7317352294921875
1772811387406819600,0.353819580078125,0.7165228724479675,-0.4846948981285095,-3.389002799987793
1772811387416700000,0.363699951171875,1.5309168100357056,-1.532381534576416,-3.9653103351593018
1772811387426580200,0.373580322265625,2.413487672805786,-2.5869925022125244,-4.264649391174316
1772811387436460500,0.38346044921875,3.1767489910125732,-3.328415870666504,-4.2598557472229
1772811387446340900,0.3933408203125,3.659846067428589,-3.8328182697296143,-3.967973470687866
1772811387456221200,0.40322119140625,3.699260711669922,-3.894070863723755,-3.3506531715393066
1772811387466101500,0.4131015625,3.4483911991119385,-3.5398707389831543,-2.447309732437134
1772811387475981800,0.42298193359375,2.9626309871673584,-2.9225504398345947,-1.229180932044983
1772811387485862400,0.4328623046875,2.221207618713379,-2.34144926071167,0.11997530609369278
1772811387495742700,0.44274267578125,1.5245252847671509,-2.5177502632141113,1.2699272632598877
1772811387505624000,0.4526240234375,1.1186598539352417,-3.3449275493621826,2.032655954360962
1772811387515505400,0.46250537109375,0.7282407879829407,-4.0650458335876465,2.5754077434539795
1772811387525387000,0.472386962890625,0.3394196033477783,-4.669582843780518,2.9035089015960693
1772811387535268400,0.482268310546875,0.20306585729122162,-5.319393634796143,2.8939216136932373
1772811387545149700,0.492149658203125,0.1476721614599228,-6.378798007965088,2.6462478637695312
1772811387555031000,0.502031005859375,0.1386174112558365,-7.069088935852051,2.221207618713379
1772811387564912600,0.51191259765625,0.41345539689064026,-7.276814937591553,1.7162727117538452
1772811387574794000,0.5217939453125,0.6749776005744934,-7.307707786560059,1.1937609910964966
1772811387584675300,0.53167529296875,0.9205208420753479,-7.2682929039001465,0.7468829154968262
1772811387594556700,0.541556640625,1.0914956331253052,-7.139928817749023,0.6025396585464478
1772811387604438300,0.551438232421875,1.226251482963562,-6.987063407897949,0.7223818302154541
1772811387614319600,0.561319580078125,1.4004220962524414,-6.8475141525268555,1.0297104120254517
1772811387624201000,0.571200927734375,1.6512916088104248,-6.616884231567383,1.4643378257751465
1772811387634082300,0.581082275390625,1.9756643772125244,-6.359090805053711,1.928260087966919
1772811387643964000,0.5909638671875,2.4795339107513428,-6.398505210876465,2.4864583015441895
1772811387653845200,0.60084521484375,3.10377836227417,-5.8349809646606445,2.899247884750366
1772811387663726600,0.6107265625,3.7716987133026123,-4.820317268371582,3.0563743114471436
1772811387673608000,0.62060791015625,4.480631351470947,-4.000064373016357,2.933868885040283
1772811387683489500,0.630489501953125,4.956271648406982,-3.237868547439575,2.5066981315612793
1772811387693371000,0.640370849609375,5.203413009643555,-2.2929797172546387,1.7695358991622925
1772811387703252200,0.650252197265625,5.366930961608887,-1.4812489748001099,0.949815571308136
1772811387713133600,0.660133544921875,5.553884506225586,-1.0125329494476318,0.35273537039756775
1772811387723015200,0.67001513671875,5.775991916656494,-0.7366297245025635,0.07470160722732544
1772811387732896500,0.679896484375,5.998099327087402,-0.5885580778121948,0.06617949903011322
1772811387742777900,0.68977783203125,6.226598262786865,-0.5379580855369568,0.1290300488471985
1772811387752659200,0.6996591796875,6.405030250549316,-0.4474106729030609,0.08801739662885666
1772811387762540800,0.709540771484375,6.447640419006348,-0.38882118463516235,-0.07976160943508148
1772811387772422100,0.719422119140625,6.4002366065979,-0.37444013357162476,-0.30293431878089905
1772811387782303500,0.729303466796875,6.354430198669434,-0.2838927209377289,-0.4952143728733063
1772811387792184800,0.739184814453125,6.309689044952393,-0.37017908692359924,-0.5170522928237915
1772811387802066400,0.74906640625,6.248969078063965,-0.6306359767913818,-0.3338269591331482
1772811387811947800,0.75894775390625,6.15522575378418,-0.9123982191085815,-0.12290477752685547
1772811387821829000,0.7688291015625,6.03857946395874,-1.2490215301513672,0.11464899033308029
1772811387831710500,0.77871044921875,5.926194190979004,-1.532381534576416,0.3836280405521393
1772811387841591800,0.788591796875,5.791970729827881,-1.7811206579208374,0.6728470921516418
1772811387851473400,0.798473388671875,5.542699337005615,-1.9536932706832886,0.9844366312026978
1772811387861354800,0.808354736328125,5.140029430389404,-2.00961971282959,1.2938957214355469
1772811387871236000,0.818236083984375,4.58502721786499,-1.9542258977890015,1.6156052350997925
1772811387881117400,0.828117431640625,3.922433376312256,-1.8343838453292847,1.9437065124511719
1772811387890999000,0.8379990234375,3.2150983810424805,-1.6431690454483032,2.226533889770508
1772811387900880400,0.84788037109375,2.5205466747283936,-1.3757878541946411,2.4118897914886475
1772811387910761700,0.85776171875,1.8781927824020386,-1.0141308307647705,2.483795166015625
1772811387920643000,0.86764306640625,1.3397020101547241,-0.5720465183258057,2.4603593349456787
1772811387930524700,0.877524658203125,0.9636639952659607,-0.08096002787351608,2.3575613498687744
1772811387940406000,0.887406005859375,0.731436550617218,0.39947381615638733,2.1674118041992188
1772811387950287400,0.897287353515625,0.6446176171302795,0.8639287352561951,1.8803232908248901
1772811387960168700,0.907168701171875,0.6398239135742188,1.3491562604904175,1.4776536226272583
1772811387970050300,0.91705029296875,0.7681881785392761,1.6831163167953491,0.9817734956741333
1772811387979931600,0.926931640625,0.9663271903991699,1.8903101682662964,0.5247754454612732
1772811387989813000,0.93681298828125,1.188967227935791,2.049034357070923,0.17803215980529785
1772811387999694000,0.946694091796875,1.427053689956665,2.073002815246582,-0.02383527159690857
1772811388009575000,0.956574951171875,1.588441014289856,1.9734007120132446,-0.08881634473800659
1772811388019456000,0.9664560546875,1.6278557777404785,1.8034911155700684,-0.0600542314350605
1772811388029336800,0.9763369140625,1.5575484037399292,1.577122688293457,0.03368895873427391
1772811388039217700,0.9862177734375,1.378051519393921,1.3060131072998047,0.1519332081079483
1772811388049098500,0.996098388671875,1.1074745655059814,1.0455561876296997,0.24567639827728271
1772811388058979300,1.005979248046875,0.7841671109199524,0.8335686922073364,0.2877542972564697
1772811388068860200,1.015860107421875,0.4528701603412628,0.6625939011573792,0.2792322039604187
1772811388078741000,1.025740966796875,0.156194269657135,0.503337025642395,0.24887219071388245
1772811388088622000,1.0356220703125,-0.079228974878788,0.37390750646591187,0.21212059259414673
1772811388098503000,1.0455029296875,-0.2613890469074249,0.2535327076911926,0.17643427848815918
1772811388108383700,1.0553837890625,-0.4126564562320709,0.1507347822189331,0.16791217029094696
1772811388118264600,1.0652646484375,-0.5314333438873291,0.04900212213397026,0.1988048106431961
1772811388128145400,1.0751455078125,-0.619850218296051,-0.027696851640939713,0.25366586446762085
1772811388138026200,1.085026123046875,-0.6789723634719849,-0.14327794313430786,0.2781669497489929
1772811388147907000,1.094906982421875,-0.7679218649864197,-0.5811012387275696,0.21904481947422028
1772811388157788000,1.104787841796875,-1.0049430131912231,-0.7653918266296387,0.13542161881923676
1772811388167669000,1.1146689453125,-1.2174630165100098,-0.9464866518974304,-0.013182636350393295
1772811388177549800,1.1245498046875,-1.375654697418213,-1.10308039188385,-0.10479529947042465
1772811388187430700,1.1344306640625,-1.4848442077636719,-1.128646731376648,-0.10000161081552505
1772811388197311500,1.1443115234375,-1.5524884462356567,-1.041295051574707,-0.05579317733645439
1772811388207192300,1.1541923828125,-1.6030884981155396,-0.9869666695594788,-0.08721844851970673
1772811388217073200,1.1640732421875,-1.7154737710952759,-0.8916255831718445,-0.23529008030891418
1772811388226954200,1.173954345703125,-1.8875137567520142,-0.654604434967041,-0.456332266330719
1772811388236835000,1.1838349609375,-2.010019063949585,-0.44954121112823486,-0.7045386433601379
1772811388246716000,1.1937158203125,-2.1602213382720947,-0.26098957657814026,-0.8627303242683411
1772811388256596700,1.2035966796875,-2.3684802055358887,-0.04101264476776123,-0.901612401008606
1772811388266477600,1.2134775390625,-2.5692825317382812,0.11930951476097107,-0.8510124087333679
1772811388276358400,1.2233583984375,-2.7999119758605957,0.2396842986345291,-0.7434207797050476
1772811388286239200,1.2332392578125,-3.0353353023529053,0.3110569417476654,-0.6012080907821655
1772811388296120300,1.243120361328125,-3.224419593811035,0.3211769461631775,-0.4323638379573822
1772811388306001200,1.253001220703125,-3.359175443649292,0.28921905159950256,-0.2629869282245636
1772811388315882000,1.262882080078125,-3.4566469192504883,0.21518322825431824,-0.1074584573507309
1772811388325762800,1.2727626953125,-3.5509228706359863,0.08628634363412857,0.018242638558149338
1772811388335643600,1.2826435546875,-3.6537206172943115,-0.10013477504253387,0.11358372122049332
1772811388345524500,1.2925244140625,-3.761312246322632,-0.34088432788848877,0.19614164531230927
1772811388355405300,1.3024052734375,-3.8720996379852295,-0.6311686635017395,0.28722167015075684
1772811388375167200,1.322167236328125,-4.0111165046691895,-1.2618046998977661,0.517318606376648
1772811388385048000,1.332048095703125,-3.963712453842163,-1.5190657377243042,0.6190512776374817
1772811388394929000,1.341928955078125,-3.8380112648010254,-1.7235963344573975,0.6563354730606079
1772811388404809700,1.351809814453125,-3.6744933128356934,-1.8461016416549683,0.6233122944831848
1772811388414690600,1.361690673828125,-3.517899513244629,-1.9451712369918823,0.538091242313385
1772811388424571400,1.3715712890625,-3.33467435836792,-1.8961690664291382,0.4145206809043884
1772811388434452200,1.3814521484375,-3.156242609024048,-1.6713985204696655,0.2467416673898697
1772811388444333300,1.391333251953125,-3.051846742630005,-1.4460952281951904,0.017710005864501
1772811388454214100,1.401214111328125,-2.9160256385803223,-1.334242582321167,-0.18841849267482758
1772811388464095000,1.411094970703125,-2.7913899421691895,-1.1472887992858887,-0.3844269812107086
1772811388473975800,1.420975830078125,-2.665156126022339,-0.931040346622467,-0.552738606929779
1772811388483856600,1.430856689453125,-2.536259412765503,-0.7249118089675903,-0.6874944567680359
1772811388493737500,1.440737548828125,-2.392448663711548,-0.5747096538543701,-0.8099997639656067
1772811388503618000,1.4506181640625,-2.228930711746216,-0.4580633044242859,-0.9159934520721436
1772811388513498400,1.460498291015625,-2.0510318279266357,-0.3685811758041382,-1.027846097946167
1772811388523378700,1.470378662109375,-1.84596848487854,-0.283360093832016,-1.1263830661773682
1772811388533259000,1.480259033203125,-1.623328447341919,-0.2167811244726181,-1.204147219657898
1772811388543139300,1.490139404296875,-1.3815135955810547,-0.15819163620471954,-1.2600735425949097
1772811388553019600,1.50001953125,-1.13969886302948,-0.08575371652841568,-1.2989556789398193
1772811388562900000,1.50989990234375,-0.922385036945343,0.013848425820469856,-1.3149346113204956
1772811388572780300,1.5197802734375,-0.7354313135147095,0.12623372673988342,-1.3096083402633667
1772811388582660600,1.52966064453125,-0.5367596745491028,0.2167811244726181,-1.282976746559143
1772811388592541200,1.539541259765625,-0.33063116669654846,0.3153179883956909,-1.2382357120513916
1772811388602421500,1.54942138671875,-0.12024161964654922,0.40373486280441284,-1.2126693725585938
1772811388612301800,1.5593017578125,0.1189100444316864,0.4772380590438843,-1.1716567277908325
1772811388622182100,1.56918212890625,0.38096487522125244,0.49801069498062134,-1.0736525058746338
1772811388632062500,1.5790625,0.6600639224052429,0.46498751640319824,-0.9058734774589539
1772811388641942800,1.58894287109375,0.949815571308136,0.3669832944869995,-0.6688523292541504
1772811388651823000,1.598822998046875,1.2486220598220825,0.20026955008506775,-0.34447959065437317
1772811388661703400,1.608703369140625,1.54103684425354,-0.002130527049303055,0.06937528401613235
1772811388671583700,1.618583740234375,1.7919063568115234,-0.2306295484304428,0.5551354289054871
1772811388681464000,1.628464111328125,1.9799253940582275,-0.4665854275226593,1.0989525318145752
1772811388691344600,1.6383447265625,2.0987021923065186,-0.6780402064323425,1.6571506261825562
1772811388701225000,1.648224853515625,2.1530306339263916,-0.8511455655097961,2.1924455165863037
1772811388711105300,1.658105224609375,2.1450412273406982,-0.9171919226646423,2.657965660095215
1772811388720985600,1.667985595703125,2.085919141769409,-0.8985497951507568,3.0414605140686035
1772811388730866000,1.677865966796875,1.9719359874725342,-0.8330360651016235,3.3131027221679688
1772811388740746200,1.687746337890625,1.7322516441345215,-0.600275993347168,3.350919485092163
1772811388750626600,1.69762646484375,1.5618095397949219,-0.5736443996429443,3.3349406719207764
1772811388760507000,1.7075068359375,1.4771209955215454,-0.4937496483325958,3.2939279079437256
1772811388770387200,1.71738720703125,1.439304232597351,-0.23009692132472992,3.1607699394226074
1772811388780267500,1.727267578125,1.3812472820281982,-0.009054739959537983,2.871018409729004
1772811388790148000,1.737148193359375,1.317864179611206,0.20453059673309326,2.4172160625457764
1772811388800028200,1.747028076171875,1.2395672798156738,0.42717066407203674,1.7951022386550903
1772811388809908700,1.75690869140625,1.1692599058151245,0.6711159944534302,1.0856367349624634
1772811388819789000,1.7667890625,1.1037461757659912,0.9566066265106201,0.405998557806015
1772811388829669400,1.77666943359375,1.0323735475540161,1.2554130554199219,-0.17989638447761536
1772811388839549700,1.7865498046875,0.9519461393356323,1.5217289924621582,-0.6699175834655762
1772811388849430000,1.796429931640625,0.8454197645187378,1.7235963344573975,-1.0683261156082153
1772811388859310300,1.806310302734375,0.701609194278717,1.8642112016677856,-1.380448341369629
1772811388869190700,1.816190673828125,0.5530049204826355,1.959019660949707,-1.6313179731369019
1772811388879071000,1.826071044921875,0.43635857105255127,2.009087085723877,-1.8390443325042725
1772811388888951300,1.835951416015625,0.35646381974220276,2.0357186794281006,-1.9849854707717896
1772811388898831600,1.84583154296875,0.29893958568573,2.0671439170837402,-2.069673776626587
1772811388908712200,1.855712158203125,0.2707100808620453,2.068209171295166,-2.1122844219207764
1772811388918592500,1.865592529296875,0.28189536929130554,2.0421102046966553,-2.1405138969421387
1772811388928472800,1.875472900390625,0.3308974802494049,1.9947059154510498,-2.163417100906372
1772811388938353200,1.885353271484375,0.4022701382637024,1.927061676979065,-2.1751348972320557
1772811388948233500,1.8952333984375,0.4912196397781372,1.8338510990142822,-2.164482355117798
1772811388958113800,1.90511376953125,0.6249102354049683,1.7172048091888428,-2.113349676132202
1772811388967994000,1.914994140625,0.7964176535606384,1.587242603302002,-2.004160165786743
1772811388977874400,1.92487451171875,0.9775124192237854,1.4338446855545044,-1.8406422138214111
1772811388987754800,1.934754638671875,1.167129397392273,1.2452930212020874,-1.6270568370819092
1772811388997635300,1.94463525390625,1.3668662309646606,1.0380992889404297,-1.358077883720398
1772811389007516400,1.954516357421875,1.5751253366470337,0.830905556678772,-1.0576735734939575
1772811389017397200,1.964397216796875,1.7631442546844482,0.6556696891784668,-0.7652586698532104
1772811389027278300,1.9742783203125,1.910683274269104,0.5044022798538208,-0.5170522928237915
1772811389037159400,1.984159423828125,2.0193402767181396,0.3685811758041382,-0.3061301112174988
1772811389047040500,1.99404052734375,2.11201810836792,0.2700442969799042,-0.1122521460056305
1772811389056921300,2.00392138671875,2.205228567123413,0.21358533203601837,0.060853179544210434
1772811389066802400,2.013802490234375,2.280862331390381,0.19441059231758118,0.2035984843969345
1772811389076683500,2.02368359375,2.324538230895996,0.1747032105922699,0.3159838020801544
1772811389086564600,2.033564697265625,2.344778060913086,0.13262531161308289,0.4150533080101013
1772811389096445400,2.043445556640625,2.3666160106658936,0.08841687440872192,0.496013343334198
1772811389106326500,2.053326416015625,2.3964433670043945,0.038882117718458176,0.5562007427215576
1772811389116207600,2.06320751953125,2.429999351501465,-0.04101264476776123,0.622247040271759
1772811389126088400,2.07308837890625,2.442782402038574,-0.141680046916008,0.6994786858558655
1772811389135969500,2.082969482421875,2.424672842025757,-0.24767376482486725,0.7815039753913879
1772811389145850600,2.0928505859375,2.3682138919830322,-0.3632548749446869,0.8518113493919373
1772811389155731700,2.102731689453125,2.261154890060425,-0.5139896273612976,0.8981503248214722
1772811389165612500,2.112612548828125,2.096571683883667,-0.6791055202484131,0.8954871296882629
1772811389175493600,2.12249365234375,1.9138790369033813,-0.8218508362770081,0.8534092307090759
1772811389185374700,2.132374755859375,1.764742136001587,-0.9624655842781067,0.840626060962677
1772811389195255600,2.142255615234375,1.6480958461761475,-1.1041456460952759,0.9189229607582092
1772811389205136600,2.15213671875,1.541569471359253,-1.2452930212020874,1.097354531288147
1772811389215017700,2.162017822265625,1.3998894691467285,-1.371526837348938,1.3269188404083252
1772811389224898800,2.17189892578125,1.2097399234771729,-1.472726821899414,1.5399715900421143
1772811389234780000,2.18177978515625,0.9684576988220215,-1.5121415853500366,1.6694010496139526
1772811389244660700,2.19166064453125,0.6840323209762573,-1.4950973987579346,1.6949673891067505
1772811389254541800,2.201541748046875,0.3585943281650543,-1.414137363433838,1.6225295066833496
1772811389264423000,2.2114228515625,-0.010519477538764477,-1.2740551233291626,1.4654030799865723
1772811389274303700,2.2213037109375,-0.39241644740104675,-1.1004172563552856,1.2502199411392212
1772811389284184800,2.231184814453125,-0.7482144832611084,-0.9225181937217712,1.000948190689087
1772811389294066000,2.24106591796875,-1.0534124374389648,-0.7584676146507263,0.7383607625961304
1772811389303946800,2.25094677734375,-1.2936294078826904,-0.6258423328399658,0.47896912693977356
1772811389313827800,2.260827880859375,-1.4779199361801147,-0.5320991277694702,0.23608903586864471
1772811389323709000,2.270708984375,-1.5972294807434082,-0.4958801567554474,0.010785792954266071
1772811389333590000,2.280590087890625,-1.6547536849975586,-0.5294359922409058,-0.2065279632806778
1772811389343471000,2.29047119140625,-1.6611453294754028,-0.6114612817764282,-0.3988080322742462
1772811389353352000,2.30035205078125,-1.5972294807434082,-0.7414234280586243,-0.5628586411476135
1772811389363233000,2.31023291015625,-1.4560821056365967,-0.9060066342353821,-0.7146586775779724
1772811389373114000,2.320114013671875,-1.2329093217849731,-1.091362476348877,-0.8941555619239807
1772811389382995000,2.329994873046875,-0.9942903518676758,-1.2538151741027832,-1.124252438545227
1772811389392876000,2.3398759765625,-0.8371639847755432,-1.3331773281097412,-1.4235914945602417
1772811389402757000,2.349757080078125,-0.8238481879234314,-1.3523520231246948,-1.7634105682373047
1772811389412638200,2.35963818359375,-0.9665935039520264,-1.3177310228347778,-2.069141149520874
1772811389422519000,2.36951904296875,-1.245692491531372,-1.2266509532928467,-2.2550296783447266
1772811389432400100,2.379400146484375,-1.6014904975891113,-1.0855035781860352,-2.302433967590332
1772811389442281200,2.38928125,-1.963147521018982,-0.923583447933197,-2.222539186477661
1772811389452162300,2.399162353515625,-2.2763350009918213,-0.7574023604393005,-2.0371832847595215
1772811389462043100,2.409043212890625,-2.5027034282684326,-0.6029391288757324,-1.7751284837722778
1772811389471924200,2.41892431640625,-2.6230783462524414,-0.46498751640319824,-1.4709957838058472
1772811389481805300,2.428805419921875,-2.6374592781066895,-0.36165696382522583,-1.1434272527694702
1772811389491686100,2.43868603515625,-2.55969500541687,-0.3105243146419525,-0.8414250016212463
1772811389501567200,2.448567138671875,-2.4329288005828857,-0.3025348484516144,-0.5942838788032532
1772811389511447800,2.45844775390625,-2.3141517639160156,-0.2972085177898407,-0.4185154139995575
1772811389521328600,2.46832861328125,-2.2315938472747803,-0.3051980137825012,-0.2805637717247009
1772811389531209500,2.47820947265625,-2.168210744857788,-0.3344927430152893,-0.16285216808319092
1772811389541090300,2.48809033203125,-2.1069581508636475,-0.371244341135025,-0.07709844410419464
1772811389550971100,2.49797119140625,-2.043574810028076,-0.4063980281352997,-0.029161589220166206
1772811389560852000,2.50785205078125,-1.9823222160339355,-0.44528016448020935,-0.020639481022953987
1772811389570732500,2.517732666015625,-1.9301244020462036,-0.4676506817340851,-0.0366184338927269
1772811389580613400,2.52761328125,-1.8843179941177368,-0.47883594036102295,-0.06591317802667618
1772811389590494200,2.537494140625,-1.8550232648849487,-0.45540016889572144,-0.1170458272099495
1772811389600375000,2.547375,-1.841174840927124,-0.39947381615638733,-0.1926795393228531
1772811389610256000,2.557255859375,-1.8576864004135132,-0.31265485286712646,-0.31252169609069824
1772811389620136700,2.56713671875,-1.8885791301727295,-0.20453059673309326,-0.4717785716056824
1772811389630017300,2.577017333984375,-1.9242653846740723,-0.08149266242980957,-0.6613954901695251
1772811389639898000,2.586898193359375,-1.9775285720825195,0.1038631945848465,-0.8701871633529663
1772811389649779000,2.596779052734375,-2.0068233013153076,0.314785361289978,-1.0811092853546143
1772811389659659800,2.60665966796875,-1.9855180978775024,0.5075980424880981,-1.2627367973327637
1772811389669540600,2.61654052734375,-1.89603590965271,0.6785728931427002,-1.3985579013824463
1772811389679421200,2.626421142578125,-1.7548885345458984,0.8299734592437744,-1.5199978351593018
1772811389689302000,2.636302001953125,-1.5966968536376953,0.965794563293457,-1.6382421255111694
1772811389699182800,2.646182861328125,-1.483778953552246,1.0978872776031494,-1.7607474327087402
1772811389709063700,2.656063720703125,-1.3911010026931763,1.1910977363586426,-1.8678064346313477
1772811389718944500,2.665944580078125,-1.3064125776290894,1.2470240592956543,-1.9056233167648315
1772811389728825300,2.675825439453125,-1.2446272373199463,1.2800472974777222,-1.8555558919906616
1772811389738706000,2.685705810546875,-1.198820948600769,1.3162662982940674,-1.794303297996521
1772811389748586800,2.695586669921875,-1.1354377269744873,1.3535504341125488,-1.7836506366729736
1772811389758467600,2.705467529296875,-1.0422271490097046,1.3993568420410156,-1.8246632814407349
1772811389768348400,2.715348388671875,-0.9133303165435791,1.4520872831344604,-1.895503282546997
1772811389778229200,2.725229248046875,-0.7562039494514465,1.4968284368515015,-1.958353877067566
1772811389788110000,2.735110107421875,-0.5649891495704651,1.528786301612854,-1.958353877067566
1772811389797990700,2.74499072265625,-0.33009853959083557,1.5500916242599487,-1.8592842817306519
1772811389807871500,2.75487158203125,-0.03981422260403633,1.5596789121627808,-1.6414378881454468
1772811389817752300,2.76475244140625,0.3207774758338928,1.5650053024291992,-1.3229241371154785
1772811389827633200,2.774633056640625,0.7511439323425293,1.561276912689209,-0.9335703253746033
1772811389837514000,2.784513916015625,1.2070767879486084,1.5777884721755981,-0.4973449110984802
1772811389847394800,2.794394775390625,1.6017568111419678,1.6154720783233643,-0.021172111853957176
1772811389857275600,2.804275634765625,1.8973674774169922,1.6133415699005127,0.4912196397781372
1772811389867156200,2.81415625,2.082723379135132,1.5488932132720947,1.0105355978012085
1772811389877037000,2.824037109375,2.171672821044922,1.4295836687088013,1.499491572380066
1772811389886918000,2.83391796875,2.186586618423462,1.260206699371338,1.9271948337554932
1772811389896798700,2.843798828125,2.140780210494995,1.0476866960525513,2.300037145614624
1772811389906679600,2.853679443359375,2.0491676330566406,0.7930886745452881,2.6249425411224365
1772811389916560400,2.863560302734375,1.93039071559906,0.47777068614959717,2.8987152576446533
1772811389926441000,2.87344091796875,1.8116137981414795,0.12037477642297745,3.1149637699127197
1772811389936321800,2.88332177734375,1.6939021348953247,-0.24288007616996765,3.2539806365966797
1772811389946202600,2.89320263671875,1.5969631671905518,-0.5613938570022583,3.29659104347229
1772811389956083500,2.90308349609375,1.5330473184585571,-0.8000128865242004,3.216696262359619
1772811389965964300,2.91296435546875,1.49469792842865,-0.9629982113838196,2.9972519874572754
1772811389975845000,2.92284521484375,1.4675337076187134,-1.0359687805175781,2.662226676940918
1772811389985725700,2.9327255859375,1.4483588933944702,-1.0306425094604492,2.249437093734741
1772811389995606500,2.9426064453125,1.4355757236480713,-0.9603350758552551,1.7951022386550903
1772811390005487600,2.952487548828125,1.432379961013794,-0.8255792260169983,1.3120051622390747
1772811390015368400,2.962368408203125,1.4403694868087769,-0.6695181131362915,0.8214513063430786
1772811390025249500,2.97224951171875,1.4387716054916382,-0.5305012464523315,0.3394196033477783
1772811390045011500,2.992011474609375,1.330647349357605,-0.2929474711418152,-0.45366910099983215
1772811390054892300,3.001892333984375,1.264068365097046,-0.1747032105922699,-0.7231807708740234
1772811390064773000,3.011773193359375,1.2038809061050415,-0.07936213165521622,-0.9282439947128296
1772811390074654200,3.021654296875,1.1463567018508911,-0.00426105409860611,-1.08217453956604
1772811390084535000,3.03153515625,1.1010830402374268,0.052197910845279694,-1.206810474395752
1772811390094416100,3.041416015625,1.0760493278503418,0.08841687440872192,-1.3149346113204956
1772811390104297000,3.051296875,1.0776472091674805,0.1086568832397461,-1.3985579013824463
1772811390114178000,3.061177978515625,1.1197251081466675,0.11930951476097107,-1.4496904611587524
1772811390124059100,3.07105908203125,1.20920729637146,0.12889689207077026,-1.4693979024887085
1772811390133940000,3.08093994140625,1.3322452306747437,0.13741900026798248,-1.472061038017273
1772811390143820800,3.09082080078125,1.4755231142044067,0.1597895324230194,-1.4443641901016235
1772811390153702000,3.100701904296875,1.6342474222183228,0.1842905879020691,-1.3815135955810547
1772811390163582700,3.110582763671875,1.7919063568115234,0.207726389169693,-1.2867051362991333
1772811390173463800,3.1204638671875,1.9335864782333374,0.24288007616996765,-1.1487535238265991
1772811390183344600,3.1303447265625,2.0603528022766113,0.29454535245895386,-0.9703218936920166
1772811390193225700,3.140225830078125,2.176999092102051,0.3440801203250885,-0.762595534324646
1772811390203106600,3.1501064453125,2.2718076705932617,0.3829622268676758,-0.5277048945426941
1772811390212987600,3.159987548828125,2.384725570678711,0.35047170519828796,-0.27949851751327515
1772811390222868500,3.169868408203125,2.4624898433685303,0.31851378083229065,-0.004660528153181076
1772811390232749600,3.17974951171875,2.4470434188842773,0.35579800605773926,0.318114310503006
1772811390242630400,3.18963037109375,2.4166834354400635,0.35526537895202637,0.6328997015953064
1772811390252511500,3.199511474609375,2.419346570968628,0.25672850012779236,0.9295755624771118
1772811390262392300,3.209392333984375,2.399106502532959,0.15286532044410706,1.2193272113800049
1772811390272273400,3.2192734375,2.3527677059173584,0.07137265801429749,1.492034673690796
1772811390282154200,3.229154296875,2.2984392642974854,-0.013315794058144093,1.722131609916687
1772811390292035300,3.239035400390625,2.2377192974090576,-0.10546109080314636,1.9005632400512695
1772811390301916200,3.248916259765625,2.1599550247192383,-0.20453059673309326,2.0251991748809814
1772811390311797200,3.25879736328125,2.036916971206665,-0.32384011149406433,2.072603464126587
1772811390321678000,3.268677978515625,1.8659422397613525,-0.4420843720436096,2.001763343811035
1772811390331559200,3.27855908203125,1.7034895420074463,-0.5837644338607788,1.843571662902832
1772811390341440000,3.28843994140625,1.5815168619155884,-0.7494128942489624,1.6741948127746582
1772811390351321000,3.298321044921875,1.5032199621200562,-0.8841687440872192,1.5548852682113647
1772811390361202000,3.308201904296875,1.457413673400879,-1.0221203565597534,1.4968284368515015
1772811390371083000,3.3180830078125,1.4105420112609863,-1.1313098669052124,1.4675337076187134
1772811390380963800,3.3279638671875,1.3210599422454834,-1.1520824432373047,1.397758960723877
1772811390390845000,3.337844970703125,1.1804451942443848,-1.1515498161315918,1.2598072290420532
1772811390400725800,3.347725830078125,0.983371376991272,-1.1472887992858887,1.067527174949646
1772811390410606800,3.35760693359375,0.7021418213844299,-1.1004172563552856,0.8518113493919373
1772811390420487700,3.36748779296875,0.3399522304534912,-1.0088045597076416,0.6115944385528564
1772811390430368800,3.37736865234375,-0.07550055533647537,-0.9203876852989197,0.35273537039756775
1772811390440249600,3.38724951171875,-0.5133238434791565,-0.8531429171562195,0.08801739662885666
1772811390450130700,3.397130615234375,-0.9287766218185425,-0.8020102977752686,-0.16072162985801697
1772811390460011500,3.407011474609375,-1.2845746278762817,-0.7578018307685852,-0.3838943541049957
1772811390469892600,3.416892578125,-1.5530210733413696,-0.7418228983879089,-0.5799028277397156
1772811390479773400,3.4267734375,-1.7468990087509155,-0.7620629072189331,-0.7391597032546997
1772811390489654500,3.436654541015625,-1.8843179941177368,-0.8190544843673706,-0.8563387393951416
1772811390499535000,3.44653515625,-1.9727349281311035,-0.9106671810150146,-0.9490166306495667
1772811390509415700,3.456415771484375,-2.0371832847595215,-1.0576735734939575,-1.024250864982605
1772811390519296300,3.466296142578125,-2.105360269546509,-1.2446272373199463,-1.0769814252853394
1772811390529176600,3.476176513671875,-2.1825919151306152,-1.4427663087844849,-1.1025477647781372
1772811390539057200,3.48605712890625,-2.2758023738861084,-1.6345137357711792,-1.10308039188385
1772811390548937500,3.4959375,-2.3945791721343994,-1.8182716369628906,-1.0892319679260254
1772811390558818000,3.505818115234375,-2.535726547241211,-1.9647454023361206,-1.0652635097503662
1772811390568698400,3.515698486328125,-2.6827330589294434,-2.0611517429351807,-1.0354361534118652
1772811390578579000,3.525578857421875,-2.8254783153533936,-2.099501132965088,-1.0002824068069458
1772811390588459500,3.53545947265625,-2.9410593509674072,-2.0776634216308594,-0.9651287794113159
1772811390598339800,3.54533984375,-3.027878522872925,-1.997235894203186,-0.9278445243835449
1772811390608220400,3.555220458984375,-3.0699563026428223,-1.861414909362793,-0.8841687440872192
1772811390618100700,3.565100830078125,-3.0582385063171387,-1.670199990272522,-0.8149266242980957
1772811390627981300,3.574981201171875,-2.9895288944244385,-1.4401031732559204,-0.7185202240943909
1772811390637862000,3.58486181640625,-2.8744804859161377,-1.2089409828186035,-0.6077328324317932
1772811390647742200,3.5947421875,-2.7226803302764893,-0.980974555015564,-0.4916191101074219
1772811390657622800,3.604622802734375,-2.5490424633026123,-0.7647260427474976,-0.38882118463516235
1772811390667503000,3.614503173828125,-2.3743393421173096,-0.5809680819511414,-0.3121222257614136
1772811390677383700,3.6243837890625,-2.2156150341033936,-0.4360922574996948,-0.25193482637405396
1772811390687264000,3.634263916015625,-2.0765981674194336,-0.3386206328868866,-0.2071937620639801
1772811390697144600,3.64414453125,-1.9610170125961304,-0.27843326330184937,-0.1651158481836319
1772811390707025000,3.65402490234375,-1.866208553314209,-0.25659534335136414,-0.1225053071975708
1772811390716905500,3.663905517578125,-1.7927052974700928,-0.2779006361961365,-0.0804273933172226
1772811390726786000,3.6737861328125,-1.7479642629623413,-0.3370227515697479,-0.027696851640939713
1772811390736666400,3.683666259765625,-1.7080168724060059,-0.422776460647583,0.023435797542333603
1772811390746547000,3.693546875,-1.6643410921096802,-0.5229112505912781,0.05752423033118248
1772811390756427300,3.70342724609375,-1.622795820236206,-0.6347638964653015,0.07510107755661011
1772811390766307800,3.713307861328125,-1.573261022567749,-0.7487471103668213,0.066046342253685
1772811390776188200,3.723188232421875,-1.5242589712142944,-0.834500789642334,0.026631588116288185
1772811390786068700,3.73306884765625,-1.4699305295944214,-0.8675239682197571,-0.06817686557769775
1772811390795949300,3.74294921875,-1.4187978506088257,-0.863262951374054,-0.2258358597755432
1772811390805829600,3.75282958984375,-1.3735241889953613,-0.8403597474098206,-0.42663803696632385
1772811390815710200,3.762710205078125,-1.3154672384262085,-0.774846076965332,-0.6444844603538513
1772811390825590500,3.772590576171875,-1.233441948890686,-0.6629933714866638,-0.8452866077423096
1772811390835471000,3.78247119140625,-1.131709337234497,-0.5229112505912781,-1.0109350681304932
1772811390845351700,3.7923515625,-1.0161283016204834,-0.37856802344322205,-1.137701392173767
1772811390855232000,3.80223193359375,-0.905340850353241,-0.23209428787231445,-1.2367709875106812
1772811390865112600,3.812112548828125,-0.7998797297477722,-0.07976160943508148,-1.314002513885498
1772811390874993000,3.821992919921875,-0.7098649740219116,0.04647212103009224,-1.3656678199768066
1772811390884873500,3.83187353515625,-0.6416881084442139,0.12956267595291138,-1.3752552270889282
1772811390894753800,3.84175390625,-0.5948165059089661,0.18868480622768402,-1.3550151586532593
1772811390904634400,3.85163427734375,-0.5394228100776672,0.24035008251667023,-1.3278509378433228
1772811390914515000,3.861514892578125,-0.4504733085632324,0.2802974581718445,-1.2974909543991089
1772811390924395300,3.871395263671875,-0.33063116669654846,0.3229080140590668,-1.2410320043563843
1772811390934275800,3.88127587890625,-0.2012016475200653,0.3793669641017914,-1.1361035108566284
1772811390944156200,3.89115625,-0.07070686668157578,0.43742382526397705,-0.9624655842781067
1772811390954036700,3.90103662109375,0.056592125445604324,0.4874912202358246,-0.6982802152633667
1772811390963917300,3.910917236328125,0.2041311264038086,0.5103943943977356,-0.32277485728263855
1772811390973797600,3.920797607421875,0.4123901426792145,0.4869585931301117,0.14753900468349457
1772811390983678200,3.93067822265625,0.6787060499191284,0.3878890872001648,0.6792386770248413
1772811390993558500,3.94055859375,0.9636639952659607,0.2270342856645584,1.2289146184921265
1772811391003439400,3.950439453125,1.2076094150543213,0.03368895873427391,1.7285232543945312
1772811391013320400,3.960320556640625,1.3908346891403198,-0.14687320590019226,2.1497018337249756
1772811391023201500,3.970201416015625,1.523992657661438,-0.313586950302124,2.4884555339813232
1772811391033082600,3.98008251953125,1.6262578964233398,-0.45846277475357056,2.7884604930877686
1772811391042963700,3.989963623046875,1.670466423034668,-0.5468796491622925,3.060102701187134
1772811391052844500,3.999844482421875,1.6433022022247314,-0.5815007090568542,3.302982807159424
1772811391062725600,4.0097255859375,1.5447652339935303,-0.5763075947761536,3.50058913230896
1772811391072606700,4.019606689453125,1.3743231296539307,-0.5571328401565552,3.624159574508667
1772811391082487800,4.02948779296875,1.1490198373794556,-0.5315665006637573,3.663574457168579
1772811391092368600,4.03936865234375,0.8906934857368469,-0.4937496483325958,3.6081807613372803
1772811391102249700,4.049249755859375,0.6286386251449585,-0.43196436762809753,3.4425323009490967
1772811391112130800,4.059130859375,0.36285537481307983,-0.31851378083229065,3.1368017196655273
1772811391122012000,4.069011962890625,0.15512900054454803,-0.2556632459163666,2.750643491744995
1772811391131892700,4.078892822265625,0.001731053227558732,-0.14860425889492035,2.284058094024658
1772811391141773800,4.08877392578125,-0.10319740325212479,-0.007456844672560692,1.7375779151916504
1772811391151655000,4.098655029296875,-0.15273216366767883,0.16724637150764465,1.1442261934280396
1772811391161536000,4.108535888671875,-0.17510269582271576,0.3456780016422272,0.5215796828269958
1772811391171416800,4.118416748046875,-0.19054901599884033,0.5352949500083923,-0.11385004222393036
1772811391181298000,4.1282978515625,-0.20279954373836517,0.7174549698829651,-0.716789186000824
1772811391191179000,4.138178955078125,-0.20812585949897766,0.8894950151443481,-1.2307788133621216
1772811391201060000,4.14806005859375,-0.18895111978054047,1.0391645431518555,-1.627589464187622
1772811391210941000,4.15794091796875,-0.14207951724529266,1.1590067148208618,-1.9072211980819702
1772811391220822000,4.167822021484375,-0.07976160943508148,1.2580761909484863,-2.1010992527008057
1772811391230703000,4.177703125,-0.008921582251787186,1.3432973623275757,-2.2150824069976807
1772811391240584200,4.187584228515625,0.06617949903011322,1.4105420112609863,-2.2732722759246826
1772811391250465300,4.19746533203125,0.1471395194530487,1.4632725715637207,-2.291914463043213
1772811391260346000,4.20734619140625,0.24248060584068298,1.5128073692321777,-2.2700765132904053
1772811391270227200,4.217227294921875,0.3506048619747162,1.5506242513656616,-2.2157480716705322
1772811391280108300,4.2271083984375,0.47950175404548645,1.5815168619155884,-2.148103952407837
1772811391289989400,4.2369892578125,0.6414217948913574,1.616137981414795,-2.0900471210479736
1772811391299870200,4.2468701171875,0.8251797556877136,1.6464979648590088,-2.0373165607452393
1772811391309751300,4.256751220703125,1.0243840217590332,1.6496937274932861,-1.9744659662246704
1772811391319632400,4.26663232421875,1.243828296661377,1.6443674564361572,-1.8812553882598877
1772811391329513200,4.27651318359375,1.4712620973587036,1.6177358627319336,-1.7539564371109009
1772811391339394300,4.286394287109375,1.7077505588531494,1.5676684379577637,-1.5968300104141235
1772811391349275400,4.296275390625,1.9410432577133179,1.4968284368515015,-1.4226593971252441
1772811391359156500,4.306156494140625,2.1594223976135254,1.3839104175567627,-1.24209725856781
1772811391369037600,4.31603759765625,2.3410496711730957,1.2475566864013672,-1.0450235605239868
1772811391378918400,4.32591845703125,2.4875235557556152,1.1117357015609741,-0.8255792260169983
1772811391388799500,4.335799560546875,2.6041698455810547,0.9652619361877441,-0.5928191542625427
1772811391398680600,4.3456806640625,2.6856625080108643,0.8161250352859497,-0.3339601159095764
1772811391408561700,4.355561767578125,2.73679518699646,0.6829670667648315,-0.0378168560564518
1772811391418442500,4.3654423828125,2.757035255432129,0.5924196839332581,0.2844253480434418
1772811391428323600,4.375323486328125,2.7351973056793213,0.550341784954071,0.6061349511146545
1772811391438204700,4.38520458984375,2.692054033279419,0.4576638340950012,0.948617160320282
1772811391448085800,4.395085693359375,2.647313117980957,0.35167011618614197,1.3363730907440186
1772811391457966600,4.404966552734375,2.583397150039673,0.2984069585800171,1.7118785381317139
1772811391467847700,4.41484765625,2.492849826812744,0.2744385302066803,2.0202722549438477
1772811391477728800,4.424728759765625,2.3778014183044434,0.2696448266506195,2.2141501903533936
1772811391487609900,4.43460986328125,2.2489044666290283,0.2744385302066803,2.297240734100342
1772811391497490700,4.44449072265625,2.111485481262207,0.26165536046028137,2.3046977519989014
1772811391507371800,4.454371826171875,1.9378474950790405,0.23289324343204498,2.2386512756347656
1772811391517252600,4.464252685546875,1.7359800338745117,0.2174469232559204,2.087916612625122
1772811391527133400,4.474133544921875,1.5357105731964111,0.199337437748909,1.862613320350647
1772811391537014300,4.48401416015625,1.3796494007110596,0.12956267595291138,1.607482671737671
1772811391546895400,4.493895263671875,1.280579924583435,0.04540685936808586,1.3773857355117798
1772811391556776200,4.503776123046875,1.2033482789993286,-0.006258423440158367,1.1733877658843994
1772811391576537900,4.523537841796875,1.0387650728225708,-0.07816371321678162,0.7286402583122253
1772811391586419000,4.5334189453125,0.9109334945678711,-0.11970898509025574,0.4431496262550354
1772811391596299800,4.5432998046875,0.7330344915390015,-0.15219952166080475,0.12836425006389618
1772811391606180600,4.5531806640625,0.5013396739959717,-0.16658058762550354,-0.17044216394424438
1772811391616061700,4.563061767578125,0.21105533838272095,-0.15060162544250488,-0.4186485707759857
1772811391625942500,4.572942626953125,-0.11331740766763687,-0.07603318244218826,-0.6620612740516663
1772811391635823400,4.5828232421875,-0.4414185583591461,-0.03502053767442703,-0.8596676588058472
1772811391645704400,4.592704345703125,-0.7807050347328186,-0.03981422260403633,-0.9878987669944763
1772811391655585300,4.602585205078125,-1.0928272008895874,-0.07763107866048813,-1.060336709022522
1772811391665466000,4.612466064453125,-1.3298484086990356,-0.111719511449337,-1.1221219301223755
1772811391675347000,4.622346923828125,-1.4944316148757935,-0.15326479077339172,-1.1673957109451294
1772811391685228000,4.63222802734375,-1.5956315994262695,-0.21451744437217712,-1.1833746433258057
1772811391695108900,4.64210888671875,-1.6462316513061523,-0.3205111622810364,-1.1887009143829346
1772811391704989700,4.65198974609375,-1.6616779565811157,-0.4751075208187103,-1.1876356601715088
1772811391714870500,4.66187060546875,-1.670199990272522,-0.6705833673477173,-1.1801788806915283
1772811391724751600,4.671751708984375,-1.694701075553894,-0.8804402947425842,-1.1636672019958496
1772811391734632400,4.681632568359375,-1.7548885345458984,-1.04182767868042,-1.1785808801651
1772811391744513300,4.69151318359375,-1.8385117053985596,-1.2447603940963745,-1.1876356601715088
1772811391754394000,4.70139404296875,-1.9588865041732788,-1.4487583637237549,-1.1503514051437378
1772811391764275200,4.711275146484375,-2.1117517948150635,-1.6112110614776611,-1.0837724208831787
1772811391774156000,4.721156005859375,-2.2694108486175537,-1.6996279954910278,-1.0214545726776123
1772811391784036900,4.731036865234375,-2.4180150032043457,-1.7262595891952515,-0.9767134785652161
1772811391793917700,4.740917724609375,-2.535726547241211,-1.686844825744629,-0.9271787405014038
1772811391803798800,4.750798828125,-2.634796142578125,-1.5861773490905762,-0.8600671291351318
1772811391813679600,4.7606796875,-2.7125604152679443,-1.43863844871521,-0.7753787040710449
1772811391823560400,4.770560546875,-2.7663562297821045,-1.2687288522720337,-0.6858965754508972
1772811391833441500,4.780441650390625,-2.7919225692749023,-1.0780466794967651,-0.5958817601203918
1772811391843322400,4.790322265625,-2.7951183319091797,-0.8701871633529663,-0.5214464664459229
1772811391853203200,4.800203125,-2.7951183319091797,-0.6672544479370117,-0.47297701239585876
1772811391863084300,4.810084228515625,-2.7999119758605957,-0.4712459444999695,-0.4442148804664612
1772811391872965000,4.819965087890625,-2.7924551963806152,-0.28802061080932617,-0.4303664565086365
1772811391882846000,4.829845947265625,-2.767954111099243,-0.11065424978733063,-0.4293012022972107
1772811391892726800,4.839726806640625,-2.7274742126464844,0.048602648079395294,-0.438355952501297
1772811391902608000,4.84960791015625,-2.6731457710266113,0.17909742891788483,-0.4420843720436096
1772811391912488700,4.85948876953125,-2.6081645488739014,0.2829606235027313,-0.4303664565086365
1772811391922369500,4.86936962890625,-2.530400276184082,0.3596596121788025,-0.40746331214904785
1772811391932250400,4.87925048828125,-2.4451792240142822,0.4017375111579895,-0.37017908692359924
1772811391942131500,4.88913134765625,-2.3509035110473633,0.4113248884677887,-0.3206443190574646
1772811391952012300,4.89901220703125,-2.238518238067627,0.3932153880596161,-0.2695116698741913
1772811391961893000,4.90889306640625,-2.1010992527008057,0.34687644243240356,-0.22530323266983032
1772811391971774000,4.91877392578125,-1.9519622325897217,0.27656903862953186,-0.1933453232049942
1772811391981655000,4.928655029296875,-1.7953685522079468,0.18708691000938416,-0.19174742698669434
1772811391991535900,4.938535888671875,-1.6472969055175781,0.09174582362174988,-0.22370533645153046
1772811392001417000,4.9484169921875,-1.5152041912078857,0.0022636849898844957,-0.28122955560684204
1772811392011298000,4.958298095703125,-1.3889704942703247,-0.08242476731538773,-0.3526022136211395
1772811392021179100,4.96817919921875,-1.2574104070663452,-0.14793847501277924,-0.4181159436702728
1772811392031060200,4.978060302734375,-1.107740879058838,-0.18415743112564087,-0.47883594036102295
1772811392040941300,4.98794140625,-0.922385036945343,-0.1878858506679535,-0.5592633485794067
1772811392050822400,4.997822509765625,-0.704006016254425,-0.17670059204101562,-0.6854971051216125
1772811392060703500,5.007703369140625,-0.48722490668296814,-0.1639174222946167,-0.8554065823554993
1772811392070584600,5.01758447265625,-0.271509051322937,-0.15219952166080475,-1.0482193231582642
1772811392080465700,5.027465576171875,-0.058456335216760635,-0.12024161964654922,-1.2287814617156982
1772811392090346800,5.0373466796875,0.1375521570444107,-0.06591317802667618,-1.368330955505371
1772811392100228000,5.04722802734375,0.3255711793899536,-0.001997369108721614,-1.4498236179351807
1772811392110109200,5.057109130859375,0.49814385175704956,0.056059494614601135,-1.4785857200622559
1772811392119990300,5.066990234375,0.6366280913352966,0.1290300488471985,-1.490303635597229
1772811392129871400,5.076871337890625,0.7490134239196777,0.20200060307979584,-1.53504478931427
1772811392139752400,5.08675244140625,0.8592681884765625,0.3032006323337555,-1.6213310956954956
1772811392149633500,5.096633544921875,0.9775124192237854,0.41665118932724,-1.7204005718231201
1772811392159514600,5.1065146484375,1.1133335828781128,0.5157207250595093,-1.792305827140808
1772811392169395700,5.116395751953125,1.2784494161605835,0.5807017683982849,-1.7837837934494019
1772811392179276800,5.12627685546875,1.4755231142044067,0.6131923198699951,-1.66660475730896
1772811392189158000,5.136157958984375,1.7066853046417236,0.6110618114471436,-1.4381057024002075
1772811392199039000,5.1460390625,1.9591528177261353,0.5524722933769226,-1.1025477647781372
1772811392208920000,5.155920166015625,2.214816093444824,0.43263015151023865,-0.654604434967041
1772811392218801400,5.165801513671875,2.449706554412842,0.2834932506084442,-0.10546109080314636
1772811392228682500,5.1756826171875,2.6489109992980957,0.1375521570444107,0.491086483001709
1772811392238563600,5.1855634765625,2.7841994762420654,-0.03289001062512398,1.1020151376724243
1772811392248444700,5.195444580078125,2.8337340354919434,-0.21025638282299042,1.709881067276001
1772811392258325800,5.20532568359375,2.810831069946289,-0.35939326882362366,2.2872538566589355
1772811392268206800,5.215206787109375,2.730936288833618,-0.4510059356689453,2.796449899673462
1772811392278088000,5.225087890625,2.5977783203125,-0.5090628266334534,3.2049784660339355
1772811392287969000,5.234968994140625,2.399106502532959,-0.510660707950592,3.5192313194274902
1772811392297850000,5.24485009765625,2.1391823291778564,-0.47284385561943054,3.7067174911499023
1772811392307731200,5.254731201171875,1.839310646057129,-0.4063980281352997,3.748795509338379
1772811392317612300,5.2646123046875,1.5383737087249756,-0.3057306408882141,3.6257574558258057
1772811392327493400,5.274493408203125,1.298689365386963,-0.1880190074443817,3.331744909286499
1772811392337374500,5.28437451171875,1.1383671760559082,-0.043675802648067474,2.914161443710327
1772811392347255600,5.294255615234375,1.0339714288711548,0.14540846645832062,2.414552927017212
1772811392357137000,5.304136962890625,0.9583377242088318,0.36059170961380005,1.861148476600647
1772811392367018000,5.31401806640625,0.890160858631134,0.5715138912200928,1.273655652999878
1772811392376899000,5.323899169921875,0.7969502806663513,0.7771097421646118,0.6584660410881042
1772811392386780200,5.3337802734375,0.6707165241241455,0.9257140159606934,0.06564686447381973
1772811392396661200,5.3436611328125,0.5130575299263,1.0333056449890137,-0.44940805435180664
1772811392406542300,5.353542236328125,0.3458111584186554,1.098819375038147,-0.8760460615158081
1772811392416423400,5.36342333984375,0.1945437490940094,1.1318424940109253,-1.2153325080871582
1772811392426304500,5.373304443359375,0.07416897267103195,1.1483540534973145,-1.484311580657959
1772811392436185600,5.383185546875,-0.02383527159690857,1.145158290863037,-1.7064189910888672
1772811392446066700,5.393066650390625,-0.09840371459722519,1.1090724468231201,-1.8977669477462769
1772811392455947800,5.40294775390625,-0.15273216366767883,1.062200903892517,-2.078861713409424
1772811392465828900,5.412828857421875,-0.17403742671012878,1.0302430391311646,-2.2535650730133057
1772811392475710200,5.422710205078125,-0.16711321473121643,1.020655632019043,-2.4240071773529053
1772811392485591300,5.43259130859375,-0.150068998336792,1.0238513946533203,-2.5720787048339844
1772811392495472400,5.442472412109375,-0.11065424978733063,1.0366345643997192,-2.682866096496582
1772811392505353200,5.452353271484375,-0.03928159177303314,1.067527174949646,-2.757434606552124
1772811392515234300,5.462234375,0.0576573871076107,1.1143988370895386,-2.7957842350006104
1772811392525115100,5.472115234375,0.1705753207206726,1.1740535497665405,-2.8048388957977295
1772811392534996200,5.481996337890625,0.3042658865451813,1.2369041442871094,-2.7787399291992188
1772811392544877300,5.491877197265625,0.4491417407989502,1.318396806716919,-2.7057693004608154
1772811392554758100,5.501758056640625,0.617453396320343,1.427053689956665,-2.5529041290283203
1772811392564639200,5.51163916015625,0.8416913151741028,1.5852452516555786,-2.3174808025360107
1772811392574520300,5.521520263671875,1.121855616569519,1.7636768817901611,-2.039447069168091
1772811392584401200,5.531401123046875,1.427586317062378,1.9543590545654297,-1.7917732000350952
1772811392594282200,5.5412822265625,1.7013590335845947,2.1599550247192383,-1.6522237062454224
1772811392604163300,5.551163330078125,1.9197380542755127,2.3277339935302734,-1.6628763675689697
1772811392614044200,5.561044189453125,2.0837886333465576,2.4401192665100098,-1.8072196245193481
1772811392623925200,5.57092529296875,2.216413974761963,2.5019044876098633,-2.003760576248169
1772811392633806300,5.580806396484375,2.3314623832702637,2.528536081314087,-2.1417124271392822
1772811392643687200,5.590687255859375,2.4422497749328613,2.4859256744384766,-2.143310308456421
1772811392653568300,5.600568359375,2.553569793701172,2.375138282775879,-1.980857491493225
1772811392663449300,5.610449462890625,2.6686182022094727,2.1940433979034424,-1.6634089946746826
1772811392673330200,5.620330078125,2.791123628616333,1.9612833261489868,-1.2309119701385498
1772811392683211300,5.630211181640625,2.8736815452575684,1.7109463214874268,-0.7749792337417603
1772811392693092400,5.64009228515625,2.905106782913208,1.34822416305542,-0.290683776140213
1772811392702973200,5.64997314453125,2.8726162910461426,0.9098681807518005,0.20200060307979584
1772811392712854300,5.659854248046875,2.77194881439209,0.4454133212566376,0.6414217948913574
1772811392722735000,5.669735107421875,2.5908541679382324,-0.014247899875044823,0.9274450540542603
1772811392732616200,5.6796162109375,2.3181467056274414,-0.43928804993629456,1.0243840217590332
1772811392742497300,5.689497314453125,2.0001654624938965,-0.8350334167480469,0.9471524357795715
1772811392752378000,5.699378173828125,1.7178705930709839,-1.2142672538757324,0.7777755260467529
1772811392762259200,5.70925927734375,1.5223947763442993,-1.5375747680664062,0.6318344473838806
1772811392772140300,5.719140380859375,1.3791167736053467,-1.7405074834823608,0.5583312511444092
1772811392782021000,5.729021240234375,1.2571440935134888,-1.861414909362793,0.5583312511444092
1772811392791902200,5.738902099609375,1.1618030071258545,-1.9620822668075562,0.5897565484046936
1772811392801783300,5.748783203125,1.0712556838989258,-2.04996657371521,0.622247040271759
1772811392811664100,5.7586640625,0.9572724103927612,-2.1303939819335938,0.643552303314209
1772811392821545200,5.768545166015625,0.7506113052368164,-2.17779803276062,0.6467481255531311
1772811392831426300,5.77842626953125,0.43209752440452576,-2.197505474090576,0.6467481255531311
1772811392841307100,5.78830712890625,0.028362641111016273,-2.2246696949005127,0.6679202318191528
1772811392851188200,5.798188232421875,-0.4094606637954712,-2.267280340194702,0.7153244614601135
1772811392861069000,5.808069091796875,-0.8408923745155334,-2.302433967590332,0.8064044713973999
1772811392870950100,5.8179501953125,-1.2249199151992798,-2.282726526260376,0.9337034821510315
1772811392880831200,5.827831298828125,-1.5322483777999878,-2.202299118041992,1.0796445608139038
1772811392890712000,5.837712158203125,-1.7634105682373047,-2.0616843700408936,1.2133351564407349
1772811392900593200,5.84759326171875,-1.916275978088379,-1.878991723060608,1.3065457344055176
1772811392910474200,5.85747412109375,-1.9897791147232056,-1.6616779565811157,1.3374383449554443
1772811392920355000,5.86735498046875,-1.9913769960403442,-1.4262547492980957,1.29216468334198
1772811392930236200,5.877236083984375,-1.9487664699554443,-1.1950925588607788,1.170192003250122
1772811392940117200,5.8871171875,-1.883785367012024,-0.9735177159309387,0.9661940336227417
1772811392949998000,5.896998046875,-1.80708646774292,-0.771117627620697,0.6924213171005249
1772811392959879200,5.906879150390625,-1.739974856376648,-0.5905554890632629,0.3781685531139374
1772811392969760300,5.91676025390625,-1.6861790418624878,-0.445679634809494,0.05752423033118248
1772811392979641000,5.92664111328125,-1.6467642784118652,-0.34607750177383423,-0.2167811244726181
1772811392989522200,5.936522216796875,-1.6536884307861328,-0.2864227294921875,-0.4053327739238739
1772811392999403000,5.946403076171875,-1.720267415046692,-0.26511746644973755,-0.4862928092479706
1772811393009283800,5.956283935546875,-1.841707468032837,-0.2869553565979004,-0.4846948981285095
1772811393019164400,5.966164306640625,-2.0020296573638916,-0.34554484486579895,-0.42237699031829834
1772811393029045200,5.976045166015625,-2.1868529319763184,-0.4371575117111206,-0.30466535687446594
1772811393038925800,5.98592578125,-2.381263494491577,-0.5458143949508667,-0.15286532044410706
1772811393048806700,5.995806640625,-2.5644888877868652,-0.6560691595077515,0.009587371721863747
1772811393058687500,6.0056875,-2.724278211593628,-0.7460839152336121,0.16245268285274506
1772811393068568000,6.015568115234375,-2.8467836380004883,-0.8105323910713196,0.27057692408561707
1772811393078449000,6.025448974609375,-2.9410593509674072,-0.8520776629447937,0.31372010707855225
1772811393088329500,6.03532958984375,-3.0140299797058105,-0.8616650104522705,0.2966758906841278
1772811393098210300,6.045210205078125,-3.056107997894287,-0.8446208238601685,0.23435798287391663
1772811393108091100,6.055091064453125,-3.071554183959961,-0.8014776706695557,0.14860425889492035
1772811393117971700,6.0649716796875,-3.0545101165771484,-0.7380944490432739,0.05326317623257637
1772811393127852500,6.0748525390625,-3.012432098388672,-0.6645912528038025,-0.04474106803536415
1772811393137733000,6.084733154296875,-2.9538426399230957,-0.5937512516975403,-0.1368863582611084
1772811393147614000,6.094614013671875,-2.883002519607544,-0.5213133096694946,-0.20666112005710602
1772811393157494800,6.104494873046875,-2.79884672164917,-0.44035330414772034,-0.26152220368385315
1772811393167375400,6.114375244140625,-2.699777126312256,-0.3711111843585968,-0.30945906043052673
1772811393177256200,6.124256103515625,-2.594848871231079,-0.3183806240558624,-0.34621065855026245
1772811393187137000,6.134136962890625,-2.4787349700927734,-0.2757700979709625,-0.3760380148887634
1772811393197017600,6.144017578125,-2.3434464931488037,-0.2523342967033386,-0.40799593925476074
1772811393206898400,6.1538984375,-2.188450813293457,-0.23848587274551392,-0.4479433000087738
1772811393216779000,6.163779052734375,-2.0270633697509766,-0.22783324122428894,-0.5139896273612976
1772811393226659800,6.173659912109375,-1.871534824371338,-0.21398481726646423,-0.6183854937553406
1772811393236540700,6.183540771484375,-1.7064189910888672,-0.20386481285095215,-0.7568697333335876
1772811393246421200,6.193421142578125,-1.5370421409606934,-0.182559534907341,-0.9139961004257202
1772811393256302000,6.203302001953125,-1.3586105108261108,-0.15166689455509186,-1.0684592723846436
1772811393266182700,6.2131826171875,-1.149818778038025,-0.12077425420284271,-1.2021498680114746
1772811393276063500,6.2230634765625,-0.9154608249664307,-0.1026647686958313,-1.3006867170333862
1772811393285944300,6.2329443359375,-0.6608628630638123,-0.09361003339290619,-1.3576784133911133
1772811393295825000,6.242824951171875,-0.4137217104434967,-0.08242476731538773,-1.3869731426239014
1772811393305705700,6.252705810546875,-0.18522270023822784,-0.06751107424497604,-1.3960278034210205
1772811393315586600,6.262586669921875,0.009720529429614544,-0.05206475406885147,-1.3912341594696045
1772811393325467100,6.272467041015625,0.16897742450237274,-0.03448790684342384,-1.3859078884124756
1772811393335348000,6.282347900390625,0.2840258777141571,-0.042477384209632874,-1.3912341594696045
1772811393345228500,6.292228515625,0.3681817054748535,-0.07337002456188202,-1.4588783979415894
1772811393355109400,6.302109375,0.44754382967948914,-0.09946898370981216,-1.6026890277862549
1772811393364990200,6.311990234375,0.5556681156158447,-0.09733845293521881,-1.7901753187179565
1772811393374870800,6.321870849609375,0.697880744934082,-0.054727911949157715,-1.9457038640975952
1772811393384751600,6.331751708984375,0.861931324005127,0.001731053227558732,-2.024533271789551
1772811393394632200,6.341632080078125,1.0313082933425903,0.04966791346669197,-2.0074892044067383
1772811393404513000,6.351512939453125,1.2076094150543213,0.07736476510763168,-1.8913754224777222
1772811393414393900,6.361393798828125,1.3972262144088745,0.08961529284715652,-1.6719311475753784
1772811393424274400,6.3712744140625,1.600158929824829,0.11624687910079956,-1.3235899209976196
1772811393434155300,6.3811552734375,1.8164074420928955,0.12689951062202454,-0.8468844890594482
1772811393444035800,6.391035888671875,1.998034954071045,0.11305109411478043,-0.23808640241622925
1772811393453916700,6.400916748046875,2.1248011589050293,0.11518161743879318,0.47457489371299744
1772811393463797500,6.410797607421875,2.2089571952819824,0.08002792298793793,1.2144004106521606
1772811393473678000,6.420677978515625,2.240915060043335,0.007590002380311489,1.9201375246047974
1772811393483559000,6.430558837890625,2.2121529579162598,-0.06538055092096329,2.534794569015503
1772811393493439700,6.440439697265625,2.1152138710021973,-0.12397003918886185,3.029609441757202
1772811393503320300,6.4503203125,1.9362496137619019,-0.1687111109495163,3.4088432788848877
1772811393513201400,6.460201416015625,1.6800537109375,-0.21877849102020264,3.690605401992798
1772811393523082200,6.470082275390625,1.3796494007110596,-0.271509051322937,3.8946034908294678
1772811393532963000,6.479963134765625,1.0856367349624634,-0.3194459080696106,4.002727508544922
1772811393542844000,6.489843994140625,0.8384955525398254,-0.31784799695014954,4.001129627227783
1772811393552724700,6.499724853515625,0.6467481255531311,-0.27896589040756226,3.8748960494995117
1772811393562605600,6.50960546875,0.5103943943977356,-0.19108164310455322,3.614971876144409
1772811393572486400,6.519486328125,0.4491417407989502,-0.05259738489985466,3.194725275039673
1772811393582367200,6.5293671875,0.4539354145526886,0.12636688351631165,2.609895706176758
1772811393592248000,6.539248046875,0.4954806864261627,0.29947221279144287,1.8935059309005737
1772811393602129000,6.54912890625,0.525840699672699,0.49867647886276245,1.1041456460952759
1772811393612009700,6.559009765625,0.5141227841377258,0.7554050087928772,0.26258745789527893
1772811393621890600,6.568890625,0.47470805048942566,1.0094703435897827,-0.5677854418754578
1772811393631771400,6.578771484375,0.39534592628479004,1.20920729637146,-1.296425700187683
1772811393641652200,6.58865234375,0.2936132550239563,1.3988242149353027,-1.8636785745620728
1772811393651533000,6.598532958984375,0.2041311264038086,1.5697989463806152,-2.2844576835632324
1772811393661414000,6.608413818359375,0.13222584128379822,1.7056200504302979,-2.583264112472534
1772811393671294700,6.618294677734375,0.0768321305513382,1.7940369844436646,-2.796849489212036
1772811393681175800,6.62817578125,0.05020054429769516,1.8771275281906128,-2.9433231353759766
1772811393691056600,6.638056640625,0.07310371100902557,1.9389127492904663,-3.045055866241455
1772811393700937500,6.6479375,0.12956267595291138,1.9745991230010986,-3.115363121032715
1772811393710818300,6.657818359375,0.2083921730518341,1.9927085638046265,-3.173419952392578
1772811393720699100,6.66769921875,0.3042658865451813,1.990045428276062,-3.228813648223877
1772811393730580000,6.677580078125,0.4145206809043884,1.9463696479797363,-3.263434886932373
1772811393740460800,6.687460693359375,0.5460807085037231,1.8702032566070557,-3.2618370056152344
1772811393750341600,6.697341552734375,0.7111965417861938,1.7578179836273193,-3.2021820545196533
1772811393760222500,6.707222412109375,0.9040092825889587,1.5969631671905518,-3.0775463581085205
1772811393770103300,6.717103271484375,1.1207903623580933,1.3908346891403198,-2.882070541381836
1772811393779984100,6.726984130859375,1.3460936546325684,1.154346227645874,-2.6258745193481445
1772811393789865000,6.736864990234375,1.5761905908584595,0.9082702994346619,-2.306828260421753
1772811393799745800,6.746745849609375,1.801493763923645,0.6621944308280945,-1.9281269311904907
1772811393809627000,6.756626953125,2.0305254459381104,0.439554363489151,-1.4897710084915161
1772811393819507700,6.7665078125,2.245176076889038,0.25792694091796875,-0.9890971779823303
1772811393829388500,6.776388427734375,2.428934097290039,0.12530162930488586,-0.44101908802986145
1772811393839269400,6.786269287109375,2.5493087768554688,0.012383688241243362,0.11930951476097107
1772811393849150200,6.796150146484375,2.596713066101074,-0.07283739000558853,0.6572675704956055
1772811393859031000,6.806031005859375,2.5802013874053955,-0.10053424537181854,1.1435604095458984
1772811393868911900,6.815911865234375,2.5264055728912354,-0.0696416050195694,1.5515563488006592
1772811393878792700,6.825792724609375,2.444912910461426,-0.029161589220166206,1.8785922527313232
1772811393888673500,6.835673583984375,2.3586266040802,0.02569948323071003,2.1145482063293457
1772811393898554400,6.845554443359375,2.285655975341797,0.09867003560066223,2.262087106704712
1772811393908435200,6.855435302734375,2.2430455684661865,0.16365110874176025,2.3632872104644775
1772811393918316000,6.86531591796875,2.235055923461914,0.19827216863632202,2.4218766689300537
1772811393928196900,6.87519677734375,2.220142364501953,0.22437113523483276,2.39524507522583
1772811393938077700,6.88507763671875,2.1929781436920166,0.2515353560447693,2.2333250045776367
1772811393947958500,6.89495849609375,2.1738033294677734,0.254731148481369,1.9291921854019165
1772811393957839400,6.90483935546875,2.1674118041992188,0.21584902703762054,1.519598364830017
1772811393967720200,6.91472021484375,2.1977717876434326,0.12583425641059875,1.0775140523910522
1772811393977601300,6.924601318359375,2.270209789276123,-0.0073236869648098946,0.6791055202484131
1772811393987482000,6.934482177734375,2.3676812648773193,-0.15592794120311737,0.3808317184448242
1772811393997362700,6.94436279296875,2.4566309452056885,-0.32157641649246216,0.1789642721414566
1772811394007243000,6.954242919921875,2.5114920139312744,-0.5383575558662415,0.03728422522544861
1772811394017123600,6.96412353515625,2.514155149459839,-0.7705850005149841,-0.07030738890171051
1772811394027004000,6.97400390625,2.4560983180999756,-0.9948229789733887,-0.13209268450737
1772811394036884200,6.98388427734375,2.309624433517456,-1.1705914735794067,-0.12463583052158356
1772811394046764500,6.9937646484375,2.0395801067352295,-1.270726203918457,-0.03834948688745499
1772811394056645000,7.00364501953125,1.6395736932754517,-1.301086187362671,0.10546109080314636
1772811394066525400,7.013525390625,1.1271820068359375,-1.2840420007705688,0.28549063205718994
1772811394076405800,7.02340576171875,0.5476785898208618,-1.2478231191635132,0.4660528004169464
1772811394086286000,7.0332861328125,-0.04407527670264244,-1.2073431015014648,0.6215812563896179
1772811394096166400,7.04316650390625,-0.6086649298667908,-1.1631345748901367,0.7249118089675903
1772811394106047000,7.053046875,-1.1162630319595337,-1.1002840995788574,0.7510107755661011
1772811394115927300,7.06292724609375,-1.5455641746520996,-1.0262482166290283,0.6956170797348022
1772811394125807600,7.0728076171875,-1.89603590965271,-0.9420924186706543,0.575242280960083
1772811394135688000,7.08268798828125,-2.1415791511535645,-0.8643282055854797,0.3952127695083618
1772811394145568300,7.092568359375,-2.288052797317505,-0.7753787040710449,0.15393057465553284
1772811394155448800,7.10244873046875,-2.3487730026245117,-0.6704502105712891,-0.16618111729621887
1772811394165329200,7.1123291015625,-2.3450443744659424,-0.5772396922111511,-0.5539370179176331
1772811394175209500,7.12220947265625,-2.3056297302246094,-0.49148595333099365,-0.9773792624473572
1772811394185089800,7.13208984375,-2.273671865463257,-0.4185154139995575,-1.3901689052581787
1772811394194970000,7.14197021484375,-2.272606611251831,-0.35992592573165894,-1.7443690299987793
1772811394204850700,7.1518505859375,-2.3098907470703125,-0.32210904359817505,-2.01334810256958
1772811394214731000,7.16173095703125,-2.3780677318573,-0.29867327213287354,-2.1747355461120605
1772811394224611300,7.171611328125,-2.4840614795684814,-0.30346694588661194,-2.23758602142334
1772811394234491600,7.18149169921875,-2.6166865825653076,-0.3434143364429474,-2.2088239192962646
1772811394244372200,7.191372314453125,-2.743453025817871,-0.40093857049942017,-2.1252007484436035
1772811394254252500,7.20125244140625,-2.843055248260498,-0.4659196436405182,-2.0106849670410156
1772811394264132900,7.2111328125,-2.893655300140381,-0.5293028354644775,-1.8706027269363403
1772811394274013200,7.22101318359375,-2.88779616355896,-0.5783049464225769,-1.7145416736602783
1772811394283893500,7.2308935546875,-2.8313372135162354,-0.6118607521057129,-1.545164704322815
1772811394293774000,7.240774169921875,-2.7402572631835938,-0.6241112947463989,-1.368330955505371
1772811394303654400,7.250654296875,-2.640655040740967,-0.6107954978942871,-1.18830144405365
1772811394313534700,7.26053466796875,-2.5474445819854736,-0.5916207432746887,-1.0226529836654663
1772811394323415000,7.2704150390625,-2.476604461669922,-0.5735112428665161,-0.8735160827636719
1772811394333295400,7.28029541015625,-2.4339940547943115,-0.5623259544372559,-0.7366297245025635
1772811394343176000,7.290176025390625,-2.4249391555786133,-0.5575323104858398,-0.6034718155860901
1772811394353056300,7.30005615234375,-2.4350593090057373,-0.5484775304794312,-0.4703138470649719
1772811394362936600,7.3099365234375,-2.4494402408599854,-0.5436838865280151,-0.3392864465713501
1772811394372817000,7.31981689453125,-2.4627561569213867,-0.5383575558662415,-0.22370533645153046
1772811394382697500,7.329697509765625,-2.4648866653442383,-0.5458143949508667,-0.141680046916008
1772811394392577800,7.339577880859375,-2.4531686305999756,-0.5649891495704651,-0.1086568832397461
1772811394402458000,7.3494580078125,-2.436124563217163,-0.5799028277397156,-0.11025477200746536
1772811394412338400,7.35933837890625,-2.4046993255615234,-0.5633912682533264,-0.14487583935260773
1772811394422218800,7.36921875,-2.3540992736816406,-0.5447491407394409,-0.20612849295139313
1772811394432099300,7.379099365234375,-2.3050971031188965,-0.5090628266334534,-0.2924148440361023
1772811394441979600,7.388979736328125,-2.258758068084717,-0.4467448890209198,-0.37976643443107605
1772811394451860000,7.39885986328125,-2.203364372253418,-0.3380880057811737,-0.46978121995925903
1772811394461740300,7.408740234375,-2.113349676132202,-0.21931113302707672,-0.554469645023346
1772811394471620600,7.41862060546875,-1.997235894203186,-0.10106687992811203,-0.6551370620727539
1772811394481501200,7.428501220703125,-1.8694043159484863,0.011851056478917599,-0.7653918266296387
1772811394491381500,7.438381591796875,-1.7405074834823608,0.10399635136127472,-0.8942887187004089
1772811394501262000,7.448261962890625,-1.6254589557647705,0.17963005602359772,-1.024250864982605
1772811394511142700,7.458142578125,-1.5354442596435547,0.26325324177742004,-1.145158290863037
1772811394521023200,7.468023193359375,-1.4709957838058472,0.35273537039756775,-1.2282488346099854
1772811394530903800,7.47790380859375,-1.4193304777145386,0.43156489729881287,-1.254880428314209
1772811394540784400,7.487784423828125,-1.3719263076782227,0.5024049282073975,-1.2522172927856445
1772811394550665000,7.4976650390625,-1.3277177810668945,0.5796365141868591,-1.2745877504348755
1772811394560545800,7.5075458984375,-1.287770390510559,0.6446176171302795,-1.3480910062789917
1772811394570426400,7.51742626953125,-1.2371704578399658,0.6787060499191284,-1.460476279258728
1772811394580307000,7.527306884765625,-1.1711241006851196,0.7122617959976196,-1.5856447219848633
1772811394590187500,7.5371875,-1.0491514205932617,0.7548723816871643,-1.7108131647109985
1772811394600068000,7.547068115234375,-0.8584692478179932,0.7852323651313782,-1.7901753187179565
1772811394609948700,7.55694873046875,-0.6273070573806763,0.7974829077720642,-1.7539564371109009
1772811394619829500,7.56682958984375,-0.3567301332950592,0.7825692296028137,-1.574459433555603
1772811394629709800,7.576709716796875,-0.05259738489985466,0.7447523474693298,-1.2687288522720337
1772811394639590700,7.586590576171875,0.273905873298645,0.6957502365112305,-0.8894950151443481
1772811394649471200,7.59647119140625,0.6147902011871338,0.7090660333633423,-0.49321702122688293
1772811394659351800,7.606351806640625,0.9562071561813354,0.861931324005127,-0.14061477780342102
1772811394669232400,7.616232421875,1.2699272632598877,1.1016156673431396,0.11504846066236496
1772811394679113000,7.626113037109375,1.5271884202957153,1.323190450668335,0.2258358597755432
1772811394688993500,7.63599365234375,1.7072179317474365,1.4771209955215454,0.1693768948316574
1772811394698874400,7.645874267578125,1.7413064241409302,1.6614116430282593,-0.0414121188223362
1772811394708755000,7.6557548828125,1.6156052350997925,2.052896022796631,-0.40093857049942017
1772811394718635500,7.665635498046875,1.479251503944397,2.7735466957092285,-0.7652586698532104
1772811394728516000,7.67551611328125,1.2475566864013672,3.351452112197876,-1.23610520362854
1772811394738396700,7.685396728515625,0.9056071639060974,3.833483934402466,-1.7900421619415283
1772811394748277200,7.69527734375,0.41878172755241394,4.169574737548828,-2.3311960697174072
1772811394758158000,7.705157958984375,-0.1165132001042366,4.238816738128662,-2.769019365310669
1772811394768038700,7.71503857421875,-0.5623259544372559,4.061450481414795,-3.0481183528900146
1772811394777919200,7.724919189453125,-0.8142607808113098,3.7557196617126465,-3.1967227458953857
1772811394787799800,7.7347998046875,-0.8424903154373169,3.4425323009490967,-3.2718236446380615
1772811394797680400,7.744680419921875,-0.7514102458953857,3.1368017196655273,-3.338935375213623
1772811394807561000,7.75456103515625,-0.6651239395141602,2.8044393062591553,-3.4214932918548584
1772811394817441800,7.76444189453125,-0.5836312770843506,2.532264471054077,-3.487539529800415
1772811394827322400,7.774322265625,-0.5271722674369812,2.3857908248901367,-3.516834259033203
1772811394837203000,7.784202880859375,-0.5362270474433899,2.478468656539917,-3.507246971130371
1772811394847083500,7.79408349609375,-0.6523407697677612,2.7900583744049072,-3.4088432788848877
1772811394856964000,7.803964111328125,-0.7562039494514465,3.1905972957611084,-3.2559778690338135
1772811394866844700,7.8138447265625,-0.7982818484306335,3.7946019172668457,-2.9694221019744873
1772811394876725200,7.823725341796875,-0.8371639847755432,4.31977653503418,-2.58805775642395
1772811394886605800,7.833605712890625,-0.8994818925857544,4.726707458496094,-2.1539628505706787
1772811394896486700,7.843486572265625,-0.8627303242683411,4.763459205627441,-1.7566195726394653
1772811394906367200,7.8533671875,-0.7572692036628723,4.592483997344971,-1.3725920915603638
1772811394916247800,7.863247802734375,-0.7695197463035583,4.370909214019775,-1.024250864982605
1772811394926128400,7.87312841796875,-0.8499471545219421,4.0039262771606445,-0.7813708186149597
1772811394936009000,7.883009033203125,-0.9266461133956909,3.6502585411071777,-0.637560248374939
1772811394945889500,7.8928896484375,-1.0267808437347412,3.431346893310547,-0.4719117283821106
1772811394955770400,7.902770263671875,-1.127448320388794,3.2641005516052246,-0.2173137664794922
1772811394965651000,7.91265087890625,-1.1956251859664917,3.102713108062744,0.13262531161308289
1772811394975531500,7.922531494140625,-1.248888373374939,3.014296293258667,0.5139896273612976
1772811394985412000,7.932412109375,-1.3341094255447388,2.9775447845458984,0.8442213535308838
1772811394995292700,7.942292724609375,-1.3895031213760376,2.9567720890045166,1.086036205291748
1772811395005173800,7.952173828125,-1.3751220703125,3.019622564315796,1.2335751056671143
1772811395015054600,7.9620546875,-1.2899010181427002,3.1245510578155518,1.296425700187683
1772811395024935700,7.971935791015625,-1.1764503717422485,3.3301470279693604,1.3827120065689087
1772811395034816800,7.981816650390625,-1.0672608613967896,3.4819469451904297,1.5073479413986206
1772811395044697600,7.991697509765625,-0.8403597474098206,3.4196290969848633,1.7070847749710083
1772811395054578700,8.00157861328125,-0.5665870308876038,3.6161701679229736,1.9457038640975952
1772811395064459500,8.01145947265625,-0.3087932765483856,3.970370292663574,2.0847206115722656
1772811395074340600,8.021340576171875,-0.03981422260403633,4.233490467071533,2.142245054244995
1772811395084221700,8.0312216796875,0.21478375792503357,4.379964351654053,2.1417124271392822
1772811395094102500,8.0411025390625,0.4411522448062897,4.494480133056641,2.112417459487915
1772811395103983600,8.050983642578124,0.6392912864685059,4.591951370239258,2.0756659507751465
1772811395113864400,8.060864501953125,0.8012113571166992,4.58502721786499,2.0463712215423584
1772811395123745500,8.07074560546875,0.916259765625,4.626572608947754,2.0596871376037598
1772811395133626600,8.080626708984376,1.003078818321228,4.808199882507324,2.132657527923584
1772811395143507500,8.090507568359374,1.0957566499710083,5.040960311889648,2.2445101737976074
1772811395153388500,8.100388427734375,1.1980220079421997,5.129909515380859,2.3446450233459473
1772811395163269400,8.110269287109375,1.2816451787948608,4.860930442810059,2.315882921218872
1772811395173150500,8.120150390625,1.189499855041504,3.485142707824707,1.7422385215759277
1772811395183031600,8.130031494140624,1.0169272422790527,2.176466464996338,1.254880428314209
1772811395192912400,8.139912353515625,1.0147966146469116,2.125866413116455,1.4769878387451172
1772811395202793500,8.14979345703125,1.0930935144424438,2.498176097869873,1.9361164569854736
1772811395212674300,8.15967431640625,1.1335735321044922,2.483795166015625,2.171539783477783
1772811395222555400,8.169555419921876,1.087767243385315,1.868072748184204,2.0506322383880615
1772811395232436500,8.1794365234375,1.05527663230896,1.4430326223373413,1.9286595582962036
1772811395242317300,8.1893173828125,1.0792450904846191,1.4089441299438477,1.9341191053390503
1772811395252198400,8.199198486328125,1.0835061073303223,1.3876389265060425,1.876062273979187
1772811395262079200,8.209079345703126,1.024916648864746,1.184706211090088,1.6811189651489258
1772811395271960300,8.218960205078124,0.9066724181175232,0.9428913593292236,1.4829800128936768
1772811395281841400,8.22884130859375,0.768720805644989,0.8592681884765625,1.390302062034607
1772811395291722200,8.23872216796875,0.6446176171302795,0.843156099319458,1.3498220443725586
1772811395301603300,8.248603271484376,0.5588638782501221,0.839427649974823,1.2965588569641113
1772811395311484200,8.258484130859374,0.5071985721588135,0.8351665735244751,1.1996198892593384
1772811395321365200,8.268365234375,0.4384891092777252,0.9006803035736084,1.042493462562561
1772811395331246300,8.278246337890625,0.37191012501716614,1.096156120300293,0.8629966378211975
1772811395341127200,8.288127197265625,0.3495396077632904,1.2527499198913574,0.697880744934082
1772811395351008300,8.29800830078125,0.33728906512260437,1.3113393783569336,0.5599291324615479
1772811395360889300,8.307889404296875,0.3298322260379791,1.2767183780670166,0.48056700825691223
1772811395370770200,8.317770263671875,0.3553985357284546,1.1350382566452026,0.448076456785202
1772811395380651300,8.3276513671875,0.4113248884677887,0.9667266607284546,0.42836910486221313
1772811395390532000,8.337531982421876,0.4454133212566376,0.805871844291687,0.3788343369960785
1772811395400413200,8.3474130859375,0.4667185842990875,0.688160240650177,0.2802974581718445
1772811395410294000,8.3572939453125,0.48056700825691223,0.6258423328399658,0.12689951062202454
1772811395420175000,8.367175048828125,0.4810996353626251,0.6476802229881287,-0.03502053767442703
1772811395430056200,8.37705615234375,0.4720448851585388,0.6647244691848755,-0.15166689455509186
1772811395439937000,8.38693701171875,0.47896912693977356,0.5780386328697205,-0.20666112005710602
1772811395449818000,8.396818115234375,0.49441543221473694,0.4310322403907776,-0.1938779652118683
1772811395459699000,8.406698974609375,0.5231775641441345,0.34847432374954224,-0.10652635246515274
1772811395469580000,8.416580078125,0.5567333698272705,0.3261038064956665,0.02503369376063347
1772811395479461000,8.426461181640626,0.6073333621025085,0.2930806279182434,0.16245268285274506
1772811395489342000,8.436342041015624,0.6526070833206177,0.29893958568573,0.28549063205718994
1772811395499223300,8.446223388671875,0.6659228801727295,0.3175816833972931,0.38882118463516235
1772811395509104600,8.456104736328125,0.6579334139823914,0.30586379766464233,0.45859596133232117
1772811395518986200,8.465986328125,0.6414217948913574,0.30053746700286865,0.5267727971076965
1772811395528867600,8.47586767578125,0.613724946975708,0.27230799198150635,0.6045370697975159
1772811395538749200,8.485749267578125,0.5636575818061829,0.2083921730518341,0.6791055202484131
1772811395548630800,8.495630859375,0.4901543855667114,0.16524900496006012,0.7419560551643372
1772811395558512000,8.50551220703125,0.4033353924751282,0.10772477090358734,0.7808381915092468
1772811395568393700,8.515393798828125,0.31012484431266785,0.027830010280013084,0.8127960562705994
1772811395578275000,8.525275146484375,0.20732691884040833,-0.04460791125893593,0.8548739552497864
1772811395588156700,8.53515673828125,0.14021530747413635,-0.13355740904808044,0.897484540939331
1772811395598038300,8.545038330078125,0.11358372122049332,-0.21185427904129028,0.9299750328063965
1772811395607919600,8.554919677734375,0.10399635136127472,-0.26884588599205017,0.918789803981781
1772811395617801200,8.56480126953125,0.09653950482606888,-0.27523747086524963,0.8745813369750977
1772811395627682800,8.574682861328125,0.08748476952314377,-0.2299637645483017,0.8000128865242004
1772811395637564200,8.584564208984375,0.07310371100902557,-0.14580795168876648,0.7089328765869141
1772811395647445800,8.59444580078125,0.0672447606921196,-0.04087948799133301,0.6153228282928467
1772811395657327000,8.6043271484375,0.06831002235412598,0.0624510757625103,0.5269059538841248
1772811395667208700,8.614208740234375,0.06831002235412598,0.1423458456993103,0.43209752440452576
1772811395677090300,8.62409033203125,0.07736476510763168,0.1998700648546219,0.3261038064956665
1772811395686971600,8.6339716796875,0.10080055892467499,0.24887219071388245,0.20679427683353424
1772811395696853200,8.643853271484375,0.12210582941770554,0.2828274667263031,0.09494160860776901
1772811395706734600,8.653734619140625,0.1284974068403244,0.3259706497192383,0.003861580276861787
1772811395716616200,8.6636162109375,0.13488899171352386,0.358993798494339,-0.0600542314350605
1772811395726497800,8.673497802734374,0.13009530305862427,0.3728422224521637,-0.08082687109708786
1772811395736379100,8.683379150390625,0.11731214821338654,0.3526022136211395,-0.04886896535754204
1772811395746260700,8.6932607421875,0.09867003560066223,0.2977411448955536,0.028895273804664612
1772811395756142300,8.703142333984376,0.07949528843164444,0.22796639800071716,0.12956267595291138
1772811395766023700,8.713023681640625,0.06404896825551987,0.16351795196533203,0.2371542900800705
1772811395775905300,8.7229052734375,0.05499422922730446,0.11238530278205872,0.3218427300453186
1772811395785786600,8.73278662109375,0.043276332318782806,0.09693898260593414,0.34261539578437805
1772811395795668200,8.742668212890624,0.02090579643845558,0.13528846204280853,0.29893958568573
1772811395805549800,8.7525498046875,0.040613170713186264,0.13954952359199524,0.19827216863632202
1772811395815431200,8.76243115234375,0.03262369707226753,0.20186743140220642,0.10293108969926834
1772811395825312800,8.772312744140624,0.03049316816031933,0.22796639800071716,0.03688475117087364
1772811395835194000,8.782194091796875,0.05978791415691376,0.23915165662765503,0.00013315794058144093
1772811395845075700,8.79207568359375,0.11571425199508667,0.2568616569042206,-0.00519315991550684
1772811395854957300,8.801957275390626,0.17377111315727234,0.2744385302066803,-0.0003994738217443228
1772811395864838700,8.811838623046874,0.20306585729122162,0.3362238109111786,0.012383688241243362
1772811395874720300,8.82172021484375,0.1572595238685608,0.6313018202781677,0.01012000348418951
1772811395884601900,8.831601806640625,0.17803215980529785,0.7586007714271545,-0.054861072450876236
1772811395894483200,8.841483154296874,0.21478375792503357,0.7804386615753174,-0.08202528953552246
1772811395904364800,8.85136474609375,0.21904481947422028,0.735164999961853,-0.04633896425366402
1772811395914246100,8.86124609375,0.16311848163604736,0.7010765671730042,0.02450106106698513
1772811395924127700,8.871127685546876,0.11038793623447418,0.6515418291091919,0.08255792409181595
1772811395934009300,8.88100927734375,0.1615205854177475,0.5668533444404602,0.15393057465553284
1772811395943890700,8.890890625,0.1567268967628479,0.5540701746940613,0.24341271817684174
1772811395953772300,8.900772216796875,0.11624687910079956,0.5695165395736694,0.2689790427684784
1772811395963653600,8.910653564453124,0.16418373584747314,0.4523375332355499,0.25619587302207947
1772811395973535200,8.92053515625,0.165781632065773,0.41665118932724,0.29454535245895386
1772811395983416800,8.930416748046875,0.09813740104436874,0.44221752882003784,0.329166442155838
1772811395993298200,8.940298095703126,0.09920266270637512,0.41345539689064026,0.29933905601501465
1772811396003179300,8.95017919921875,0.12530162930488586,0.318114310503006,0.2972085177898407
1772811396013060400,8.960060302734375,0.08855003118515015,0.2174469232559204,0.3243727385997772
1772811396022941400,8.96994140625,0.04274369776248932,0.12689951062202454,0.3350253701210022
1772811396032822500,8.979822509765626,0.027297377586364746,0.11038793623447418,0.3105243146419525
1772811396042703600,8.98970361328125,0.011851056478917599,0.30959221720695496,0.23915165662765503
1772811396052584700,8.999584716796875,0.043808963149785995,0.3649859130382538,0.09853687882423401
1772811396062465800,9.0094658203125,0.05872265249490738,0.4022701382637024,0.02876211516559124
1772811396072347000,9.019346923828126,0.060320548713207245,0.25792694091796875,0.06817686557769775
1772811396082228000,9.02922802734375,0.052863702178001404,0.03848264366388321,0.1784316450357437
1772811396092109000,9.039109130859375,0.04647212103009224,-0.06378265470266342,0.23808640241622925
1772811396101990000,9.048989990234375,0.044874224811792374,-0.08775108307600021,0.2876211404800415
1772811396111871000,9.05887109375,0.028362641111016273,-0.09041424095630646,0.3110569417476654
1772811396121752000,9.068751953125,0.024101587012410164,-0.12183951586484909,0.3121222257614136
1772811396131633200,9.078633056640625,0.009720529429614544,-0.14740583300590515,0.2881537973880768
1772811396141514200,9.08851416015625,0.008655265904963017,-0.14793847501277924,0.2396842986345291
1772811396151395300,9.098395263671875,0.0022636849898844957,-0.12982898950576782,0.18961690366268158
1772811396161276400,9.1082763671875,-0.007856318727135658,-0.10373003780841827,0.1603221595287323
1772811396171157500,9.118157470703125,-0.0025300008710473776,-0.08082687109708786,0.14274531602859497
1772811396181038600,9.12803857421875,0.009720529429614544,-0.06751107424497604,0.11664635688066483
1772811396190919700,9.137919677734375,0.031025800853967667,-0.058456335216760635,0.08788423985242844
1772811396200800500,9.147800537109376,0.05392896756529808,-0.06325002014636993,0.07243791967630386
1772811396210681600,9.157681640625,0.07470160722732544,-0.09041424095630646,0.07723160833120346
1772811396220562700,9.167562744140625,0.09387634694576263,-0.12876373529434204,0.09001477062702179
1772811396230443800,9.17744384765625,0.0954742431640625,-0.1447426825761795,0.08735160529613495
1772811396240324900,9.187324951171876,0.08748476952314377,-0.13302478194236755,0.08202528953552246
1772811396250206000,9.1972060546875,0.07576686888933182,-0.12397003918886185,0.07044055312871933
1772811396260087000,9.207087158203125,0.0672447606921196,-0.12290477752685547,0.056592125445604324
1772811396269968100,9.216968017578125,0.05819002166390419,-0.1303616166114807,0.04114580526947975
1772811396279849200,9.22684912109375,0.05392896756529808,-0.13888372480869293,0.01717737503349781
1772811396289730000,9.23672998046875,0.056059494614601135,-0.1165132001042366,-0.004660528153181076
