time,seconds_elapsed,z,y,x
1772811387359858000,0.30685791015625,-3.136864423751831,-2.7908616065979004,0.3884570598602295
1772811387379618600,0.32661865234375,-5.681794166564941,-2.2692251205444336,0.41449975967407227
1772811387399379200,0.346379150390625,-3.9413609504699707,-0.22939682006835938,-2.345074415206909
1772811387419140000,0.36614013671875,1.286634922027588,1.4626293182373047,-5.520790100097656
1772811387438900700,0.385900634765625,1.7768793106079102,-1.296152114868164,-3.6120502948760986
1772811387458661400,0.405661376953125,1.8784418106079102,-3.8203141689300537,3.042545795440674
1772811387478422000,0.425422119140625,2.3708910942077637,-4.888258934020996,4.742872714996338
1772811387498183400,0.445183349609375,3.6189355850219727,-2.8479456901550293,3.3426809310913086
1772811387517946000,0.464946044921875,-1.2905707359313965,-1.7816544771194458,0.10891246795654297
1772811387537709000,0.484708984375,-6.358895301818848,-2.4211888313293457,-4.318660736083984
1772811387557471700,0.5044716796875,-9.416147232055664,-1.1363177299499512,-6.673882484436035
1772811387577234700,0.524234619140625,-10.10760498046875,-3.2757225036621094,-6.0634050369262695
1772811387596997400,0.543997314453125,-6.6010422706604,-4.261240005493164,-4.89628791809082
1772811387616760300,0.56376025390625,-3.2411935329437256,-5.159048080444336,-5.977148056030273
1772811387636523000,0.58352294921875,-1.9192121028900146,-6.2477126121521,-6.980193138122559
1772811387656286000,0.603285888671875,-3.812337636947632,-7.439953804016113,-9.131386756896973
1772811387676048600,0.623048583984375,-6.114958763122559,-10.147011756896973,-7.904367446899414
1772811387695811600,0.6428115234375,-7.772810935974121,-10.964557647705078,-5.1131591796875
1772811387715574300,0.66257421875,-4.478497505187988,-12.583834648132324,-3.4681763648986816
1772811387735337200,0.682337158203125,-1.4146080017089844,-13.396326065063477,-1.6603293418884277
1772811387755100000,0.702099853515625,-2.595320224761963,-15.29543399810791,0.32612133026123047
1772811387774862800,0.72186279296875,-3.4949300289154053,-16.525123596191406,3.3457794189453125
1772811387794625500,0.74162548828125,-2.0667638778686523,-16.656959533691406,5.539199352264404
1772811387814388500,0.761388427734375,-0.8080406188964844,-15.461292266845703,7.819441795349121
1772811387834151200,0.781151123046875,0.35550665855407715,-12.987208366394043,9.376006126403809
1772811387853914000,0.8009140625,1.4576447010040283,-9.548982620239258,11.496358871459961
1772811387873676800,0.8206767578125,1.5260541439056396,-7.2052812576293945,13.907742500305176
1772811387893439700,0.840439697265625,0.7479379177093506,-4.616565227508545,14.710921287536621
1772811387913202400,0.860202392578125,-1.2505195140838623,-2.532078742980957,13.271575927734375
1772811387932965400,0.87996533203125,-3.161292552947998,-1.177363395690918,10.55944538116455
1772811387952728000,0.89972802734375,-5.136529922485352,-1.359532356262207,7.982199668884277
1772811387972491000,0.919490966796875,-5.31450080871582,-0.4344749450683594,5.514687538146973
1772811387992253700,0.939253662109375,-3.8057050704956055,0.5935192108154297,4.26177978515625
1772811388012015400,0.959015380859375,-1.7247369289398193,1.2549309730529785,5.245229721069336
1772811388031777300,0.97877734375,-0.21515226364135742,2.525364875793457,6.73337984085083
1772811388051539000,0.9985390625,-0.2635161876678467,3.350539207458496,7.919427871704102
1772811388071300600,1.018300537109375,-0.8278701305389404,3.665922164916992,8.022787094116211
1772811388091062300,1.038062255859375,-0.9330306053161621,3.79268741607666,7.325020790100098
1772811388110824200,1.05782421875,-0.5158107280731201,3.5769805908203125,6.583677291870117
1772811388130585900,1.0775859375,-0.26398611068725586,3.0298891067504883,6.0809831619262695
1772811388150347500,1.097347412109375,-0.5029363632202148,1.72645902633667,6.896981716156006
1772811388170109400,1.117109375,-0.47972774505615234,0.8832855224609375,6.87196159362793
1772811388189871000,1.13687109375,0.07943034172058105,0.15019798278808594,6.232905387878418
1772811388209632800,1.1566328125,-0.8931560516357422,-1.4376182556152344,6.020520210266113
1772811388229394400,1.17639453125,-1.6041722297668457,-2.2449254989624023,6.117079257965088
1772811388249156400,1.19615625,-0.6393117904663086,-2.201298713684082,5.345420837402344
1772811388268918000,1.21591796875,0.747922420501709,-2.6702775955200195,4.51125955581665
1772811388288679700,1.2356796875,1.1859763860702515,-3.1667051315307617,3.1699323654174805
1772811388308441600,1.255441650390625,1.0153553485870361,-3.57191801071167,1.2961821556091309
1772811388328203300,1.275203369140625,0.6281194686889648,-4.0022969245910645,-0.007000446319580078
1772811388347965000,1.29496484375,0.6461687088012695,-4.460412979125977,-1.0558099746704102
1772811388367726600,1.3147265625,0.9868600368499756,-4.824773788452148,-2.1604905128479004
1772811388387488500,1.334488525390625,0.44436168670654297,-4.5321879386901855,-3.721842050552368
1772811388407250200,1.354250244140625,-0.18644452095031738,-4.366821765899658,-4.669193267822266
1772811388427011800,1.37401171875,-1.0198450088500977,-3.982908248901367,-4.586203575134277
1772811388446773800,1.393773681640625,-1.121070384979248,-4.298172950744629,-4.329828262329102
1772811388466535400,1.413535400390625,-0.6666336059570312,-4.639867782592773,-4.483279228210449
1772811388486297000,1.433297119140625,-0.07603931427001953,-5.119592666625977,-4.783079147338867
1772811388506058200,1.453058349609375,0.46854066848754883,-5.5694684982299805,-5.267367839813232
1772811388525819000,1.47281884765625,1.043400526046753,-5.920628547668457,-5.524529457092285
1772811388545579500,1.49257958984375,1.796762466430664,-6.020369052886963,-5.583106517791748
1772811388565340200,1.512340087890625,1.9863307476043701,-6.7217698097229,-4.918768882751465
1772811388585100800,1.532100830078125,2.1971704959869385,-7.942239761352539,-4.170464038848877
1772811388604861700,1.55186181640625,2.1796929836273193,-8.557470321655273,-4.117798328399658
1772811388624622300,1.571622314453125,2.9468936920166016,-8.172700881958008,-4.6635355949401855
1772811388644383000,1.591383056640625,4.119081497192383,-7.708881855010986,-5.108150482177734
1772811388664143600,1.6111435546875,5.292619228363037,-6.79069709777832,-4.888874053955078
1772811388683904300,1.630904296875,5.708581447601318,-5.877572059631348,-3.7985386848449707
1772811388703665200,1.6506650390625,4.693702220916748,-5.230917930603027,-2.431906223297119
1772811388723425800,1.67042578125,2.7685365676879883,-4.739394187927246,-1.1253719329833984
1772811388743186400,1.6901865234375,0.43785881996154785,-4.079442024230957,-0.4012279510498047
1772811388762947000,1.709947021484375,-0.5880484580993652,-2.587559223175049,-1.112997055053711
1772811388782707700,1.729707763671875,-2.699181079864502,-1.8831615447998047,-0.6949329376220703
1772811388802468600,1.749468505859375,-3.9587881565093994,-1.3330583572387695,-0.9638500213623047
1772811388822229200,1.769229248046875,-3.55148983001709,-0.3390488624572754,-1.592052936553955
1772811388841990000,1.788989990234375,-1.966628074645996,-0.04894542694091797,-1.7556004524230957
1772811388861750500,1.80875048828125,-0.49289464950561523,-0.4668407440185547,-1.9284777641296387
1772811388881511200,1.82851123046875,0.4795339107513428,-0.7052984237670898,-2.5535459518432617
1772811388901271800,1.848271728515625,1.1357078552246094,-1.1578545570373535,-2.9502816200256348
1772811388921032700,1.86803271484375,1.3779737949371338,-1.4139842987060547,-3.6886982917785645
1772811388940793300,1.88779345703125,1.4846231937408447,-1.6752324104309082,-4.084441184997559
1772811388960554000,1.907553955078125,1.8896989822387695,-1.763254165649414,-4.45645809173584
1772811388980314600,1.927314697265625,2.5700836181640625,-1.7442855834960938,-4.538273811340332
1772811389000075800,1.94707568359375,3.077317953109741,-1.587559700012207,-4.2233076095581055
1772811389019838000,1.966837890625,2.485600709915161,-1.4737443923950195,-3.242711067199707
1772811389039599900,1.986599853515625,1.6576447486877441,-1.4428901672363281,-1.9788918495178223
1772811389059362000,2.006362060546875,0.6040889024734497,-1.5048370361328125,-0.6682686805725098
1772811389079124000,2.0261240234375,-0.475689172744751,-1.9034337997436523,0.9637260437011719
1772811389098886000,2.045885986328125,-1.3535301685333252,-2.1848368644714355,2.16876220703125
1772811389118648000,2.06564794921875,-1.6521050930023193,-1.7858810424804688,3.228482723236084
1772811389138410000,2.085409912109375,-1.716167688369751,-0.8995804786682129,4.227758407592773
1772811389158172200,2.105172119140625,-2.128297805786133,-0.8824548721313477,5.831463813781738
1772811389177934000,2.12493408203125,-2.763684034347534,-2.2507190704345703,7.552282810211182
1772811389197696300,2.1446962890625,-1.7232677936553955,-1.6049108505249023,7.906846523284912
1772811389217458200,2.164458251953125,-1.1353482007980347,-0.8108739852905273,8.644481658935547
1772811389237220400,2.184220458984375,-2.0050249099731445,0.12103080749511719,9.288461685180664
1772811389256982300,2.203982177734375,-3.044571876525879,1.1148052215576172,9.391140937805176
1772811389276744400,2.223744384765625,-3.6665778160095215,1.576094627380371,8.6419095993042
1772811389296506400,2.24350634765625,-3.7885079383850098,1.6820554733276367,6.755624294281006
1772811389316268500,2.2632685546875,-3.3927109241485596,1.5159597396850586,4.640208721160889
1772811389336030500,2.283030517578125,-2.733304738998413,1.0694494247436523,2.876544952392578
1772811389355792400,2.30279248046875,-2.1813313961029053,0.5021533966064453,1.480679988861084
1772811389375554600,2.322554443359375,-2.319965124130249,0.08422517776489258,0.13479948043823242
1772811389395316500,2.34231640625,-2.8760910034179688,-0.7867484092712402,0.9387516975402832
1772811389415078700,2.36207861328125,-1.3009858131408691,-1.444819450378418,2.850078582763672
1772811389434840600,2.381840576171875,1.3328169584274292,-1.883227825164795,3.4802370071411133
1772811389454602800,2.401602783203125,3.285088300704956,-2.2400717735290527,2.2352051734924316
1772811389474364700,2.42136474609375,3.9505343437194824,-2.480160713195801,0.004556179046630859
1772811389494126600,2.441126708984375,3.7197022438049316,-2.3019070625305176,-2.0798497200012207
1772811389513888300,2.46088818359375,2.903783082962036,-2.426790237426758,-2.6096630096435547
1772811389533650000,2.48064990234375,2.576176643371582,-2.41622257232666,-2.512759208679199
1772811389553411600,2.50041162109375,1.9051764011383057,-2.4708399772644043,-2.671013355255127
1772811389573173000,2.520173095703125,1.344336748123169,-2.7102394104003906,-2.561495304107666
1772811389592934700,2.5399345703125,1.0071313381195068,-2.8055191040039062,-2.298092842102051
1772811389612696300,2.5596962890625,0.5793352127075195,-3.1340279579162598,-1.8165926933288574
1772811389632457700,2.579457763671875,0.31998586654663086,-3.852611541748047,-1.63191556930542
1772811389652219400,2.599219482421875,0.46097469329833984,-4.693357944488525,-1.832315444946289
1772811389671981000,2.61898095703125,1.014312982559204,-5.114582538604736,-2.8786158561706543
1772811389691742500,2.638742431640625,1.1639378070831299,-5.5428266525268555,-3.5587096214294434
1772811389711504100,2.658504150390625,1.604764461517334,-6.238913536071777,-3.7689576148986816
1772811389731265800,2.678265869140625,1.8085558414459229,-7.931837558746338,-3.1610159873962402
1772811389751027200,2.698027099609375,0.8559296131134033,-9.692931175231934,-2.964110851287842
1772811389770788900,2.717788818359375,0.4893181324005127,-10.204302787780762,-3.726874351501465
1772811389790550500,2.737550537109375,1.5164453983306885,-9.337642669677734,-4.996551036834717
1772811389810312000,2.75731201171875,3.0102593898773193,-7.882658958435059,-6.193778991699219
1772811389830073600,2.777073486328125,3.848167896270752,-6.020734786987305,-7.093038558959961
1772811389849835300,2.796835205078125,3.928664207458496,-4.934861660003662,-6.397660255432129
1772811389869596700,2.8165966796875,3.520975112915039,-4.778684616088867,-4.6948113441467285
1772811389889358300,2.8363583984375,2.310624599456787,-4.715325355529785,-3.4916768074035645
1772811389909120000,2.8561201171875,1.1722350120544434,-4.732715606689453,-2.5078330039978027
1772811389928881400,2.87588134765625,0.05925416946411133,-4.464430809020996,-2.55240535736084
1772811389948643000,2.89564306640625,-1.7283906936645508,-3.7406136989593506,-2.98527193069458
1772811389968404700,2.91540478515625,-3.5650901794433594,-2.5687472820281982,-3.3374366760253906
1772811389988166100,2.935166259765625,-4.535517692565918,-1.4031081199645996,-3.3794913291931152
1772811390007928000,2.954927978515625,-4.656163215637207,-0.2718181610107422,-3.3700928688049316
1772811390027690000,2.97468994140625,-3.8449976444244385,0.30203866958618164,-3.0887961387634277
1772811390047452000,2.994451904296875,-2.4904026985168457,0.1864919662475586,-2.547147274017334
1772811390067213800,3.0142138671875,-1.3111388683319092,-0.04004478454589844,-2.404597759246826
1772811390086975700,3.033975830078125,-0.6441128253936768,-0.5129280090332031,-2.3429927825927734
1772811390106737700,3.053737548828125,-0.11018252372741699,-0.9946751594543457,-2.424623966217041
1772811390126499600,3.07349951171875,0.3182709217071533,-1.2642507553100586,-2.6531596183776855
1772811390146261500,3.093261474609375,0.694981575012207,-1.59375,-2.280726909637451
1772811390166023200,3.113023193359375,1.1837806701660156,-1.9972538948059082,-1.5271601676940918
1772811390185785000,3.13278515625,1.4943326711654663,-2.2158894538879395,-0.42940473556518555
1772811390205547300,3.15254736328125,1.685889720916748,-2.2073111534118652,0.5509190559387207
1772811390225309200,3.17230908203125,1.3748555183410645,-2.884995460510254,1.8622465133666992
1772811390245070800,3.19207080078125,0.9854183197021484,-2.653886318206787,2.8802027702331543
1772811390264832800,3.211832763671875,0.36132073402404785,-2.051797866821289,3.579941749572754
1772811390284594700,3.2315947265625,-0.6933468580245972,-1.5385894775390625,4.110921382904053
1772811390304356600,3.251356689453125,-2.0306544303894043,-1.2543554306030273,4.887314796447754
1772811390324118500,3.271118408203125,-3.998230457305908,-2.433932304382324,6.341091632843018
1772811390343880400,3.29088037109375,-4.211522579193115,-1.9588375091552734,6.341644763946533
1772811390363642400,3.310642333984375,-3.722114086151123,-0.7168264389038086,6.505911350250244
1772811390383404300,3.330404296875,-4.015384674072266,0.06477737426757812,7.314816474914551
1772811390403166200,3.350166259765625,-3.936115264892578,1.2055025100708008,7.937338829040527
1772811390422928100,3.36992822265625,-3.8097727298736572,1.8108735084533691,8.477662086486816
1772811390442690000,3.38968994140625,-3.277172803878784,1.7624902725219727,7.963318347930908
1772811390462452000,3.409451904296875,-2.6058292388916016,1.4837970733642578,6.321376323699951
1772811390482214000,3.4292138671875,-1.7763324975967407,1.021759033203125,4.738339424133301
1772811390501975300,3.448975341796875,-0.8412846326828003,0.4391965866088867,3.598367691040039
1772811390521736400,3.468736328125,0.2087695598602295,-0.18689727783203125,3.1143274307250977
1772811390541497300,3.488497314453125,1.1602033376693726,-0.7942347526550293,2.978560447692871
1772811390561258200,3.50825830078125,1.851109266281128,-1.4033470153808594,2.8428988456726074
1772811390581019100,3.52801904296875,2.2184009552001953,-1.9365835189819336,2.3670010566711426
1772811390600780000,3.547780029296875,2.4732322692871094,-2.2603278160095215,1.4071946144104004
1772811390620541000,3.567541015625,2.861950159072876,-2.1853599548339844,-0.05546855926513672
1772811390640302000,3.587302001953125,3.1146364212036133,-1.9479718208312988,-1.425614833831787
1772811390660063000,3.60706298828125,2.9712958335876465,-1.816819667816162,-2.296633243560791
1772811390679824000,3.626823974609375,2.742081642150879,-1.851515293121338,-2.5268349647521973
1772811390699584800,3.646584716796875,2.67958402633667,-1.9131708145141602,-2.5905842781066895
1772811390719345700,3.666345703125,2.6789886951446533,-2.235910415649414,-2.4669580459594727
1772811390739106600,3.6861064453125,2.531346321105957,-2.567920207977295,-2.395660877227783
1772811390758867700,3.70586767578125,2.389129161834717,-2.646498203277588,-2.542344093322754
1772811390778628600,3.725628662109375,1.9516847133636475,-2.594716787338257,-2.629774570465088
1772811390798389500,3.745389404296875,1.2824363708496094,-3.0486536026000977,-2.4095497131347656
1772811390818150400,3.765150390625,1.3176186084747314,-3.605347156524658,-2.391146183013916
1772811390837911300,3.784911376953125,1.9742810726165771,-3.965179920196533,-2.5663180351257324
1772811390857672200,3.804672119140625,2.5627593994140625,-4.457805156707764,-2.588223934173584
1772811390877433300,3.824433349609375,3.0264017581939697,-5.377917289733887,-2.2426657676696777
1772811390897194200,3.8441943359375,3.1267433166503906,-7.120828628540039,-1.4978666305541992
1772811390916955100,3.863955078125,3.2370176315307617,-7.750436782836914,-1.8380589485168457
1772811390936716000,3.883716064453125,3.7424259185791016,-8.03286361694336,-2.329275131225586
1772811390956477000,3.903476806640625,4.471689224243164,-8.582048416137695,-2.6708474159240723
1772811390976237800,3.92323779296875,5.140095233917236,-8.19250774383545,-3.4920315742492676
1772811390995999000,3.9429990234375,4.936659812927246,-7.096653461456299,-3.719729423522949
1772811391015761200,3.96276123046875,3.7038493156433105,-6.450788497924805,-2.9865097999572754
1772811391035523000,3.982523193359375,2.7778892517089844,-5.5410685539245605,-2.058767795562744
1772811391055285200,4.00228515625,1.904660940170288,-4.693014144897461,-0.9016075134277344
1772811391075047200,4.022047119140625,0.6847171783447266,-3.816108226776123,-0.12036609649658203
1772811391094809300,4.041809326171875,-0.7709157466888428,-2.784574031829834,0.015122413635253906
1772811391114571300,4.0615712890625,-2.411046266555786,-1.320528507232666,-0.6353416442871094
1772811391134333400,4.08133349609375,-3.4014530181884766,-0.028185367584228516,-1.7628564834594727
1772811391154095400,4.101095458984375,-3.903620958328247,0.9280757904052734,-2.664705276489258
1772811391173857500,4.120857421875,-3.532487154006958,0.9980859756469727,-3.281959056854248
1772811391193619500,4.140619384765625,-2.016573905944824,0.6261796951293945,-3.6015725135803223
1772811391213381600,4.160381591796875,-0.25835657119750977,0.24016380310058594,-3.977017641067505
1772811391233143600,4.1801435546875,0.9924893379211426,-0.28365612030029297,-4.229419708251953
1772811391252905700,4.19990576171875,1.7477951049804688,-0.6518001556396484,-4.508578300476074
1772811391272667600,4.219667724609375,2.057058095932007,-0.9169845581054688,-4.638545036315918
1772811391292429800,4.239429931640625,1.9105560779571533,-1.2261614799499512,-4.87581205368042
1772811391312191700,4.259191650390625,2.0395939350128174,-1.4930572509765625,-4.939908027648926
1772811391331954000,4.278953857421875,2.2932186126708984,-1.6551175117492676,-4.671314716339111
1772811391351715800,4.2987158203125,2.3900914192199707,-1.9212145805358887,-3.929029703140259
1772811391371478000,4.31847802734375,2.4150390625,-2.3072619438171387,-2.5318808555603027
1772811391391240000,4.338239990234375,2.1809046268463135,-2.7871813774108887,-0.811974048614502
1772811391411002000,4.358002197265625,1.763960838317871,-3.2747349739074707,1.164698600769043
1772811391430764000,4.377763916015625,0.8773396015167236,-3.4468307495117188,3.0157570838928223
1772811391450526200,4.397526123046875,0.3738865852355957,-2.843413829803467,4.279747009277344
1772811391470288100,4.4172880859375,-1.065787434577942,-2.0019731521606445,4.766443729400635
1772811391490050300,4.43705029296875,-2.657583236694336,-1.1565771102905273,4.9489312171936035
1772811391509812200,4.456812255859375,-4.33612060546875,-1.5374603271484375,5.910904407501221
1772811391529574000,4.476573974609375,-5.492847919464111,-1.854212760925293,6.262552261352539
1772811391549335800,4.496335693359375,-5.332845211029053,-0.6955318450927734,5.692972183227539
1772811391569097500,4.516097412109375,-5.120291709899902,0.42319202423095703,5.553269863128662
1772811391588859400,4.535859375,-4.8074049949646,1.2900052070617676,5.721428394317627
1772811391608621000,4.55562109375,-3.8904435634613037,1.9537134170532227,5.9855146408081055
1772811391628383000,4.575383056640625,-3.153033971786499,1.8226404190063477,6.071224212646484
1772811391648144600,4.59514453125,-2.075514554977417,1.3853578567504883,5.6152424812316895
1772811391667906600,4.614906494140625,-1.4382257461547852,0.791595458984375,4.26569128036499
1772811391687668200,4.634668212890625,-0.9495236873626709,0.2824430465698242,3.072371006011963
1772811391707430100,4.65443017578125,-0.30179083347320557,-0.2562527656555176,2.3863158226013184
1772811391727192000,4.674192138671875,0.14404499530792236,-0.7382874488830566,2.495401382446289
1772811391746953700,4.69395361328125,0.8266431093215942,-1.2787327766418457,2.892850399017334
1772811391766715600,4.713715576171875,1.4441218376159668,-1.7536587715148926,3.1733016967773438
1772811391786477300,4.733477294921875,1.619225025177002,-2.2772107124328613,2.8195886611938477
1772811391806239200,4.7532392578125,1.915824294090271,-2.5655641555786133,2.1018896102905273
1772811391826001000,4.7730009765625,2.16799259185791,-2.558048725128174,1.116835117340088
1772811391845762800,4.7927626953125,2.0101466178894043,-2.6189193725585938,0.13914155960083008
1772811391865524500,4.8125244140625,1.794980764389038,-2.839308738708496,-0.6567864418029785
1772811391885286400,4.832286376953125,1.5046660900115967,-3.0561962127685547,-1.605344295501709
1772811391905048300,4.85204833984375,1.509734869003296,-3.1646432876586914,-2.5202198028564453
1772811391924810000,4.87181005859375,1.552506685256958,-3.2565181255340576,-3.3246092796325684
1772811391944572000,4.891572021484375,1.583235502243042,-3.3887083530426025,-4.0337300300598145
1772811391964333600,4.91133349609375,1.4664766788482666,-3.2667829990386963,-4.81166934967041
1772811391984095500,4.931095458984375,1.160731554031372,-3.1819372177124023,-5.261571884155273
1772811392003857400,4.950857421875,0.880908727645874,-3.573622703552246,-5.256333351135254
1772811392023619600,4.97061962890625,0.7143106460571289,-4.064737319946289,-5.1562042236328125
1772811392043381800,4.9903818359375,0.39306640625,-4.117220878601074,-5.33924674987793
1772811392063144200,5.010144287109375,0.302351713180542,-4.312313079833984,-5.2616682052612305
1772811392082906400,5.02990625,0.6939489841461182,-4.613780498504639,-4.895486831665039
1772811392102668500,5.04966845703125,1.4155304431915283,-4.978031635284424,-4.152916431427002
1772811392122430700,5.0694306640625,1.2429368495941162,-6.418483734130859,-2.7051610946655273
1772811392142193000,5.08919287109375,0.6354696750640869,-7.718217372894287,-1.8974757194519043
1772811392161955300,5.108955322265625,1.112889289855957,-8.327601432800293,-2.022524356842041
1772811392181717500,5.128717529296875,2.4947946071624756,-8.19108772277832,-2.5815396308898926
1772811392201479700,5.148479736328125,3.802090644836426,-7.890791893005371,-2.680206298828125
1772811392221241900,5.168241943359375,4.765451431274414,-6.887203693389893,-2.170072078704834
1772811392241004000,5.188004150390625,4.501563549041748,-5.748484134674072,-1.077796459197998
1772811392260766200,5.20776611328125,3.43713641166687,-4.758186340332031,0.15843486785888672
1772811392280528400,5.2275283203125,1.9150458574295044,-3.7388052940368652,1.1713767051696777
1772811392300290600,5.24729052734375,-0.17009782791137695,-2.7478466033935547,1.6015281677246094
1772811392320053000,5.267052978515625,-2.5569405555725098,-1.516282081604004,1.1544609069824219
1772811392339815200,5.286815185546875,-4.239686965942383,0.2641415596008301,-0.2575521469116211
1772811392359577300,5.306577392578125,-5.100722312927246,1.458261489868164,-1.281883716583252
1772811392379339500,5.326339599609375,-4.893709659576416,1.9992780685424805,-1.7032442092895508
1772811392399101700,5.346101806640625,-3.775327682495117,1.9357681274414062,-1.8401808738708496
1772811392418864000,5.365864013671875,-2.2628912925720215,1.9072251319885254,-2.277845859527588
1772811392438626300,5.385626220703125,-1.239715337753296,1.5493812561035156,-2.6697769165039062
1772811392458388500,5.405388427734375,-0.6657536029815674,0.9492406845092773,-3.051086902618408
1772811392478150700,5.425150634765625,-0.3044755458831787,0.20908403396606445,-3.3262481689453125
1772811392497912800,5.444912841796875,0.2724447250366211,-0.5830731391906738,-3.276487350463867
1772811392517674800,5.4646748046875,0.6435985565185547,-1.1112613677978516,-3.175795555114746
1772811392537436700,5.484436767578125,1.015246033668518,-1.6690192222595215,-2.9893240928649902
1772811392557198800,5.50419873046875,1.459806203842163,-2.006974220275879,-2.799882411956787
1772811392576960800,5.523960693359375,1.334115982055664,-1.5507316589355469,-2.943673610687256
1772811392596722700,5.54372265625,-0.13660216331481934,-1.2867536544799805,-2.583324432373047
1772811392616484900,5.56348486328125,-1.3185865879058838,-1.551435947418213,-1.8569669723510742
1772811392636246800,5.583246826171875,-0.8505499362945557,-2.5945897102355957,-0.7418308258056641
1772811392656008700,5.6030087890625,0.9040051698684692,-2.9386677742004395,0.16046905517578125
1772811392675770600,5.6227705078125,1.9980539083480835,-2.2931137084960938,1.0725226402282715
1772811392695532800,5.64253271484375,2.144340991973877,-1.3327140808105469,2.3870091438293457
1772811392715294700,5.662294677734375,1.322742223739624,-0.8606328964233398,3.944087505340576
1772811392735056600,5.682056640625,-1.2367451190948486,-2.179661750793457,6.125975131988525
1772811392754818800,5.70181884765625,-1.8231892585754395,-1.9206457138061523,6.272497177124023
1772811392774580700,5.721580810546875,-1.0810959339141846,-0.7057600021362305,5.993658065795898
1772811392794342700,5.7413427734375,-0.2303990125656128,-0.037734031677246094,6.16261100769043
1772811392814104600,5.7611044921875,0.3195747137069702,0.8057560920715332,6.43798303604126
1772811392833866800,5.78086669921875,0.8598443269729614,1.3105154037475586,7.1134819984436035
1772811392853628700,5.800628662109375,1.636587381362915,1.4571542739868164,6.902858734130859
1772811392873390600,5.820390625,1.7306290864944458,1.3803982734680176,5.886931419372559
1772811392893152800,5.84015283203125,0.8669590950012207,1.2661561965942383,4.526615619659424
1772811392912914700,5.859914794921875,-0.5560853481292725,1.036186695098877,3.274381637573242
1772811392932676600,5.879676513671875,-1.853157877922058,0.7425403594970703,2.5700201988220215
1772811392952438500,5.8994384765625,-2.800314426422119,0.21883630752563477,2.36785888671875
1772811392972200700,5.91920068359375,-2.5811288356781006,-0.06476020812988281,2.398869514465332
1772811392991962600,5.938962646484375,-1.1968212127685547,-0.3383674621582031,2.592498779296875
1772811393011724000,5.95872412109375,0.17633533477783203,-0.8107295036315918,2.738215446472168
1772811393031485700,5.978485595703125,1.0444700717926025,-1.1531023979187012,2.3663387298583984
1772811393051247000,5.9982470703125,1.1212470531463623,-1.5693845748901367,1.5760021209716797
1772811393071008500,6.018008544921875,0.4045836925506592,-1.8764452934265137,0.560997486114502
1772811393090770000,6.03777001953125,-0.3376312255859375,-2.144259452819824,-0.38489341735839844
1772811393110531300,6.05753125,-0.6387765407562256,-2.3896379470825195,-1.302659034729004
1772811393130293000,6.07729296875,-0.577568531036377,-2.6119132041931152,-2.1534576416015625
1772811393150054400,6.097054443359375,-0.31102418899536133,-3.0579166412353516,-2.790663242340088
1772811393169815800,6.11681591796875,-0.052399635314941406,-3.358245372772217,-3.523195743560791
1772811393189577200,6.1365771484375,0.16189265251159668,-3.481365919113159,-4.1689887046813965
1772811393209339000,6.1563388671875,0.17399001121520996,-3.55973744392395,-4.714524269104004
1772811393229100300,6.176100341796875,-0.020635366439819336,-3.9131946563720703,-5.034314155578613
1772811393248861700,6.19586181640625,0.04929351806640625,-4.223301887512207,-5.353918075561523
1772811393268623000,6.215623046875,0.500187873840332,-4.38328742980957,-5.661623001098633
1772811393288384500,6.235384521484375,1.088146686553955,-4.479262351989746,-5.585366249084473
1772811393308146200,6.255146240234375,1.556793451309204,-4.52363395690918,-5.074850082397461
1772811393327907600,6.274907470703125,1.622021198272705,-5.030362129211426,-4.023549556732178
1772811393347669000,6.2946689453125,0.7102622985839844,-6.896278381347656,-2.4174389839172363
1772811393367430400,6.314430419921875,0.378446102142334,-8.037168502807617,-2.0610594749450684
1772811393387191800,6.33419189453125,1.446486473083496,-8.208693504333496,-2.2392067909240723
1772811393406953500,6.353953369140625,2.9661285877227783,-8.171226501464844,-2.337414264678955
1772811393426715000,6.37371484375,4.526232719421387,-7.258988380432129,-2.5803065299987793
1772811393446476300,6.393476318359375,5.951811790466309,-5.873907089233398,-2.2684736251831055
1772811393466237700,6.41323779296875,5.861858367919922,-4.756543159484863,-1.2810463905334473
1772811393485999400,6.432999267578125,4.487005710601807,-4.087324142456055,-0.5599093437194824
1772811393505760800,6.4527607421875,2.505035400390625,-3.8133926391601562,0.3261404037475586
1772811393525522400,6.4725224609375,0.6754608154296875,-3.416490077972412,0.6559238433837891
1772811393545284400,6.492284423828125,-1.6708762645721436,-2.651942253112793,0.0016608238220214844
1772811393565046000,6.5120458984375,-4.15433931350708,-1.3494558334350586,-1.241581916809082
1772811393584807700,6.5318076171875,-6.1623945236206055,0.2047562599182129,-2.4725565910339355
1772811393604569300,6.5515693359375,-6.794343948364258,1.2177433967590332,-3.046647548675537
1772811393624331000,6.5713310546875,-6.0030364990234375,1.3722600936889648,-3.0244760513305664
1772811393644092700,6.5910927734375,-3.801687717437744,0.9499526023864746,-2.9876174926757812
1772811393663854300,6.610854248046875,-1.8572355508804321,0.23835992813110352,-3.1259827613830566
1772811393683616300,6.6306162109375,-0.7607834339141846,-0.4838075637817383,-3.6770548820495605
1772811393703378000,6.6503779296875,-0.12178695201873779,-1.0495872497558594,-4.224289894104004
1772811393723139600,6.6701396484375,0.17662513256072998,-1.9217720031738281,-4.445345878601074
1772811393742901200,6.6899013671875,0.7203301191329956,-2.6996970176696777,-4.436229705810547
1772811393762663000,6.709662841796875,1.5585983991622925,-3.273411273956299,-4.093581199645996
1772811393782424600,6.729424560546875,2.4206464290618896,-3.751307964324951,-3.39835786819458
1772811393802186200,6.749186279296875,3.17671537399292,-3.6963744163513184,-2.535623550415039
1772811393821948000,6.768947998046875,3.696805715560913,-3.1293983459472656,-1.4739689826965332
1772811393841709800,6.788709716796875,3.3048009872436523,-2.8352155685424805,0.21912908554077148
1772811393861471500,6.808471435546875,1.7881760597229004,-2.545724868774414,1.6096506118774414
1772811393881233200,6.828233154296875,0.16815686225891113,-2.1237101554870605,2.4695487022399902
1772811393900994800,6.847994873046875,-1.468996524810791,-1.475409984588623,2.549098491668701
1772811393920756500,6.867756591796875,-2.879199504852295,-0.9229736328125,2.6475887298583984
1772811393940518100,6.88751806640625,-5.2539191246032715,-1.722966194152832,3.757935047149658
1772811393960279800,6.90727978515625,-6.4795241355896,-2.133026123046875,4.2428879737854
1772811393980041700,6.927041748046875,-5.855763912200928,-1.5911579132080078,4.545955657958984
1772811393999803000,6.946802978515625,-4.334435939788818,-0.9227809906005859,5.444650173187256
1772811394019563500,6.9665634765625,-2.8776230812072754,-0.16585636138916016,6.649774551391602
1772811394039324400,6.986324462890625,-1.4105713367462158,1.1709680557250977,7.98048210144043
1772811394059085000,7.0060849609375,-0.40035539865493774,2.3896284103393555,9.396368980407715
1772811394078846000,7.025845947265625,-0.08545041084289551,3.204092502593994,9.703336715698242
1772811394098606600,7.045606689453125,-0.8628331422805786,3.4813594818115234,8.572185516357422
1772811394118367500,7.065367431640625,-2.4097225666046143,2.694481372833252,7.0937395095825195
1772811394138128100,7.085128173828125,-3.4973294734954834,2.270862579345703,5.289853572845459
1772811394157889000,7.104888916015625,-4.362051010131836,1.7836251258850098,3.6995162963867188
1772811394177649700,7.124649658203125,-4.087244987487793,0.9667692184448242,2.8474884033203125
1772811394197410300,7.144410400390625,-2.6577248573303223,-0.004279136657714844,2.7072529792785645
1772811394217171200,7.164171142578125,-0.9017713069915771,-1.1321330070495605,2.847261428833008
1772811394236931800,7.183931884765625,0.632758378982544,-2.2177653312683105,2.735626697540283
1772811394256692700,7.203692626953125,1.4446983337402344,-2.710965633392334,1.8808512687683105
1772811394276453400,7.223453369140625,2.0500195026397705,-2.848601818084717,0.667445182800293
1772811394296214300,7.24321435546875,2.3733572959899902,-2.620267868041992,-0.3087296485900879
1772811394315975000,7.262974853515625,2.411217451095581,-2.6579694747924805,-0.6247076988220215
1772811394335735600,7.282735595703125,2.344067335128784,-3.0213394165039062,-0.47376394271850586
1772811394355496400,7.302496337890625,2.1381568908691406,-3.4861879348754883,-0.33874082565307617
1772811394375257000,7.322257080078125,1.7359068393707275,-3.7634153366088867,-0.6082911491394043
1772811394395018000,7.34201806640625,1.2106208801269531,-3.9632949829101562,-1.1591124534606934
1772811394414778600,7.361778564453125,0.7610957622528076,-4.047921180725098,-1.7409262657165527
1772811394434539500,7.38153955078125,0.5451581478118896,-4.3721466064453125,-1.9767098426818848
1772811394454300200,7.401300048828125,0.35772156715393066,-4.8719024658203125,-2.1990513801574707
1772811394474061000,7.42106103515625,0.3683938980102539,-4.900415420532227,-2.812894344329834
1772811394493821700,7.44082177734375,0.5154216289520264,-4.943869590759277,-3.151711940765381
1772811394513582800,7.460582763671875,0.8658766746520996,-5.225268840789795,-3.1305251121520996
1772811394533344000,7.480343994140625,1.305692195892334,-5.904308319091797,-2.8208327293395996
1772811394553105400,7.50010546875,0.7106425762176514,-7.277013778686523,-2.4929966926574707
1772811394572866600,7.519866455078125,0.28084349632263184,-8.743942260742188,-2.4680352210998535
1772811394592627700,7.539627685546875,0.5822403430938721,-9.17902660369873,-3.5801730155944824
1772811394612389000,7.55938916015625,2.3091912269592285,-8.035767555236816,-5.0445942878723145
1772811394632150300,7.579150390625,3.759502410888672,-6.580381393432617,-5.706243515014648
1772811394651911400,7.598911376953125,3.113602638244629,-4.835493564605713,-5.083704471588135
1772811394671672800,7.6186728515625,0.4565315246582031,-2.9471256732940674,-3.31217098236084
1772811394691434000,7.63843408203125,-2.2868878841400146,-1.0381706953048706,0.2516145706176758
1772811394711195100,7.658195068359375,-5.576875686645508,0.7809574604034424,4.4802703857421875
1772811394730956300,7.677956298828125,-7.212875843048096,0.8668144941329956,7.630080223083496
1772811394750717700,7.6977177734375,-6.590938091278076,0.0444413423538208,8.757733345031738
1772811394770478800,7.717478759765625,-4.185441017150879,0.011659741401672363,5.954811096191406
1772811394790240000,7.737239990234375,-3.3273868560791016,0.04058647155761719,2.521273612976074
1772811394810001400,7.75700146484375,-2.1889595985412598,-0.4285461902618408,1.948899269104004
1772811394829762600,7.776762451171875,-1.4128906726837158,-0.5363324880599976,2.6034650802612305
1772811394849523700,7.796523681640625,0.6328288316726685,-1.0343284606933594,3.939448356628418
1772811394869285000,7.81628515625,2.1000802516937256,-1.3047341108322144,3.04864501953125
1772811394889046300,7.83604638671875,2.8727171421051025,-2.206643581390381,1.9898128509521484
1772811394908807400,7.855807373046875,2.1060760021209717,-1.6209608316421509,0.8874006271362305
1772811394928568600,7.875568603515625,0.4031038284301758,-2.573113441467285,1.6295795440673828
1772811394948330000,7.895330078125,0.4969649314880371,-2.6423137187957764,1.9401769638061523
1772811394968091100,7.915091064453125,0.44908714294433594,-2.2642810344696045,2.8513851165771484
1772811394987852300,7.934852294921875,-0.5979418754577637,-2.9020683765411377,2.330328941345215
1772811395007614200,7.9546142578125,-2.510005474090576,-3.4807305335998535,1.0053739547729492
1772811395027376000,7.974376220703125,-2.0635290145874023,-3.4191627502441406,0.14965534210205078
1772811395047138000,7.994137939453125,-2.260986328125,-2.881216049194336,0.16190290451049805
1772811395066900200,8.013900146484374,-2.923335552215576,-2.5436887741088867,-0.6748452186584473
1772811395086662100,8.033662109375,-3.0577478408813477,-2.5166265964508057,-0.6540045738220215
1772811395106424000,8.053424072265624,-3.4300742149353027,-2.6533586978912354,-0.7398474216461182
1772811395126186000,8.07318603515625,-3.72080135345459,-2.4295363426208496,-0.5757431983947754
1772811395145948000,8.092947998046874,-3.07765531539917,-2.5813450813293457,-0.5997092723846436
1772811395165710000,8.1127099609375,-0.9322261810302734,-3.264822006225586,-0.2489302158355713
1772811395185472000,8.132471923828126,-0.4998893737792969,-2.905019760131836,0.5713006258010864
1772811395205234000,8.15223388671875,-1.3987417221069336,-1.9637178182601929,0.7337116003036499
1772811395224995800,8.171995849609376,-0.6727371215820312,-3.4841227531433105,1.468691110610962
1772811395244757800,8.1917578125,-2.7349538803100586,-3.813386917114258,1.4178991317749023
1772811395264520000,8.21152001953125,-2.856968402862549,-4.616704940795898,1.877274751663208
1772811395284281900,8.23128173828125,-2.546067237854004,-3.7494094371795654,1.814448356628418
1772811395304043800,8.251043701171875,-2.0366854667663574,-2.2250704765319824,1.471752405166626
1772811395323805700,8.2708056640625,-2.5506348609924316,-1.7414312362670898,1.5263988971710205
1772811395343567600,8.290567626953125,-2.228729724884033,-1.6287169456481934,1.340090274810791
1772811395363329800,8.310329833984374,-1.1328277587890625,-1.5467581748962402,0.6756497621536255
1772811395383091700,8.330091796875,-0.999488353729248,-1.278337001800537,0.23962907493114471
1772811395402853600,8.349853515625,-1.5981464385986328,-0.943122386932373,0.3336234390735626
1772811395422615600,8.369615478515625,-1.4308180809020996,-0.4088096618652344,0.5180400609970093
1772811395442377700,8.389377685546876,0.20044994354248047,-0.005901336669921875,0.29906490445137024
1772811395462139600,8.4091396484375,0.7881383895874023,-0.38485240936279297,0.32553812861442566
1772811395481901600,8.428901611328126,0.9780082702636719,-0.4083724021911621,0.3779754638671875
1772811395501664000,8.4486640625,0.7266845703125,-0.516972541809082,0.8113760352134705
1772811395521427000,8.468427001953126,0.6344890594482422,-0.6106147766113281,1.038891315460205
1772811395541190000,8.48818994140625,0.40472412109375,-0.8187003135681152,1.2175323963165283
1772811395560952800,8.507952880859374,0.0737619400024414,-0.5728998184204102,1.3599241971969604
1772811395580716000,8.527716064453125,-0.10289764404296875,-0.7646675109863281,1.1017003059387207
1772811395600479000,8.54747900390625,-0.4865450859069824,-0.8897256851196289,0.65870600938797
1772811395620242000,8.567241943359376,-1.094994068145752,-0.819209098815918,0.5749630928039551
1772811395640004900,8.5870048828125,-1.4030613899230957,-0.8176836967468262,0.7054972052574158
1772811395659768000,8.60676806640625,-1.4479351043701172,-0.8797693252563477,0.7221035361289978
1772811395679531000,8.626531005859375,-1.4857664108276367,-0.7364859580993652,0.5238118767738342
1772811395699294000,8.6462939453125,-1.2287344932556152,-0.49607419967651367,0.48250848054885864
1772811395719057000,8.666056884765625,-0.571876049041748,-0.3659706115722656,0.5536266565322876
1772811395738819800,8.68581982421875,0.36966943740844727,-0.3151369094848633,0.606158971786499
1772811395758583000,8.7055830078125,0.8280119895935059,-0.1596379280090332,0.6472115516662598
1772811395778346000,8.725345947265625,0.46991825103759766,-0.2090153694152832,0.7262565493583679
1772811395798109000,8.74510888671875,-0.25884103775024414,-0.1597881317138672,0.6948333382606506
1772811395817872000,8.764871826171875,-0.10419273376464844,-0.2210831642150879,0.5558311343193054
1772811395837635000,8.784635009765625,0.48911046981811523,-0.3046994209289551,0.2508162558078766
1772811395857398000,8.80439794921875,0.6799592971801758,-0.37099170684814453,0.12061019241809845
1772811395877161000,8.824160888671875,0.10541772842407227,-0.46790170669555664,0.3957193195819855
1772811395896924000,8.843923828125,0.7571721076965332,-0.5372214317321777,0.7582759857177734
1772811395916687000,8.86368701171875,1.1771821975708008,-0.7085285186767578,0.7478985786437988
1772811395936450000,8.883449951171874,1.2122464179992676,-0.4804263114929199,0.43427595496177673
1772811395956213000,8.903212890625,0.660799503326416,-0.686744213104248,0.45813700556755066
1772811395975976000,8.922975830078125,0.4505147933959961,-0.7543606758117676,0.5610884428024292
1772811395995739000,8.94273876953125,0.39422607421875,-0.49165821075439453,0.4527018070220947
1772811396015501000,8.9625009765625,0.5436010360717773,-0.7421016693115234,0.7957135438919067
1772811396035263200,8.98226318359375,-0.3383674621582031,-0.45546531677246094,0.2699206471443176
1772811396055025200,9.002025146484375,-0.30663156509399414,-0.4693608283996582,0.37229442596435547
1772811396074787300,9.021787353515625,1.0538768768310547,-0.7541661262512207,0.7566325664520264
1772811396094549500,9.041549560546875,0.7467689514160156,-0.3823580741882324,0.3581394553184509
1772811396114311700,9.061311767578125,0.40291643142700195,-0.5081033706665039,0.5761094093322754
1772811396134073900,9.081073974609374,0.09198427200317383,-0.5057101249694824,0.5116235017776489
1772811396153835800,9.100835693359375,0.09816646575927734,-0.4565300941467285,0.5227941274642944
1772811396173598000,9.120597900390624,0.21378517150878906,-0.49727773666381836,0.4167594909667969
1772811396193360100,9.140360107421875,0.15536928176879883,-0.46952152252197266,0.2668706476688385
1772811396213122300,9.160122314453124,0.3176860809326172,-0.4183626174926758,0.19795075058937073
1772811396232884200,9.17988427734375,0.21798181533813477,-0.4118833541870117,0.37542837858200073
1772811396252646400,9.199646484375,0.22538375854492188,-0.3501286506652832,0.4118339717388153
1772811396272408600,9.21940869140625,0.22640132904052734,-0.2648801803588867,0.3772653341293335
1772811396292170800,9.239170654296874,0.26447200775146484,-0.2689023017883301,0.30642226338386536
