time,seconds_elapsed,z,y,x
1772811026874041900,0.323041748046875,-1.8460521697998047,1.567430019378662,-1.5496759414672852
1772811026893803300,0.34280322265625,-0.11751317977905273,1.2153849601745605,-1.5086854696273804
1772811026913564700,0.362564697265625,-0.7675175666809082,-0.6549358367919922,-0.6201367378234863
1772811026933326300,0.382326416015625,-0.02559804916381836,-1.6263346672058105,0.5613226890563965
1772811026953087700,0.402087646484375,-0.013468265533447266,-1.922889232635498,1.697061538696289
1772811026972849200,0.42184912109375,-0.875938892364502,-2.2437853813171387,3.2708489894866943
1772811026992610300,0.4416103515625,-3.1891722679138184,-3.1134443283081055,4.507681369781494
1772811027012370000,0.461369873046875,-4.536240577697754,-3.1377391815185547,3.4562737941741943
1772811027032129500,0.481129638671875,-4.919455528259277,-2.6386852264404297,1.1505556106567383
1772811027051889200,0.50088916015625,-6.2977142333984375,-2.0428285598754883,-0.5043071508407593
1772811027071648800,0.520648681640625,-5.630739212036133,0.2216634750366211,-2.6219563484191895
1772811027091408400,0.540408447265625,-7.785843372344971,4.427964210510254,-7.038985252380371
1772811027111168000,0.56016796875,-3.8262109756469727,-4.453135013580322,-0.023874521255493164
1772811027130927400,0.57992724609375,-1.0671906471252441,-6.034512519836426,1.5699717998504639
1772811027150687000,0.59968701171875,2.396413803100586,-5.034374237060547,1.8494658470153809
1772811027170446600,0.619446533203125,-0.8418631553649902,-4.828953266143799,3.2202541828155518
1772811027190206200,0.639206298828125,-5.625171661376953,-3.8474748134613037,3.090639114379883
1772811027209965800,0.6589658203125,-8.585071563720703,-4.900428771972656,3.4614763259887695
1772811027229725400,0.678725341796875,-7.286865234375,-4.935876846313477,1.3052825927734375
1772811027249484800,0.69848486328125,-6.912287712097168,-4.804263114929199,1.084080696105957
1772811027269244400,0.718244384765625,-9.466409683227539,-6.450871467590332,2.2752771377563477
1772811027289004000,0.738004150390625,-4.618902206420898,-8.823652267456055,2.780521869659424
1772811027308763600,0.757763671875,1.3987674713134766,-8.776473999023438,2.350992202758789
1772811027328523300,0.777523193359375,2.6948866844177246,-8.644540786743164,1.60699462890625
1772811027348283000,0.797282958984375,-0.12694954872131348,-8.280532836914062,-0.1473855972290039
1772811027368042500,0.81704248046875,-3.3722009658813477,-8.505121231079102,-1.0154485702514648
1772811027387801900,0.8368017578125,-3.499924421310425,-8.821544647216797,-0.8287296295166016
1772811027407561500,0.8565615234375,-1.8552278280258179,-8.969159126281738,0.5636777877807617
1772811027427321000,0.876321044921875,-0.4151175320148468,-8.469070434570312,2.234025001525879
1772811027447080700,0.896080810546875,-0.9546622633934021,-7.409969806671143,3.461606979370117
1772811027466840300,0.91584033203125,-1.1758427619934082,-5.948138236999512,4.476158142089844
1772811027486600000,0.935599853515625,-0.5421460866928101,-4.556064605712891,4.857845783233643
1772811027506361000,0.955361083984375,-0.31402480602264404,-3.3544392585754395,5.108111381530762
1772811027526123300,0.975123291015625,-0.5245354175567627,-2.696648120880127,5.119050979614258
1772811027545885400,0.994885498046875,-1.42645263671875,-2.1088294982910156,4.855195045471191
1772811027565647600,1.014647705078125,-2.8810455799102783,-1.3447937965393066,4.382671356201172
1772811027585409800,1.034409912109375,-4.2203826904296875,-0.5550055503845215,4.092709541320801
1772811027605172000,1.054171875,-4.79941463470459,0.0015816688537597656,3.774503707885742
1772811027624934100,1.07393408203125,-4.405933856964111,0.49587154388427734,3.1609067916870117
1772811027644696300,1.0936962890625,-4.007539749145508,0.5120987892150879,2.685220718383789
1772811027664458500,1.11345849609375,-3.9321341514587402,0.31596851348876953,2.2033910751342773
1772811027684220700,1.133220703125,-3.615523099899292,0.32410144805908203,1.9466500282287598
1772811027703982800,1.15298291015625,-3.483771324157715,0.36095571517944336,2.021315097808838
1772811027723745000,1.1727451171875,-3.507354259490967,0.6737451553344727,2.0781126022338867
1772811027743507200,1.192507080078125,-3.743344783782959,0.4798855781555176,2.512690544128418
1772811027763269400,1.212269287109375,-3.6504993438720703,0.2086505889892578,2.7418417930603027
1772811027783031600,1.232031494140625,-4.03425931930542,-0.46094226837158203,2.4989356994628906
1772811027802793700,1.251793701171875,-3.1140222549438477,0.4026145935058594,1.9341144561767578
1772811027822556000,1.271555908203125,-2.952620506286621,0.9696011543273926,1.83134126663208
1772811027842318000,1.291318115234375,-1.8594415187835693,0.9156675338745117,2.722355842590332
1772811027862080000,1.311080078125,-0.5811096429824829,1.3276119232177734,3.3926429748535156
1772811027881842400,1.330842529296875,0.42419835925102234,1.060002326965332,4.399317264556885
1772811027901604400,1.350604248046875,1.991777777671814,0.44503307342529297,4.490553855895996
1772811027921366500,1.370366455078125,3.353553295135498,-0.15541934967041016,4.3005781173706055
1772811027941128700,1.390128662109375,4.280471324920654,-0.3444538116455078,4.117194652557373
1772811027960891000,1.409890869140625,4.842650413513184,-0.4919877052307129,4.314976692199707
1772811027980653000,1.429653076171875,4.998201847076416,-0.43304872512817383,4.376327991485596
1772811028000415200,1.449415283203125,4.58021879196167,-0.48488569259643555,4.07181978225708
1772811028020177200,1.46917724609375,3.9980452060699463,-0.7446999549865723,3.3624649047851562
1772811028039939000,1.48893896484375,3.2334706783294678,-1.340756893157959,2.5067291259765625
1772811028059701200,1.508701171875,2.4405674934387207,-2.4208006858825684,1.7107124328613281
1772811028079463200,1.528463134765625,1.9034314155578613,-2.882082939147949,0.37607622146606445
1772811028099225300,1.548225341796875,2.0378541946411133,-2.8964223861694336,-0.5205869674682617
1772811028118987300,1.5679873046875,2.1503970623016357,-3.026242733001709,-0.8492751121520996
1772811028138749200,1.587749267578125,2.276115894317627,-3.413588523864746,-0.9127354621887207
1772811028158511400,1.607511474609375,2.6836941242218018,-3.3797693252563477,-1.2183327674865723
1772811028178273300,1.627273193359375,3.0933802127838135,-3.415853977203369,-1.26564359664917
1772811028198035200,1.64703515625,3.068617582321167,-3.5106372833251953,-1.0673069953918457
1772811028217797400,1.66679736328125,2.948305130004883,-3.7010321617126465,-0.7090616226196289
1772811028237559300,1.686559326171875,2.623762607574463,-3.8159728050231934,-0.7891364097595215
1772811028257321500,1.706321533203125,2.247544765472412,-3.948334217071533,-1.2344975471496582
1772811028277083400,1.72608349609375,2.1476521492004395,-3.989028215408325,-1.719538688659668
1772811028296845300,1.74584521484375,2.512565851211548,-3.892193555831909,-2.185715675354004
1772811028316607200,1.765607177734375,3.117492198944092,-3.4218924045562744,-2.4873013496398926
1772811028336369400,1.785369384765625,3.374436140060425,-2.9586474895477295,-2.5068516731262207
1772811028356131300,1.80513134765625,3.087294816970825,-2.8130173683166504,-2.286036968231201
1772811028375893500,1.8248935546875,2.5034310817718506,-3.108250141143799,-2.1508193016052246
1772811028395655400,1.844655517578125,2.2092127799987793,-3.2872893810272217,-2.3890271186828613
1772811028415417300,1.864417236328125,1.8169796466827393,-3.3108584880828857,-2.839919090270996
1772811028435179500,1.884179443359375,1.393604040145874,-3.1823978424072266,-3.119119644165039
1772811028454941400,1.90394140625,0.9910776615142822,-3.0944175720214844,-3.1620917320251465
1772811028474703600,1.92370361328125,0.8001554012298584,-3.2456133365631104,-2.7822117805480957
1772811028494465300,1.94346533203125,0.6505076885223389,-4.252825736999512,-1.5890917778015137
1772811028514226700,1.963226806640625,0.7108964920043945,-5.726956844329834,-1.0474028587341309
1772811028533988000,1.982988037109375,0.8324072360992432,-6.559402942657471,-1.438530445098877
1772811028553749500,2.00274951171875,1.8715364933013916,-6.935632705688477,-2.1848273277282715
1772811028573511000,2.022510986328125,3.1123898029327393,-6.987425804138184,-2.9061312675476074
1772811028593272300,2.042272216796875,4.509910583496094,-6.490822792053223,-3.5865840911865234
1772811028613033700,2.06203369140625,5.560930252075195,-5.616781234741211,-3.9543051719665527
1772811028632795100,2.081795166015625,5.92185115814209,-4.5603742599487305,-3.6256537437438965
1772811028652556500,2.101556640625,5.204804420471191,-3.787290573120117,-3.2383675575256348
1772811028672318000,2.12131787109375,3.640942335128784,-3.24503493309021,-3.008575439453125
1772811028692079400,2.141079345703125,1.1092406511306763,-2.6379895210266113,-2.6237053871154785
1772811028711840800,2.1608408203125,-0.8658266067504883,-1.85396146774292,-2.3823180198669434
1772811028731602200,2.180602294921875,-2.721862554550171,-0.9423699378967285,-3.449065685272217
1772811028751363600,2.200363525390625,-4.09630823135376,-0.585329532623291,-3.236245632171631
1772811028771125000,2.220125,-4.430218696594238,-0.44474363327026367,-2.3711838722229004
1772811028790886400,2.239886474609375,-3.6468002796173096,-0.6207823753356934,-1.7666106224060059
1772811028810647800,2.259647705078125,-1.8371813297271729,-1.0435223579406738,-1.7466163635253906
1772811028830409200,2.2794091796875,0.21436095237731934,-1.8759489059448242,-2.1737542152404785
1772811028850170600,2.299170654296875,1.5358318090438843,-2.8417210578918457,-1.8651180267333984
1772811028869932000,2.31893212890625,2.451134204864502,-2.8356947898864746,-2.4306588172912598
1772811028889693400,2.338693359375,3.634648323059082,-3.175049304962158,-1.5250277519226074
1772811028909454800,2.358454833984375,4.1514387130737305,-2.807035446166992,-0.8469500541687012
1772811028929216300,2.37821630859375,4.2139177322387695,-2.3524017333984375,-0.09713077545166016
1772811028948977700,2.397977783203125,3.947413444519043,-2.1524014472961426,0.7180781364440918
1772811028968739000,2.417739013671875,3.6200060844421387,-2.1886510848999023,1.3946843147277832
1772811028988500500,2.43750048828125,2.9783706665039062,-1.9231061935424805,1.2666935920715332
1772811029008262400,2.457262451171875,1.8709735870361328,-1.9016962051391602,0.9241819381713867
1772811029028024300,2.4770244140625,1.21959388256073,-1.687363624572754,0.4274578094482422
1772811029047786500,2.496786376953125,0.6098803877830505,-1.2282123565673828,-0.08330345153808594
1772811029067548400,2.51654833984375,0.08246660232543945,-0.5518345832824707,-0.549799919128418
1772811029087310300,2.536310302734375,-0.4327859878540039,-0.052781105041503906,-0.6220741271972656
1772811029107072300,2.556072265625,-1.008334755897522,0.15622329711914062,-0.2919039726257324
1772811029126834400,2.57583447265625,-2.0327627658843994,0.3170490264892578,0.170318603515625
1772811029146596400,2.595596435546875,-3.2323501110076904,0.3446011543273926,0.841148853302002
1772811029166358300,2.615358154296875,-3.9751272201538086,0.2921323776245117,1.71710205078125
1772811029186120400,2.635120361328125,-4.188937187194824,0.1987771987915039,3.04571533203125
1772811029205882400,2.65488232421875,-4.380832195281982,-0.428375244140625,5.385529518127441
1772811029225644300,2.674644287109375,-4.635003566741943,-0.7635774612426758,7.296821117401123
1772811029245406200,2.69440625,-4.852441787719727,-0.0022125244140625,8.211791038513184
1772811029265168400,2.71416845703125,-4.554866790771484,0.6910591125488281,9.349089622497559
1772811029284930300,2.733930419921875,-3.388385534286499,1.7015900611877441,10.377809524536133
1772811029304692200,2.753692138671875,-2.113112211227417,1.9542179107666016,11.621667861938477
1772811029324454400,2.773454345703125,-0.7260452508926392,1.4328899383544922,11.855655670166016
1772811029344216300,2.79321630859375,0.44117504358291626,0.2200298309326172,10.422175407409668
1772811029363978200,2.812978271484375,1.0439352989196777,-0.828831672668457,8.001874923706055
1772811029383740200,2.832740234375,1.1069823503494263,-1.9001502990722656,5.995148181915283
1772811029403502300,2.85250244140625,1.2092230319976807,-3.192605972290039,4.261460304260254
1772811029423264300,2.87226416015625,2.013374090194702,-4.237010955810547,2.620678424835205
1772811029443026200,2.892026123046875,2.6375603675842285,-5.0151753425598145,1.2195162773132324
1772811029462788400,2.911788330078125,3.403583288192749,-5.725614547729492,0.11190986633300781
1772811029482550300,2.93155029296875,4.264035701751709,-6.161993980407715,-0.8754291534423828
1772811029502312400,2.9513125,4.920751571655273,-6.364303112030029,-1.6054272651672363
1772811029522075000,2.971074951171875,5.70266056060791,-6.26212215423584,-1.7278461456298828
1772811029541837000,2.990837158203125,6.082053184509277,-5.873684406280518,-1.763108730316162
1772811029561599500,3.010599609375,6.127549171447754,-5.409507751464844,-1.7949018478393555
1772811029581362000,3.03036181640625,6.00984525680542,-4.973879814147949,-1.6780295372009277
1772811029601124400,3.050124267578125,5.296799182891846,-4.722357749938965,-1.265031337738037
1772811029620886500,3.069886474609375,4.756649971008301,-4.703944683074951,-1.0345311164855957
1772811029640649000,3.08964892578125,4.239657402038574,-4.628220558166504,-1.4678826332092285
1772811029660411400,3.109411376953125,3.543166160583496,-4.495248794555664,-2.130300521850586
1772811029680173800,3.129173828125,3.3942837715148926,-4.29093074798584,-2.707775115966797
1772811029699936300,3.148936279296875,3.4785585403442383,-4.185087203979492,-3.1058402061462402
1772811029719698400,3.168698486328125,3.576658248901367,-4.102167129516602,-3.2832961082458496
1772811029739460900,3.1884609375,3.471123218536377,-4.090292930603027,-3.3056459426879883
1772811029759223300,3.208223388671875,3.2978322505950928,-4.225766658782959,-3.2374138832092285
1772811029778985700,3.22798583984375,2.9970827102661133,-4.561205863952637,-3.2265472412109375
1772811029798748200,3.247748046875,2.705906391143799,-4.731206893920898,-3.5035853385925293
1772811029818510300,3.26751025390625,2.4351491928100586,-4.499164581298828,-3.994936466217041
1772811029838272800,3.287272705078125,1.9886987209320068,-4.395308971405029,-4.2939629554748535
1772811029858035200,3.30703515625,2.1283323764801025,-4.388917446136475,-4.320463180541992
1772811029877797600,3.326797607421875,2.1600019931793213,-5.20219612121582,-3.739288330078125
1772811029897559800,3.346559814453125,1.7264716625213623,-6.55599308013916,-3.5295634269714355
1772811029917322200,3.366322265625,1.6848773956298828,-7.96982479095459,-3.747471332550049
1772811029937084700,3.386084716796875,2.3117470741271973,-8.651542663574219,-4.449004650115967
1772811029956847000,3.40584716796875,3.253343105316162,-8.587687492370605,-4.23183012008667
1772811029976609300,3.425609375,3.4374494552612305,-7.706284046173096,-3.3042044639587402
1772811029996371500,3.445371337890625,2.859060287475586,-5.925694465637207,-2.419135093688965
1772811030016132900,3.4651328125,2.3775808811187744,-4.35667610168457,-0.9155769348144531
1772811030035894000,3.48489404296875,2.1051244735717773,-3.1619644165039062,1.0355234146118164
1772811030055655400,3.504655517578125,1.698510766029358,-2.281832218170166,2.643848419189453
1772811030075416600,3.52441650390625,1.1937384605407715,-1.764326572418213,2.4269323348999023
1772811030095178000,3.544177978515625,0.1844933032989502,-1.8621525764465332,1.9335966110229492
1772811030114939100,3.563939208984375,-1.0428993701934814,-1.9781298637390137,1.6842498779296875
1772811030134700500,3.583700439453125,-2.0431909561157227,-1.9672646522521973,1.596409797668457
1772811030154461700,3.603461669921875,-2.6244046688079834,-1.3814191818237305,1.2684831619262695
1772811030174222800,3.623222900390625,-2.923288583755493,-0.6969876289367676,0.7764053344726562
1772811030193984300,3.642984375,-2.7740025520324707,-0.17169857025146484,0.20637083053588867
1772811030213745400,3.662745361328125,-2.0401289463043213,0.206817626953125,-0.5758767127990723
1772811030233506800,3.6825068359375,-0.817986249923706,0.31678009033203125,-1.1696038246154785
1772811030253268000,3.70226806640625,0.08890676498413086,0.14173316955566406,-1.6520915031433105
1772811030273029000,3.722029052734375,0.999481201171875,-0.05607795715332031,-2.0332136154174805
1772811030292790500,3.74179052734375,1.7465360164642334,-0.40240049362182617,-2.123627185821533
1772811030312551700,3.7615517578125,2.4443814754486084,-0.775965690612793,-2.1302552223205566
1772811030332313000,3.78131298828125,2.8548529148101807,-1.234865665435791,-1.813326358795166
1772811030352074200,3.80107421875,3.0046474933624268,-1.4367570877075195,-1.5546331405639648
1772811030371835600,3.820835693359375,2.8875865936279297,-1.3597707748413086,-1.1071109771728516
1772811030391596800,3.8405966796875,2.7735531330108643,-1.3984270095825195,-0.4744601249694824
1772811030411358200,3.860358154296875,2.9690184593200684,-1.2558469772338867,-0.047976016998291016
1772811030431119400,3.880119384765625,3.0191385746002197,-1.2788043022155762,0.44443655014038086
1772811030450880500,3.899880615234375,2.6961467266082764,-1.109236717224121,0.6483254432678223
1772811030470642000,3.919641845703125,1.999332070350647,-1.021134853363037,1.1044096946716309
1772811030490403000,3.939403076171875,0.5973923206329346,-0.7765026092529297,1.5558748245239258
1772811030510165000,3.9591650390625,-0.6703602075576782,-0.5313262939453125,1.9115815162658691
1772811030529927000,3.978927001953125,-2.1099538803100586,-0.09716224670410156,2.386079788208008
1772811030549688800,3.998688720703125,-3.687589406967163,0.4419436454772949,3.0159831047058105
1772811030569450800,4.01845068359375,-4.830202102661133,0.35349178314208984,4.262977600097656
1772811030589212700,4.038212646484375,-5.545650482177734,0.2752647399902344,5.202052593231201
1772811030608974600,4.057974609375,-4.7021026611328125,0.9888834953308105,5.331424236297607
1772811030628736500,4.077736572265625,-2.819472312927246,1.7522029876708984,5.425251007080078
1772811030648498400,4.09749853515625,-1.2869696617126465,2.2784242630004883,5.5986809730529785
1772811030668260400,4.11726025390625,-0.02476179599761963,2.287240505218506,6.0860419273376465
1772811030688022300,4.137022216796875,1.2574883699417114,1.7336382865905762,6.42694616317749
1772811030707784200,4.1567841796875,1.9384002685546875,1.1050148010253906,5.701016902923584
1772811030727546000,4.176546142578125,1.703118920326233,0.49040794372558594,4.305771350860596
1772811030747308000,4.19630810546875,1.7298650741577148,-0.14007091522216797,3.113342761993408
1772811030767070000,4.216070068359375,1.775107741355896,-0.4892573356628418,2.018277168273926
1772811030786832000,4.235831787109375,2.2860517501831055,-0.9966769218444824,1.8145127296447754
1772811030806593800,4.25559375,2.857431411743164,-1.5791659355163574,1.912595272064209
1772811030826355700,4.275355712890625,3.134641170501709,-2.0161190032958984,1.7968368530273438
1772811030846117600,4.29511767578125,3.447521924972534,-2.7370142936706543,1.3579392433166504
1772811030865879600,4.314879638671875,3.9062557220458984,-3.895110607147217,1.2755389213562012
1772811030885641500,4.334641357421875,4.1145148277282715,-4.295014381408691,0.5040364265441895
1772811030905403400,4.3544033203125,4.404226303100586,-4.301101207733154,-0.06650543212890625
1772811030925165300,4.374165283203125,4.763152122497559,-4.341885089874268,-0.38182497024536133
1772811030944927200,4.39392724609375,5.15118932723999,-4.375901699066162,-0.5179176330566406
1772811030964689200,4.413689208984375,4.817899227142334,-4.545466899871826,-0.47028589248657227
1772811030984451000,4.433451171875,3.822033643722534,-4.760363578796387,-0.5154681205749512
1772811031004212500,4.45321240234375,2.9082937240600586,-4.699758052825928,-0.735633373260498
1772811031023974000,4.472973876953125,2.3279647827148438,-4.405603408813477,-1.1666169166564941
1772811031043735000,4.492735107421875,1.837026834487915,-4.043058395385742,-1.6212644577026367
1772811031063496200,4.51249609375,1.328141212463379,-3.8084192276000977,-1.940110683441162
1772811031083257600,4.532257568359375,0.9267055988311768,-3.7606353759765625,-2.258749008178711
1772811031103018800,4.552018798828125,0.7566759586334229,-3.6615538597106934,-2.90803861618042
1772811031122780200,4.5717802734375,0.8903467655181885,-3.516373872756958,-3.7464661598205566
1772811031142541300,4.591541259765625,1.0881812572479248,-3.1586227416992188,-4.619488716125488
1772811031162302700,4.611302734375,1.0991673469543457,-2.886866569519043,-5.119480133056641
1772811031182063900,4.63106396484375,1.0421736240386963,-2.934035301208496,-5.2464094161987305
1772811031201825000,4.650824951171875,1.2235758304595947,-3.1957802772521973,-5.14484977722168
1772811031221586400,4.67058642578125,1.41744065284729,-3.5975308418273926,-5.018447399139404
1772811031241347600,4.69034765625,1.8924517631530762,-3.9371891021728516,-4.812984943389893
1772811031261109000,4.71010888671875,2.3708531856536865,-4.114579677581787,-4.550642013549805
1772811031280870100,4.7298701171875,2.994128465652466,-4.146669864654541,-4.377762317657471
1772811031300631300,4.74963134765625,3.3102407455444336,-4.60327672958374,-3.5773630142211914
1772811031320392700,4.769392822265625,2.4038710594177246,-5.8272504806518555,-2.8306121826171875
1772811031340153900,4.78915380859375,1.7162052392959595,-6.231606483459473,-3.101959228515625
1772811031359915300,4.808915283203125,2.2141799926757812,-6.474914073944092,-3.429378032684326
1772811031379676400,4.828676513671875,3.0159547328948975,-6.236713409423828,-3.5082364082336426
1772811031399437600,4.8484375,3.633219003677368,-5.9710001945495605,-2.5363945960998535
1772811031419199000,4.868198974609375,3.7378296852111816,-5.531275749206543,-1.168818473815918
1772811031438960000,4.887960205078125,3.0963635444641113,-4.718474864959717,0.19655132293701172
1772811031458721500,4.907721435546875,1.6801834106445312,-3.377688407897949,1.0368432998657227
1772811031478482700,4.927482666015625,-0.1328892707824707,-2.193328857421875,1.7020325660705566
1772811031498244000,4.947244140625,-0.24849891662597656,-0.7384653091430664,2.1059536933898926
1772811031518006300,4.96700634765625,-0.8946998119354248,-0.16478443145751953,2.8201980590820312
1772811031537768200,4.986768310546875,-0.9520440101623535,0.6186561584472656,2.884918212890625
1772811031557530000,5.006530029296875,-1.5031044483184814,0.5246543884277344,3.488010883331299
1772811031577292000,5.0262919921875,-1.6488380432128906,0.7341375350952148,3.176640033721924
1772811031597054000,5.046053955078125,-1.1026740074157715,1.131485939025879,2.088822364807129
1772811031616815900,5.06581591796875,-1.293541669845581,0.9524030685424805,1.6304106712341309
1772811031636578000,5.085578125,-0.443281888961792,0.5948467254638672,0.9817037582397461
1772811031656340000,5.105340087890625,0.22622990608215332,0.17198514938354492,0.12836027145385742
1772811031676102000,5.125101806640625,1.1153912544250488,-0.2641639709472656,-0.6280474662780762
1772811031695863800,5.14486376953125,1.924697756767273,-0.7058286666870117,-1.0787220001220703
1772811031715625700,5.164625732421875,2.6391546726226807,-0.8753695487976074,-1.4161405563354492
1772811031735387600,5.1843876953125,3.065871000289917,-1.023817539215088,-1.5086026191711426
1772811031755149800,5.20414990234375,3.3216300010681152,-0.9436664581298828,-1.5418596267700195
1772811031774911700,5.223911865234375,3.1274993419647217,-0.9702105522155762,-1.6415324211120605
1772811031794673700,5.243673583984375,2.946021318435669,-1.1412205696105957,-1.6896567344665527
1772811031814435600,5.263435546875,3.11832594871521,-1.2484931945800781,-1.9321813583374023
1772811031834197500,5.283197509765625,3.4623804092407227,-1.3623642921447754,-2.107551097869873
1772811031853959700,5.302959716796875,3.6733603477478027,-1.2271571159362793,-2.2373857498168945
1772811031873721600,5.3227216796875,3.513688087463379,-1.0254888534545898,-2.0213141441345215
1772811031893483500,5.3424833984375,2.637484312057495,-0.9704179763793945,-1.56561279296875
1772811031913245400,5.362245361328125,1.5358151197433472,-0.826200008392334,-1.11537504196167
1772811031933007400,5.38200732421875,0.4689873456954956,-0.9466814994812012,-0.34769725799560547
1772811031952769500,5.40176953125,-0.5643579959869385,-1.0692553520202637,0.33339834213256836
1772811031972531500,5.421531494140625,-1.8153492212295532,-0.7089414596557617,0.5194911956787109
1772811031992293400,5.44129345703125,-2.9967868328094482,-0.34970712661743164,1.2384724617004395
1772811032012054500,5.461054443359375,-3.9695332050323486,-0.4179677963256836,2.502884864807129
1772811032031815700,5.480815673828125,-4.810464382171631,-1.2255096435546875,4.274850845336914
1772811032051576800,5.500576904296875,-5.749013900756836,-1.4980602264404297,4.962399959564209
1772811032071338200,5.520338134765625,-5.697391986846924,-0.6780662536621094,4.684106349945068
1772811032091099400,5.540099365234375,-4.381977081298828,0.25723934173583984,4.833297252655029
1772811032110860500,5.559860595703125,-2.4516615867614746,0.9480056762695312,5.465893268585205
1772811032130621700,5.57962158203125,-1.0281996726989746,1.2784457206726074,6.290769100189209
1772811032150382800,5.5993828125,-0.036841459572315216,1.651413917541504,6.357418060302734
1772811032170144300,5.619144287109375,0.41030222177505493,1.7350025177001953,5.49747371673584
1772811032189905400,5.638905517578125,0.5230610966682434,1.4753084182739258,4.03013277053833
1772811032209666600,5.65866650390625,0.43262454867362976,1.193331241607666,2.651589870452881
1772811032229427700,5.678427734375,0.6718853116035461,0.7189450263977051,1.8721413612365723
1772811032249188900,5.69818896484375,1.2272722721099854,0.2480030059814453,1.4830913543701172
1772811032268950000,5.717949951171875,1.9097230434417725,-0.39180994033813477,1.366635799407959
1772811032288711400,5.73771142578125,2.5883636474609375,-1.062218189239502,1.257051944732666
1772811032308472600,5.75747265625,2.846571445465088,-1.6884689331054688,1.3215112686157227
1772811032328233700,5.777233642578125,2.5091071128845215,-2.168105125427246,1.5259904861450195
1772811032347995000,5.796994873046875,2.0321712493896484,-2.609450340270996,1.7435336112976074
1772811032367756000,5.816756103515625,2.339998960494995,-2.5346741676330566,1.7363924980163574
1772811032387517200,5.83651708984375,2.7300193309783936,-2.393238067626953,1.7314262390136719
1772811032407278600,5.856278564453125,2.730947732925415,-2.174722671508789,1.7390508651733398
1772811032427039700,5.876039794921875,2.828648567199707,-2.118374824523926,1.902463436126709
1772811032446801000,5.89580078125,2.970395088195801,-2.105299472808838,1.7979865074157715
1772811032466562000,5.91556201171875,3.1438350677490234,-2.220489978790283,1.2643513679504395
1772811032486323200,5.9353232421875,2.9363856315612793,-2.455033779144287,0.38291358947753906
1772811032506084900,5.9550849609375,2.898437023162842,-2.8075613975524902,-0.47746706008911133
1772811032525846500,5.974846435546875,3.1686744689941406,-3.0903725624084473,-1.3020501136779785
1772811032545608400,5.9946083984375,3.440971612930298,-3.372358798980713,-2.1455788612365723
1772811032565370000,6.0143701171875,3.549893379211426,-3.480456590652466,-2.9790186882019043
1772811032585131800,6.0341318359375,3.573237419128418,-3.4714534282684326,-3.736112117767334
1772811032604893700,6.053893798828125,3.3951165676116943,-3.518510103225708,-4.242176055908203
1772811032624655400,6.0736552734375,3.2642035484313965,-3.453455686569214,-4.604393482208252
1772811032644417300,6.093417236328125,2.7872965335845947,-3.499408483505249,-4.805222988128662
1772811032664179000,6.113178955078125,2.4120004177093506,-3.465940237045288,-5.0931243896484375
1772811032683940900,6.13294091796875,2.1783595085144043,-3.4250905513763428,-5.4110212326049805
1772811032703702500,6.15270263671875,2.2091288566589355,-3.426945209503174,-5.597625732421875
1772811032723464200,6.172464111328125,2.2503275871276855,-3.5616118907928467,-5.547036170959473
1772811032743226000,6.19222607421875,2.0533437728881836,-4.361235618591309,-4.846518039703369
1772811032762987800,6.21198779296875,1.5135018825531006,-5.668097019195557,-4.143354415893555
1772811032782749700,6.231749755859375,1.6315386295318604,-6.536619186401367,-3.9724650382995605
1772811032802511400,6.251511474609375,2.3256216049194336,-6.901652812957764,-4.045663833618164
1772811032822273000,6.27127294921875,3.2334816455841064,-6.945411682128906,-3.3154406547546387
1772811032842035000,6.291034912109375,3.319119691848755,-6.260232448577881,-2.0264086723327637
1772811032861796600,6.310796630859375,2.5176472663879395,-4.865894317626953,-0.6193795204162598
1772811032881558300,6.330558349609375,2.0221946239471436,-3.1582536697387695,1.4768381118774414
1772811032901320200,6.3503203125,2.3132224082946777,-0.9552526473999023,2.9033374786376953
1772811032921081900,6.370081787109375,1.4946402311325073,0.04191017150878906,2.9291114807128906
1772811032940843800,6.38984375,0.40462398529052734,-0.0162200927734375,3.9125442504882812
1772811032960605400,6.40960546875,-0.8441557884216309,0.5230445861816406,3.6539292335510254
1772811032980367400,6.429367431640625,-2.832289934158325,0.6057658195495605,2.7204694747924805
1772811033000129300,6.44912939453125,-4.087367057800293,0.5137209892272949,2.15529727935791
1772811033019891500,6.468891357421875,-4.2378997802734375,0.546778678894043,2.0363869667053223
1772811033039653600,6.488653564453125,-3.2632484436035156,0.29808568954467773,2.1484522819519043
1772811033059416000,6.508416015625,-1.9683167934417725,-0.0022001266479492188,1.7857437133789062
1772811033079178200,6.52817822265625,-0.9180071353912354,-0.20199298858642578,0.9634861946105957
1772811033098940400,6.5479404296875,-0.17295432090759277,-0.3531002998352051,0.10871648788452148
1772811033118702800,6.567702880859375,0.5302774906158447,-0.41364240646362305,-0.7106051445007324
1772811033138465000,6.587465087890625,1.2312157154083252,-0.4476141929626465,-1.371908187866211
1772811033158227200,6.607227294921875,2.0412325859069824,-0.7149043083190918,-1.8066534996032715
1772811033177989600,6.62698974609375,4.473095893859863,-0.8536415100097656,-2.50496244430542
1772811033197751800,6.646751708984375,1.271083116531372,-0.6102843284606934,-2.066586971282959
1772811033217514000,6.666513916015625,0.9908460378646851,-0.8691163063049316,-2.426910400390625
1772811033237276400,6.6862763671875,-0.7746573686599731,-0.7885046005249023,-2.8521342277526855
1772811033257038600,6.70603857421875,-1.6266343593597412,-0.8631229400634766,-3.3110227584838867
1772811033276800800,6.72580078125,-1.4486396312713623,-1.004284381866455,-3.825387477874756
1772811033296563200,6.745563232421875,0.04492467641830444,-1.334526538848877,-4.063258647918701
1772811033316325400,6.765325439453125,1.8627837896347046,-1.74363374710083,-3.719109058380127
1772811033336087600,6.785087646484375,2.9559013843536377,-1.9216370582580566,-3.057788372039795
1772811033355850000,6.80485009765625,3.2459769248962402,-1.7512974739074707,-2.412147045135498
1772811033375612200,6.824612060546875,2.430619955062866,-1.7230181694030762,-1.733428955078125
1772811033395374300,6.844374267578125,1.216386079788208,-1.6531157493591309,-1.1686182022094727
1772811033415136800,6.86413671875,0.07835906744003296,-1.5843181610107422,-0.4397568702697754
1772811033434899000,6.88389892578125,-1.250558853149414,-1.581953525543213,0.9512128829956055
1772811033454661000,6.9036611328125,-2.8700897693634033,-2.388160228729248,2.746644973754883
1772811033474423600,6.923423583984375,-3.3447914123535156,-1.8318724632263184,3.1525044441223145
1772811033494185500,6.943185546875,-2.5871829986572266,-1.1975069046020508,3.9576802253723145
1772811033513946400,6.9629462890625,-1.057093620300293,-0.20382118225097656,4.790186405181885
1772811033533707300,6.982707275390625,-0.10587984323501587,0.6661667823791504,6.09138822555542
1772811033553468000,7.002468017578125,0.09987848997116089,1.5105071067810059,7.289108753204346
1772811033573228800,7.022228759765625,-0.3630683422088623,2.188920021057129,8.040964126586914
1772811033592989700,7.04198974609375,-1.507339358329773,2.4721899032592773,7.824435234069824
1772811033612750600,7.06175048828125,-2.6105308532714844,2.6163816452026367,6.938060283660889
1772811033632511200,7.08151123046875,-2.692049741744995,2.2796411514282227,6.063156604766846
1772811033652272000,7.101272216796875,-1.7779808044433594,1.7957639694213867,5.143167495727539
1772811033672033000,7.121032958984375,-0.31878983974456787,1.1258606910705566,4.335345268249512
1772811033691793700,7.140793701171875,1.2115856409072876,0.32164907455444336,3.594973087310791
1772811033711554600,7.160554443359375,2.3231699466705322,-0.42555952072143555,2.9447808265686035
1772811033731315500,7.1803154296875,2.8375184535980225,-1.4070439338684082,2.435471534729004
1772811033751076000,7.200076171875,2.964571714401245,-2.308791160583496,1.81516695022583
1772811033770837000,7.2198369140625,3.176488161087036,-3.0742430686950684,1.3110404014587402
1772811033790598000,7.239597900390625,3.4712908267974854,-3.5824060440063477,0.7587947845458984
1772811033810358800,7.25935888671875,3.6890511512756348,-3.9229679107666016,0.3299446105957031
1772811033830119400,7.279119384765625,3.9324426651000977,-4.070130348205566,-0.05535602569580078
1772811033849880300,7.29888037109375,4.111954212188721,-4.056847095489502,-0.36963415145874023
1772811033869641200,7.31864111328125,4.082521915435791,-3.957557201385498,-0.7391519546508789
1772811033889402000,7.338402099609375,3.9438743591308594,-3.9189023971557617,-1.1208901405334473
1772811033909162800,7.358162841796875,3.5822513103485107,-3.8485169410705566,-1.7251696586608887
1772811033928923600,7.377923583984375,2.878978967666626,-3.771113872528076,-2.402376651763916
1772811033948684500,7.3976845703125,2.370450258255005,-3.429255723953247,-3.2265982627868652
1772811033968445200,7.417445068359375,2.104217529296875,-3.0702106952667236,-3.803832530975342
1772811033988206000,7.4372060546875,2.0522139072418213,-2.837674140930176,-4.029134273529053
1772811034007967700,7.4569677734375,1.934873104095459,-2.586407423019409,-4.337644100189209
1772811034027729700,7.476729736328125,1.6757609844207764,-2.2577953338623047,-4.449858665466309
1772811034047491600,7.49649169921875,1.0557270050048828,-2.1380271911621094,-4.401184558868408
1772811034067253500,7.51625341796875,0.4788675308227539,-2.143667459487915,-4.3894219398498535
1772811034087015400,7.536015380859375,-0.02769327163696289,-2.1750283241271973,-4.4380035400390625
1772811034106777300,7.55577734375,-0.12421870231628418,-2.242276668548584,-4.635857105255127
1772811034126539500,7.57553955078125,-0.07670235633850098,-2.391148567199707,-4.660742282867432
1772811034146301400,7.595301513671875,0.5624463558197021,-2.5747578144073486,-4.414504528045654
1772811034166063400,7.6150634765625,1.283435583114624,-3.004581928253174,-3.758298397064209
1772811034185825300,7.6348251953125,1.077390193939209,-4.299199104309082,-2.735447406768799
1772811034205587200,7.654587158203125,1.1193604469299316,-5.145528793334961,-2.5793662071228027
1772811034225349000,7.67434912109375,1.8076900243759155,-5.670499324798584,-2.7453103065490723
1772811034245111000,7.694111083984375,2.9000728130340576,-5.632962226867676,-3.0931663513183594
1772811034264873000,7.713873046875,3.991422414779663,-5.276741027832031,-2.7471251487731934
1772811034284635000,7.733634765625,3.9781932830810547,-4.817802429199219,-1.7881245613098145
1772811034304396800,7.753396728515625,2.9979217052459717,-4.3738274574279785,-0.4428439140319824
1772811034324158700,7.77315869140625,1.9227453470230103,-3.5398178100585938,0.5045332908630371
1772811034343921000,7.7929208984375,0.9156477451324463,-2.451664924621582,1.179140567779541
1772811034363682800,7.812682861328125,-0.8410221338272095,-1.4002633094787598,1.8711633682250977
1772811034383444700,7.83244482421875,-2.7521543502807617,-0.314450740814209,2.447010040283203
1772811034403206700,7.85220654296875,-3.9443376064300537,0.8380370140075684,2.8366098403930664
1772811034422968600,7.871968505859375,-4.483676433563232,1.659031867980957,3.369879722595215
1772811034442730500,7.89173046875,-4.447579383850098,1.9699931144714355,3.9709906578063965
1772811034462492400,7.911492431640625,-3.445239543914795,1.8530430793762207,3.9632396697998047
1772811034482254300,7.93125439453125,-2.210829734802246,0.9945077896118164,3.7477784156799316
1772811034502016000,7.95101611328125,-1.319629192352295,-0.3299903869628906,2.8496246337890625
1772811034521777700,7.970777587890625,-0.40034329891204834,-1.2503366470336914,1.145876407623291
1772811034541539300,7.990539306640625,0.3487069606781006,-1.9274377822875977,-0.3479008674621582
1772811034561301000,8.010301025390625,0.9680962562561035,-2.4067206382751465,-1.6923398971557617
1772811034581062700,8.030062744140626,1.521718978881836,-2.7200112342834473,-2.861454963684082
1772811034600824300,8.04982421875,1.9559359550476074,-2.796581745147705,-4.043946266174316
1772811034620585700,8.069585693359375,2.398486614227295,-2.5613627433776855,-4.861320495605469
1772811034640347400,8.089347412109374,2.791942596435547,-2.139832019805908,-5.308366775512695
1772811034660109000,8.109109130859375,2.9573917388916016,-1.6898365020751953,-5.671526908874512
1772811034679870700,8.12887060546875,2.820474624633789,-1.2047548294067383,-5.629606246948242
1772811034699632400,8.14863232421875,2.117966413497925,-0.8475956916809082,-5.049936294555664
1772811034719393800,8.168393798828125,0.8764669299125671,-0.5888371467590332,-4.304378509521484
1772811034739155500,8.188155517578124,0.34414011240005493,-0.5165576934814453,-3.6658639907836914
1772811034758917000,8.207917236328125,0.08736491203308105,-0.2971000671386719,-3.0660529136657715
1772811034778678800,8.2276787109375,-0.13199067115783691,-0.596653938293457,-1.982254981994629
1772811034798440400,8.2474404296875,-0.34012532234191895,-0.9082365036010742,-0.8039116859436035
1772811034818202000,8.2672021484375,-0.44535112380981445,-1.1465373039245605,0.37161874771118164
1772811034837963500,8.286963623046875,-0.6107035875320435,-1.21995210647583,1.4210333824157715
1772811034857725200,8.30672509765625,-0.764095664024353,-1.299929141998291,2.5338478088378906
1772811034877486800,8.32648681640625,-1.2248046398162842,-2.229645252227783,4.412619113922119
1772811034897248500,8.34624853515625,-0.9339652061462402,-2.7640795707702637,5.229895114898682
1772811034917010200,8.36601025390625,0.49919945001602173,-2.0636491775512695,5.161707401275635
1772811034936771600,8.385771484375,1.8132930994033813,-1.3133554458618164,5.197296619415283
1772811034956533200,8.405533203125,2.4426586627960205,-0.38533496856689453,5.572965621948242
1772811034976295000,8.425294921875,2.310087203979492,0.5782022476196289,6.116139888763428
1772811034996056600,8.445056640625,1.831252098083496,1.5351800918579102,6.4539475440979
1772811035015818000,8.46481787109375,1.065273404121399,2.5771613121032715,6.0619425773620605
1772811035035579400,8.484579345703125,0.3188580870628357,3.392561912536621,5.202456951141357
1772811035055340800,8.5043408203125,-0.5033280849456787,3.186190605163574,4.993697166442871
1772811035075102500,8.5241025390625,-1.2714163064956665,2.4081215858459473,5.1368088722229
1772811035094864000,8.54386376953125,-1.6120225191116333,1.7745733261108398,4.7886223793029785
1772811035114625300,8.563625244140624,-1.3472462892532349,0.8982925415039062,4.35266637802124
1772811035134387000,8.583386962890625,-0.21275532245635986,-0.0011625289916992188,3.6152443885803223
1772811035154148400,8.6031484375,1.1231751441955566,-1.1938843727111816,3.112298011779785
1772811035173909800,8.62290966796875,2.44439435005188,-2.023604393005371,2.2731804847717285
1772811035193671200,8.642671142578125,3.227062225341797,-2.408291816711426,1.0762829780578613
1772811035213432800,8.662432861328124,3.5657124519348145,-2.5646300315856934,-0.47092151641845703
1772811035233194200,8.6821943359375,3.597909450531006,-2.576097011566162,-1.8440370559692383
1772811035252955600,8.70195556640625,3.5434913635253906,-2.6356587409973145,-2.5442943572998047
1772811035272717000,8.721717041015625,3.463517904281616,-2.469371795654297,-2.6776108741760254
1772811035292478700,8.741478759765625,3.167984962463379,-2.056692123413086,-1.907787799835205
1772811035312240000,8.761240234375,2.5327277183532715,-1.6996026039123535,-0.3594174385070801
1772811035332001500,8.78100146484375,1.5303120613098145,-1.3516554832458496,1.2763776779174805
1772811035351763200,8.80076318359375,0.9661881923675537,-1.3571414947509766,2.530794143676758
1772811035371524600,8.820524658203125,0.5359785556793213,-1.524698257446289,2.657123565673828
1772811035391286000,8.8402861328125,0.3974037170410156,-1.7621827125549316,2.237542152404785
1772811035411047400,8.86004736328125,0.9654716849327087,-1.813612937927246,3.1005373001098633
1772811035430809000,8.87980908203125,0.05843675136566162,-2.1900482177734375,2.297177314758301
1772811035450570500,8.899570556640626,-0.764042854309082,-2.758230209350586,1.850508689880371
1772811035470332000,8.919331787109375,-0.014949560165405273,-3.6071908473968506,2.183529853820801
1772811035490093300,8.93909326171875,1.136972188949585,-4.109055995941162,2.0173749923706055
1772811035509855200,8.958855224609374,1.4148143529891968,-4.578889846801758,0.6688957214355469
1772811035529617000,8.978616943359375,2.4684197902679443,-4.993936538696289,0.11304759979248047
1772811035549378800,8.99837890625,1.4052815437316895,-5.031410217285156,-0.1526336669921875
1772811035569140500,9.018140380859375,0.450775146484375,-5.464942932128906,0.7794809341430664
1772811035588902400,9.03790234375,-0.7123005390167236,-6.662722110748291,1.958510398864746
1772811035608664000,9.0576640625,-1.1662893295288086,-6.464748859405518,1.6487083435058594
1772811035628426000,9.077426025390626,-0.8666782379150391,-6.887007713317871,1.5238327980041504
1772811035648187600,9.097187744140625,-2.1639156341552734,-5.420660018920898,-0.4551701545715332
1772811035667949600,9.116949462890625,-2.32694149017334,-4.570930480957031,-0.28815364837646484
1772811035687711200,9.136711181640624,-2.9514870643615723,-3.8709800243377686,-0.30078697204589844
1772811035707473200,9.15647314453125,-1.8733229637145996,-3.280378818511963,-0.10477256774902344
1772811035727234800,9.17623486328125,-0.8738570213317871,-2.345797061920166,-0.34821128845214844
1772811035746996700,9.195996826171875,-2.7099270820617676,-1.6885368824005127,-1.5439131259918213
1772811035766758400,9.21575830078125,-4.24537992477417,-1.5604403018951416,-1.7325971126556396
1772811035786520300,9.235520263671875,-2.234682559967041,-2.17934250831604,-0.8725073337554932
1772811035806282000,9.255281982421875,-1.783857822418213,-2.0581343173980713,-0.07919502258300781
1772811035826044000,9.2750439453125,-2.528590679168701,-3.1014792919158936,1.034475326538086
1772811035845805600,9.2948056640625,-0.5645484924316406,-6.06124210357666,3.7518138885498047
1772811035865567500,9.3145673828125,1.2983007431030273,-6.765944480895996,4.111781120300293
1772811035885329400,9.334329345703125,1.2914037704467773,-2.882263660430908,1.3419365882873535
1772811035905091000,9.354091064453126,0.647979736328125,-2.4672701358795166,1.1941243410110474
1772811035924853000,9.37385302734375,-0.8698339462280273,-1.8994821310043335,0.40703701972961426
1772811035944614700,9.39361474609375,-0.6134872436523438,-1.653384804725647,-0.7737801671028137
1772811035964376600,9.41337646484375,-0.8016738891601562,-1.5699671506881714,-1.4373056888580322
1772811035984138200,9.43313818359375,-1.7299551963806152,-1.3930882215499878,-1.682129144668579
1772811036003900000,9.45289990234375,-2.213874340057373,-0.9996209144592285,-0.4886341094970703
1772811036023661800,9.472661865234375,-2.7165799140930176,-0.269498348236084,0.16035938262939453
1772811036043423500,9.492423583984374,-1.66190767288208,-0.38068437576293945,0.31832200288772583
1772811036063185200,9.51218505859375,0.025712013244628906,-0.6851563453674316,-0.11117234826087952
1772811036082946800,9.53194677734375,1.0106916427612305,-0.9683959484100342,-0.4822116792201996
1772811036102708700,9.551708740234375,1.4822378158569336,-1.198939323425293,-0.44419237971305847
1772811036122470400,9.571470458984376,0.21425342559814453,-1.4050397872924805,-0.09773939847946167
1772811036142232000,9.591232177734375,-0.8793044090270996,-1.1318573951721191,-0.18033039569854736
1772811036161993700,9.61099365234375,-2.654160976409912,-0.9646692276000977,-0.9309768080711365
1772811036181755400,9.63075537109375,-2.779623508453369,-0.7506427764892578,-1.548330545425415
1772811036201517300,9.650517333984375,-1.7434496879577637,-0.5573816299438477,-1.6113275289535522
1772811036221279000,9.670279052734376,-0.7764878273010254,-0.607609748840332,-1.2052981853485107
1772811036241040600,9.69004052734375,0.6875886917114258,-0.06815576553344727,-1.205780029296875
1772811036260802300,9.70980224609375,0.7320022583007812,-0.06303167343139648,-1.1960971355438232
1772811036280564000,9.72956396484375,0.2772679328918457,0.0228424072265625,-1.2077534198760986
1772811036300325600,9.74932568359375,0.1854543685913086,-0.3321690559387207,-0.6303457617759705
1772811036320087600,9.769087646484374,0.31810998916625977,-0.8365869522094727,-0.3307769298553467
1772811036339849200,9.78884912109375,0.6813840866088867,-1.184786319732666,-0.40023767948150635
1772811036359611000,9.80861083984375,-0.035431861877441406,-1.3424510955810547,-0.20716184377670288
1772811036379372500,9.82837255859375,-0.9567933082580566,-1.1046395301818848,-0.17983680963516235
1772811036399134500,9.848134521484376,-0.7520794868469238,-1.2791118621826172,-0.028010010719299316
1772811036418896100,9.867896240234375,0.0738668441772461,-1.5136222839355469,-0.12185895442962646
1772811036438657800,9.88765771484375,1.7287111282348633,-1.6442270278930664,-0.65891033411026
1772811036458419500,9.90741943359375,1.7974457740783691,-1.8737354278564453,-1.0846855640411377
1772811036478181000,9.92718115234375,0.6656999588012695,-1.5939807891845703,-1.271742582321167
1772811036497942800,9.94694287109375,-0.5138688087463379,-1.492241382598877,-0.9397549033164978
1772811036517703700,9.96670361328125,-1.5120224952697754,-1.2135014533996582,-0.7949524521827698
1772811036537464600,9.986464599609375,-0.24632596969604492,-1.721170425415039,-0.32187050580978394
1772811036557225500,10.0062255859375,-0.6412296295166016,-1.359178066253662,-1.7239677906036377
1772811036576986400,10.025986328125,-0.23462152481079102,-1.5678801536560059,-1.7097892761230469
1772811036596747300,10.045747314453125,0.18660736083984375,-1.410672664642334,-1.6083447933197021
1772811036616508200,10.065508056640626,0.7454190254211426,-1.431922435760498,-1.196479082107544
1772811036636269000,10.08526904296875,1.344508171081543,-1.175358772277832,-1.2893056869506836
