time,seconds_elapsed,z,y,x
1772811267772435200,0.197435302734375,-0.06551370769739151,0.6254428625106812,-0.147805318236351
1772811267792197600,0.21719775390625,-0.09267792850732803,0.6163880825042725,-0.3427485525608063
1772811267802078700,0.22707861328125,-0.1081242486834526,0.5892238616943359,-0.4178496301174164
1772811267811960000,0.2369599609375,-0.12942951917648315,0.5205143690109253,-0.4498075246810913
1772811267821841200,0.246841064453125,-0.15819163620471954,0.41824910044670105,-0.45193806290626526
1772811267831722500,0.256722412109375,-0.19014954566955566,0.30586379766464233,-0.4258390963077545
1772811267841603600,0.266603515625,-0.2210421860218048,0.1849563866853714,-0.36831486225128174
1772811267851485000,0.27648486328125,-0.24660851061344147,0.031558431684970856,-0.26818010210990906
1772811267861366000,0.286365966796875,-0.260456919670105,-0.08455529063940048,-0.1339568942785263
1772811267871247400,0.296247314453125,-0.27696850895881653,-0.13675320148468018,0.027430536225438118
1772811267881128400,0.30612841796875,-0.3051980137825012,-0.2209090292453766,0.2095905989408493
1772811267891009800,0.316009765625,-0.2876211404800415,-0.3045322000980377,0.3747064471244812
1772811267900891000,0.325890869140625,-0.2173137664794922,-0.3226417005062103,0.49561384320259094
1772811267910772200,0.335772216796875,-0.12623372673988342,-0.22623534500598907,0.5456812381744385
1772811267920653300,0.3456533203125,-0.038882117718458176,-0.1820269078016281,0.5360938906669617
1772811267930534700,0.35553466796875,0.03195790573954582,-0.13249215483665466,0.45779699087142944
1772811267940415700,0.365415771484375,0.09960214048624039,0.015046847052872181,0.30652958154678345
1772811267950297000,0.375297119140625,0.18535585701465607,0.15406373143196106,0.11158635467290878
1772811267960178200,0.38517822265625,0.44581279158592224,-0.012117372825741768,-0.2000032216310501
1772811267970059500,0.3950595703125,0.5507412552833557,-0.14101426303386688,-0.5126580595970154
1772811267979940600,0.404940673828125,0.5320991277694702,-0.357795387506485,-0.7337002754211426
1772811267989822000,0.414822021484375,0.4181159436702728,-0.7008102536201477,-0.8215845227241516
1772811267999702800,0.424702880859375,0.2684464156627655,-0.9548755884170532,-0.7976160645484924
1772811268009583600,0.43458349609375,-0.019707374274730682,-0.6640586256980896,-0.7358307838439941
1772811268019464400,0.44446435546875,-0.32863378524780273,0.1045289859175682,-0.6596644520759583
1772811268029345500,0.454345458984375,-0.5411538481712341,0.5769733786582947,-0.8050729036331177
1772811268039226400,0.464226318359375,-0.5938844084739685,0.6126596927642822,-1.1496856212615967
1772811268049107200,0.474107177734375,-0.5811012387275696,0.6984133720397949,-1.4229257106781006
1772811268058988000,0.483988037109375,-0.5683180689811707,0.9045419096946716,-1.550224781036377
1772811268068868900,0.493868896484375,-0.6189181208610535,0.9194555878639221,-1.559279441833496
1772811268078749700,0.503749755859375,-0.684431791305542,0.6334323287010193,-1.4351762533187866
1772811268088630500,0.513630615234375,-0.7195855379104614,0.20572902262210846,-1.2072099447250366
1772811268098511400,0.523511474609375,-0.738760232925415,0.06884265691041946,-0.9057403206825256
1772811268108392200,0.53339208984375,-0.7483476400375366,-0.28855326771736145,-0.5169191360473633
1772811268118273000,0.54327294921875,-0.7749792337417603,-0.7247786521911621,-0.21864533424377441
1772811268128154000,0.553154052734375,-0.8415581583976746,-1.1626019477844238,-0.03595264256000519
1772811268138035000,0.563034912109375,-0.9161266088485718,-1.606284260749817,0.13981583714485168
1772811268147915800,0.572915771484375,-0.9736508727073669,-1.9482338428497314,0.32091063261032104
1772811268157796600,0.582796630859375,-1.0343708992004395,-2.2443771362304688,0.38163065910339355
1772811268167677400,0.592677490234375,-1.1009498834609985,-2.4995076656341553,0.266582190990448
1772811268177558300,0.602558349609375,-1.158474087715149,-2.7652909755706787,0.024767376482486725
1772811268187439000,0.612439208984375,-1.2479562759399414,-2.9256131649017334,-0.26391902565956116
1772811268197320000,0.62231982421875,-1.2692614793777466,-2.888328790664673,-0.509462296962738
1772811268207200800,0.63220068359375,-1.165930986404419,-2.819086790084839,-0.706536054611206
1772811268217081600,0.64208154296875,-0.9874992966651917,-2.749311923980713,-0.8844350576400757
1772811268226962400,0.65196240234375,-0.6972149610519409,-2.8553056716918945,-1.0410287380218506
1772811268236843300,0.66184326171875,-0.3206443190574646,-3.1029794216156006,-1.1534141302108765
1772811268246724400,0.671724365234375,0.018109479919075966,-3.3506531715393066,-1.2588751316070557
1772811268256605200,0.681605224609375,0.26684850454330444,-3.696331262588501,-1.398424744606018
1772811268266486000,0.691486083984375,0.39840856194496155,-4.129360675811768,-1.579519510269165
1772811268276366800,0.701366943359375,0.37497276067733765,-4.553335666656494,-1.780854344367981
1772811268286247700,0.71124755859375,0.18961690366268158,-4.84202241897583,-1.9454375505447388
1772811268296128500,0.72112841796875,-0.14540846645832062,-4.861196994781494,-2.0642144680023193
1772811268306009300,0.73100927734375,-0.5885580778121948,-4.60819673538208,-2.119608163833618
1772811268315890200,0.74089013671875,-1.0354361534118652,-4.233223915100098,-2.0977702140808105
1772811268325771000,0.75077099609375,-1.3033499717712402,-3.250518560409546,-2.289517641067505
1772811268335651800,0.76065185546875,-1.1318424940109253,-2.2145497798919678,-2.5963134765625
1772811268345532700,0.77053271484375,-0.6838991641998291,-1.793770670890808,-2.572345018386841
1772811268355413500,0.78041357421875,-0.22317270934581757,-1.4177325963974,-2.4839282035827637
1772811268365294600,0.790294677734375,0.3957453966140747,-1.4401031732559204,-2.101498603820801
1772811268375175400,0.800175537109375,1.0551434755325317,-2.7061688899993896,-1.2460919618606567
1772811268385056300,0.81005615234375,1.3012193441390991,-4.095272541046143,-0.5169191360473633
1772811268394937000,0.81993701171875,1.3129372596740723,-5.328847408294678,-0.20319901406764984
1772811268404818000,0.82981787109375,1.3922994136810303,-5.9797234535217285,-0.16484953463077545
1772811268414698800,0.83969873046875,1.4514214992523193,-6.020203590393066,-0.3150516748428345
1772811268424579600,0.84957958984375,1.43118155002594,-5.816738128662109,-0.6585991978645325
1772811268434460400,0.85946044921875,1.4988257884979248,-5.46839714050293,-0.9803087711334229
1772811268444341200,0.86934130859375,1.6799205541610718,-5.569597244262695,-1.1891003847122192
1772811268454222300,0.879222412109375,1.7251943349838257,-6.133121490478516,-0.9803087711334229
1772811268464103200,0.889103271484375,1.7944364547729492,-6.6449809074401855,-0.5360938906669617
1772811268473984000,0.89898388671875,2.216813325881958,-6.7983784675598145,-0.42796963453292847
1772811268483864800,0.90886474609375,2.8682219982147217,-6.125664710998535,-0.9222518801689148
1772811268493745700,0.91874560546875,3.432811737060547,-4.555998802185059,-1.6961658000946045
1772811268503627000,0.928626953125,3.758782386779785,-3.1775479316711426,-2.2463743686676025
1772811268513508600,0.938508544921875,3.99314022064209,-2.1815264225006104,-2.41841459274292
1772811268523390200,0.94839013671875,4.032022476196289,-1.6393073797225952,-2.2405154705047607
1772811268533271600,0.958271484375,3.8605151176452637,-1.455016851425171,-1.8128122091293335
1772811268543153200,0.968153076171875,3.581415891647339,-1.6563515663146973,-1.2689951658248901
1772811268553034800,0.97803466796875,3.252782106399536,-2.1362528800964355,-0.6953507661819458
1772811268562916000,0.987916015625,2.940127372741699,-2.6582319736480713,-0.1728390008211136
1772811268572797700,0.997797607421875,2.694051504135132,-3.1738195419311523,0.2282327115535736
1772811268582679300,1.00767919921875,2.553969383239746,-3.6153712272644043,0.48070016503334045
1772811268592560600,1.017560546875,2.544381856918335,-3.8289566040039062,0.5861612558364868
1772811268602442200,1.027442138671875,2.62321138381958,-3.9322872161865234,0.5920202136039734
1772811268612323800,1.03732373046875,2.742521047592163,-4.013247013092041,0.5472791194915771
1772811268622205400,1.047205322265625,2.891125202178955,-4.1224365234375,0.4886896312236786
1772811268632086800,1.057086669921875,3.0290768146514893,-4.271040916442871,0.46685174107551575
1772811268641968400,1.066968505859375,3.1409294605255127,-4.502735614776611,0.530767560005188
1772811268651850000,1.07685009765625,3.2266831398010254,-4.797281265258789,0.6996118426322937
1772811268661731300,1.0867314453125,3.277283191680908,-5.039628505706787,0.9765803217887878
1772811268671613000,1.096613037109375,3.29805588722229,-5.184504508972168,1.324388861656189
1772811268681494500,1.10649462890625,3.272489547729492,-5.178645610809326,1.6876437664031982
1772811268691376000,1.116376220703125,3.189399003982544,-4.996485233306885,2.0194733142852783
1772811268701257500,1.126257568359375,3.0684916973114014,-4.6012725830078125,2.2767343521118164
1772811268711139000,1.13613916015625,2.947051525115967,-4.0159101486206055,2.4397196769714355
1772811268721020700,1.146020751953125,2.841057777404785,-3.2664973735809326,2.5052335262298584
1772811268730902000,1.155902099609375,2.7355966567993164,-2.411090850830078,2.4700798988342285
1772811268740783600,1.16578369140625,2.614689350128174,-1.4986926317214966,2.348107099533081
1772811268750665200,1.175665283203125,2.493781805038452,-0.5761744379997253,2.1531639099121094
1772811268760546800,1.185546875,2.3819291591644287,0.2930806279182434,1.9033596515655518
1772811268770428200,1.19542822265625,2.2647502422332764,1.0744514465332031,1.6375763416290283
1772811268780309800,1.205309814453125,2.147571325302124,1.7375779151916504,1.396294116973877
1772811268790191400,1.21519140625,2.042642831802368,2.231327533721924,1.2013509273529053
1772811268800072700,1.22507275390625,1.9574217796325684,2.569016218185425,1.071388840675354
1772811268809954300,1.234954345703125,1.8956364393234253,2.785797357559204,0.9792435169219971
1772811268819836000,1.2448359375,1.8461016416549683,2.9067046642303467,0.8796413540840149
1772811268829717200,1.25471728515625,1.808284878730774,2.9434561729431152,0.769919216632843
1772811268839598800,1.264598876953125,1.7736637592315674,2.8838014602661133,0.6649907827377319
1772811268849480400,1.27448046875,1.7363795042037964,2.7426540851593018,0.5696496963500977
1772811268859362000,1.284362060546875,1.695899486541748,2.5445151329040527,0.48123279213905334
1772811268869243400,1.294243408203125,1.6452995538711548,2.3277339935302734,0.3789674937725067
1772811268879125000,1.304125,1.5595457553863525,2.0933759212493896,0.25486430525779724
1772811268889006600,1.314006591796875,1.443432092666626,1.8595505952835083,0.12383688241243362
1772811268898888000,1.323887939453125,1.3203941583633423,1.6193337440490723,0.009321056306362152
1772811268908769500,1.33376953125,1.2064108848571777,1.3572789430618286,-0.05832317844033241
1772811268918651100,1.343651123046875,1.0817750692367554,1.0914956331253052,-0.09827055782079697
1772811268928532700,1.35353271484375,0.9555413722991943,0.8512787222862244,-0.13821794092655182
1772811268938414000,1.3634140625,0.9054740071296692,0.6376934051513672,-0.1669800579547882
1772811268948295700,1.373295654296875,0.9321056008338928,0.42197751998901367,-0.14620742201805115
1772811268958177300,1.38317724609375,1.0231856107711792,0.2275669276714325,-0.06578002125024796
1772811268968058600,1.39305859375,1.1515498161315918,0.031558431684970856,0.05459475517272949
1772811268977940200,1.402940185546875,1.284175157546997,-0.18895111978054047,0.21704743802547455
1772811268987821800,1.41282177734375,1.3922994136810303,-0.41638487577438354,0.41891488432884216
1772811268997703200,1.422703125,1.4514214992523193,-0.6321007609367371,0.6255760192871094
1772811269007584000,1.432583984375,1.4370404481887817,-0.8350334167480469,0.7901592254638672
1772811269017464800,1.44246484375,1.3427646160125732,-1.015062928199768,0.8956202864646912
1772811269027345700,1.452345703125,1.1792466640472412,-1.144492506980896,0.9590035080909729
1772811269037226500,1.4622265625,0.9683245420455933,-1.22864830493927,0.988298237323761
1772811269047107300,1.472107421875,0.7169223427772522,-1.265932559967041,0.9707213640213013
1772811269056988200,1.48198828125,0.43143174052238464,-1.2595409154891968,0.908936083316803
1772811269066869000,1.491868896484375,0.11664635688066483,-1.224387288093567,0.8109318614006042
1772811269076749800,1.501749755859375,-0.19867165386676788,-1.1556777954101562,0.6846981048583984
1772811269086630700,1.511630615234375,-0.5012065172195435,-1.0614019632339478,0.5403549075126648
1772811269096511500,1.521511474609375,-0.7717834115028381,-0.9463534951210022,0.36724960803985596
1772811269106392600,1.531392578125,-1.0135982036590576,-0.8036081790924072,0.14460952579975128
1772811269116273400,1.5412734375,-1.2389014959335327,-0.6608628630638123,-0.1249021515250206
1772811269126154200,1.551154296875,-1.456215262413025,-0.5207806825637817,-0.4125232994556427
1772811269136035000,1.56103515625,-1.6708658933639526,-0.3956122398376465,-0.6809697151184082
1772811269145916000,1.570916015625,-1.9180070161819458,-0.30399957299232483,-0.8988161087036133
1772811269155796700,1.580796630859375,-2.197106122970581,-0.22676797211170197,-1.0740519762039185
1772811269165677600,1.590677490234375,-2.4628891944885254,-0.16498269140720367,-1.2535488605499268
1772811269175558400,1.600558349609375,-2.713226079940796,-0.1170458272099495,-1.4341109991073608
1772811269185439200,1.610439208984375,-2.95131254196167,-0.08455529063940048,-1.6008247137069702
1772811269195320000,1.620320068359375,-3.163300037384033,-0.057923704385757446,-1.7409069538116455
1772811269205201000,1.630200927734375,-3.343862295150757,-0.022237375378608704,-1.8373132944107056
1772811269215081700,1.640081787109375,-3.4999232292175293,0.004394211806356907,-1.8548901081085205
1772811269224962600,1.649962646484375,-3.6128411293029785,0.01344895176589489,-1.7664732933044434
1772811269234843600,1.65984375,-3.6623759269714355,-0.0003994738217443228,-1.5821826457977295
1772811269244724500,1.669724365234375,-3.640537977218628,-0.05206475406885147,-1.3638036251068115
1772811269254605300,1.679605224609375,-3.5686328411102295,-0.1303616166114807,-1.156077265739441
1772811269264486100,1.689486083984375,-3.4695632457733154,-0.2342248111963272,-0.9877656102180481
1772811269274367000,1.699366943359375,-3.352384328842163,-0.35992592573165894,-0.8743150234222412
1772811269284247800,1.709247802734375,-3.2224221229553223,-0.4930838644504547,-0.8103992342948914
1772811269294128600,1.719128662109375,-3.0924599170684814,-0.6203828454017639,-0.7858981490135193
1772811269304009500,1.729009521484375,-2.976346254348755,-0.7306376099586487,-0.7667233943939209
1772811269313890300,1.738890380859375,-2.8937883377075195,-0.8153260946273804,-0.727841317653656
1772811269333652000,1.75865185546875,-2.855971574783325,-0.9841703176498413,-0.5707149505615234
1772811269343532800,1.76853271484375,-2.8788747787475586,-1.0859030485153198,-0.4311653971672058
1772811269353413600,1.77841357421875,-2.911365270614624,-1.1881682872772217,-0.258060097694397
1772811269363294500,1.78829443359375,-2.9342684745788574,-1.287770390510559,-0.07643266022205353
1772811269383056400,1.808056396484375,-2.8889946937561035,-1.4230588674545288,0.17923058569431305
1772811269392937200,1.817937255859375,-2.8336009979248047,-1.4379725456237793,0.22716744244098663
1772811269402818000,1.827818115234375,-2.7600977420806885,-1.3932315111160278,0.2516685128211975
1772811269412699000,1.837698974609375,-2.663158893585205,-1.2941620349884033,0.2719085216522217
1772811269422579700,1.847579833984375,-2.540120840072632,-1.1530146598815918,0.29321378469467163
1772811269432460500,1.85746044921875,-2.3931145668029785,-0.9857682585716248,0.3145190477371216
1772811269442341400,1.86734130859375,-2.235988140106201,-0.8313050270080566,0.3406180143356323
1772811269452222200,1.87722216796875,-2.0746006965637207,-0.6944186687469482,0.3938812017440796
1772811269462103000,1.88710302734375,-1.9196048974990845,-0.5649891495704651,0.47111278772354126
1772811269471983900,1.89698388671875,-1.8034911155700684,-0.4605933129787445,0.5637907385826111
1772811269481864700,1.90686474609375,-1.7342489957809448,-0.3993406593799591,0.660729706287384
1772811269491745500,1.91674560546875,-1.6943016052246094,-0.3759048581123352,0.7502118349075317
1772811269501626600,1.926626708984375,-1.6729964017868042,-0.37803539633750916,0.8114644885063171
1772811269511508000,1.936508056640625,-1.6634089946746826,-0.39135119318962097,0.8237150311470032
1772811269521389000,1.94638916015625,-1.654354214668274,-0.41159120202064514,0.7938876152038574
1772811269531270100,1.956270263671875,-1.6389079093933105,-0.39241644740104675,0.7427549958229065
1772811269541151500,1.9661513671875,-1.6186679601669312,-0.31252169609069824,0.6788392066955566
1772811269551032600,1.976032470703125,-1.5957647562026978,-0.29281431436538696,0.5526054501533508
1772811269560913700,1.98591357421875,-1.5595457553863525,-0.30399957299232483,0.4226433038711548
1772811269570795000,1.995794921875,-1.5259900093078613,-0.2432795614004135,0.3182474672794342
1772811269580676000,2.005676025390625,-1.4689984321594238,-0.17723321914672852,0.1952095478773117
1772811269590557200,2.01555712890625,-1.3869731426239014,-0.12876373529434204,0.06045370548963547
1772811269600438500,2.0254384765625,-1.2980235815048218,-0.07177212834358215,-0.06311686336994171
1772811269610319600,2.035319580078125,-1.2064108848571777,-0.021704744547605515,-0.16325163841247559
1772811269620200700,2.04520068359375,-1.1014825105667114,0.03368895873427391,-0.24154850840568542
1772811269630082000,2.05508203125,-0.9768466353416443,0.06351634114980698,-0.2948116660118103
1772811269639963100,2.064963134765625,-0.8293076753616333,0.07949528843164444,-0.3278348445892334
1772811269649844200,2.07484423828125,-0.6540718078613281,0.09653950482606888,-0.3470095992088318
1772811269659725600,2.0847255859375,-0.4569980502128601,0.1279647797346115,-0.3262369632720947
1772811269669606700,2.094606689453125,-0.24234744906425476,0.1524658352136612,-0.26977798342704773
1772811269679487700,2.10448779296875,-0.04154527932405472,0.16311848163604736,-0.20319901406764984
1772811269689369000,2.114369140625,0.11717899143695831,0.15992268919944763,-0.18402427434921265
1772811269699250200,2.124250244140625,0.2865558862686157,0.11358372122049332,-0.24154850840568542
1772811269709131300,2.13413134765625,0.4942822754383087,0.09440898150205612,-0.3608580231666565
1772811269719012600,2.1440126953125,0.7371623516082764,0.0906805545091629,-0.4652538299560547
1772811269728893700,2.153893798828125,1.0247834920883179,0.07576686888933182,-0.49508121609687805
1772811269738774800,2.16377490234375,1.3475583791732788,0.05978791415691376,-0.43436118960380554
1772811269748656000,2.17365625,1.6825836896896362,0.043276332318782806,-0.2841590344905853
1772811269758537200,2.183537109375,2.022402763366699,0.01344895176589489,-0.06631265580654144
1772811269768418300,2.193418212890625,2.3521018028259277,-0.04940159618854523,0.19787269830703735
1772811269778299600,2.203299560546875,2.6668872833251953,-0.12397003918886185,0.49082016944885254
1772811269788180700,2.2131806640625,2.956638813018799,-0.21025638282299042,0.7779086828231812
1772811269798061800,2.223061767578125,3.1973884105682373,-0.30772799253463745,1.034104585647583
1772811269807943200,2.232943115234375,3.366765260696411,-0.3860248625278473,1.2492878437042236
1772811269817824300,2.24282421875,3.4690306186676025,-0.4174501299858093,1.438372015953064
1772811269827705300,2.252705322265625,3.512173891067505,-0.41585224866867065,1.6024227142333984
1772811269837586700,2.262586669921875,3.5100433826446533,-0.39135119318962097,1.7462332248687744
1772811269847467800,2.2724677734375,3.471161127090454,-0.3487406373023987,1.8852500915527344
1772811269857348900,2.282348876953125,3.4141695499420166,-0.2725743055343628,1.9955048561096191
1772811269867230200,2.292230224609375,3.3454601764678955,-0.1585911065340042,2.0647470951080322
1772811269877111300,2.302111328125,3.2522494792938232,-0.017976321280002594,2.089780807495117
1772811269886992400,2.311992431640625,3.124950647354126,0.14074794948101044,2.0530290603637695
1772811269896873700,2.321873779296875,2.965161085128784,0.307461678981781,1.957155466079712
1772811269906754800,2.3317548828125,2.772881031036377,0.45606595277786255,1.8053553104400635
1772811269916636000,2.341635986328125,2.5630240440368652,0.6036049723625183,1.616803765296936
1772811269926517200,2.351517333984375,2.341981887817383,0.7261102795600891,1.3717931509017944
1772811269936398300,2.3613984375,2.1054933071136475,0.8155924081802368,1.0799108743667603
1772811269946279400,2.371279541015625,1.854623794555664,0.8922913670539856,0.757668673992157
1772811269956160800,2.381160888671875,1.5957647562026978,0.9615334868431091,0.40559908747673035
1772811269966041900,2.391041748046875,1.329448938369751,1.0318409204483032,0.05086633190512657
1772811269975923000,2.4009228515625,1.096156120300293,1.0936261415481567,-0.2985401153564453
1772811269985804300,2.41080419921875,0.8639287352561951,1.1687272787094116,-0.6122602224349976
1772811269995685400,2.420685302734375,0.6237117648124695,1.2693946361541748,-0.8828371167182922
1772811270005566500,2.43056640625,0.4138548672199249,1.39456307888031,-1.1251846551895142
1772811270015447600,2.440447509765625,0.21518322825431824,1.5804516077041626,-1.3339762687683105
1772811270025328600,2.45032861328125,0.06657896935939789,1.8164074420928955,-1.5411700010299683
1772811270035209700,2.460209716796875,-0.03675159066915512,2.0640811920166016,-1.7840501070022583
1772811270045090800,2.4700908203125,-0.1267663538455963,2.3272013664245605,-2.056224822998047
1772811270054972000,2.479971923828125,-0.21411797404289246,2.5956478118896484,-2.322540760040283
1772811270064853000,2.48985302734375,-0.2934800982475281,2.851310968399048,-2.5590293407440186
1772811270074734000,2.499734130859375,-0.35206958651542664,3.079277276992798,-2.7539725303649902
1772811270084615200,2.509615234375,-0.37550538778305054,3.2683615684509277,-2.92814302444458
1772811270094496300,2.519496337890625,-0.4058654010295868,3.4334774017333984,-3.0453221797943115
1772811270104377300,2.52937744140625,-0.41758328676223755,3.5426669120788574,-3.098585367202759
1772811270114258400,2.539258544921875,-0.4143875241279602,3.5932669639587402,-3.0740842819213867
1772811270124139500,2.549139404296875,-0.38882118463516235,3.6007239818573,-2.978743076324463
1772811270134020600,2.5590205078125,-0.32756853103637695,3.55438494682312,-2.8365304470062256
1772811270143901700,2.568901611328125,-0.240216925740242,3.476088047027588,-2.64638090133667
1772811270153782800,2.57878271484375,-0.13369056582450867,3.34665846824646,-2.4050986766815186
1772811270163664000,2.588663818359375,-0.013315794058144093,3.138932228088379,-2.1132164001464844
1772811270173545000,2.598544921875,0.12410320341587067,2.8790078163146973,-1.7915068864822388
1772811270183426000,2.608426025390625,0.27963167428970337,2.5759403705596924,-1.4543510675430298
1772811270193307100,2.61830712890625,0.4447475075721741,2.264883518218994,-1.1347719430923462
1772811270203188200,2.628188232421875,0.6194507479667664,1.9596854448318481,-0.845552921295166
1772811270213069300,2.6380693359375,0.7925560474395752,1.6694010496139526,-0.5781717896461487
1772811270222950400,2.647950439453125,0.9688571691513062,1.4057483673095703,-0.3235737979412079
1772811270232831500,2.65783154296875,1.1558109521865845,1.1649987697601318,-0.10412950813770294
1772811270242712600,2.667712646484375,1.3177310228347778,0.9578050374984741,0.0966726616024971
1772811270252593700,2.67759375,1.4711289405822754,0.7953523993492126,0.26924535632133484
1772811270272355800,2.69735595703125,1.7619458436965942,0.5423523187637329,0.5462138652801514
1772811270282237000,2.70723681640625,1.8764617443084717,0.45073962211608887,0.6612623333930969
1772811270292118000,2.717117919921875,1.9877817630767822,0.3495396077632904,0.7651255130767822
1772811270301999000,2.7269990234375,2.0895144939422607,0.2137184888124466,0.8966856002807617
1772811270311880200,2.736880126953125,2.166213274002075,0.05819002166390419,1.0607361793518066
1772811270321761300,2.74676123046875,2.2056281566619873,-0.10905635356903076,1.244494080543518
1772811270331642400,2.756642333984375,2.207226037979126,-0.26458483934402466,1.433045744895935
1772811270341523500,2.7665234375,2.182192325592041,-0.3945469856262207,1.5997594594955444
1772811270351404500,2.776404541015625,2.132124900817871,-0.531965970993042,1.7196016311645508
1772811270361285400,2.786285400390625,2.043708086013794,-0.6667218208312988,1.7595490217208862
1772811270371166700,2.796166748046875,1.9052238464355469,-0.7764439582824707,1.684448003768921
1772811270381047800,2.8060478515625,1.7608805894851685,-0.863262951374054,1.5283868312835693
1772811270390929000,2.815928955078125,1.6500931978225708,-0.9085366129875183,1.3579447269439697
1772811270400810000,2.82581005859375,1.589373230934143,-0.9367660880088806,1.2045466899871826
1772811270410691000,2.835691162109375,1.5542194843292236,-0.9575387239456177,1.0756498575210571
1772811270420572200,2.845572265625,1.510543704032898,-0.9852356314659119,0.954742431640625
1772811270430453000,2.855452880859375,1.4413015842437744,-1.0187914371490479,0.8402265906333923
1772811270440334000,2.865333984375,1.3427646160125732,-1.059804081916809,0.7331676483154297
1772811270450215200,2.875215087890625,1.18830144405365,-1.107740879058838,0.6447507739067078
1772811270460096500,2.885096435546875,0.9635308384895325,-1.1700588464736938,0.5675191283226013
1772811270469977600,2.8949775390625,0.6679202318191528,-1.22864830493927,0.4977443814277649
1772811270489739800,2.91473974609375,-0.10013477504253387,-1.2968251705169678,0.40559908747673035
1772811270499620600,2.92462060546875,-0.533164381980896,-1.2797809839248657,0.35766223073005676
1772811270509501200,2.934501220703125,-0.9598024487495422,-1.240898847579956,0.2798979878425598
1772811270519381800,2.9443818359375,-1.3550151586532593,-1.1508840322494507,0.15686005353927612
1772811270529262300,2.954262451171875,-1.708150029182434,-0.9969534873962402,-0.03861580416560173
1772811270539143000,2.964142822265625,-2.0069565773010254,-0.8302397727966309,-0.3086601197719574
1772811270549023500,2.9740234375,-2.2642176151275635,-0.6779070496559143,-0.6042707562446594
1772811270558904000,2.983904052734375,-2.4825966358184814,-0.5287702083587646,-0.8993487358093262
1772811270568784400,2.993784423828125,-2.6647567749023438,-0.3961448669433594,-1.1752519607543945
1772811270578665000,3.0036650390625,-2.820817708969116,-0.28429219126701355,-1.4026857614517212
1772811270588545500,3.013545654296875,-2.955573558807373,-0.21824586391448975,-1.5571489334106445
1772811270598426000,3.023426025390625,-3.050914764404297,-0.18841849267482758,-1.6231952905654907
1772811270608306700,3.033306640625,-3.0967211723327637,-0.19747322797775269,-1.6231952905654907
1772811270618187300,3.043187255859375,-3.0988516807556152,-0.2683132588863373,-1.5683342218399048
1772811270628067800,3.05306787109375,-3.065828323364258,-0.40253645181655884,-1.4687321186065674
1772811270637948400,3.062948486328125,-2.990194797515869,-0.5687175393104553,-1.3334436416625977
1772811270647829000,3.0728291015625,-2.887396812438965,-0.7705850005149841,-1.165664553642273
1772811270657709600,3.08270947265625,-2.7707505226135254,-0.9910945296287537,-0.9701887369155884
1772811270667590100,3.092590087890625,-2.6546366214752197,-1.2094736099243164,-0.7411571145057678
1772811270677470700,3.102470703125,-2.543316602706909,-1.409743070602417,-0.49401596188545227
1772811270687351300,3.112351318359375,-2.444779872894287,-1.580717921257019,-0.2378200888633728
1772811270697232000,3.12223193359375,-2.3680808544158936,-1.7223979234695435,0.016777900978922844
1772811270707112400,3.132112548828125,-2.311089277267456,-1.828391671180725,0.26871272921562195
1772811270716993000,3.141992919921875,-2.275402784347534,-1.891242265701294,0.4961465001106262
1772811270726873600,3.15187353515625,-2.2631523609161377,-1.9242653846740723,0.6846981048583984
1772811270736754200,3.161754150390625,-2.2594239711761475,-1.9200043678283691,0.8375634551048279
1772811270746634800,3.171634765625,-2.266348123550415,-1.8821874856948853,0.9536771774291992
1772811270756515300,3.181515380859375,-2.2780661582946777,-1.8049558401107788,1.0335719585418701
1772811270766396000,3.19139599609375,-2.2913818359375,-1.7090821266174316,1.0697908401489258
1772811270776276500,3.2012763671875,-2.301501750946045,-1.5865768194198608,1.046887755393982
1772811270786157000,3.211156982421875,-2.307360887527466,-1.4571473598480225,0.9744498133659363
1772811270796037600,3.22103759765625,-2.296708106994629,-1.3144019842147827,0.8716518878936768
1772811270805918200,3.230918212890625,-2.2636849880218506,-1.1594061851501465,0.7550055384635925
1772811270815798800,3.240798828125,-2.2093565464019775,-1.0017471313476562,0.6261086463928223
1772811270825679400,3.250679443359375,-2.15236496925354,-0.8376966118812561,0.49987491965293884
1772811270835560000,3.260559814453125,-2.1001670360565186,-0.6704502105712891,0.388022243976593
1772811270845440500,3.2704404296875,-2.047969102859497,-0.5133238434791565,0.2900179922580719
1772811270855321000,3.280321044921875,-1.9931080341339111,-0.3711111843585968,0.18775269389152527
1772811270865201700,3.29020166015625,-1.933985948562622,-0.2539321780204773,0.08175897598266602
1772811270875082200,3.300082275390625,-1.872200608253479,-0.1543300598859787,-0.024767376482486725
1772811270884962800,3.309962890625,-1.8093501329421997,-0.06697844713926315,-0.13076110184192657
1772811270894843100,3.319843017578125,-1.7512931823730469,0.004926843568682671,-0.22290639579296112
1772811270904723700,3.3297236328125,-1.7001606225967407,0.05339633300900459,-0.2889527380466461
1772811270914604300,3.339604248046875,-1.6634089946746826,0.08322371542453766,-0.33422642946243286
1772811270924484900,3.34948486328125,-1.6431690454483032,0.09494160860776901,-0.36671698093414307
1772811270934365400,3.359365478515625,-1.62399423122406,0.09973529726266861,-0.4125232994556427
1772811270944246000,3.36924609375,-1.6128089427947998,0.10719214379787445,-0.47111278772354126
1772811270954126600,3.379126708984375,-1.5978952646255493,0.1237037256360054,-0.5334306955337524
1772811270964007200,3.389007080078125,-1.5627416372299194,0.1476721614599228,-0.5920202136039734
1772811270973887700,3.3988876953125,-1.5004236698150635,0.1988048106431961,-0.6197170615196228
1772811270983768300,3.408768310546875,-1.4040173292160034,0.23981745541095734,-0.5914875864982605
1772811270993649000,3.41864892578125,-1.267130970954895,0.2659164071083069,-0.4961465001106262
1772811271003529700,3.42852978515625,-1.091362476348877,0.28722167015075684,-0.35393381118774414
1772811271013410800,3.438410888671875,-0.8847013711929321,0.30107009410858154,-0.1856221705675125
1772811271023291600,3.448291748046875,-0.6578001976013184,0.3159838020801544,-0.0306263267993927
1772811271033172700,3.4581728515625,-0.438355952501297,0.31864693760871887,0.07856318354606628
1772811271052934700,3.4779345703125,0.007989476434886456,0.3117227256298065,0.09454213827848434
1772811271062815500,3.4878154296875,0.2721748352050781,0.2707100808620453,0.005592633504420519
1772811271072696600,3.497696533203125,0.5928191542625427,0.16418373584747314,-0.1105210930109024
1772811271082577400,3.507577392578125,0.8862992525100708,0.14341109991073608,-0.1813611090183258
1772811271092458500,3.51745849609375,1.163267731666565,0.13062794506549835,-0.2761695683002472
1772811271102339300,3.52733935546875,1.4881731271743774,0.11518161743879318,-0.34487906098365784
1772811271112220400,3.537220458984375,1.7891100645065308,0.08695213496685028,-0.30226853489875793
1772811271122101200,3.547101318359375,2.077263832092285,0.017710005864501,-0.2000032216310501
1772811271131982300,3.556982421875,2.370743989944458,-0.04780369997024536,-0.057257913053035736
1772811271141863200,3.56686328125,2.6700830459594727,-0.08295739442110062,0.10253161191940308
1772811271151744300,3.576744140625,2.961432695388794,-0.1122521460056305,0.27776744961738586
1772811271161625000,3.586625,3.2256178855895996,-0.15326479077339172,0.48496121168136597
1772811271171506000,3.596505859375,3.428018093109131,-0.19321216642856598,0.7177212834358215
1772811271181387000,3.606386962890625,3.551588535308838,-0.25073641538619995,0.95847088098526
1772811271191267800,3.616267822265625,3.5936665534973145,-0.30399957299232483,1.1938941478729248
1772811271201149000,3.62614892578125,3.5590455532073975,-0.3727090656757355,1.4117405414581299
1772811271211029800,3.63602978515625,3.437605381011963,-0.475506991147995,1.580052137374878
1772811271220910800,3.645910888671875,3.253847360610962,-0.58256596326828,1.6919047832489014
1772811271230791700,3.655791748046875,3.0328052043914795,-0.6704502105712891,1.7302542924880981
1772811271240672800,3.6656728515625,2.722280979156494,-0.6906902194023132,1.6913721561431885
1772811271250553600,3.6755537109375,2.414952516555786,-0.5889575481414795,1.5273215770721436
1772811271260434700,3.6854345703125,2.320143938064575,-0.7231807708740234,1.4255889654159546
1772811271270315500,3.6953154296875,2.271141767501831,-0.7018755078315735,1.331845760345459
1772811271290077400,3.715077392578125,2.098036527633667,-0.5117259621620178,0.9100013375282288
1772811271299958500,3.72495849609375,1.9675416946411133,-0.3956122398376465,0.6069338917732239
1772811271309839400,3.73483935546875,1.8194700479507446,-0.28908589482307434,0.28309378027915955
1772811271319720400,3.744720458984375,1.6767247915267944,-0.12450267374515533,-0.033289484679698944
1772811271329601300,3.754601318359375,1.552088975906372,0.11624687910079956,-0.3331611752510071
1772811271339482000,3.764482177734375,1.4743247032165527,0.4209122359752655,-0.5904223322868347
1772811271349363200,3.77436328125,1.4125394821166992,0.7303712964057922,-0.8737823963165283
1772811271359244000,3.784244140625,1.3598089218139648,1.117594599723816,-1.1720561981201172
1772811271369125000,3.794125,1.3156003952026367,1.5351779460906982,-1.4804500341415405
1772811271379006000,3.804005859375,1.2761857509613037,1.9559569358825684,-1.8090838193893433
1772811271388887000,3.813886962890625,1.2314445972442627,2.3820624351501465,-2.1313259601593018
1772811271398767900,3.823767822265625,1.1787140369415283,2.8023087978363037,-2.422675609588623
1772811271408649000,3.83364892578125,1.108939290046692,3.2055110931396484,-2.675675630569458
1772811271418529800,3.84352978515625,1.007206678390503,3.574625015258789,-2.8924567699432373
1772811271428411000,3.853410888671875,0.8783097863197327,3.896867036819458,-3.0708885192871094
1772811271438291700,3.863291748046875,0.7318360209465027,4.150932312011719,-3.2136337757110596
1772811271448172800,3.8731728515625,0.5773728489875793,4.355463027954102,-3.3222906589508057
1772811271458053600,3.8830537109375,0.4186485707759857,4.53123140335083,-3.3963265419006348
1772811271467934700,3.892934814453125,0.26418536901474,4.652671813964844,-3.424023389816284
1772811271477815600,3.902815673828125,0.12836425006389618,4.712326526641846,-3.395261287689209
1772811271487696600,3.912696533203125,0.02450106106698513,4.717120170593262,-3.3217580318450928
1772811271497577500,3.922577392578125,-0.055393703281879425,4.645747184753418,-3.2152316570281982
1772811271507458000,3.9324580078125,-0.1267663538455963,4.508328437805176,-3.0858020782470703
1772811271517339000,3.9423388671875,-0.19494321942329407,4.318711280822754,-2.9499809741973877
1772811271527219500,3.952219482421875,-0.25726112723350525,4.083820819854736,-2.813627243041992
1772811271537100300,3.962100341796875,-0.3051980137825012,3.8089828491210938,-2.68526291847229
1772811271546981000,3.971981201171875,-0.33236223459243774,3.5165679454803467,-2.5547683238983154
1772811271556861700,3.98186181640625,-0.32810115814208984,3.2044458389282227,-2.4066965579986572
1772811271566742500,3.991742431640625,-0.27963167428970337,2.8885951042175293,-2.243178606033325
1772811271576623000,4.001623046875,-0.18002954125404358,2.573809862136841,-2.0716712474823
1772811271586504000,4.01150390625,-0.0378168560564518,2.2526328563690186,-1.8740648031234741
1772811271596384800,4.021384765625,0.1597895324230194,1.9426411390304565,-1.6445006132125854
1772811271606265300,4.031265380859375,0.42717066407203674,1.657683253288269,-1.3952288627624512
1772811271616146200,4.041146240234375,0.7595328688621521,1.3615399599075317,-1.1374350786209106
1772811271626026800,4.05102685546875,1.1100045442581177,1.0824408531188965,-0.8732497692108154
1772811271635907600,4.060907470703125,1.4407689571380615,0.8598008155822754,-0.6170539259910583
1772811271645788400,4.070788330078125,1.7060195207595825,0.6792386770248413,-0.3693801164627075
1772811271655669000,4.0806689453125,1.9004300832748413,0.5221123099327087,-0.13076110184192657
1772811271665549800,4.0905498046875,2.0415775775909424,0.40440067648887634,0.10839056223630905
1772811271675430400,4.100430419921875,2.132124900817871,0.330364853143692,0.3640538156032562
1772811271685311200,4.110311279296875,2.207758665084839,0.30053746700286865,0.6367612481117249
1772811271695192000,4.120192138671875,2.290849208831787,0.28562378883361816,0.8892287015914917
1772811271705072600,4.13007275390625,2.3590261936187744,0.27124273777008057,1.1033467054367065
1772811271714953500,4.139953369140625,2.4027018547058105,0.25792694091796875,1.281778335571289
1772811271724834000,4.149833984375,2.4378554821014404,0.28189536929130554,1.428784728050232
1772811271734715000,4.15971484375,2.524142026901245,0.3559311628341675,1.5198646783828735
1772811271744595700,4.169595703125,2.672213554382324,0.4683164656162262,1.5395721197128296
1772811271754476300,4.179476318359375,2.817621946334839,0.6675207614898682,1.4836457967758179
1772811271764357000,4.189357177734375,2.9784767627716064,0.743687093257904,1.4575468301773071
1772811271774237700,4.19923779296875,3.10524320602417,0.8305060863494873,1.4543510675430298
1772811271784118500,4.209118408203125,3.14412522315979,0.9173250794410706,1.395761489868164
1772811271793999000,4.2189990234375,3.095655918121338,0.9908282160758972,1.3201278448104858
1772811271803880000,4.2288798828125,2.9475841522216797,1.0611356496810913,1.222123622894287
1772811271813760800,4.2387607421875,2.7217483520507812,1.0984199047088623,1.1225214004516602
1772811271823641300,4.248641357421875,2.3931145668029785,1.146889328956604,0.9829719066619873
1772811271833522200,4.258522216796875,1.9904448986053467,1.184173583984375,0.8125297427177429
1772811271843402800,4.26840283203125,1.544632077217102,1.163933515548706,0.7262434363365173
1772811271853283600,4.27828369140625,1.0215877294540405,1.1335735321044922,0.7347655296325684
1772811271863164400,4.288164306640625,0.4772380590438843,1.0515482425689697,0.8269107937812805
1772811271873045000,4.298044921875,-0.05006738752126694,0.9380977153778076,0.937698245048523
1772811271882925800,4.30792578125,-0.524642288684845,0.7852323651313782,1.0175930261611938
1772811271892806400,4.317806396484375,-0.9331708550453186,0.6147902011871338,1.0596709251403809
1772811271902687200,4.327687255859375,-1.2767183780670166,0.448076456785202,1.034104585647583
1772811271912568000,4.337568115234375,-1.552621603012085,0.318114310503006,0.9158602952957153
1772811271922448600,4.34744873046875,-1.766206979751587,0.22170796990394592,0.7145255208015442
1772811271932329500,4.35732958984375,-1.9233332872390747,0.1327584683895111,0.463655948638916
1772811271942210000,4.3672099609375,-2.0218701362609863,0.02623211406171322,0.19361165165901184
1772811271952091000,4.3770908203125,-2.0761985778808594,-0.08934897929430008,-0.07376950234174728
1772811271961971700,4.3869716796875,-2.0863187313079834,-0.21185427904129028,-0.3470095992088318
1772811271971852300,4.396852294921875,-2.0660786628723145,-0.3514038026332855,-0.6005423069000244
1772811271981733000,4.406733154296875,-2.0463712215423584,-0.5218459963798523,-0.8066707849502563
1772811271991613700,4.41661376953125,-2.0410449504852295,-0.7194523811340332,-0.9371655583381653
1772811272001495000,4.4264951171875,-2.0415775775909424,-0.9351682066917419,-0.9909613728523254
1772811272011376400,4.43637646484375,-2.027729034423828,-1.1556777954101562,-0.9957550764083862
1772811272021257700,4.4462578125,-2.0069565773010254,-1.357545256614685,-0.9792435169219971
1772811272031139000,4.45613916015625,-1.9787269830703735,-1.5109431743621826,-0.9739171862602234
1772811272041020700,4.466020751953125,-1.9526280164718628,-1.623328447341919,-0.97977614402771
1772811272050902000,4.475902099609375,-1.9382469654083252,-1.685113787651062,-0.9930919408798218
1772811272060783400,4.485783447265625,-1.9329206943511963,-1.6819179058074951,-1.004277229309082
1772811272070664700,4.495664794921875,-1.9451712369918823,-1.6206653118133545,-0.9973529577255249
1772811272080546300,4.50554638671875,-1.976596474647522,-1.4960294961929321,-0.9616666436195374
1772811272090427600,4.515427734375,-2.027729034423828,-1.32505464553833,-0.8945550322532654
1772811272100309000,4.52530908203125,-2.10229754447937,-1.1167956590652466,-0.8029423952102661
1772811272110190300,4.5351904296875,-2.2093565464019775,-0.8877639770507812,-0.7017423510551453
1772811272120071700,4.54507177734375,-2.336122989654541,-0.6592649817466736,-0.6159886121749878
1772811272129953300,4.554953369140625,-2.4735419750213623,-0.4605933129787445,-0.5685843825340271
1772811272139834600,4.564834716796875,-2.6008408069610596,-0.29334694147109985,-0.5520728230476379
1772811272149716000,4.574716064453125,-2.7015082836151123,-0.15219952166080475,-0.5552685856819153
1772811272159597300,4.584597412109375,-2.7547714710235596,-0.04514054208993912,-0.5669865012168884
1772811272169479000,4.59447900390625,-2.778207302093506,0.03848264366388321,-0.59787917137146
1772811272179360300,4.6043603515625,-2.771815776824951,0.1237037256360054,-0.6538054943084717
1772811272189241600,4.61424169921875,-2.7361292839050293,0.1998700648546219,-0.7337002754211426
1772811272199123000,4.624123046875,-2.6807355880737305,0.24407850205898285,-0.8183887004852295
1772811272209004300,4.63400439453125,-2.608830451965332,0.24567639827728271,-0.8934897780418396
1772811272218886000,4.643885986328125,-2.5124239921569824,0.2749711573123932,-0.9494161009788513
1772811272228767200,4.653767333984375,-2.3883209228515625,0.31012484431266785,-0.9930919408798218
1772811272238648600,4.663648681640625,-2.2679460048675537,0.30160272121429443,-0.984569787979126
1772811272248530000,4.673530029296875,-2.167811155319214,0.2552637755870819,-0.9115992784500122
1772811272258411500,4.68341162109375,-2.0815248489379883,0.18282584846019745,-0.791224479675293
1772811272268292900,4.69329296875,-2.0058913230895996,0.10293108969926834,-0.6580665707588196
1772811272278174200,4.70317431640625,-1.9414427280426025,0.004394211806356907,-0.5265064835548401
1772811272288055600,4.7130556640625,-1.8812553882598877,-0.09414266049861908,-0.4114580452442169
1772811272297937200,4.722937255859375,-1.8136111497879028,-0.1729721575975418,-0.3177148401737213
1772811272307818500,4.732818603515625,-1.7347816228866577,-0.23369218409061432,-0.25859272480010986
1772811272317699800,4.742699951171875,-1.642103672027588,-0.28003114461898804,-0.23249375820159912
1772811272327581200,4.752581298828125,-1.5371752977371216,-0.30666273832321167,-0.23249375820159912
1772811272337462500,4.762462646484375,-1.410408854484558,-0.30719536542892456,-0.2527337670326233
1772811272347344100,4.77234423828125,-1.2559456825256348,-0.2874879837036133,-0.28256115317344666
1772811272357225500,4.7822255859375,-1.0769814252853394,-0.24541008472442627,-0.3150516748428345
1772811272367106800,4.79210693359375,-0.8639287352561951,-0.19747322797775269,-0.34328117966651917
1772811272376988200,4.80198828125,-0.6274402141571045,-0.15273216366767883,-0.3475422263145447
1772811272386869800,4.811869873046875,-0.3680485486984253,-0.11012161523103714,-0.3219758868217468
1772811272396751000,4.821751220703125,-0.10013477504253387,-0.0600542314350605,-0.28256115317344666
1772811272406632400,4.831632568359375,0.1422126740217209,-0.03502053767442703,-0.25486430525779724
1772811272416513800,4.841513671875,0.33768853545188904,-0.054727911949157715,-0.2761695683002472
1772811272426395400,4.8513955078125,0.4996086061000824,-0.08934897929430008,-0.34328117966651917
1772811272436276700,4.86127685546875,0.6689854860305786,-0.11118687689304352,-0.44394856691360474
1772811272446158000,4.871157958984375,0.8777771592140198,-0.12450267374515533,-0.5424854755401611
1772811272456039400,4.881039306640625,1.1371687650680542,-0.1399489939212799,-0.6032054424285889
1772811272465921000,4.890921142578125,1.4322468042373657,-0.17030900716781616,-0.5952159762382507
1772811272475802400,4.90080224609375,1.7353142499923706,-0.23262691497802734,-0.5217128396034241
1772811272485683700,4.91068359375,2.024533271789551,-0.30772799253463745,-0.38216328620910645
1772811272495565000,4.92056494140625,2.2935123443603516,-0.38868802785873413,-0.16325163841247559
1772811272505445600,4.930445556640625,2.553436756134033,-0.47817015647888184,0.13981583714485168
1772811272515326500,4.940326416015625,2.801643133163452,-0.5681849122047424,0.5195822715759277
1772811272525207000,4.95020703125,3.021087408065796,-0.6576670408248901,0.9366329312324524
1772811272535087600,4.960087646484375,3.19792103767395,-0.7135934233665466,1.3329110145568848
1772811272544968400,4.969968505859375,3.322556972503662,-0.7151913046836853,1.6455658674240112
1772811272554849000,4.97984912109375,3.4189631938934326,-0.6800376176834106,1.8437048196792603
1772811272564729900,4.989729736328125,3.502053737640381,-0.6241112947463989,1.9401111602783203
1772811272574610400,4.9996103515625,3.5643718242645264,-0.5324985980987549,1.9688732624053955
1772811272584491300,5.0094912109375,3.552121162414551,-0.36312171816825867,1.9800585508346558
1772811272594371800,5.019371826171875,3.438138008117676,-0.22303955256938934,2.0184080600738525
1772811272604252400,5.02925244140625,3.293794870376587,-0.19321216642856598,2.0780627727508545
1772811272614133200,5.03913330078125,3.1079063415527344,-0.19054901599884033,2.160088062286377
1772811272624013800,5.049013916015625,2.871950387954712,-0.24700798094272614,2.2074923515319824
1772811272633894700,5.058894775390625,2.5656871795654297,-0.3482080101966858,2.1574249267578125
1772811272643775200,5.068775146484375,2.182724952697754,-0.4840291142463684,2.0045597553253174
1772811272653655800,5.07865576171875,1.7741963863372803,-0.6432859897613525,1.7627447843551636
1772811272663536600,5.08853662109375,1.3864405155181885,-0.7791070938110352,1.4484920501708984
1772811272673417200,5.098417236328125,1.036501407623291,-0.8574039936065674,1.0783129930496216
1772811272683298000,5.108298095703125,0.7270423769950867,-0.8488819003105164,0.6511423587799072
1772811272693178600,5.1181787109375,0.4324969947338104,-0.7615302801132202,0.17070847749710083
1772811272703059200,5.12805908203125,0.1315600425004959,-0.6134586334228516,-0.33422642946243286
1772811272712940000,5.13793994140625,-0.16671374440193176,-0.3854922354221344,-0.8146602511405945
1772811272722820600,5.147820556640625,-0.3808317184448242,-0.0025300008710473776,-1.1097382307052612
1772811272732701400,5.157701416015625,-0.600275993347168,0.1711079478263855,-1.4772541522979736
1772811272742582000,5.16758203125,-0.8032087087631226,0.4880238473415375,-1.8628796339035034
1772811272752462600,5.177462646484375,-0.927311897277832,0.9317061305046082,-2.1334564685821533
1772811272762343400,5.187343505859375,-1.0050761699676514,1.3572789430618286,-2.3747386932373047
1772811272772224000,5.19722412109375,-1.044490933418274,1.7604811191558838,-2.626673460006714
1772811272782104800,5.207104736328125,-1.04182767868042,2.1695423126220703,-2.843454599380493
1772811272791985400,5.2169853515625,-1.0093371868133545,2.5711467266082764,-3.018157958984375
1772811272801866200,5.2268662109375,-0.9443561434745789,2.959435224533081,-3.1944589614868164
1772811272811746800,5.236746826171875,-0.8511455655097961,3.2859385013580322,-3.370227575302124
1772811272821627400,5.24662744140625,-0.7440865635871887,3.5479934215545654,-3.4783518314361572
1772811272831508200,5.25650830078125,-0.6290380954742432,3.713109254837036,-3.5065813064575195
1772811272841388800,5.266388916015625,-0.5107938647270203,3.7759597301483154,-3.4533181190490723
1772811272851269600,5.27626953125,-0.3824295997619629,3.742936611175537,-3.32495379447937
1772811272861150200,5.286150146484375,-0.2306295484304428,3.6177680492401123,-3.1289453506469727
1772811272871030800,5.29603076171875,-0.06498107314109802,3.426020622253418,-2.868488311767578
1772811272880911600,5.30591162109375,0.12942951917648315,3.202315330505371,-2.571812391281128
1772811272890792200,5.315792236328125,0.3573959171772003,2.9573047161102295,-2.274603843688965
1772811272900673000,5.325673095703125,0.6013412475585938,2.653172016143799,-1.9651448726654053
1772811272910553600,5.3355537109375,0.8319708108901978,2.2739381790161133,-1.638641595840454
1772811272920434200,5.34543408203125,1.0519477128982544,1.8494306802749634,-1.2833762168884277
1772811272930315000,5.35531494140625,1.2575435638427734,1.4036178588867188,-0.8892287015914917
1772811272940195600,5.365195556640625,1.4471604824066162,0.953544020652771,-0.4503401517868042
1772811272950076200,5.375076171875,1.6202658414840698,0.5428849458694458,-0.008788423612713814
1772811272959957000,5.38495703125,1.7736637592315674,0.1753690093755722,0.40453383326530457
1772811272969837600,5.394837646484375,1.896701693534851,-0.16285216808319092,0.7938876152038574
1772811272979718400,5.404718505859375,2.0074892044067383,-0.4568648934364319,1.1736540794372559
1772811272989599000,5.414598876953125,2.11348295211792,-0.6805702447891235,1.5523552894592285
1772811272999479800,5.424479736328125,2.206693410873413,-0.8515450358390808,1.9060227870941162
1772811273009361400,5.434361328125,2.2594239711761475,-0.9724524617195129,2.1963071823120117
1772811273019242800,5.44424267578125,2.2738049030303955,-1.0209219455718994,2.4040334224700928
1772811273029124400,5.454124267578125,2.266348123550415,-1.0001492500305176,2.541452407836914
1772811273039005700,5.464005615234375,2.2391839027404785,-0.8968187570571899,2.6341304779052734
1772811273048887300,5.47388720703125,2.2050955295562744,-0.7258439064025879,2.6794040203094482
1772811273058769000,5.483768798828125,2.176333427429199,-0.5074648857116699,2.6778061389923096
1772811273068650200,5.493650146484375,2.1241354942321777,-0.24008376896381378,2.630401849746704
1772811273088413200,5.5134130859375,1.971802830696106,0.4145206809043884,2.3571617603302
1772811273098294800,5.523294677734375,1.8514280319213867,0.7303712964057922,2.1425113677978516
1772811273108176100,5.533176025390625,1.6554194688796997,1.0233187675476074,1.8804564476013184
1772811273118057700,5.5430576171875,1.3848426342010498,1.2970914840698242,1.5741931200027466
1772811273127939000,5.55293896484375,1.1174614429473877,1.5058830976486206,1.234906792640686
1772811273137820700,5.562820556640625,0.897484540939331,1.6598137617111206,0.8721845149993896
1772811273147702000,5.572701904296875,0.7025412917137146,1.7956348657608032,0.5153212547302246
1772811273157583600,5.58258349609375,0.5315665006637573,1.9165422916412354,0.19680742919445038
1772811273167465000,5.59246484375,0.4090611934661865,1.9634138345718384,-0.0870852917432785
1772811273177346600,5.6023466796875,0.3355579972267151,1.9245316982269287,-0.3320958912372589
1772811273187228000,5.612227783203125,0.27963167428970337,1.8132116794586182,-0.5355612635612488
1772811273197109500,5.622109619140625,0.20879164338111877,1.613474726676941,-0.7012097239494324
1772811273206990800,5.631990966796875,0.09054739773273468,1.3370388746261597,-0.828508734703064
1772811273216872400,5.64187255859375,-0.08362318575382233,1.0222535133361816,-0.9131971597671509
1772811273226753800,5.65175390625,-0.29081693291664124,0.6973481178283691,-0.9536771774291992
1772811273236635400,5.661635498046875,-0.516120195388794,0.3820301294326782,-0.9531445503234863
1772811273246516700,5.671516845703125,-0.7451518177986145,0.09281108528375626,-0.9281108379364014
1772811273256398300,5.6813984375,-0.9534108638763428,-0.17403742671012878,-0.896152913570404
1772811273266280000,5.691280029296875,-1.1302446126937866,-0.3993406593799591,-0.8657929301261902
1772811273276161300,5.701161376953125,-1.2607393264770508,-0.586294412612915,-0.845552921295166
1772811273286043000,5.71104296875,-1.3576784133911133,-0.7295723557472229,-0.8380960822105408
1772811273295924200,5.72092431640625,-1.4317141771316528,-0.8510124087333679,-0.8354329466819763
1772811273305805800,5.730805908203125,-1.5004236698150635,-0.9665935039520264,-0.8439550399780273
1772811273325568800,5.75056884765625,-1.6522237062454224,-1.1412967443466187,-0.9254477024078369
1772811273335450000,5.7604501953125,-1.7251943349838257,-1.2377030849456787,-0.9888308644294739
1772811273345331700,5.770331787109375,-1.7917732000350952,-1.3165326118469238,-1.0436919927597046
1772811273355213000,5.780213134765625,-1.8492975234985352,-1.3660672903060913,-1.0804435014724731
1772811273365094700,5.7900947265625,-1.8903101682662964,-1.392698884010315,-1.088433027267456
1772811273374976000,5.79997607421875,-1.908952236175537,-1.4054820537567139,-1.0607361793518066
1772811273384857600,5.809857666015625,-1.908952236175537,-1.4065473079681396,-1.001613974571228
1772811273394739000,5.819739013671875,-1.8982995748519897,-1.4102756977081299,-0.9227845072746277
1772811273404620500,5.82962060546875,-1.8887122869491577,-1.441701054573059,-0.8317044973373413
1772811273414502000,5.839501953125,-1.8897775411605835,-1.4960294961929321,-0.7368960380554199
1772811273424383500,5.849383544921875,-1.8929733037948608,-1.5615432262420654,-0.6293044090270996
1772811273434264800,5.859264892578125,-1.9030933380126953,-1.627589464187622,-0.5110601782798767
1772811273444146400,5.869146484375,-1.9004300832748413,-1.6760590076446533,-0.38109803199768066
1772811273454027800,5.87902783203125,-1.8647438287734985,-1.6989622116088867,-0.2527337670326233
1772811273463909400,5.888909423828125,-1.800827980041504,-1.697896957397461,-0.1302284598350525
1772811273473791000,5.898791015625,-1.750227928161621,-1.6861790418624878,-0.027963167056441307
1772811273483672300,5.90867236328125,-1.7305206060409546,-1.6584821939468384,0.04234422370791435
1772811273493554000,5.918553955078125,-1.7486300468444824,-1.6036211252212524,0.08815055340528488
1772811273503434500,5.9284345703125,-1.7837837934494019,-1.5114758014678955,0.1153147742152214
1772811273513315000,5.938315185546875,-1.8317205905914307,-1.3681977987289429,0.12117372453212738
1772811273523195600,5.948195556640625,-1.9084196090698242,-1.1998862028121948,0.09827055782079697
1772811273533076200,5.958076171875,-2.0213375091552734,-1.010269284248352,0.03861580416560173
1772811273542956800,5.967956787109375,-2.158223867416382,-0.8211849927902222,-0.049801070243120193
1772811273552837400,5.97783740234375,-2.282327175140381,-0.6560691595077515,-0.14301162958145142
1772811273562718000,5.987718017578125,-2.3680808544158936,-0.5042691230773926,-0.22663481533527374
1772811273572598500,5.9975986328125,-2.426137685775757,-0.34980592131614685,-0.29161590337753296
1772811273582479000,6.00747900390625,-2.4538345336914062,-0.22783324122428894,-0.34807485342025757
1772811273592359700,6.017359619140625,-2.464487075805664,-0.13941636681556702,-0.3938812017440796
1772811273602240300,6.027240234375,-2.455432415008545,-0.07283739000558853,-0.432230681180954
1772811273612120800,6.037120849609375,-2.425605058670044,-0.004127896390855312,-0.4599275290966034
1772811273622001400,6.04700146484375,-2.371809244155884,0.07257107645273209,-0.4886896312236786
1772811273631882000,6.056882080078125,-2.300969123840332,0.1279647797346115,-0.5291696786880493
1772811273641762600,6.066762451171875,-2.2200090885162354,0.15939006209373474,-0.5707149505615234
1772811273651643100,6.07664306640625,-2.1337227821350098,0.1892174333333969,-0.6117275953292847
1772811273661523700,6.086523681640625,-2.0351860523223877,0.23289324343204498,-0.6516749858856201
1772811273671404300,6.096404296875,-1.9281269311904907,0.2696448266506195,-0.6804370880126953
1772811273681284900,6.106284912109375,-1.8168069124221802,0.31012484431266785,-0.6633928418159485
1772811273691165400,6.11616552734375,-1.6895079612731934,0.3548659086227417,-0.6085317730903625
1772811273701046000,6.1260458984375,-1.544632077217102,0.38948696851730347,-0.5334306955337524
1772811273710926600,6.135926513671875,-1.3997563123703003,0.4065311849117279,-0.4546011984348297
1772811273720807200,6.14580712890625,-1.2634025812149048,0.41345539689064026,-0.3885548710823059
1772811273730687700,6.155687744140625,-1.1270488500595093,0.40440067648887634,-0.3416832685470581
1772811273740568300,6.165568359375,-0.9827055931091309,0.3868238031864166,-0.32463905215263367
1772811273750449000,6.175448974609375,-0.8314381837844849,0.3585943281650543,-0.3363569676876068
1772811273760329500,6.18532958984375,-0.6801707744598389,0.3255711793899536,-0.3640538156032562
1772811273770210000,6.1952099609375,-0.5177180767059326,0.30586379766464233,-0.4077296257019043
1772811273780091000,6.2050908203125,-0.31318747997283936,0.26751428842544556,-0.42370855808258057
1772811273789971500,6.214971435546875,-0.08415582031011581,0.24567639827728271,-0.40613171458244324
1772811273799852000,6.22485205078125,0.1459411084651947,0.2137184888124466,-0.3555316925048828
1772811273809732400,6.234732421875,0.3573959171772003,0.1801626980304718,-0.25007060170173645
1772811273819613000,6.244613037109375,0.5305012464523315,0.1327584683895111,-0.10945582389831543
1772811273829493500,6.254493408203125,0.6625939011573792,0.0768321305513382,0.024234745651483536
1772811273839374000,6.2643740234375,0.7994802594184875,0.022503692656755447,0.11744530498981476
1772811273849254700,6.274254638671875,0.9640634655952454,-0.021704744547605515,0.1866874396800995
1772811273859135500,6.284135498046875,1.162735104560852,-0.05579317733645439,0.25007060170173645
1772811273869016000,6.29401611328125,1.4072130918502808,-0.10479529947042465,0.3267695903778076
1772811273878896600,6.303896728515625,1.6857795715332031,-0.19001637399196625,0.42370855808258057
1772811273888777200,6.313777099609375,1.9771291017532349,-0.31305432319641113,0.5547359585762024
1772811273898657800,6.32365771484375,2.2503693103790283,-0.4371575117111206,0.7368960380554199
1772811273908538400,6.333538330078125,2.4921839237213135,-0.5799028277397156,0.9574055671691895
1772811273918419000,6.3434189453125,2.703106164932251,-0.7434207797050476,1.2141340970993042
1772811273928299500,6.353299560546875,2.860765218734741,-0.9026776552200317,1.5038857460021973
1772811273938180000,6.36318017578125,2.9443883895874023,-1.0486187934875488,1.8080185651779175
1772811273948060700,6.373060791015625,2.956638813018799,-1.1887009143829346,2.100433349609375
1772811273957941200,6.382941162109375,2.8927230834960938,-1.3431642055511475,2.339052438735962
1772811273967821800,6.39282177734375,2.7600977420806885,-1.46407151222229,2.5302672386169434
1772811273977702400,6.402702392578125,2.583264112472534,-1.476854681968689,2.7188189029693604
1772811273987583000,6.4125830078125,2.4080281257629395,-1.4379725456237793,2.879673719406128
1772811273997463600,6.422463623046875,2.2828598022460938,-1.3442294597625732,2.9702210426330566
1772811274007344400,6.432344482421875,2.1960408687591553,-1.1578083038330078,2.973949432373047
1772811274017225500,6.4422255859375,2.103362798690796,-0.9319724440574646,2.8407914638519287
1772811274027106300,6.452106201171875,1.9600849151611328,-0.6858965754508972,2.571812391281128
1772811274036987100,6.461987060546875,1.766206979751587,-0.4595280587673187,2.1915132999420166
1772811274046868200,6.4718681640625,1.5254573822021484,-0.2587258815765381,1.7504942417144775
1772811274056749000,6.4817490234375,1.2484889030456543,-0.042477384209632874,1.3089425563812256
1772811274066630000,6.4916298828125,0.9784445762634277,0.1705753207206726,0.8775108456611633
1772811274076511000,6.501510986328125,0.7265097498893738,0.3447459042072296,0.44288331270217896
1772811274086391800,6.511391845703125,0.48416227102279663,0.496013343334198,-0.0045273699797689915
1772811274096272600,6.521272705078125,0.22423797845840454,0.6616618037223816,-0.4498075246810913
1772811274106153700,6.53115380859375,-0.03355580195784569,0.8267776370048523,-0.8897613883018494
1772811274116034600,6.54103466796875,-0.27110958099365234,0.9855019450187683,-1.31906259059906
1772811274125915400,6.550915283203125,-0.47297701239585876,1.15913987159729,-1.7291890382766724
1772811274135796500,6.56079638671875,-0.6348970532417297,1.340234637260437,-2.1270649433135986
1772811274145677300,6.57067724609375,-0.7568697333335876,1.5319820642471313,-2.502037763595581
1772811274155558100,6.58055810546875,-0.8356992602348328,1.7338495254516602,-2.8466503620147705
1772811274165439200,6.590439208984375,-0.8756465911865234,1.9341191053390503,-3.1443915367126465
1772811274175320000,6.600320068359375,-0.8862992525100708,2.13066029548645,-3.385673761367798
1772811274185201000,6.610200927734375,-0.8745813369750977,2.300037145614624,-3.5662360191345215
1772811274195081700,6.620081787109375,-0.8474171161651611,2.449173927307129,-3.682882308959961
1772811274204962800,6.629962890625,-0.8042739629745483,2.569016218185425,-3.7302865982055664
1772811274214843600,6.63984375,-0.7520760297775269,2.6584982872009277,-3.70685076713562
1772811274224724700,6.649724853515625,-0.6205160021781921,2.8619635105133057,-3.4767537117004395
1772811274234605600,6.65960546875,-0.524642288684845,2.756502628326416,-3.2487874031066895
1772811274244486400,6.669486328125,-0.47830331325531006,2.67181396484375,-3.0511810779571533
1772811274254367500,6.679367431640625,-0.3872233033180237,2.6936519145965576,-2.749711513519287
1772811274264248300,6.689248291015625,-0.28016430139541626,2.6393234729766846,-2.4248061180114746
1772811274274129200,6.699129150390625,-0.17044216394424438,2.483795166015625,-2.1190755367279053
1772811274284010000,6.709010009765625,-0.050600018352270126,2.3064286708831787,-1.8000290393829346
1772811274293891000,6.71889111328125,0.0798947662115097,2.116279125213623,-1.4713952541351318
1772811274303772000,6.72877197265625,0.21465060114860535,1.8893780708312988,-1.1566098928451538
1772811274313652700,6.73865283203125,0.34194958209991455,1.6315842866897583,-0.8503466248512268
1772811274323533800,6.748533935546875,0.4569980502128601,1.3839104175567627,-0.5520728230476379
1772811274333414700,6.75841455078125,0.5534043908119202,1.15168297290802,-0.2703106105327606
1772811274343295500,6.76829541015625,0.6364949345588684,0.9423587322235107,-0.00719052879139781
1772811274353176600,6.778176513671875,0.7115960121154785,0.7468829154968262,0.23196113109588623
1772811274363057400,6.788057373046875,0.7819034457206726,0.5833649635314941,0.44341593980789185
1772811274372938200,6.797938232421875,0.8463518619537354,0.4619249105453491,0.6218475699424744
1772811274382819300,6.8078193359375,0.9134634733200073,0.38043224811553955,0.7608644962310791
1772811274392700200,6.8177001953125,0.994423508644104,0.3319627344608307,0.8689886927604675
1772811274402581000,6.8275810546875,1.0881667137145996,0.3127880096435547,0.9531445503234863
1772811274412462000,6.837462158203125,1.1930952072143555,0.3063964247703552,1.0197235345840454
1772811274422343000,6.847343017578125,1.3065457344055176,0.3159838020801544,1.0751172304153442
1772811274432223700,6.8572236328125,1.413072109222412,0.3271690607070923,1.1225214004516602
1772811274442104800,6.867104736328125,1.5254573822021484,0.3500722348690033,1.1576751470565796
1772811274451985700,6.876985595703125,1.6399731636047363,0.37670382857322693,1.1837741136550903
1772811274461866500,6.886866455078125,1.7422385215759277,0.39428067207336426,1.1880351305007935
1772811274471747600,6.89674755859375,1.8269269466400146,0.40493330359458923,1.1800457239151
1772811274481628400,6.90662841796875,1.8945711851119995,0.40013960003852844,1.1566098928451538
1772811274491509200,6.91650927734375,1.9313228130340576,0.3655185401439667,1.1273151636123657
1772811274501390300,6.926390380859375,1.9478343725204468,0.3165164291858673,1.1161298751831055
1772811274511271400,6.936271484375,1.9627480506896973,0.2515353560447693,1.1076077222824097
1772811274521152500,6.946152587890625,1.9648785591125488,0.16951005160808563,1.1038793325424194
1772811274531033600,6.95603369140625,1.9552911520004272,0.08908266574144363,1.101216197013855
1772811274540914700,6.965914794921875,1.921735405921936,0.015579478815197945,1.0916287899017334
1772811274550795800,6.975795654296875,1.8642112016677856,-0.05739107355475426,1.076715111732483
1772811274560676900,6.9856767578125,1.783251166343689,-0.1308942586183548,1.056475043296814
1772811274570558000,6.995557861328125,1.6628763675689697,-0.20759323239326477,1.016527771949768
1772811274580439000,7.00543896484375,1.4940321445465088,-0.2629869282245636,0.9494161009788513
1772811274590320000,7.015320068359375,1.3076109886169434,-0.2949448525905609,0.8380960822105408
1772811274610082300,7.035082275390625,1.0183919668197632,-0.26511746644973755,0.4748412072658539
1772811274619963400,7.04496337890625,0.9534108638763428,-0.2113216519355774,0.25859272480010986
1772811274629844500,7.054844482421875,0.952345609664917,-0.12077425420284271,0.049801070243120193
1772811274639725600,7.0647255859375,0.9938908815383911,-0.020639481022953987,-0.13608741760253906
1772811274649606700,7.074606689453125,1.031175136566162,0.04540685936808586,-0.2751043140888214
1772811274659487700,7.08448779296875,1.037034034729004,0.08908266574144363,-0.35766223073005676
1772811274669368800,7.094368896484375,0.9848361015319824,0.10719214379787445,-0.3997401297092438
1772811274679250000,7.10425,0.8591350317001343,0.10932266712188721,-0.41412118077278137
1772811274689131000,7.114131103515625,0.6828339099884033,0.08535423874855042,-0.40506646037101746
1772811274699012000,7.12401220703125,0.457530677318573,0.06617949903011322,-0.3944138288497925
1772811274708893200,7.13389306640625,0.18056216835975647,0.05499422922730446,-0.39121803641319275
1772811274728655400,7.1536552734375,-0.43622541427612305,0.010253161191940308,-0.4274369776248932
1772811274738536400,7.163536376953125,-0.6956170797348022,-0.03555316850543022,-0.474308580160141
1772811274748417500,7.17341748046875,-0.906539261341095,-0.079228974878788,-0.5419527888298035
1772811274758298600,7.183298583984375,-1.0716551542282104,-0.10905635356903076,-0.631434977054596
1772811274768179700,7.1931796875,-1.2016172409057617,-0.13781847059726715,-0.7459507584571838
1772811274778060800,7.203060791015625,-1.3081436157226562,-0.18149426579475403,-0.8737823963165283
1772811274787942000,7.21294189453125,-1.410941481590271,-0.24541008472442627,-0.9941571950912476
1772811274797822700,7.22282275390625,-1.5169352293014526,-0.3098585307598114,-1.0900309085845947
1772811274807704000,7.2327041015625,-1.6234616041183472,-0.3727090656757355,-1.1624687910079956
1772811274817585200,7.242585205078125,-1.7310532331466675,-0.4376901388168335,-1.2093404531478882
1772811274827466200,7.25246630859375,-1.8466342687606812,-0.502138614654541,-1.2343741655349731
1772811274837347300,7.262347412109375,-1.9728680849075317,-0.5601954460144043,-1.239700436592102
1772811274847228400,7.272228515625,-2.1001670360565186,-0.6129260063171387,-1.227982521057129
1772811274857109200,7.282109130859375,-2.227466106414795,-0.6518081426620483,-1.2077425718307495
1772811274866990300,7.291990234375,-2.3382534980773926,-0.6800376176834106,-1.1747193336486816
1772811274876871400,7.301871337890625,-2.406430244445801,-0.674711287021637,-1.1283804178237915
1772811274886752500,7.31175244140625,-2.43412709236145,-0.670982837677002,-1.0735193490982056
1772811274896633900,7.3216337890625,-2.435724973678589,-0.6827007532119751,-1.0026793479919434
1772811274906515000,7.331514892578125,-2.4090933799743652,-0.7018755078315735,-0.9110666513442993
1772811274926276900,7.35127685546875,-2.3126871585845947,-0.7737807631492615,-0.6777738928794861
1772811274936158000,7.361157958984375,-2.2556955814361572,-0.8270439505577087,-0.5462138652801514
1772811274946039000,7.3710390625,-2.186985969543457,-0.8771113753318787,-0.4135885536670685
1772811274955920100,7.380920166015625,-2.1246681213378906,-0.9186566472053528,-0.27883273363113403
1772811274965801200,7.39080126953125,-2.0767312049865723,-0.9442229270935059,-0.147805318236351
1772811274975682300,7.400682373046875,-2.0421102046966553,-0.955940842628479,-0.032756853848695755
1772811274985563400,7.4105634765625,-2.0165438652038574,-0.9564734697341919,0.06791055202484131
1772811274995444500,7.420444580078125,-1.9963037967681885,-0.9325050711631775,0.16112111508846283
1772811275005325600,7.43032568359375,-1.971270203590393,-0.8936229348182678,0.24634219706058502
1772811275015206700,7.44020654296875,-1.9441059827804565,-0.8398271203041077,0.3193127512931824
1772811275025087700,7.450087646484375,-1.9137458801269531,-0.758867084980011,0.3800327479839325
1772811275034968600,7.459968505859375,-1.8876469135284424,-0.6587323546409607,0.42051276564598083
1772811275044849700,7.469849609375,-1.8610153198242188,-0.5516733527183533,0.4460791051387787
1772811275054730800,7.479730712890625,-1.8311879634857178,-0.43928804993629456,0.4609927833080292
1772811275064611600,7.489611572265625,-1.7933712005615234,-0.3226417005062103,0.4593949019908905
1772811275074492700,7.49949267578125,-1.7566195726394653,-0.21291954815387726,0.4546011984348297
1772811275084373800,7.509373779296875,-1.728390097618103,-0.09147950261831284,0.4412854015827179
1772811275094254800,7.5192548828125,-1.6873774528503418,0.02143842913210392,0.40613171458244324
1772811275104136000,7.529135986328125,-1.6431690454483032,0.10719214379787445,0.3560643196105957
1772811275114016800,7.539016845703125,-1.599493145942688,0.19081532955169678,0.30706220865249634
1772811275123897900,7.54889794921875,-1.5536868572235107,0.2707100808620453,0.24527692794799805
1772811275133779000,7.558779052734375,-1.5009562969207764,0.34314802289009094,0.17390426993370056
1772811275143660000,7.568659912109375,-1.4397037029266357,0.3916175067424774,0.1062600389122963
1772811275153540900,7.578540771484375,-1.3662004470825195,0.4358259439468384,0.049268439412117004
1772811275163422000,7.588421875,-1.2884361743927002,0.4821648895740509,-0.005592633504420519
1772811275173303000,7.598302978515625,-1.2069436311721802,0.5194491147994995,-0.06524739414453506
1772811275183184100,7.60818408203125,-1.1174614429473877,0.5407543778419495,-0.1153147742152214
1772811275193065000,7.61806494140625,-1.0167940855026245,0.567918598651886,-0.1483379453420639
1772811275202946000,7.627946044921875,-0.9044087529182434,0.5934849381446838,-0.16857795417308807
1772811275212827100,7.6378271484375,-0.7739139795303345,0.605202853679657,-0.17816533148288727
1772811275222708200,7.647708251953125,-0.6024065017700195,0.6142575740814209,-0.18775269389152527
1772811275232589000,7.657589111328125,-0.3637875020503998,0.6440849304199219,-0.2335590273141861
1772811275242470100,7.66747021484375,-0.06444844603538513,0.7756450176239014,-0.356596976518631
1772811275252351200,7.677351318359375,0.22903165221214294,1.0089377164840698,-0.5701823234558105
1772811275262232300,7.687232421875,0.45912858843803406,1.3503546714782715,-0.8396939635276794
1772811275272113200,7.697113037109375,0.6178528666496277,1.754622220993042,-1.0996183156967163
1772811275281994200,7.706994140625,0.6657897233963013,2.1402475833892822,-1.3355741500854492
1772811275291875300,7.716875244140625,0.6231791377067566,2.4502391815185547,-1.54702889919281
1772811275301756400,7.72675634765625,0.5640570521354675,2.696847677230835,-1.6961658000946045
1772811275311637200,7.73663720703125,0.44954121112823486,2.836397409439087,-1.7925721406936646
1772811275321518300,7.746518310546875,0.260456919670105,2.856104612350464,-1.8293237686157227
1772811275331399400,7.7563994140625,0.034621063619852066,2.7501108646392822,-1.8053553104400635
1772811275341280500,7.766280517578125,-0.17204006016254425,2.5290687084198,-1.718536376953125
1772811275351161300,7.776161376953125,-0.325437992811203,2.26967716217041,-1.5805847644805908
1772811275361042400,7.78604248046875,-0.415452778339386,1.96554434299469,-1.4389047622680664
1772811275370923500,7.795923583984375,-0.44634541869163513,1.6321169137954712,-1.3377046585083008
1772811275380804600,7.8058046875,-0.4282359480857849,1.297624111175537,-1.2929636240005493
1772811275390685400,7.815685546875,-0.3771032989025116,0.9727187752723694,-1.294561505317688
1772811275400566500,7.82556640625,-0.3051980137825012,0.6691186428070068,-1.3217257261276245
1772811275410447600,7.835447509765625,-0.2034653276205063,0.4155859351158142,-1.366466760635376
1772811275420328700,7.84532861328125,-0.06498107314109802,0.23502376675605774,-1.4447636604309082
1772811275430209800,7.855209716796875,0.11664635688066483,0.11198582500219345,-1.5448983907699585
1772811275440090600,7.865090576171875,0.3355579972267151,0.03848264366388321,-1.638641595840454
1772811275449971700,7.8749716796875,0.5731117725372314,-0.004127896390855312,-1.701492190361023
1772811275459852800,7.884852783203125,0.8048065900802612,-0.0414121188223362,-1.6823173761367798
1772811275469734000,7.89473388671875,0.9965540170669556,-0.08082687109708786,-1.5512900352478027
1772811275479614700,7.90461474609375,1.128646731376648,-0.12183951586484909,-1.3174647092819214
1772811275489495800,7.914495849609375,1.1893666982650757,-0.18841849267482758,-1.0117340087890625
1772811275499376600,7.924376708984375,1.1552783250808716,-0.21877849102020264,-0.660729706287384
1772811275509257500,7.934257568359375,1.0375666618347168,-0.20865848660469055,-0.30706220865249634
1772811275519138300,7.94413818359375,0.8532760739326477,-0.15699321031570435,0.009321056306362152
1772811275529019100,7.95401904296875,0.6359623074531555,-0.10000161081552505,0.258060097694397
1772811275538900000,7.96389990234375,0.3920169770717621,-0.03289001062512398,0.4556664824485779
1772811275548780500,7.973780517578125,0.1512674242258072,0.04167843610048294,0.6165212392807007
1772811275558661400,7.983661376953125,-0.05006738752126694,0.08322371542453766,0.7459507584571838
1772811275568542200,7.993542236328125,-0.20026955008506775,0.06990791857242584,0.8434224128723145
1772811275578423000,8.003423095703125,-0.3153179883956909,-0.0073236869648098946,0.9025444984436035
1772811275588304000,8.013303955078126,-0.4138548672199249,-0.1170458272099495,0.9201213717460632
1772811275598184700,8.023184814453124,-0.48895594477653503,-0.2390184998512268,0.8870981931686401
1772811275608065300,8.033065185546874,-0.5603286027908325,-0.33968591690063477,0.8109318614006042
1772811275617946000,8.042946044921875,-0.6178528666496277,-0.4376901388168335,0.6804370880126953
1772811275627827000,8.052826904296875,-0.6689854860305786,-0.535694420337677,0.505733847618103
1772811275637707800,8.062707763671876,-0.7036065459251404,-0.6331660151481628,0.30706220865249634
1772811275647588600,8.072588623046874,-0.6977475881576538,-0.6912228465080261,0.12277162075042725
1772811275657469200,8.08246923828125,-0.6466149687767029,-0.7311702370643616,-0.057257913053035736
1772811275667350000,8.09235009765625,-0.5917539000511169,-0.7902923822402954,-0.23089586198329926
1772811275677230800,8.10223095703125,-0.566720187664032,-0.8419576287269592,-0.3805654048919678
1772811275687111700,8.112111572265626,-0.5187833309173584,-0.7844334244728088,-0.40666434168815613
1772811275696992500,8.121992431640624,-0.46978121995925903,-0.9069387316703796,-0.3928159177303314
1772811275706873300,8.131873291015625,-0.49854332208633423,-1.0267808437347412,-0.4556664824485779
1772811275716754000,8.14175390625,-0.47457489371299744,-0.99322509765625,-0.4652538299560547
1772811275726634800,8.151634765625,-0.40746331214904785,-0.9740503430366516,-0.4822980463504791
1772811275736515600,8.161515625,-0.3307643234729767,-1.0028125047683716,-0.5265064835548401
1772811275746396400,8.171396484375,-0.22956429421901703,-0.9857682585716248,-0.5206475257873535
1772811275766158000,8.191157958984375,-0.0005326317623257637,-0.9841703176498413,-0.4370243549346924
1772811275776038700,8.20103857421875,0.0804273933172226,-1.0161283016204834,-0.42477384209632874
1772811275785919500,8.21091943359375,0.11664635688066483,-1.0166609287261963,-0.4418180584907532
1772811275795800300,8.22080029296875,0.12570109963417053,-0.9761808514595032,-0.4785696268081665
1772811275805681200,8.23068115234375,0.12889689207077026,-0.9218524098396301,-0.48176541924476624
1772811275825442800,8.25044287109375,0.2119874358177185,-0.8025429248809814,-0.30226853489875793
1772811275835323600,8.26032373046875,0.30306747555732727,-0.7615302801132202,-0.16644743084907532
1772811275845204200,8.270204345703124,0.4282359480857849,-0.7301049828529358,-0.03808316960930824
1772811275855085000,8.2800849609375,0.5795033574104309,-0.6890923380851746,0.05619265139102936
1772811275864966000,8.2899658203125,0.7536739706993103,-0.6613954901695251,0.11904320120811462
1772811275874846700,8.2998466796875,0.9480845332145691,-0.6459491848945618,0.1621863692998886
1772811275884727600,8.3097275390625,1.1526151895523071,-0.599077582359314,0.1621863692998886
1772811275894608400,8.3196083984375,1.3411667346954346,-0.5436838865280151,0.11424951255321503
1772811275904489000,8.329489013671875,1.5041520595550537,-0.4760396480560303,0.027963167056441307
1772811275914369800,8.339369873046875,1.636777400970459,-0.39348170161247253,-0.09028108417987823
1772811275924250600,8.349250732421876,1.7555543184280396,-0.313586950302124,-0.2101232260465622
1772811275934131500,8.35913134765625,1.8647438287734985,-0.2198437601327896,-0.3150516748428345
1772811275944012300,8.36901220703125,1.9755312204360962,-0.1266331970691681,-0.3933485448360443
1772811275963773700,8.388773681640625,2.216813325881958,0.024634219706058502,-0.4695149064064026
1772811275973654500,8.398654541015626,2.336122989654541,0.07576686888933182,-0.46631911396980286
1772811275983535400,8.408535400390624,2.4527692794799805,0.10293108969926834,-0.43276330828666687
1772811275993416200,8.418416259765625,2.574209213256836,0.10932266712188721,-0.37204328179359436
1772811276003297000,8.428297119140625,2.697247266769409,0.0954742431640625,-0.28256115317344666
1772811276013177900,8.438177734375,2.817089319229126,0.06351634114980698,-0.16804532706737518
1772811276023058700,8.44805859375,2.936931610107422,0.008655265904963017,-0.04394211992621422
1772811276032939500,8.457939453125,3.0514473915100098,-0.04780369997024536,0.08868318796157837
1772811276042820400,8.4678203125,3.149451494216919,-0.11544793099164963,0.22663481533527374
1772811276052701000,8.477700927734375,3.2272157669067383,-0.16604794561862946,0.37736961245536804
1772811276062581800,8.487581787109375,3.2905991077423096,-0.21185427904129028,0.5387570261955261
1772811276072462600,8.497462646484376,3.342797040939331,-0.2528669238090515,0.6932202577590942
1772811276082343400,8.507343505859374,3.3742222785949707,-0.26937851309776306,0.8364982008934021
1772811276092224300,8.517224365234375,3.367297887802124,-0.2779006361961365,0.9627318978309631
1772811276102105000,8.52710498046875,3.322556972503662,-0.2773679792881012,1.081508755683899
1772811276111986000,8.53698583984375,3.2559778690338135,-0.28003114461898804,1.202416181564331
1772811276121866800,8.54686669921875,3.169158935546875,-0.2672479748725891,1.3158668279647827
1772811276131747600,8.55674755859375,3.0716874599456787,-0.24061639606952667,1.4175994396209717
1772811276141628400,8.56662841796875,2.960367441177368,-0.20279954373836517,1.4980268478393555
1772811276151509200,8.57650927734375,2.832003116607666,-0.1543300598859787,1.54702889919281
1772811276161390000,8.58639013671875,2.6716809272766113,-0.07603318244218826,1.5651384592056274
1772811276171271000,8.59627099609375,2.509760856628418,0.010253161191940308,1.5523552894592285
1772811276181151700,8.60615185546875,2.3600914478302,0.09600687772035599,1.5092121362686157
1772811276191032600,8.616032470703125,2.216280698776245,0.21105533838272095,1.4394373893737793
1772811276200913400,8.625913330078125,2.058089017868042,0.33888694643974304,1.336106777191162
1772811276210794200,8.635794189453126,1.850362777709961,0.44275015592575073,1.1848393678665161
1772811276220675000,8.645675048828124,1.6160048246383667,0.5151880979537964,0.9973529577255249
1772811276230556000,8.655555908203125,1.4066804647445679,0.550341784954071,0.8088013529777527
1772811276240436700,8.665436767578125,1.2207920551300049,0.5402217507362366,0.657001256942749
1772811276250317600,8.675317626953126,1.054078221321106,0.5093291401863098,0.5355612635612488
1772811276260198400,8.685198486328124,0.9512803554534912,0.4672512114048004,0.43436118960380554
1772811276270079200,8.695079345703125,0.9033434391021729,0.4523375332355499,0.3560643196105957
1772811276279960000,8.7049599609375,0.8713855743408203,0.4342280328273773,0.2990727424621582
1772811276289841000,8.7148408203125,0.8159918785095215,0.4123901426792145,0.24101586639881134
1772811276299721700,8.7247216796875,0.7062697410583496,0.3777690827846527,0.17816533148288727
1772811276309602600,8.7346025390625,0.5257075428962708,0.3351585268974304,0.11904320120811462
1772811276319483400,8.7444833984375,0.2844253480434418,0.27230799198150635,0.07590002566576004
1772811276329364200,8.7543642578125,0.011717898771166801,0.19294585287570953,0.06737791746854782
1772811276339245000,8.7642451171875,-0.26684850454330444,0.11145319789648056,0.08495476841926575
1772811276349126000,8.7741259765625,-0.5427517890930176,0.028895273804664612,0.10839056223630905
1772811276359006700,8.7840068359375,-0.8106655478477478,-0.05739107355475426,0.10040108859539032
1772811276368887600,8.793887451171875,-1.0721877813339233,-0.15539531409740448,0.04447475075721741
1772811276378768400,8.803768310546875,-1.3251878023147583,-0.2768353521823883,-0.05246422812342644
1772811276388649200,8.813649169921876,-1.5675352811813354,-0.41105857491493225,-0.17390426993370056
1772811276398530000,8.823530029296874,-1.7896426916122437,-0.5474122762680054,-0.32091063261032104
1772811276408411000,8.833410888671875,-1.988847017288208,-0.6454165577888489,-0.48176541924476624
1772811276428172500,8.853172607421875,-2.361689329147339,-0.8323702812194824,-0.8775108456611633
1772811276447934200,8.872934326171874,-2.7089650630950928,-0.947418749332428,-1.232243537902832
1772811276457815000,8.88281494140625,-2.88100528717041,-0.9538103342056274,-1.336106777191162
1772811276467695900,8.89269580078125,-3.049849510192871,-0.9122650623321533,-1.3888373374938965
1772811276477576700,8.90257666015625,-3.179279088973999,-0.8041408061981201,-1.3888373374938965
1772811276487457500,8.91245751953125,-3.258641004562378,-0.6528733968734741,-1.3435636758804321
1772811276497338400,8.92233837890625,-3.3342747688293457,-0.46325647830963135,-1.2839088439941406
1772811276507219200,8.93221923828125,-3.4051148891448975,-0.2209090292453766,-1.2455593347549438
1772811276517100000,8.94210009765625,-3.45198655128479,0.08215844631195068,-1.2285151481628418
1772811276526980900,8.95198095703125,-3.4977927207946777,0.38522592186927795,-1.202948808670044
1772811276536861700,8.96186181640625,-3.53720760345459,0.668586015701294,-1.1459572315216064
1772811276546742800,8.97174267578125,-3.5723612308502197,0.9247819185256958,-1.046355128288269
1772811276556623600,8.98162353515625,-3.6128411293029785,1.1357040405273438,-0.8998813629150391
1772811276566504400,8.99150439453125,-3.6469297409057617,1.2768515348434448,-0.719319224357605
1772811276576385300,9.00138525390625,-3.6629085540771484,1.3966935873031616,-0.5371591448783875
1772811276586266000,9.01126611328125,-3.649592876434326,1.506948471069336,-0.3837611973285675
1772811276596147000,9.02114697265625,-3.596862316131592,1.637975811958313,-0.29321378469467163
1772811276606027800,9.03102783203125,-3.4999232292175293,1.851561188697815,-0.24421165883541107
1772811276615908900,9.040908935546875,-3.3886032104492188,2.1237359046936035,-0.26445168256759644
1772811276625789700,9.050789794921876,-3.283674716949463,2.4869909286499023,-0.3267695903778076
1772811276635670500,9.06067041015625,-3.2405316829681396,2.840125799179077,-0.3789674937725067
1772811276645551400,9.07055126953125,-3.2357380390167236,3.2491869926452637,-0.3518032729625702
1772811276655432200,9.08043212890625,-3.2602391242980957,3.5634396076202393,-0.19893796741962433
1772811276665313300,9.090313232421876,-3.3401336669921875,3.927759885787964,0.00719052879139781
1772811276675194000,9.100194091796874,-3.52229380607605,4.292612552642822,0.2090579718351364
1772811276685075000,9.110074951171875,-3.694866418838501,4.228164196014404,0.4311653971672058
1772811276694955800,9.119955810546875,-3.7459990978240967,4.497675895690918,0.7582013010978699
1772811276704836600,9.129836669921875,-3.7268245220184326,5.276916027069092,1.016527771949768
1772811276714717400,9.139717529296876,-3.7475969791412354,5.73071813583374,0.9680582284927368
1772811276724598500,9.1495986328125,-3.7864792346954346,5.904889106750488,0.6985465288162231
1772811276734479400,9.159479248046875,-3.7273571491241455,6.01461124420166,0.5089296698570251
1772811276744360200,9.169360107421875,-3.5771548748016357,6.085983753204346,0.5025380849838257
1772811276754241000,9.179240966796876,-3.4184305667877197,5.98851203918457,0.6111949682235718
1772811276764121900,9.189121826171874,-3.303914785385132,5.554417133331299,0.7251781225204468
1772811276774002700,9.199002685546875,-3.2506515979766846,4.974380970001221,0.8013445138931274
1772811276783883800,9.2088837890625,-3.257575750350952,4.341614723205566,0.8306392431259155
1772811276793764600,9.2187646484375,-3.323622226715088,3.848397731781006,0.8375634551048279
1772811276803645400,9.2286455078125,-3.4184305667877197,3.6673028469085693,0.8998813629150391
1772811276813526300,9.2385263671875,-3.482879161834717,3.7370777130126953,1.0357024669647217
1772811276823407000,9.248406982421875,-3.4855422973632812,3.6949996948242188,1.1571425199508667
1772811276833288000,9.258287841796875,-3.397658109664917,3.460108995437622,1.2434288263320923
1772811276843168800,9.268168701171875,-3.2261505126953125,3.143193244934082,1.2839088439941406
1772811276853049900,9.2780498046875,-3.0067062377929688,2.874746799468994,1.2780499458312988
1772811276862930700,9.2879306640625,-2.7643587589263916,2.7826015949249268,1.2178624868392944
1772811276872811500,9.2978115234375,-2.558230400085449,2.7735466957092285,1.1203908920288086
1772811276882692400,9.3076923828125,-2.386190414428711,2.7879278659820557,1.0255824327468872
1772811276892573200,9.3175732421875,-2.212552309036255,2.705902576446533,0.9515466690063477
1772811276902454300,9.327454345703124,-2.022402763366699,2.5205466747283936,0.8865655660629272
1772811276912335000,9.337335205078125,-1.8157416582107544,2.2813949584960938,0.8221171498298645
1772811276922216000,9.3472158203125,-1.6026890277862549,1.96554434299469,0.7550055384635925
1772811276932096800,9.3570966796875,-1.329448938369751,1.608148455619812,0.7001444697380066
1772811276941977600,9.3669775390625,-1.04928457736969,1.4409021139144897,0.6255760192871094
1772811276951858400,9.3768583984375,-0.8101329207420349,1.4339778423309326,0.5243759751319885
1772811276961739500,9.386739501953125,-0.5688506960868835,1.4350430965423584,0.4040012061595917
1772811276971620400,9.396620361328125,-0.40799593925476074,1.6342474222183228,0.25539693236351013
1772811276981501200,9.406501220703126,-0.2503369152545929,2.037982225418091,0.08548739552497864
1772811276991382000,9.416382080078124,-0.030892642214894295,2.4960455894470215,-0.1296958327293396
1772811277001263400,9.426263427734375,0.23702113330364227,2.79059100151062,-0.4018706679344177
1772811277011145200,9.436145263671875,0.46924859285354614,2.92587947845459,-0.6692517995834351
1772811277021026800,9.44602685546875,0.6167875528335571,3.02974271774292,-0.8508792519569397
1772811277030908700,9.45590869140625,0.7190528512001038,3.1692922115325928,-0.9749824404716492
1772811277040790300,9.465790283203125,0.8213181495666504,3.3088417053222656,-1.0948245525360107
1772811277050672000,9.475672119140626,0.918789803981781,3.3780837059020996,-1.197622537612915
1772811277060553700,9.4855537109375,1.0375666618347168,3.183673143386841,-1.1757845878601074
1772811277070435600,9.495435546875,1.1574088335037231,2.776209831237793,-1.0122666358947754
1772811277080317200,9.505317138671876,1.2511520385742188,2.2244033813476562,-0.7251781225204468
1772811277090199000,9.515198974609374,1.2559456825256348,1.6683357954025269,-0.37204328179359436
1772811277100080600,9.52508056640625,1.1739203929901123,1.2416977882385254,0.015180004760622978
1772811277109962500,9.53496240234375,1.0178593397140503,1.0014808177947998,0.40133804082870483
1772811277119844000,9.544843994140624,0.8426234722137451,0.9460871815681458,0.7134602665901184
1772811277129726000,9.554725830078125,0.7739139795303345,0.9396955966949463,0.8908266425132751
1772811277139607600,9.564607666015625,0.7930886745452881,0.9492829442024231,0.9707213640213013
1772811277149489400,9.574489501953124,0.8559392690658569,0.9807082414627075,1.034104585647583
1772811277159371000,9.58437109375,0.8836361169815063,0.9924261569976807,1.088965654373169
1772811277169252900,9.5942529296875,0.8266444802284241,1.054744005203247,1.0974876880645752
1772811277179134500,9.604134521484376,0.7739139795303345,1.0909630060195923,1.046355128288269
1772811277189016300,9.614016357421875,0.7435539364814758,1.1021482944488525,0.9243824481964111
1772811277198898000,9.62389794921875,0.7291728854179382,1.1570093631744385,0.7534076571464539
1772811277208779800,9.63377978515625,0.7265097498893738,1.2912325859069824,0.6106623411178589
1772811277218661400,9.643661376953125,0.717987596988678,1.4116073846817017,0.5169191360473633
1772811277228543200,9.653543212890625,0.6769749522209167,1.420129418373108,0.42956751585006714
1772811277238424800,9.6634248046875,0.6130591630935669,1.2779167890548706,0.35446643829345703
1772811277248306700,9.673306640625,0.5613938570022583,1.0781798362731934,0.31238853931427
1772811277258188300,9.683188232421875,0.5187833309173584,0.907737672328949,0.3006706237792969
1772811277268070100,9.693070068359376,0.4814991056919098,0.8017439842224121,0.3416832685470581
1772811277277951700,9.70295166015625,0.4303664565086365,0.7697860598564148,0.38642433285713196
1772811277287833600,9.71283349609375,0.36591801047325134,0.7580681443214417,0.41944751143455505
1772811277297715200,9.722715087890625,0.30413272976875305,0.7207839488983154,0.4460791051387787
1772811277307597000,9.73259716796875,0.28069692850112915,0.6307691931724548,0.46259069442749023
1772811277317478700,9.742478759765625,0.2844253480434418,0.5625923275947571,0.4593949019908905
1772811277327360500,9.752360595703125,0.3025348484516144,0.5434175729751587,0.4354264736175537
1772811277337242000,9.7622421875,0.31425273418426514,0.5167859792709351,0.39068540930747986
1772811277347124000,9.7721240234375,0.31372010707855225,0.4672512114048004,0.32463905215263367
1772811277357005600,9.782005615234375,0.2977411448955536,0.42304277420043945,0.2575274705886841
1772811277366887400,9.791887451171876,0.2743053436279297,0.44647857546806335,0.19893796741962433
1772811277376769000,9.80176904296875,0.26258745789527893,0.5189164876937866,0.1669800579547882
1772811277386651000,9.81165087890625,0.2545979917049408,0.5386238694190979,0.16325163841247559
1772811277396532500,9.821532470703126,0.22903165221214294,0.5146554112434387,0.18508954346179962
1772811277406414300,9.831414306640625,0.19014954566955566,0.473110169172287,0.2239716500043869
1772811277416296000,9.8412958984375,0.13528846204280853,0.3980090916156769,0.30546432733535767
1772811277426177800,9.851177734375,0.04048001393675804,0.2510027289390564,0.4226433038711548
1772811277436059400,9.861059326171874,0.022903166711330414,-0.011584741063416004,0.4173169732093811
1772811277445941200,9.870941162109375,0.1038631945848465,-0.004660528153181076,0.3885548710823059
1772811277455822800,9.88082275390625,0.18056216835975647,0.06191844120621681,0.3145190477371216
1772811277465704700,9.89070458984375,0.240216925740242,0.07150581479072571,0.21544954180717468
1772811277475586300,9.90058642578125,0.28602325916290283,0.0768321305513382,0.11797793209552765
1772811277485468200,9.91046826171875,0.30360010266304016,0.08801739662885666,0.04287685826420784
1772811277495349800,9.920349853515624,0.28975167870521545,0.0864195004105568,0.011984214186668396
1772811277505230600,9.930230712890625,0.24288007616996765,0.07789739221334457,0.033289484679698944
1772811277515111400,9.940111328125,0.18056216835975647,0.0720384493470192,0.08868318796157837
1772811277524992500,9.949992431640625,0.11930951476097107,-0.0030626326333731413,0.14567478001117706
1772811277534873300,9.959873291015626,0.06711160391569138,-0.06857633590698242,0.20692743360996246
1772811277544754200,9.969754150390624,0.029827378690242767,-0.10426266491413116,0.22716744244098663
1772811277554635300,9.97963525390625,0.01012000348418951,-0.12823109328746796,0.20746007561683655
1772811277564516000,9.98951611328125,0.018642112612724304,-0.14367741346359253,0.18935059010982513
1772811277574397200,9.999397216796876,0.03249053657054901,-0.14314478635787964,0.1728390008211136
1772811277584278000,10.009278076171874,0.042610540986061096,-0.10159950703382492,0.16112111508846283
1772811277594158800,10.019158935546875,0.06338317692279816,-0.03608580306172371,0.1302284598350525
