time,seconds_elapsed,z,y,x
1772811074566273800,0.183273681640625,-0.37910065054893494,0.17483638226985931,-2.2599565982818604
1772811074586035200,0.20303515625,-0.07976160943508148,-1.1626019477844238,-1.413604736328125
1772811074595916000,0.212916015625,-0.050466857850551605,-1.828924298286438,-1.028511881828308
1772811074605796900,0.222796875,-0.03342264145612717,-2.1612865924835205,-0.7046718001365662
1772811074615677700,0.232677734375,-0.01957421749830246,-2.327467679977417,-0.5566002130508423
1772811074625558300,0.242558349609375,-0.010519477538764477,-2.4744739532470703,-0.6684528589248657
1772811074635439000,0.252439208984375,-0.004660528153181076,-2.356229782104492,-0.7957518696784973
1772811074645320000,0.26231982421875,-0.004660528153181076,-2.065412759780884,-0.8783097863197327
1772811074655200800,0.27220068359375,-0.06697844713926315,-1.913612723350525,-0.9278445243835449
1772811074665081300,0.282081298828125,-0.20493006706237793,-1.9370485544204712,-0.9683245420455933
1772811074674962200,0.291962158203125,-0.31625011563301086,-2.0904464721679688,-1.0018802881240845
1772811074684843000,0.301843017578125,-0.34501221776008606,-2.3540992736816406,-1.0434256792068481
1772811074694723800,0.311723876953125,-0.3103911578655243,-2.565021514892578,-1.0828403234481812
1772811074704604700,0.321604736328125,-0.2390184998512268,-2.600175142288208,-1.115863561630249
1772811074714485200,0.3314853515625,-0.14101426303386688,-2.5144214630126953,-1.1430277824401855
1772811074724366000,0.341365966796875,-0.018508953973650932,-2.5176172256469727,-1.1472887992858887
1772811074734247000,0.351246826171875,0.056059494614601135,-2.337587594985962,-1.1867035627365112
1772811074744127700,0.361127685546875,0.09281108528375626,-1.9274611473083496,-1.1946930885314941
1772811074754008300,0.37100830078125,0.17696690559387207,-1.7106800079345703,-1.1126677989959717
1772811074763889200,0.38088916015625,0.3404848575592041,-1.8550232648849487,-0.9837708473205566
1772811074773770000,0.39077001953125,0.5178512334823608,-1.9967032670974731,-0.9086697697639465
1772811074783650800,0.40065087890625,0.8017439842224121,-1.932787537574768,-0.8900277018547058
1772811074793531400,0.410531494140625,1.1436935663223267,-1.61800217628479,-0.9139961004257202
1772811074803412200,0.420412109375,1.2624704837799072,-0.9740503430366516,-0.8218508362770081
1772811074813293000,0.43029296875,1.1788471937179565,-0.8728502988815308,-0.688160240650177
1772811074823174000,0.440173828125,1.3689967393875122,-1.6345137357711792,-0.6066675782203674
1772811074833054700,0.4500546875,1.566603183746338,-2.5623581409454346,-0.4388885796070099
1772811074842935300,0.459935302734375,1.5559505224227905,-3.464103937149048,-0.3488737940788269
1772811074852816100,0.469816162109375,1.5554178953170776,-4.25612735748291,-0.5326317548751831
1772811074862697000,0.479697021484375,1.565537929534912,-4.742420196533203,-0.8048065900802612
1772811074872577800,0.489577880859375,1.4313147068023682,-4.827641010284424,-1.145158290863037
1772811074882458400,0.499458251953125,1.3029505014419556,-4.676906108856201,-1.557415246963501
1772811074892339200,0.509339111328125,1.218794584274292,-4.501137733459473,-1.9137458801269531
1772811074902220000,0.519219970703125,1.201217770576477,-4.573043346405029,-2.1060259342193604
1772811074912100900,0.529100830078125,1.2161314487457275,-4.960266590118408,-2.131592273712158
1772811074921981400,0.5389814453125,1.2598072290420532,-5.397557258605957,-2.1017649173736572
1772811074931862300,0.5488623046875,1.2912325859069824,-5.54243278503418,-2.1987040042877197
1772811074941743000,0.5587431640625,1.3610073328018188,-5.508344650268555,-2.4453125
1772811074951624000,0.5686240234375,1.406813621520996,-5.21433162689209,-2.618950366973877
1772811074961504500,0.57850439453125,1.5085463523864746,-4.786628723144531,-2.5965797901153564
1772811074971385300,0.58838525390625,1.6166706085205078,-4.454798698425293,-2.3244049549102783
1772811074981266200,0.59826611328125,1.650758981704712,-4.335489273071289,-1.796034336090088
1772811074991147000,0.60814697265625,1.6933695077896118,-4.416982173919678,-1.0950908660888672
1772811075001027600,0.618027587890625,1.722131609916687,-4.626306533813477,-0.36485275626182556
1772811075010908200,0.627908203125,1.7317190170288086,-4.864925384521484,0.22477060556411743
1772811075020788700,0.637788818359375,1.716805338859558,-4.952809810638428,0.5826991200447083
1772811075030669300,0.64766943359375,1.7434369325637817,-4.895285606384277,0.7073349952697754
1772811075040550000,0.6575498046875,1.8552895784378052,-4.805270671844482,0.6924213171005249
1772811075050430500,0.667430419921875,2.106691837310791,-4.844152927398682,0.6562023162841797
1772811075060311000,0.67731103515625,2.4278688430786133,-5.157340049743652,0.7084002494812012
1772811075070191600,0.687191650390625,2.8236141204833984,-5.725125789642334,0.9555413722991943
1772811075080072200,0.697072265625,3.252382755279541,-6.400502681732178,1.401354193687439
1772811075089952800,0.706952880859375,3.6902060508728027,-7.031671524047852,1.9947059154510498
1772811075099833300,0.716833251953125,4.122170448303223,-7.452450275421143,2.629070281982422
1772811075109714200,0.726714111328125,4.537090301513672,-7.437004089355469,3.1206893920898438
1772811075119594800,0.7365947265625,4.893953800201416,-6.846315383911133,3.3555800914764404
1772811075129475300,0.746475341796875,5.157606601715088,-5.818336009979248,3.3449275493621826
1772811075139356000,0.75635595703125,5.298221111297607,-4.618849277496338,3.1862032413482666
1772811075149236500,0.766236572265625,5.290231704711914,-3.4609079360961914,2.986999034881592
1772811075159117000,0.776116943359375,5.138431549072266,-2.4148192405700684,2.8048388957977295
1772811075168997600,0.78599755859375,4.874246597290039,-1.51413893699646,2.6455819606781006
1772811075178878200,0.795878173828125,4.538155555725098,-0.779639720916748,2.518282890319824
1772811075188758800,0.8057587890625,4.184488296508789,-0.2635195553302765,2.438920736312866
1772811075198639400,0.815639404296875,3.8436038494110107,0.11198582500219345,2.3723418712615967
1772811075208520000,0.82552001953125,3.5112416744232178,0.3868238031864166,2.290316581726074
1772811075218400500,0.835400390625,3.1458563804626465,0.567918598651886,2.1752681732177734
1772811075228281000,0.845281005859375,2.74052357673645,0.7543397545814514,2.0367839336395264
1772811075238161700,0.85516162109375,2.3559634685516357,0.9668598175048828,1.872200608253479
1772811075248042200,0.865042236328125,1.9841865301132202,1.1799125671386719,1.6847143173217773
1772811075257923000,0.874923095703125,1.6310516595840454,1.407346248626709,1.4716615676879883
1772811075267803600,0.8848037109375,1.3162662982940674,1.6907063722610474,1.2064108848571777
1772811075287564800,0.904564697265625,0.7831018567085266,2.340517044067383,0.5044022798538208
1772811075297445400,0.9144453125,0.5253080725669861,2.7149572372436523,0.04846949130296707
1772811075307326000,0.924325927734375,0.20093533396720886,3.2214901447296143,-0.43516016006469727
1772811075317206500,0.93420654296875,-0.08135949820280075,3.69340181350708,-0.9587371945381165
1772811075327087000,0.944087158203125,-0.2544648349285126,4.127496719360352,-1.535577416419983
1772811075336967700,0.9539677734375,-0.3098585307598114,4.457728385925293,-2.1353206634521484
1772811075346848300,0.96384814453125,-0.24168166518211365,4.667585372924805,-2.77341365814209
1772811075356728800,0.973728759765625,-0.0786963403224945,4.7922210693359375,-3.3997886180877686
1772811075366609400,0.983609375,0.21638165414333344,4.963728427886963,-3.9292244911193848
1772811075376490000,0.993489990234375,0.6366280913352966,4.965326309204102,-4.332826137542725
1772811075386370800,1.003370849609375,1.054744005203247,4.700608253479004,-4.575173854827881
1772811075396251100,1.013251220703125,1.378051519393921,4.237218856811523,-4.627371788024902
1772811075406131700,1.023131591796875,1.558081030845642,3.6518564224243164,-4.478234767913818
1772811075416012500,1.033012451171875,1.5852452516555786,3.0031111240386963,-4.156525135040283
1772811075425893000,1.04289306640625,1.5096116065979004,2.3027002811431885,-3.6776890754699707
1772811075435773700,1.052773681640625,1.3865736722946167,1.5564831495285034,-3.020954132080078
1772811075445654300,1.062654296875,1.25554621219635,0.786297619342804,-2.212419271469116
1772811075455534800,1.072534912109375,1.129312515258789,0.06937528401613235,-1.2978904247283936
1772811075465415400,1.08241552734375,1.0089377164840698,-0.5330312252044678,-0.36791539192199707
1772811075475296000,1.0922958984375,0.877910315990448,-1.027313470840454,0.5253080725669861
1772811075485176600,1.102176513671875,0.714392364025116,-1.3484904766082764,1.3130704164505005
1772811075495057200,1.11205712890625,0.5056006908416748,-1.5535537004470825,1.9133464097976685
1772811075504938500,1.1219384765625,0.2755037844181061,-1.6596806049346924,2.3261361122131348
1772811075514819800,1.13181982421875,0.0672447606921196,-1.6596806049346924,2.557298183441162
1772811075524701200,1.141701171875,-0.11864372342824936,-1.5552847385406494,2.6308014392852783
1772811075534582300,1.151582275390625,-0.2949448525905609,-1.329448938369751,2.5807340145111084
1772811075544463600,1.161463623046875,-0.4243743419647217,-1.018924593925476,2.3809971809387207
1772811075554345000,1.171344970703125,-0.5026712417602539,-0.6178528666496277,2.042243242263794
1772811075564226300,1.181226318359375,-0.556999683380127,-0.1842905879020691,1.5996263027191162
1772811075574107600,1.191107666015625,-0.6033385992050171,0.2089248150587082,1.1227877140045166
1772811075583989000,1.200989013671875,-0.7279744744300842,0.6313018202781677,0.612526535987854
1772811075593870000,1.2108701171875,-0.8728502988815308,1.0089377164840698,0.11558109521865845
1772811075603751400,1.22075146484375,-1.0704567432403564,1.2896347045898438,-0.3110569417476654
1772811075613632800,1.2306328125,-1.2627367973327637,1.3024178743362427,-0.4990759491920471
1772811075623514000,1.24051416015625,-1.476854681968689,1.298689365386963,-0.5800359845161438
1772811075633395200,1.250395263671875,-1.6867116689682007,1.2741882801055908,-0.5970802307128906
1772811075643276500,1.260276611328125,-1.8358485698699951,1.2347736358642578,-0.5464801788330078
1772811075653158000,1.270157958984375,-1.9173412322998047,1.129312515258789,-0.42663803696632385
1772811075663039200,1.280039306640625,-1.9423748254776,0.9588703513145447,-0.2583264112472534
1772811075672920600,1.289920654296875,-1.938113808631897,0.7207839488983154,-0.042610540986061096
1772811075682801700,1.2998017578125,-1.9040254354476929,0.4342280328273773,0.17097479104995728
1772811075692683000,1.30968310546875,-1.848631739616394,0.15353110432624817,0.3675159215927124
1772811075702564400,1.319564453125,-1.7927052974700928,-0.0696416050195694,0.5251749157905579
1772811075712445700,1.32944580078125,-1.7538232803344727,-0.26991114020347595,0.6450170874595642
1772811075722327000,1.3393271484375,-1.724528431892395,-0.46751752495765686,0.7430213093757629
1772811075732208000,1.3492080078125,-1.6867116689682007,-0.6613954901695251,0.8522108197212219
1772811075742089500,1.35908935546875,-1.6409052610397339,-0.8685892224311829,0.982172966003418
1772811075751970800,1.368970703125,-1.5956315994262695,-1.1040124893188477,1.1526151895523071
1772811075761852200,1.37885205078125,-1.5626084804534912,-1.367132544517517,1.371526837348938
1772811075771733500,1.3887333984375,-1.5658042430877686,-1.5423684120178223,1.564872145652771
1772811075781614600,1.398614501953125,-1.6009578704833984,-1.5956315994262695,1.6437016725540161
1772811075791496000,1.408495849609375,-1.598294734954834,-1.8869811296463013,1.8311879634857178
1772811075801377300,1.418377197265625,-1.6190674304962158,-2.2166802883148193,2.003760576248169
1772811075811258600,1.428258544921875,-1.677656888961792,-2.417482376098633,2.037849187850952
1772811075821140000,1.438139892578125,-1.7761937379837036,-2.3556971549987793,1.914278507232666
1772811075831021300,1.448021240234375,-1.8150758743286133,-2.184722423553467,1.6831163167953491
1772811075840902400,1.45790234375,-1.8267937898635864,-2.0510318279266357,1.47752046585083
1772811075850783700,1.46778369140625,-1.8598169088363647,-1.9540927410125732,1.2745877504348755
1772811075860665000,1.4776650390625,-1.8811222314834595,-1.8262611627578735,1.041295051574707
1772811075870546400,1.48754638671875,-1.8923075199127197,-1.5919032096862793,0.7685876488685608
1772811075880427800,1.497427734375,-1.9072211980819702,-1.3303810358047485,0.4937496483325958
1772811075890308900,1.507308837890625,-1.9263958930969238,-1.0667282342910767,0.2119874358177185
1772811075900190200,1.517190185546875,-1.9519622325897217,-0.7572692036628723,-0.07350318133831024
1772811075910071600,1.527071533203125,-1.9540927410125732,-0.4946817457675934,-0.29454535245895386
1772811075919953000,1.536952880859375,-1.9546253681182861,-0.3343595862388611,-0.4138548672199249
1772811075929834200,1.546834228515625,-1.9423748254776,-0.26618272066116333,-0.5022717714309692
1772811075939715300,1.55671533203125,-1.9237327575683594,-0.2107890248298645,-0.5986781120300293
1772811075949596700,1.5665966796875,-1.913080096244812,-0.15752583742141724,-0.6737791895866394
1772811075959478000,1.57647802734375,-1.913080096244812,-0.12290477752685547,-0.713193953037262
1772811075969359400,1.586359375,-1.9200043678283691,-0.12397003918886185,-0.7323686480522156
1772811075979240700,1.59624072265625,-1.916275978088379,-0.150068998336792,-0.7488802671432495
1772811075989121800,1.606121826171875,-1.9104169607162476,-0.1964079588651657,-0.7691202759742737
1772811075999003100,1.616003173828125,-1.9152106046676636,-0.24008376896381378,-0.7803055047988892
1772811076008884000,1.625884033203125,-1.878459095954895,-0.29441219568252563,-0.8138613104820251
1772811076018772000,1.63577197265625,-1.811880111694336,-0.29441219568252563,-0.8804402947425842
1772811076028653000,1.645653076171875,-1.757551670074463,-0.282161682844162,-0.9651287794113159
1772811076038534100,1.6555341796875,-1.6973642110824585,-0.2667153477668762,-1.036501407623291
1772811076048415000,1.6654150390625,-1.6259915828704834,-0.2299637645483017,-1.0812424421310425
1772811076058296000,1.675296142578125,-1.5450315475463867,-0.17137427628040314,-1.0945582389831543
1772811076068177200,1.68517724609375,-1.4528863430023193,-0.10586056113243103,-1.0812424421310425
1772811076078058200,1.695058349609375,-1.3650020360946655,-0.046205803751945496,-1.0562087297439575
1772811076087939300,1.704939208984375,-1.3101409673690796,-0.0057257916778326035,-1.0652635097503662
1772811076097820400,1.7148203125,-1.2776504755020142,0.028895273804664612,-1.1478214263916016
1772811076107701200,1.724701171875,-1.2249199151992798,0.10399635136127472,-1.2974909543991089
1772811076117582300,1.734582275390625,-1.1221219301223755,0.22064270079135895,-1.4833794832229614
1772811076127463400,1.74446337890625,-0.9703218936920166,0.32397326827049255,-1.6692678928375244
1772811076137344500,1.754344482421875,-0.7620629072189331,0.4033353924751282,-1.8066868782043457
1772811076147225600,1.7642255859375,-0.5026712417602539,0.4635227918624878,-1.85941743850708
1772811076157106400,1.7741064453125,-0.1926795393228531,0.4869585931301117,-1.7976322174072266
1772811076166987500,1.783987548828125,0.18442374467849731,0.4411522448062897,-1.6160048246383667
1772811076176868600,1.79386865234375,0.5934849381446838,0.3271690607070923,-1.3369057178497314
1772811076186749700,1.803749755859375,0.999350368976593,0.18761953711509705,-0.9912276864051819
1772811076196630800,1.813630859375,1.3716599941253662,0.04593949019908905,-0.6237117648124695
1772811076206511900,1.823511962890625,1.6859127283096313,-0.11118687689304352,-0.27590325474739075
1772811076216393000,1.83339306640625,1.9149442911148071,-0.23848587274551392,0.009054739959537983
1772811076226273800,1.843273681640625,2.041710615158081,-0.31198906898498535,0.20559586584568024
1772811076236155000,1.85315478515625,2.0694074630737305,-0.32743537425994873,0.31318747997283936
1772811076246036000,1.863035888671875,1.995371699333191,-0.3151848316192627,0.34141695499420166
1772811076255917000,1.8729169921875,1.8286579847335815,-0.29441219568252563,0.3201116919517517
1772811076265798100,1.882798095703125,1.5799189805984497,-0.2805637717247009,0.36538538336753845
1772811076275679000,1.892678955078125,1.3460936546325684,-0.3247722089290619,0.46978121995925903
1772811076285560000,1.90256005859375,1.1607377529144287,-0.32690274715423584,0.5917539000511169
1772811076295441200,1.912441162109375,0.9812408685684204,-0.2757700979709625,0.7068023681640625
1772811076305322200,1.922322265625,0.7873628735542297,-0.2779006361961365,0.733966588973999
1772811076315203300,1.932203369140625,0.5540701746940613,-0.3231743276119232,0.6482128500938416
1772811076325084400,1.94208447265625,0.2946785092353821,-0.3530017137527466,0.4426169991493225
1772811076334965200,1.95196533203125,0.04647212103009224,-0.3482080101966858,0.13102741539478302
1772811076344846300,1.961846435546875,-0.1735047996044159,-0.3061301112174988,-0.2540653645992279
1772811076354727400,1.9717275390625,-0.3567301332950592,-0.2107890248298645,-0.6402233839035034
1772811076364608500,1.9816083984375,-0.4888227880001068,-0.05153212323784828,-0.9795098304748535
1772811076374489600,1.991489501953125,-0.5751091241836548,0.17909742891788483,-1.2703267335891724
1772811076384370400,2.001370361328125,-0.6251765489578247,0.44754382967948914,-1.5259900093078613
1772811076394251500,2.01125146484375,-0.6576670408248901,0.7442197203636169,-1.7433037757873535
1772811076404132600,2.021132568359375,-0.6603302359580994,1.057407259941101,-1.9323880672454834
1772811076414013700,2.031013671875,-0.6406228542327881,1.3540830612182617,-2.0943081378936768
1772811076423894800,2.040894775390625,-0.5921533703804016,1.6118768453598022,-2.216813325881958
1772811076433775900,2.05077587890625,-0.5127912163734436,1.838778018951416,-2.2999038696289062
1772811076443656700,2.06065673828125,-0.4222438335418701,2.017209529876709,-2.3430471420288086
1772811076453537800,2.070537841796875,-0.3205111622810364,2.136519193649292,-2.34144926071167
1772811076463419000,2.0804189453125,-0.21664796769618988,2.1924455165863037,-2.2892513275146484
1772811076473300000,2.090300048828125,-0.11385004222393036,2.196706533432007,-2.173137664794922
1772811076483181000,2.10018115234375,0.003328948514536023,2.1631507873535156,-1.9829879999160767
1772811076493062000,2.110061767578125,0.13968268036842346,2.086984395980835,-1.7401080131530762
1772811076502943000,2.11994287109375,0.2749711573123932,1.9740664958953857,-1.5041520595550537
1772811076512823800,2.12982373046875,0.3681817054748535,1.814276933670044,-1.3251878023147583
1772811076522704600,2.13970458984375,0.42251014709472656,1.6417042016983032,-1.1978888511657715
1772811076532585500,2.14958544921875,0.4672512114048004,1.4701968431472778,-1.10308039188385
1772811076542466300,2.15946630859375,0.5178512334823608,1.3146682977676392,-1.024250864982605
1772811076552347400,2.169347412109375,0.5807017683982849,1.1788471937179565,-0.9587371945381165
1772811076562228200,2.179228271484375,0.6632596850395203,1.0824408531188965,-0.9001476764678955
1772811076572109000,2.189109130859375,0.7628618478775024,1.0233187675476074,-0.8490150570869446
1772811076581990000,2.198989990234375,0.8720513582229614,0.995621919631958,-0.801078200340271
1772811076591870700,2.20887060546875,1.0281124114990234,1.0307756662368774,-0.688160240650177
1772811076601751600,2.21875146484375,1.183640956878662,1.0020134449005127,-0.5736443996429443
1772811076611632400,2.22863232421875,1.2603398561477661,0.9860345721244812,-0.5661875605583191
1772811076621513200,2.23851318359375,1.3615399599075317,1.0297104120254517,-0.5502086281776428
1772811076631394300,2.248394287109375,1.474457859992981,1.0467545986175537,-0.5305012464523315
1772811076641275100,2.258275146484375,1.6022895574569702,1.0297104120254517,-0.5320991277694702
1772811076651156000,2.268156005859375,1.7578179836273193,1.0275797843933105,-0.5379580855369568
1772811076661036800,2.278036865234375,1.911215901374817,1.0211882591247559,-0.5406212210655212
1772811076670917600,2.287917724609375,2.0635485649108887,0.9855019450187683,-0.549143373966217
1772811076680798500,2.297798583984375,2.216413974761963,0.928510308265686,-0.5720465183258057
1772811076690679300,2.30767919921875,2.379399299621582,0.8683229088783264,-0.608798086643219
1772811076700560400,2.317560302734375,2.553037166595459,0.7852323651313782,-0.6535391807556152
1772811076710441200,2.327441162109375,2.7245445251464844,0.6691186428070068,-0.7046718001365662
1772811076720322000,2.337322021484375,2.8832688331604004,0.5237101912498474,-0.7360970973968506
1772811076730203000,2.347202880859375,3.0121657848358154,0.3463438153266907,-0.7281076312065125
1772811076740083700,2.357083740234375,3.1208226680755615,0.1620532125234604,-0.6780402064323425
1772811076749964500,2.366964599609375,3.227349042892456,-0.025965798646211624,-0.6024065017700195
1772811076759845400,2.376845458984375,3.3344080448150635,-0.18522270023822784,-0.5107938647270203
1772811076769726500,2.3867265625,3.41163969039917,-0.315717488527298,-0.38988643884658813
1772811076779607300,2.396607177734375,3.4222922325134277,-0.4222438335418701,-0.24181482195854187
1772811076789488000,2.406488037109375,3.3354732990264893,-0.5314333438873291,-0.09374319016933441
1772811076799369000,2.416368896484375,3.158106803894043,-0.6262418031692505,0.0026631588116288185
1772811076809249800,2.426249755859375,2.9663593769073486,-0.6315681338310242,0.06870950013399124
1772811076819130600,2.436130615234375,2.7841994762420654,-0.5452817678451538,0.10013477504253387
1772811076829011700,2.44601171875,2.627605676651001,-0.31198906898498535,0.0804273933172226
1772811076838892500,2.455892578125,2.5343949794769287,-0.11864372342824936,0.10439582169055939
1772811076848773400,2.4657734375,2.434260368347168,0.0768321305513382,0.17576847970485687
1772811076858654200,2.475654296875,2.2931129932403564,0.29680904746055603,0.2311621904373169
1772811076868535000,2.48553515625,2.102430820465088,0.5370259881019592,0.26578325033187866
1772811076878416000,2.495415771484375,1.851561188697815,0.8006786704063416,0.28602325916290283
1772811076888296700,2.505296630859375,1.5431673526763916,1.0350366830825806,0.29028430581092834
1772811076898177800,2.515177734375,1.1809778213500977,1.2363715171813965,0.2924148440361023
1772811076908058600,2.52505859375,0.7841671109199524,1.3913673162460327,0.3243727385997772
1772811076917939500,2.534939453125,0.405998557806015,1.504285216331482,0.37923380732536316
1772811076927820300,2.5448203125,0.060853179544210434,1.59110426902771,0.4436822533607483
1772811076937701000,2.554701171875,-0.23688797652721405,1.6608790159225464,0.48895594477653503
1772811076947582000,2.56458203125,-0.4803006947040558,1.6949673891067505,0.49641281366348267
1772811076957462800,2.574462890625,-0.6906902194023132,1.6619442701339722,0.46978121995925903
1772811076967343900,2.58434375,-0.8771113753318787,1.5943000316619873,0.41705065965652466
1772811076977224700,2.594224609375,-1.0454230308532715,1.5527547597885132,0.3057306408882141
1772811076987105500,2.60410546875,-1.1785808801651,1.4100093841552734,0.1928126960992813
1772811076996986000,2.613986083984375,-1.3149346113204956,1.1618030071258545,0.09640634804964066
1772811077006866700,2.62386669921875,-1.4731262922286987,0.8475502729415894,0.012250530533492565
1772811077016747000,2.6337470703125,-1.623328447341919,0.529569149017334,-0.07190528512001038
1772811077026627600,2.643627685546875,-1.7431706190109253,0.23129534721374512,-0.13582110404968262
1772811077036508000,2.6535078125,-1.8342506885528564,-0.0552605465054512,-0.19441059231758118
1772811077046388200,2.66338818359375,-1.8976337909698486,-0.3226417005062103,-0.2599242925643921
1772811077056268800,2.673268798828125,-1.9434401988983154,-0.5554017424583435,-0.325437992811203
1772811077066149000,2.683149169921875,-1.958353877067566,-0.7759113311767578,-0.40799593925476074
1772811077076029400,2.693029541015625,-1.9461033344268799,-0.9649956226348877,-0.48682543635368347
1772811077085910000,2.702909912109375,-1.925863265991211,-1.1226545572280884,-0.5123917460441589
1772811077095790300,2.712790283203125,-1.8944380283355713,-1.2744545936584473,-0.4809664785861969
1772811077105671000,2.7226708984375,-1.8603495359420776,-1.4102756977081299,-0.38988643884658813
1772811077115551200,2.73255126953125,-1.8209348917007446,-1.52159583568573,-0.24447797238826752
1772811077125431600,2.742431640625,-1.791107416152954,-1.6270568370819092,-0.05752423033118248
1772811077135312100,2.75231201171875,-1.786313772201538,-1.7133432626724243,0.14434321224689484
1772811077145192400,2.7621923828125,-1.7969664335250854,-1.7879116535186768,0.3456780016422272
1772811077155073000,2.772072998046875,-1.828924298286438,-1.8273264169692993,0.5459475517272949
1772811077164953300,2.781953369140625,-1.8694043159484863,-1.8496969938278198,0.7291728854179382
1772811077174833700,2.791833740234375,-1.8885791301727295,-1.8310548067092896,0.8735160827636719
1772811077184714000,2.8017138671875,-1.907753825187683,-1.7650084495544434,0.9874992966651917
1772811077194594600,2.811594482421875,-1.9349180459976196,-1.677656888961792,1.0626003742218018
1772811077204475000,2.821474853515625,-1.974865436553955,-1.5903053283691406,1.0748509168624878
1772811077214355500,2.83135546875,-2.030791759490967,-1.4949642419815063,1.0386319160461426
1772811077224235800,2.84123583984375,-2.089913845062256,-1.3655346632003784,0.9832382202148438
1772811077234116000,2.8511162109375,-2.149035930633545,-1.2329093217849731,0.9278445243835449
1772811077243996700,2.86099658203125,-2.2172129154205322,-1.119458794593811,0.8639287352561951
1772811077253877000,2.870876953125,-2.298172950744629,-0.9942903518676758,0.809600293636322
1772811077263757300,2.88075732421875,-2.3743393421173096,-0.9111998081207275,0.7371623516082764
1772811077273638000,2.890637939453125,-2.4233412742614746,-0.8313050270080566,0.6380928754806519
1772811077283518200,2.900518310546875,-2.4627561569213867,-0.7471492290496826,0.541686475276947
1772811077293398800,2.910398681640625,-2.480865478515625,-0.6635259985923767,0.43675804138183594
1772811077303279000,2.920279052734375,-2.480332851409912,-0.5974797010421753,0.3190464377403259
1772811077313159400,2.930159423828125,-2.457429885864258,-0.5351617336273193,0.20026955008506775
1772811077323040000,2.9400400390625,-2.4244065284729004,-0.4510059356689453,0.09960214048624039
1772811077332920300,2.94992041015625,-2.381263494491577,-0.370045930147171,0.003195790573954582
1772811077342800600,2.959800537109375,-2.3295981884002686,-0.29334694147109985,-0.07190528512001038
1772811077352681200,2.96968115234375,-2.27793288230896,-0.21398481726646423,-0.12623372673988342
1772811077362561500,2.9795615234375,-2.219343423843384,-0.1442100554704666,-0.1693768948316574
1772811077372442000,2.989442138671875,-2.173004388809204,-0.07017423212528229,-0.2024000734090805
1772811077382322400,2.999322509765625,-2.119208574295044,-0.02436790242791176,-0.23702113330364227
1772811077392202800,3.00920263671875,-2.068608522415161,0.023036323487758636,-0.2689790427684784
1772811077402083300,3.019083251953125,-2.025998115539551,0.05392896756529808,-0.3073285222053528
1772811077411963600,3.028963623046875,-1.9636801481246948,0.08908266574144363,-0.35579800605773926
1772811077421844200,3.03884423828125,-1.8896443843841553,0.13915005326271057,-0.39894118905067444
1772811077431724500,3.048724609375,-1.7628779411315918,0.19081532955169678,-0.42717066407203674
1772811077441604900,3.05860498046875,-1.6073495149612427,0.2376869171857834,-0.4335622489452362
1772811077451485400,3.0684853515625,-1.4241241216659546,0.26272061467170715,-0.39947381615638733
1772811077461365800,3.07836572265625,-1.2190608978271484,0.254731148481369,-0.32277485728263855
1772811077471246000,3.08824609375,-1.0022798776626587,0.2275669276714325,-0.20453059673309326
1772811077481126700,3.098126708984375,-0.7780418395996094,0.16365110874176025,-0.051665280014276505
1772811077491007000,3.108007080078125,-0.5479449033737183,0.08908266574144363,0.1225053071975708
1772811077500887600,3.117887451171875,-0.3114564120769501,0.007590002380311489,0.306263267993927
1772811077510768000,3.12776806640625,-0.07496792078018188,-0.07283739000558853,0.4713791012763977
1772811077520648700,3.137648681640625,0.12530162930488586,-0.1735047996044159,0.5741770267486572
1772811077530529300,3.147529296875,0.3063964247703552,-0.2667153477668762,0.5747096538543701
1772811077540409900,3.157409912109375,0.5087965130805969,-0.3295659124851227,0.4820317327976227
1772811077550290700,3.167290771484375,0.7298386693000793,-0.37430697679519653,0.3355579972267151
1772811077560171300,3.177171142578125,0.9354345202445984,-0.42650488018989563,0.16777899861335754
1772811077570051800,3.1870517578125,1.1106703281402588,-0.5218459963798523,0.030360009521245956
1772811077579932400,3.196932373046875,1.2427630424499512,-0.6507428288459778,-0.05379580706357956
1772811077589813000,3.20681298828125,1.3194620609283447,-0.7844334244728088,-0.08841687440872192
1772811077599693600,3.216693603515625,1.3663336038589478,-0.8749808073043823,-0.0804273933172226
1772811077609574400,3.226574462890625,1.4717947244644165,-0.9293092489242554,-0.05432844161987305
1772811077619455000,3.236455078125,1.6688684225082397,-0.8898945450782776,-0.023435797542333603
1772811077629335600,3.24633544921875,1.9165422916412354,-0.7567365765571594,0.006391581147909164
1772811077639216000,3.256216064453125,2.1828582286834717,-0.5218459963798523,0.038882117718458176
1772811077649096700,3.2660966796875,2.424140214920044,-0.19907112419605255,0.08362318575382233
1772811077658977500,3.2759775390625,2.591919422149658,0.1380847841501236,0.164583221077919
1772811077668858000,3.285858154296875,2.6686182022094727,0.4171838164329529,0.3067958950996399
1772811077678738700,3.29573876953125,2.6494436264038086,0.6057354807853699,0.5187833309173584
1772811077688619300,3.305619384765625,2.5168182849884033,0.6659228801727295,0.8074697256088257
1772811077698499800,3.315499755859375,2.274470806121826,0.6265081167221069,1.1488866806030273
1772811077708380400,3.32538037109375,1.97300124168396,0.5119922757148743,1.5057499408721924
1772811077718261200,3.33526123046875,1.6869779825210571,0.3538006544113159,1.8237311840057373
1772811077728141800,3.345141845703125,1.4701968431472778,0.19081532955169678,2.073002815246582
1772811077738022400,3.3550224609375,1.3215925693511963,0.07097318023443222,2.212552309036255
1772811077747903000,3.364903076171875,1.2305124998092651,0.007057370617985725,2.2205417156219482
1772811077757783600,3.374783447265625,1.1729882955551147,0.0022636849898844957,2.107091188430786
1772811077767664000,3.3846640625,1.066994547843933,0.012916320003569126,1.8631459474563599
1772811077777544700,3.394544677734375,0.9189229607582092,0.05126580595970154,1.5217289924621582
1772811077787425500,3.404425537109375,0.756470263004303,0.1141163557767868,1.140897274017334
1772811077797306000,3.41430615234375,0.5796365141868591,0.1998700648546219,0.7632613182067871
1772811077807186700,3.424186767578125,0.39428067207336426,0.2829606235027313,0.38456013798713684
1772811077817067300,3.4340673828125,0.20040270686149597,0.37563854455947876,0.006391581147909164
1772811077826947800,3.44394775390625,0.011318424716591835,0.4592617452144623,-0.3664506673812866
1772811077836828400,3.453828369140625,-0.16498269140720367,0.5508744120597839,-0.730238139629364
1772811077846709200,3.463709228515625,-0.3189132809638977,0.65953129529953,-1.0780466794967651
1772811077856589800,3.47358984375,-0.4478101432323456,0.7815039753913879,-1.4066804647445679
1772811077866470400,3.483470458984375,-0.5548691153526306,0.9135966300964355,-1.7193353176116943
1772811077876351000,3.49335107421875,-0.6384923458099365,1.0440914630889893,-2.0112175941467285
1772811077886231600,3.5032314453125,-0.708267092704773,1.167129397392273,-2.2690112590789795
1772811077896112400,3.5131123046875,-0.7631281614303589,1.2720577716827393,-2.4772703647613525
1772811077905993000,3.522992919921875,-0.7988144755363464,1.3642030954360962,-2.6221461296081543
1772811077915873500,3.53287353515625,-0.8163913488388062,1.4558157920837402,-2.7313356399536133
1772811077925754000,3.542754150390625,-0.8153260946273804,1.5144052505493164,-2.8133609294891357
1772811077935634700,3.552634765625,-0.808401882648468,1.5442326068878174,-2.8495798110961914
1772811077945515300,3.562515380859375,-0.7865639328956604,1.558613657951355,-2.832535743713379
1772811077955396000,3.57239599609375,-0.7396923303604126,1.5564831495285034,-2.7739462852478027
1772811077965276700,3.582276611328125,-0.6661891937255859,1.54103684425354,-2.673811435699463
1772811077975157200,3.5921572265625,-0.5724459886550903,1.5096116065979004,-2.539588212966919
1772811077985037800,3.602037841796875,-0.4611259400844574,1.469131588935852,-2.3744723796844482
1772811077994918400,3.61191845703125,-0.3290332853794098,1.415335774421692,-2.196573495864868
1772811078004799200,3.62179931640625,-0.1878858506679535,1.3610073328018188,-2.0122828483581543
1772811078014680000,3.63168017578125,-0.04514054208993912,1.297624111175537,-1.8152090311050415
1772811078024561000,3.641560791015625,0.10665950924158096,1.226784110069275,-1.6064174175262451
1772811078034441700,3.651441650390625,0.25792694091796875,1.1511503458023071,-1.3805814981460571
1772811078044322600,3.661322509765625,0.4123901426792145,1.0760493278503418,-1.1542130708694458
1772811078054203400,3.671203369140625,0.5641902089118958,1.003611445426941,-0.9337034821510315
1772811078064084200,3.681084228515625,0.7138597369194031,0.9402282238006592,-0.7323686480522156
1772811078073965000,3.690965087890625,0.8518113493919373,0.9018787145614624,-0.5635244250297546
1772811078083846000,3.700845947265625,0.987099826335907,0.886432409286499,-0.44048646092414856
1772811078093726700,3.710726806640625,1.1106703281402588,0.874181866645813,-0.3542001247406006
1772811078103607600,3.720607666015625,1.2097399234771729,0.8310387134552002,-0.2817622125148773
1772811078113488400,3.73048828125,1.315733551979065,0.7916239500045776,-0.23169481754302979
1772811078123369200,3.740369140625,1.4233251810073853,0.7740471363067627,-0.19174742698669434
1772811078133250000,3.75025,1.5378410816192627,0.764992356300354,-0.16138742864131927
1772811078143131000,3.760130859375,1.650758981704712,0.7447523474693298,-0.13209268450737
1772811078153011700,3.77001171875,1.746632695198059,0.7138597369194031,-0.10759161412715912
1772811078162892500,3.779892578125,1.833984375,0.6728470921516418,-0.08096002787351608
1772811078172773000,3.789773193359375,1.9096180200576782,0.6089312434196472,-0.043675802648067474
1772811078182654000,3.799654052734375,1.9740664958953857,0.5263733267784119,0.005326317623257637
1772811078192534800,3.80953466796875,2.032655954360962,0.4438154101371765,0.066046342253685
1772811078202415600,3.81941552734375,2.081658124923706,0.3825627565383911,0.15233267843723297
1772811078212296400,3.82929638671875,2.161020278930664,0.30479851365089417,0.21784639358520508
1772811078222177300,3.83917724609375,2.255295991897583,0.24301324784755707,0.27057692408561707
1772811078232058000,3.84905810546875,2.355430841445923,0.21105533838272095,0.31265485286712646
1772811078241939000,3.85893896484375,2.459294080734253,0.1940111219882965,0.34194958209991455
1772811078251819800,3.86881982421875,2.5658204555511475,0.20679427683353424,0.36964643001556396
1772811078261700600,3.87870068359375,2.6350624561309814,0.21105533838272095,0.3904190957546234
1772811078271581400,3.88858154296875,2.643051862716675,0.18602164089679718,0.38029909133911133
1772811078281462300,3.898462158203125,2.587125539779663,0.1759016364812851,0.31318747997283936
1772811078291343000,3.908343017578125,2.4912519454956055,0.20146796107292175,0.2029327005147934
1772811078301224000,3.918223876953125,2.384192943572998,0.24780692160129547,0.08841687440872192
1772811078311104800,3.928104736328125,2.2819275856018066,0.3122553825378418,-0.006391581147909164
1772811078320985600,3.937985595703125,2.211620330810547,0.3735080361366272,-0.08096002787351608
1772811078330866400,3.947866455078125,2.1583571434020996,0.41931435465812683,-0.11877688020467758
1772811078340747300,3.957747314453125,2.102963447570801,0.46565333008766174,-0.1315600425004959
1772811078350628000,3.967628173828125,2.0262644290924072,0.4970785975456238,-0.1422126740217209
1772811078360509000,3.977509033203125,1.911215901374817,0.49920910596847534,-0.16138742864131927
1772811078370389800,3.9873896484375,1.751426339149475,0.48429542779922485,-0.18002954125404358
1772811078380270600,3.9972705078125,1.5405042171478271,0.4640554189682007,-0.19494321942329407
1772811078390151400,4.0071513671875,1.292830467224121,0.4411522448062897,-0.19547586143016815
1772811078400032300,4.0170322265625,1.015861988067627,0.40386801958084106,-0.17204006016254425
1772811078409913000,4.0269130859375,0.7175881266593933,0.3676490783691406,-0.1272989958524704
1772811078419794000,4.0367939453125,0.41665118932724,0.3261038064956665,-0.08255792409181595
1772811078429674800,4.0466748046875,0.13009530305862427,0.25366586446762085,-0.05273054540157318
1772811078439555600,4.0565556640625,-0.12503530085086823,0.16684690117835999,-0.027696851640939713
1772811078449436400,4.0664365234375,-0.3519364297389984,0.0858868733048439,-0.019174743443727493
1772811078459317200,4.076317138671875,-0.5511407256126404,0.007590002380311489,-0.04633896425366402
1772811078469197800,4.08619775390625,-0.7471492290496826,-0.09254477173089981,-0.1086568832397461
1772811078479079000,4.096078857421875,-0.9420924186706543,-0.20546270906925201,-0.18961690366268158
1772811078488959700,4.105959716796875,-1.124252438545227,-0.28855326771736145,-0.2700442969799042
1772811078498840600,4.115840576171875,-1.2755199670791626,-0.3386206328868866,-0.3478085398674011
1772811078508721700,4.1257216796875,-1.3942967653274536,-0.37910065054893494,-0.4324969947338104
1772811078518602800,4.135602783203125,-1.5002905130386353,-0.3982754051685333,-0.5171854496002197
1772811078528483800,4.14548388671875,-1.6030884981155396,-0.39348170161247253,-0.5938844084739685
1772811078538365000,4.155364990234375,-1.6941684484481812,-0.37430697679519653,-0.6444844603538513
1772811078548246000,4.16524609375,-1.761812686920166,-0.3391532599925995,-0.6647244691848755
1772811078558127000,4.175127197265625,-1.7809875011444092,-0.3231743276119232,-0.7153244614601135
1772811078568008200,4.18500830078125,-1.8827201128005981,-0.334892213344574,-0.7169223427772522
1772811078577889300,4.19488916015625,-1.9892464876174927,-0.26991114020347595,-0.663126528263092
1772811078587770400,4.204770263671875,-2.008953809738159,-0.2576606273651123,-0.6317012906074524
1772811078597651500,4.2146513671875,-2.0563580989837646,-0.301336407661438,-0.5906886458396912
1772811078607532500,4.224532470703125,-2.110153913497925,-0.3375553786754608,-0.5320991277694702
1772811078617413600,4.23441357421875,-2.12400221824646,-0.35566484928131104,-0.44155174493789673
1772811078627294700,4.244294677734375,-2.1074907779693604,-0.40679749846458435,-0.3014695644378662
1772811078637175800,4.25417578125,-2.078728675842285,-0.48615965247154236,-0.11025477200746536
1772811078647057000,4.264056884765625,-2.0574233531951904,-0.5852291584014893,0.11398319900035858
1772811078656938000,4.27393798828125,-2.0329222679138184,-0.6938860416412354,0.36059170961380005
1772811078666819000,4.283819091796875,-2.000964403152466,-0.8265113234519958,0.6141244173049927
1772811078676700200,4.2937001953125,-1.9636801481246948,-0.955940842628479,0.8463518619537354
1772811078686581200,4.303581298828125,-1.9279937744140625,-1.0619345903396606,1.029044508934021
1772811078696462300,4.31346240234375,-1.8917748928070068,-1.1338398456573486,1.1483540534973145
1772811078706343400,4.323343505859375,-1.870469570159912,-1.1769829988479614,1.2165309190750122
1772811078716224500,4.333224609375,-1.8624801635742188,-1.1902987957000732,1.24209725856781
1772811078726105600,4.343105712890625,-1.8667411804199219,-1.174319863319397,1.2362383604049683
1772811078735986700,4.352986572265625,-1.8859158754348755,-1.13224196434021,1.1898993253707886
1772811078745867800,4.36286767578125,-1.8997642993927002,-1.0566082000732422,1.091362476348877
1772811078755748900,4.372748779296875,-1.9146779775619507,-0.9586040377616882,0.9470192790031433
1772811078765630000,4.3826298828125,-1.9290590286254883,-0.8510124087333679,0.7707181572914124
1772811078775511000,4.392510986328125,-1.9365159273147583,-0.7279744744300842,0.5981454849243164
1772811078785392000,4.40239208984375,-1.9093517065048218,-0.595349133014679,0.4474106729030609
1772811078795273200,4.412273193359375,-1.8512948751449585,-0.4834964871406555,0.3350253701210022
1772811078805154300,4.422154296875,-1.7809875011444092,-0.4174501299858093,0.2631200850009918
1772811078815035400,4.432035400390625,-1.7117453813552856,-0.3759048581123352,0.21997691690921783
1772811078824916500,4.44191650390625,-1.6339811086654663,-0.3673827648162842,0.20080217719078064
1772811078834797600,4.451797607421875,-1.5578147172927856,-0.38709014654159546,0.20932428538799286
1772811078844678700,4.4616787109375,-1.4917683601379395,-0.4099932909011841,0.23915165662765503
1772811078854559700,4.471559814453125,-1.4358420372009277,-0.4243743419647217,0.2679137885570526
1772811078864440800,4.48144091796875,-1.3937641382217407,-0.4243743419647217,0.2545979917049408
1772811078874322000,4.491322021484375,-1.3687304258346558,-0.41585224866867065,0.20026955008506775
1772811078884203000,4.501203125,-1.3479578495025635,-0.3950796127319336,0.11398319900035858
1772811078894084000,4.511083984375,-1.3303810358047485,-0.3711111843585968,0.009054739959537983
1772811078903965200,4.520965087890625,-1.3058799505233765,-0.3423490524291992,-0.10439582169055939
1772811078913846300,4.53084619140625,-1.2765852212905884,-0.3151848316192627,-0.20879164338111877
1772811078923727400,4.540727294921875,-1.2382357120513916,-0.2970753610134125,-0.2972085177898407
1772811078933608400,4.5506083984375,-1.1860377788543701,-0.2763027250766754,-0.3632548749446869
1772811078943489500,4.560489501953125,-1.119991421699524,-0.25659534335136414,-0.4090611934661865
1772811078953370600,4.57037060546875,-1.0512819290161133,-0.2395511418581009,-0.42237699031829834
1772811078963251700,4.580251708984375,-0.9777787327766418,-0.21718059480190277,-0.39734330773353577
1772811078973132800,4.5901328125,-0.901612401008606,-0.17989638447761536,-0.33289486169815063
1772811078983014000,4.600013916015625,-0.8078691959381104,-0.1266331970691681,-0.22743375599384308
1772811078992895000,4.60989501953125,-0.7087997198104858,-0.0696416050195694,-0.09321055561304092
1772811079002776300,4.6197763671875,-0.6086649298667908,-0.004127896390855312,0.04580633342266083
1772811079012657700,4.62965771484375,-0.5245091319084167,0.05819002166390419,0.14540846645832062
1772811079022539000,4.6395390625,-0.45846277475357056,0.13169319927692413,0.15925689041614532
1772811079032420400,4.64942041015625,-0.3625890612602234,0.22809955477714539,0.09853687882423401
1772811079042301700,4.6593017578125,-0.20759323239326477,0.34847432374954224,0.029294747859239578
1772811079052183000,4.66918310546875,0.003328948514536023,0.4454133212566376,-0.034621063619852066
1772811079062064600,4.679064697265625,0.29095008969306946,0.45127224922180176,-0.054861072450876236
1772811079071946000,4.688946044921875,0.6494112610816956,0.3798995912075043,-0.02503369376063347
1772811079081827300,4.698827392578125,1.0361019372940063,0.2781669497489929,0.04101264476776123
1772811079091708700,4.708708740234375,1.390302062034607,0.12583425641059875,0.1422126740217209
1772811079101590000,4.718590087890625,1.6512916088104248,-0.08029423654079437,0.2732400894165039
1772811079111471600,4.7284716796875,1.7945696115493774,-0.3002711534500122,0.4330296218395233
1772811079121353000,4.73835302734375,1.8366475105285645,-0.5063996315002441,0.6093307137489319
1772811079131234300,4.748234375,1.8249295949935913,-0.6805702447891235,0.7579349875450134
1772811079141115600,4.75811572265625,1.8036242723464966,-0.7828355431556702,0.8532760739326477
1772811079150997000,4.7679970703125,1.801493763923645,-0.8068039417266846,0.9113329648971558
1772811079160878300,4.77787841796875,1.8323863744735718,-0.7508776187896729,0.9422255754470825
1772811079170759700,4.787759765625,1.8792580366134644,-0.6507428288459778,0.9539434909820557
1772811079180641300,4.797641357421875,1.9218685626983643,-0.5314333438873291,0.9656614065170288
1772811079190522600,4.807522705078125,1.9426411390304565,-0.4195806682109833,0.9853687882423401
1772811079200404000,4.817404052734375,1.9341191053390503,-0.3343595862388611,1.0162614583969116
1772811079210285300,4.827285400390625,1.8904433250427246,-0.28855326771736145,1.0524803400039673
1772811079220166700,4.837166748046875,1.8121464252471924,-0.2864227294921875,1.0775140523910522
1772811079230048000,4.847048095703125,1.6811189651489258,-0.31305432319641113,1.090829849243164
1772811079239929300,4.856929443359375,1.528786301612854,-0.3769701421260834,1.0652635097503662
1772811079249811000,4.86681103515625,1.3839104175567627,-0.4275701344013214,0.9901624321937561
1772811079259692300,4.8766923828125,1.2454261779785156,-0.45899543166160583,0.8633961081504822
1772811079269573600,4.88657373046875,1.1026809215545654,-0.4712459444999695,0.6902907490730286
1772811079279455000,4.896455078125,0.962066113948822,-0.4515385627746582,0.4857601523399353
1772811079289336300,4.90633642578125,0.8246471285820007,-0.39135119318962097,0.25193482637405396
1772811079299218000,4.916218017578125,0.6824344396591187,-0.3055974841117859,0.003195790573954582
1772811079309099300,4.926099365234375,0.5205143690109253,-0.21238692104816437,-0.260456919670105
1772811079318980600,4.935980712890625,0.3442132771015167,-0.08295739442110062,-0.5273054242134094
1772811079328862000,4.945862060546875,0.156194269657135,0.09813740104436874,-0.7765771150588989
1772811079338743300,4.955743408203125,-0.007856318727135658,0.31065747141838074,-1.0279792547225952
1772811079348624600,4.965624755859375,-0.1447426825761795,0.567918598651886,-1.2820446491241455
1772811079358506200,4.97550634765625,-0.2544648349285126,0.869388222694397,-1.5259900093078613
1772811079368387600,4.9853876953125,-0.33009853959083557,1.2161314487457275,-1.7747290134429932
1772811079378269000,4.99526904296875,-0.3940143585205078,1.566070556640625,-2.0069565773010254
1772811079388150300,5.005150390625,-0.45473435521125793,1.8893780708312988,-2.202965021133423
1772811079398031600,5.015031494140625,-0.5133238434791565,2.186586618423462,-2.336122989654541
1772811079407913000,5.024912841796875,-0.5649891495704651,2.438521385192871,-2.3984408378601074
1772811079417794300,5.034794189453125,-0.6012080907821655,2.647313117980957,-2.3989734649658203
1772811079427676000,5.044676025390625,-0.6305028200149536,2.7991130352020264,-2.3723418712615967
1772811079437557200,5.05455712890625,-0.6640586256980896,2.8981826305389404,-2.3329272270202637
1772811079447438600,5.0644384765625,-0.6965491771697998,2.9573047161102295,-2.2844576835632324
1772811079457320000,5.07431982421875,-0.7269092202186584,2.954641580581665,-2.2487711906433105
1772811079467201300,5.084201171875,-0.7444860339164734,2.8928563594818115,-2.2285313606262207
1772811079477082600,5.09408251953125,-0.7551386952400208,2.8097658157348633,-2.1997692584991455
1772811079486964200,5.103964111328125,-0.754073441028595,2.677140474319458,-2.166745901107788
1772811079496845600,5.113845458984375,-0.7396923303604126,2.5370583534240723,-2.1443755626678467
1772811079506726700,5.1237265625,-0.6672544479370117,2.330397129058838,-2.082590103149414
1772811079516607700,5.133607666015625,-0.5697828531265259,2.102430820465088,-1.976596474647522
1772811079526488800,5.14348876953125,-0.46432173252105713,1.8584853410720825,-1.8695374727249146
1772811079536370000,5.153369873046875,-0.33169642090797424,1.620931625366211,-1.758217453956604
1772811079546251000,5.1632509765625,-0.19108164310455322,1.4142705202102661,-1.6303858757019043
1772811079556132000,5.173132080078125,-0.03608580306172371,1.2171967029571533,-1.5062825679779053
1772811079566013200,5.18301318359375,0.1375521570444107,1.0398303270339966,-1.3912341594696045
1772811079575894500,5.19289453125,0.30479851365089417,0.8938892483711243,-1.271924614906311
1772811079585775600,5.202775634765625,0.48855647444725037,0.7751123905181885,-1.1606045961380005
1772811079595656700,5.21265673828125,0.6898912787437439,0.6925544738769531,-1.0604698657989502
1772811079605537800,5.222537841796875,0.9018787145614624,0.6451502442359924,-0.9651287794113159
1772811079615419000,5.2324189453125,1.1154640913009644,0.622247040271759,-0.8745813369750977
1772811079625300000,5.242300048828125,1.3215925693511963,0.5993438959121704,-0.7819034457206726
1772811079635181000,5.25218115234375,1.523460030555725,0.5711144208908081,-0.6807034015655518
1772811079645062100,5.262062255859375,1.7130769491195679,0.5316996574401855,-0.5715138912200928
1772811079654943200,5.271943115234375,1.880855917930603,0.47097963094711304,-0.45540016889572144
1772811079664824600,5.281824462890625,2.0358517169952393,0.40013960003852844,-0.33236223459243774
1772811079674705700,5.29170556640625,2.181792974472046,0.3319627344608307,-0.21038953959941864
1772811079684586800,5.301586669921875,2.3133528232574463,0.23395849764347076,-0.09747160971164703
1772811079694467800,5.3114677734375,2.4214770793914795,0.11837740987539291,0.018109479919075966
1772811079704349000,5.321348876953125,2.517350912094116,-0.004660528153181076,0.12996214628219604
1772811079714230000,5.33122998046875,2.6015067100524902,-0.11438266932964325,0.22903165221214294
1772811079724111000,5.341111083984375,2.6798036098480225,-0.2059953361749649,0.32703590393066406
1772811079733992200,5.3509921875,2.7591657638549805,-0.301336407661438,0.4197138249874115
1772811079743873500,5.36087353515625,2.811896324157715,-0.3940143585205078,0.49268439412117004
1772811079753754600,5.370754638671875,2.782068967819214,-0.47284385561943054,0.5145222544670105
1772811079763635700,5.3806357421875,2.6888582706451416,-0.5063996315002441,0.48895594477653503
1772811079773516800,5.390516845703125,2.5812666416168213,-0.4850943684577942,0.45060646533966064
1772811079783398000,5.40039794921875,2.4656856060028076,-0.4286354184150696,0.4287685751914978
1772811079793279000,5.410279052734375,2.339451789855957,-0.34554484486579895,0.4293012022972107
1772811079803160000,5.42016015625,2.206293821334839,-0.23848587274551392,0.4474106729030609
1772811079813041200,5.430041259765625,2.063015937805176,-0.10532793402671814,0.4751075208187103
1772811079822922500,5.439922607421875,1.893106460571289,0.036352116614580154,0.515587568283081
1772811079832803600,5.449803466796875,1.6864453554153442,0.165781632065773,0.554469645023346
1772811079842684700,5.4596845703125,1.4361083507537842,0.27230799198150635,0.578970730304718
1772811079852565800,5.469565673828125,1.1607377529144287,0.34794169664382935,0.5779054760932922
1772811079862446800,5.47944677734375,0.882703959941864,0.39428067207336426,0.5619264841079712
1772811079872328000,5.489327880859375,0.6190512776374817,0.42783647775650024,0.5347622632980347
1772811079882209000,5.499208984375,0.3926827609539032,0.4534027874469757,0.47297701239585876
1772811079892090000,5.509090087890625,0.20306585729122162,0.4826975464820862,0.36432012915611267
1772811079901971200,5.51897119140625,0.04274369776248932,0.5205143690109253,0.21411797404289246
1772811079911852500,5.5288525390625,-0.08455529063940048,0.5332975387573242,0.043143171817064285
1772811079921733600,5.538733642578125,-0.19321216642856598,0.5194491147994995,-0.11611372232437134
1772811079931614700,5.54861474609375,-0.30346694588661194,0.4826975464820862,-0.24128219485282898
1772811079941495800,5.558495849609375,-0.4195806682109833,0.4161185622215271,-0.3243727385997772
1772811079951377000,5.568376953125,-0.5660544037818909,0.3367564380168915,-0.35526537895202637
1772811079961258000,5.578258056640625,-0.7450186610221863,0.21691428124904633,-0.3339601159095764
1772811079971139000,5.58813916015625,-0.9085366129875183,0.11464899033308029,-0.3115895688533783
1772811079981020200,5.598020263671875,-1.0566082000732422,0.02996053732931614,-0.28975167870521545
1772811079990901500,5.607901611328125,-1.1860377788543701,-0.04034685716032982,-0.28602325916290283
1772811080000782000,5.617781982421875,-1.2840420007705688,-0.09254477173089981,-0.30040431022644043
1772811080010662700,5.62766259765625,-1.362871527671814,-0.1213068813085556,-0.32756853103637695
1772811080020543200,5.637543212890625,-1.4156020879745483,-0.14740583300590515,-0.3680485486984253
1772811080030423600,5.647423583984375,-1.4395705461502075,-0.19534270465373993,-0.39894118905067444
1772811080040304000,5.65730419921875,-1.4374399185180664,-0.24647535383701324,-0.41172435879707336
1772811080050184700,5.667184814453125,-1.4060146808624268,-0.3290332853794098,-0.4000064432621002
1772811080060065000,5.67706494140625,-1.3655346632003784,-0.4787027835845947,-0.348341166973114
1772811080069945600,5.686945556640625,-1.3309136629104614,-0.670982837677002,-0.2503369152545929
1772811080079826200,5.696826171875,-1.3064125776290894,-0.884035587310791,-0.11717899143695831
1772811080089706800,5.706706787109375,-1.2968251705169678,-1.1013493537902832,0.03994738310575485
1772811080099587000,5.716587158203125,-1.2973577976226807,-1.2994883060455322,0.1981390118598938
1772811080109467600,5.726467529296875,-1.2978904247283936,-1.4480925798416138,0.33289486169815063
1772811080119348200,5.73634814453125,-1.3026841878890991,-1.5588799715042114,0.4335622489452362
1772811080129228500,5.746228515625,-1.3175978660583496,-1.6371768712997437,0.5028043985366821
1772811080139109000,5.756109130859375,-1.3287830352783203,-1.6717979907989502,0.5464801788330078
1772811080148989700,5.76598974609375,-1.337837815284729,-1.6510252952575684,0.5550022721290588
1772811080158870000,5.7758701171875,-1.3463599681854248,-1.5769895315170288,0.533164381980896
1772811080168750600,5.78575048828125,-1.355414628982544,-1.4512883424758911,0.49321702122688293
1772811080178631200,5.795631103515625,-1.3703283071517944,-1.295227289199829,0.44581279158592224
1772811080188511700,5.80551171875,-1.4002889394760132,-1.1290462017059326,0.398674875497818
1772811080198392000,5.81539208984375,-1.4444973468780518,-0.9532777070999146,0.3555316925048828
1772811080208272600,5.825272705078125,-1.4897710084915161,-0.7823029160499573,0.3187801241874695
1772811080218153200,5.8351533203125,-1.5238595008850098,-0.6518081426620483,0.3006706237792969
1772811080228033500,5.845033447265625,-1.5435668230056763,-0.5788375735282898,0.3081274628639221
1772811080237914000,5.8549140625,-1.5600783824920654,-0.5372923016548157,0.33103063702583313
1772811080247794700,5.864794677734375,-1.5797858238220215,-0.5186501741409302,0.3560643196105957
1772811080257675300,5.87467529296875,-1.6085479259490967,-0.5218459963798523,0.3784348666667938
1772811080267555600,5.8845556640625,-1.631983757019043,-0.5138564705848694,0.3805654048919678
1772811080277436200,5.894436279296875,-1.641038417816162,-0.4882901608943939,0.3699127733707428
1772811080287316700,5.904316650390625,-1.62399423122406,-0.4414185583591461,0.3470095992088318
1772811080297197000,5.914197021484375,-1.5877752304077148,-0.3604585528373718,0.2900179922580719
1772811080307077600,5.92407763671875,-1.5382405519485474,-0.2209090292453766,0.1866874396800995
1772811080316958200,5.933958251953125,-1.4844447374343872,-0.03555316850543022,0.06045370548963547
1772811080326838500,5.943838623046875,-1.4370404481887817,0.20200060307979584,-0.061518967151641846
1772811080336719000,5.953718994140625,-1.4072130918502808,0.4587291181087494,-0.15206636488437653
1772811080346599700,5.963599609375,-1.3704615831375122,0.6877607703208923,-0.21704743802547455
1772811080356480300,5.973480224609375,-1.3278509378433228,0.877910315990448,-0.26764747500419617
1772811080366360600,5.983360595703125,-1.2836425304412842,1.0142639875411987,-0.31185588240623474
1772811080376241200,5.9932412109375,-1.237836241722107,1.0765819549560547,-0.34381380677223206
1772811080386121700,6.003121826171875,-1.187768816947937,1.070723056793213,-0.35819485783576965
1772811080396002000,6.013001953125,-1.1323751211166382,1.0089377164840698,-0.356596976518631
1772811080405882600,6.022882568359375,-1.0700571537017822,0.8645945191383362,-0.34381380677223206
1772811080415763200,6.03276318359375,-1.0082719326019287,0.6520744562149048,-0.32144325971603394
1772811080425643500,6.0426435546875,-0.9432908296585083,0.39854171872138977,-0.28362640738487244
1772811080435524000,6.052524169921875,-0.8724508285522461,0.11571425199508667,-0.22556954622268677
1772811080445404700,6.06240478515625,-0.8042739629745483,-0.17137427628040314,-0.13608741760253906
1772811080455285200,6.07228515625,-0.7360970973968506,-0.43076592683792114,-0.02636527270078659
1772811080465165600,6.08216552734375,-0.6812360286712646,-0.6384923458099365,0.08016107976436615
1772811080475046100,6.092046142578125,-0.6263749599456787,-0.774846076965332,0.17070847749710083
1772811080484926700,6.1019267578125,-0.5635244250297546,-0.8366313576698303,0.25060325860977173
1772811080494807000,6.11180712890625,-0.5017391443252563,-0.8462187051773071,0.3273022174835205
1772811080504687600,6.1216875,-0.43089908361434937,-0.8174566030502319,0.40506646037101746
1772811080514568200,6.131568115234375,-0.3595264256000519,-0.758867084980011,0.4791022837162018
1772811080524448800,6.14144873046875,-0.29880642890930176,-0.6715154647827148,0.5414201617240906
1772811080534329300,6.151329345703125,-0.272707462310791,-0.5894901752471924,0.5563338994979858
1772811080544210000,6.1612099609375,-0.2924148440361023,-0.49095332622528076,0.47590649127960205
1772811080554090500,6.171090576171875,-0.2886864244937897,-0.3561974763870239,0.3129211664199829
1772811080563971000,6.18097119140625,-0.18748638033866882,-0.21238692104816437,0.13129372894763947
1772811080573851600,6.1908515625,-0.021837901324033737,-0.10373003780841827,0.00719052879139781
1772811080583732200,6.200732177734375,0.164583221077919,-0.057923704385757446,-0.04234422370791435
1772811080593612800,6.21061279296875,0.3808317184448242,-0.062184758484363556,-0.015712637454271317
1772811080603493400,6.220493408203125,0.62477707862854,-0.09946898370981216,0.09134634584188461
1772811080613374000,6.2303740234375,0.8724508285522461,-0.18149426579475403,0.2767021954059601
1772811080623254500,6.240254638671875,1.0993520021438599,-0.3055974841117859,0.5099949240684509
1772811080633135000,6.250135009765625,1.2831099033355713,-0.4552670121192932,0.7667233943939209
1772811080643015700,6.260015625,1.4034847021102905,-0.6044039130210876,1.0175930261611938
1772811080652896300,6.269896240234375,1.4705963134765625,-0.7519428730010986,1.2503530979156494
1772811080662776600,6.279776611328125,1.5089458227157593,-0.86805659532547,1.453285813331604
1772811080672657200,6.2896572265625,1.5472952127456665,-0.938896656036377,1.6258584260940552
1772811080682537700,6.299537841796875,1.5845794677734375,-0.9777787327766418,1.7520921230316162
1772811080692418300,6.309418212890625,1.6181353330612183,-0.9761808514595032,1.8282585144042969
1772811080702299000,6.319298828125,1.6474300622940063,-0.9298418760299683,1.8538248538970947
1772811080712179500,6.329179443359375,1.6756595373153687,-0.8616650104522705,1.831986904144287
1772811080722060000,6.33906005859375,1.6857795715332031,-0.7791070938110352,1.7696690559387207
1772811080731940600,6.348940673828125,1.6831163167953491,-0.6827007532119751,1.6775237321853638
1772811080741821200,6.3588212890625,1.66660475730896,-0.5820333361625671,1.5656710863113403
1772811080751701800,6.36870166015625,1.6271899938583374,-0.4952143728733063,1.437839388847351
1772811080761582300,6.378582275390625,1.5542194843292236,-0.42543962597846985,1.2961593866348267
1772811080771463000,6.388462890625,1.4524868726730347,-0.36951327323913574,1.1299782991409302
1772811080781343500,6.398343505859375,1.3156003952026367,-0.35033854842185974,0.9291760921478271
1772811080791224000,6.40822412109375,1.151017189025879,-0.3583280146121979,0.6953507661819458
1772811080801104600,6.418104736328125,0.9779118895530701,-0.36418697237968445,0.4492748975753784
1772811080810985200,6.427985107421875,0.8080024123191833,-0.38336169719696045,0.19680742919445038
1772811080820865800,6.43786572265625,0.6173202395439148,-0.4382227957248688,-0.07057370990514755
1772811080830746400,6.447746337890625,0.43729066848754883,-0.4664522707462311,-0.33422642946243286
1772811080840627000,6.457626953125,0.30306747555732727,-0.4467448890209198,-0.5595296621322632
1772811080850507500,6.467507568359375,0.1880190074443817,-0.4036017060279846,-0.7512770891189575
1772811080860388000,6.47738818359375,0.07829686999320984,-0.34554484486579895,-0.9366329312324524
1772811080870268700,6.4872685546875,-0.017576847225427628,-0.24754060804843903,-1.1251846551895142
1772811080880149000,6.49714892578125,-0.10546109080314636,-0.10532793402671814,-1.3206604719161987
1772811080890029600,6.507029541015625,-0.18269269168376923,0.08375634253025055,-1.5273215770721436
1772811080899910100,6.51691015625,-0.2540653645992279,0.3175816833972931,-1.7286564111709595
1772811080909790700,6.526790771484375,-0.32384011149406433,0.588691234588623,-1.9033596515655518
1772811080919671300,6.53667138671875,-0.3920169770717621,0.9125313758850098,-2.0375828742980957
1772811080929552000,6.5465517578125,-0.4559327960014343,1.2550135850906372,-2.120140790939331
1772811080939432400,6.556432373046875,-0.5113264918327332,1.5804516077041626,-2.144641876220703
1772811080949313000,6.56631298828125,-0.5560675859451294,1.8696706295013428,-2.1089553833007812
1772811080959193600,6.576193603515625,-0.5784381031990051,2.1200075149536133,-2.0274627208709717
1772811080969074200,6.58607421875,-0.5763075947761536,2.359159231185913,-1.9108164310455322
1772811080978954800,6.595954833984375,-0.5709812641143799,2.5493087768554688,-1.7515594959259033
1772811080988835300,6.60583544921875,-0.5411538481712341,2.670748710632324,-1.5805847644805908
1772811080998716000,6.6157158203125,-0.48735806345939636,2.7197508811950684,-1.4042836427688599
1772811081008596700,6.6255966796875,-0.40799593925476074,2.7037720680236816,-1.2428961992263794
1772811081018477600,6.6354775390625,-0.32384011149406433,2.6350624561309814,-1.1097382307052612
1772811081028358100,6.645358154296875,-0.22956429421901703,2.5104267597198486,-0.9994835257530212
1772811081038239000,6.655239013671875,-0.1278316229581833,2.3325276374816895,-0.9158602952957153
1772811081048119800,6.665119873046875,-0.018642112612724304,2.120540142059326,-0.8476834297180176
1772811081058000600,6.675000732421875,0.09480845183134079,1.8835190534591675,-0.7965508103370667
1772811081067881500,6.684881591796875,0.21145480871200562,1.6230621337890625,-0.7416897416114807
1772811081077762000,6.694761962890625,0.33715590834617615,1.3578115701675415,-0.6836328506469727
1772811081087643000,6.704642822265625,0.4671180546283722,1.1037461757659912,-0.6378265619277954
1772811081097523700,6.714523681640625,0.5933517813682556,0.877910315990448,-0.6117275953292847
1772811081107404500,6.724404541015625,0.7265097498893738,0.6803039312362671,-0.5925528407096863
1772811081117285000,6.73428515625,0.8671244978904724,0.5359607338905334,-0.5877591371536255
1772811081127166000,6.744166015625,1.0082719326019287,0.4438154101371765,-0.5888243913650513
1772811081137046800,6.754046875,1.1446256637573242,0.3825627565383911,-0.5712475776672363
1772811081146927600,6.763927734375,1.2820446491241455,0.3298322260379791,-0.5323654413223267
1772811081156808400,6.773808349609375,1.4157352447509766,0.288286954164505,-0.4609927833080292
1772811081166689000,6.78368896484375,1.5462299585342407,0.2643185257911682,-0.3752390742301941
1772811081176569900,6.79356982421875,1.66660475730896,0.25845956802368164,-0.2857569456100464
1772811081186450700,6.80345068359375,1.782718539237976,0.2376869171857834,-0.20586217939853668
1772811081196331500,6.81333154296875,1.8956364393234253,0.2174469232559204,-0.12223898619413376
1772811081206212400,6.82321240234375,1.9973690509796143,0.18655426800251007,-0.019973691552877426
1772811081216093200,6.83309326171875,2.0996344089508057,0.12476898729801178,0.10359688103199005
1772811081225973800,6.842973876953125,2.197106122970581,0.051798440515995026,0.24900534749031067
1772811081235854600,6.8528544921875,2.2780661582946777,-0.022237375378608704,0.41571909189224243
1772811081245735400,6.8627353515625,2.355297565460205,-0.10053424537181854,0.594150722026825
1772811081255616300,6.8726162109375,2.416550397872925,-0.17457005381584167,0.7741802930831909
1772811081265496800,6.882496826171875,2.4586281776428223,-0.248605877161026,0.9430245161056519
1772811081275377700,6.892377685546875,2.4815313816070557,-0.3199785351753235,1.0879004001617432
1772811081285258500,6.902258544921875,2.4809987545013428,-0.4004059135913849,1.1960246562957764
1772811081295139300,6.912139404296875,2.4527692794799805,-0.4653870165348053,1.270060420036316
1772811081305020200,6.922020263671875,2.404299736022949,-0.498410165309906,1.3030836582183838
1772811081314900700,6.931900634765625,2.3244049549102783,-0.5074648857116699,1.287104606628418
1772811081324781600,6.941781494140625,2.198171377182007,-0.5090628266334534,1.2242541313171387
1772811081334662400,6.951662353515625,2.0000321865081787,-0.5079975724220276,1.0969550609588623
1772811081344543200,6.961543212890625,1.7342489957809448,-0.4803006947040558,0.8908266425132751
1772811081354424000,6.971424072265625,1.4466278553009033,-0.4360922574996948,0.6383591890335083
1772811081364304600,6.9813046875,1.1765835285186768,-0.3657848536968231,0.39068540930747986
1772811081374185500,6.991185546875,0.9438234567642212,-0.2629869282245636,0.18828532099723816
1772811081384066300,7.00106640625,0.7360970973968506,-0.15326479077339172,0.029028430581092834
1772811081393947100,7.010947021484375,0.5448822975158691,-0.042477384209632874,-0.09507477283477783
1772811081403827700,7.02082763671875,0.3632548749446869,0.06671212613582611,-0.19307900965213776
1772811081413708500,7.03070849609375,0.1784316450357437,0.16471637785434723,-0.27350640296936035
1772811081423589400,7.04058935546875,-0.012250530533492565,0.22383849322795868,-0.3384874761104584
1772811081433470200,7.05047021484375,-0.22530323266983032,0.26804694533348083,-0.37310853600502014
1772811081443351000,7.06035107421875,-0.4665854275226593,0.3042658865451813,-0.3736411929130554
1772811081453231600,7.070231689453125,-0.7036065459251404,0.34740906953811646,-0.36671698093414307
1772811081463112400,7.080112548828125,-0.9246487617492676,0.3921501338481903,-0.3549990653991699
1772811081472993300,7.0899931640625,-1.1222550868988037,0.44275015592575073,-0.3464769721031189
1772811081482874000,7.0998740234375,-1.2729898691177368,0.5018723011016846,-0.3640538156032562
1772811081492755000,7.1097548828125,-1.3917667865753174,0.5530049204826355,-0.40986013412475586
1772811081502635800,7.1196357421875,-1.4919015169143677,0.5849628448486328,-0.45673173666000366
1772811081512517000,7.12951708984375,-1.5712636709213257,0.580169141292572,-0.4966791272163391
1772811081522398200,7.139398193359375,-1.641571044921875,0.550341784954071,-0.5275717377662659
1772811081532279300,7.149279296875,-1.7188026905059814,0.4858933389186859,-0.5547359585762024
1772811081542160400,7.159160400390625,-1.8045563697814941,0.39001959562301636,-0.572845458984375
1772811081552041700,7.169041748046875,-1.9036259651184082,0.2850911617279053,-0.5989444255828857
1772811081561922800,7.1789228515625,-2.00961971282959,0.1988048106431961,-0.6447507739067078
1772811081571804000,7.188803955078125,-2.107091188430786,0.1380847841501236,-0.6980139017105103
1772811081581685200,7.198685302734375,-2.184189796447754,0.09440898150205612,-0.7488802671432495
1772811081591566300,7.20856640625,-2.247040271759033,0.06458160281181335,-0.7904255390167236
1772811081601447400,7.218447509765625,-2.2944445610046387,0.0624510757625103,-0.8319708108901978
1772811081611328800,7.228328857421875,-2.3295981884002686,0.07097318023443222,-0.8761792778968811
1772811081621209900,7.2382099609375,-2.351968765258789,0.07843002676963806,-0.9123982191085815
1772811081631091000,7.248091064453125,-2.3583602905273438,0.07843002676963806,-0.9358339905738831
1772811081640972300,7.25797216796875,-2.3588929176330566,0.05925528332591057,-0.9347687363624573
1772811081650853400,7.267853271484375,-2.356229782104492,0.016112111508846283,-0.8958866000175476
1772811081660734500,7.277734375,-2.341848611831665,-0.04407527670264244,-0.8170571327209473
1772811081670615600,7.287615478515625,-2.308292865753174,-0.12024161964654922,-0.6982802152633667
1772811081680497000,7.297496826171875,-2.2459750175476074,-0.21238692104816437,-0.554469645023346
1772811081690378000,7.3073779296875,-2.1655476093292236,-0.34501221776008606,-0.3824295997619629
1772811081700259000,7.317259033203125,-2.054760217666626,-0.5218459963798523,-0.17363795638084412
1772811081710140400,7.327140380859375,-1.9045580625534058,-0.7066692113876343,0.07456845045089722
1772811081720021500,7.337021484375,-1.7208000421524048,-0.8941555619239807,0.34621065855026245
1772811081729902600,7.346902587890625,-1.5231937170028687,-1.0928272008895874,0.6226465106010437
1772811081739783700,7.35678369140625,-1.3266525268554688,-1.2808462381362915,0.876711905002594
1772811081749665000,7.3666650390625,-1.1588735580444336,-1.4140042066574097,1.083905577659607
1772811081759546000,7.376546142578125,-1.0246503353118896,-1.4853768348693848,1.2335751056671143
1772811081769427200,7.38642724609375,-0.9271787405014038,-1.5247915983200073,1.339036226272583
1772811081779308500,7.39630859375,-0.8536755442619324,-1.5455641746520996,1.4168004989624023
1772811081789189600,7.406189697265625,-0.7929555177688599,-1.5407705307006836,1.4791183471679688
1772811081799070700,7.41607080078125,-0.7407576441764832,-1.5242589712142944,1.532914161682129
1772811081808951800,7.425951904296875,-0.7056038975715637,-1.4923009872436523,1.5952321290969849
1772811081818833200,7.435833251953125,-0.6720481514930725,-1.4432989358901978,1.6607458591461182
1772811081828714200,7.44571435546875,-0.6384923458099365,-1.375654697418213,1.7198679447174072
1772811081838595300,7.45559521484375,-0.6022733449935913,-1.2984230518341064,1.775794267654419
1772811081848476700,7.4654765625,-0.5633912682533264,-1.1961578130722046,1.8216006755828857
1772811081858357800,7.475357666015625,-0.5143890976905823,-1.0715219974517822,1.842373251914978
1772811081868238800,7.48523876953125,-0.4707133173942566,-0.9330376982688904,1.8066868782043457
1772811081878120000,7.495119873046875,-0.43502700328826904,-0.7769765853881836,1.7044216394424438
1772811081888001300,7.505001220703125,-0.4036017060279846,-0.6049365401268005,1.547827959060669
1772811081897882400,7.51488232421875,-0.36791539192199707,-0.4243743419647217,1.351286768913269
1772811081907763500,7.524763427734375,-0.3199785351753235,-0.2502037584781647,1.1169288158416748
1772811081917644500,7.53464453125,-0.2731069326400757,-0.07976160943508148,0.8500803112983704
1772811081927526000,7.54452587890625,-0.23369218409061432,0.04700475186109543,0.5699160099029541
1772811081937407000,7.554406982421875,-0.21185427904129028,0.12263846397399902,0.31372010707855225
1772811081947288000,7.5642880859375,-0.21345217525959015,0.14660689234733582,0.10972214490175247
1772811081957169400,7.57416943359375,-0.24274691939353943,0.11518161743879318,-0.043675802648067474
1772811081967050500,7.584050537109375,-0.2960101068019867,0.028895273804664612,-0.15925689041614532
1772811081976931600,7.593931640625,-0.3620564341545105,-0.0978710874915123,-0.24927166104316711
1772811081986812700,7.603812744140625,-0.43023329973220825,-0.23156166076660156,-0.32330748438835144
1772811081996694000,7.613694091796875,-0.4888227880001068,-0.3428817093372345,-0.3877559304237366
1772811082006575000,7.6235751953125,-0.5138564705848694,-0.42490699887275696,-0.449008584022522
1772811082016456200,7.633456298828125,-0.5127912163734436,-0.47337648272514343,-0.5060001611709595
1772811082026337300,7.643337158203125,-0.4829638600349426,-0.475506991147995,-0.5550022721290588
1772811082036218400,7.65321826171875,-0.433429092168808,-0.445679634809494,-0.5901560187339783
1772811082046099500,7.663099365234375,-0.3668501377105713,-0.3956122398376465,-0.6018738746643066
1772811082055980500,7.67298046875,-0.28908589482307434,-0.3338269591331482,-0.5805686116218567
1772811082065861600,7.682861572265625,-0.20706059038639069,-0.26458483934402466,-0.5326317548751831
1772811082075742700,7.69274267578125,-0.13409005105495453,-0.20439743995666504,-0.4708464741706848
1772811082085623800,7.702623779296875,-0.09361003339290619,-0.18948374688625336,-0.42184436321258545
1772811082095505000,7.7125048828125,-0.058988966047763824,-0.19374480843544006,-0.4143875241279602
1772811082105386000,7.722385986328125,0.01717737503349781,-0.1921469122171402,-0.42131173610687256
1772811082115267000,7.73226708984375,0.1279647797346115,-0.18096163868904114,-0.3946801424026489
1772811082125148200,7.742148193359375,0.26804694533348083,-0.1687111109495163,-0.3339601159095764
1772811082135029200,7.752029296875,0.44701120257377625,-0.1681784838438034,-0.2498043030500412
1772811082144910300,7.761910400390625,0.6542049646377563,-0.1639174222946167,-0.1272989958524704
1772811082154791400,7.77179150390625,0.8912261128425598,-0.19800585508346558,0.06657896935939789
1772811082164672500,7.781672607421875,1.1426283121109009,-0.259258508682251,0.3435474932193756
1772811082174553600,7.7915537109375,1.377518892288208,-0.34075117111206055,0.6823012828826904
1772811082184434700,7.8014345703125,1.5634074211120605,-0.4462122619152069,1.0359687805175781
1772811082194315800,7.811315673828125,1.6843148469924927,-0.5687175393104553,1.3677983283996582
1772811082204196900,7.82119677734375,1.7636768817901611,-0.6725807785987854,1.6644742488861084
1772811082214078000,7.831077880859375,1.8286579847335815,-0.7317028641700745,1.921735405921936
1772811082223959000,7.840958984375,1.8787254095077515,-0.7263765931129456,2.123602867126465
1772811082233840400,7.85084033203125,1.9048243761062622,-0.6805702447891235,2.2599565982818604
1772811082243721500,7.860721435546875,1.9133464097976685,-0.6235786080360413,2.32653546333313
1772811082253602600,7.8706025390625,1.9128137826919556,-0.5314333438873291,2.321741819381714
1772811082263483600,7.880483642578125,1.8957695960998535,-0.4046669900417328,2.2487711906433105
1772811082273364700,7.89036474609375,1.8659422397613525,-0.26458483934402466,2.112950086593628
1772811082283245800,7.900245849609375,1.81907057762146,-0.13462267816066742,1.9430406093597412
1772811082293127000,7.910126953125,1.7492958307266235,-0.021704744547605515,1.7512931823730469
1772811082303008000,7.920008056640625,1.6539547443389893,0.06990791857242584,1.5499584674835205
1772811082312889000,7.92988916015625,1.5314494371414185,0.1327584683895111,1.339036226272583
1772811082322770200,7.939770263671875,1.3807146549224854,0.16524900496006012,1.1110697984695435
1772811082332651300,7.9496513671875,1.1985546350479126,0.1620532125234604,0.8623307943344116
1772811082342532400,7.959532470703125,0.9940240383148193,0.1380847841501236,0.5928191542625427
1772811082352413400,7.969413330078125,0.7740471363067627,0.10665950924158096,0.30306747555732727
1772811082362294500,7.97929443359375,0.5306344032287598,0.06511422991752625,-0.01704421639442444
1772811082372175600,7.989175537109375,0.26751428842544556,0.032091062515974045,-0.3531348705291748
1772811082382056700,7.999056640625,0.009720529429614544,0.027830010280013084,-0.6812360286712646
1772811082391937800,8.008937744140624,-0.21398481726646423,0.05819002166390419,-0.9960213899612427
1772811082401819000,8.01881884765625,-0.39294907450675964,0.11677951365709305,-1.2857730388641357
1772811082411700000,8.028699951171875,-0.5420860052108765,0.1998700648546219,-1.535577416419983
1772811082421581000,8.0385810546875,-0.6566017866134644,0.31119009852409363,-1.7449016571044922
1772811082431462100,8.048462158203124,-0.725311279296875,0.45073962211608887,-1.9121479988098145
1772811082441343200,8.05834326171875,-0.7609976530075073,0.6131923198699951,-2.0303921699523926
1772811082451224300,8.068224365234375,-0.7716502547264099,0.7719165682792664,-2.0863187313079834
1772811082461105400,8.07810546875,-0.7572692036628723,0.9247819185256958,-2.0868513584136963
1772811082470986500,8.087986572265624,-0.7210502624511719,1.0664619207382202,-2.0298595428466797
1772811082480867600,8.09786767578125,-0.6741786599159241,1.1910977363586426,-1.9185396432876587
1772811082490748700,8.107748779296875,-0.6257091760635376,1.3098746538162231,-1.7603479623794556
1772811082500629500,8.11762939453125,-0.5830986499786377,1.4222599267959595,-1.581916332244873
1772811082510510300,8.12751025390625,-0.5463470220565796,1.523992657661438,-1.384310007095337
1772811082520391000,8.137390869140624,-0.5159870386123657,1.6241273880004883,-1.1611372232437134
1772811082530271500,8.147271484375,-0.47337648272514343,1.7066853046417236,-0.9358339905738831
1772811082540152000,8.157152099609375,-0.41531962156295776,1.7583506107330322,-0.7414234280586243
1772811082550033000,8.167032958984375,-0.35566484928131104,1.772199034690857,-0.6029391288757324
1772811082559913500,8.17691357421875,-0.2992058992385864,1.7508937120437622,-0.5097286105155945
1772811082569794000,8.1867939453125,-0.2432795614004135,1.7018916606903076,-0.4340948760509491
1772811082579674600,8.196674560546874,-0.17936374247074127,1.6193337440490723,-0.3760380148887634
1772811082589555500,8.206555419921875,-0.11970898509025574,1.5085463523864746,-0.3201116919517517
1772811082599436000,8.21643603515625,-0.05366265028715134,1.3929651975631714,-0.2780337929725647
1772811082609316600,8.226316650390626,0.015579478815197945,1.2496873140335083,-0.2556632459163666
1772811082619197400,8.236197509765624,0.07523423433303833,1.0845714807510376,-0.2498043030500412
1772811082629078000,8.246078125,0.12583425641059875,0.932238757610321,-0.2498043030500412
1772811082638958600,8.25595849609375,0.17217321693897247,0.7783081531524658,-0.2450106143951416
1772811082648839200,8.265839111328125,0.22383849322795868,0.6339649558067322,-0.21465060114860535
1772811082658720000,8.275719970703125,0.28562378883361816,0.5157207250595093,-0.15446321666240692
1772811082668600600,8.2856005859375,0.3585943281650543,0.4155859351158142,-0.08735160529613495
1772811082678481200,8.295481201171874,0.4406196177005768,0.3271690607070923,-0.012783162295818329
1772811082688362000,8.305362060546875,0.5290365219116211,0.26804694533348083,0.06231791526079178
1772811082698242600,8.31524267578125,0.6318344473838806,0.23342587053775787,0.14008215069770813
1772811082708123100,8.325123046875,0.7458176016807556,0.20146796107292175,0.21518322825431824
1772811082718003700,8.335003662109376,0.8645945191383362,0.14927005767822266,0.29827380180358887
1772811082727884300,8.34488427734375,0.9679250717163086,0.09760477393865585,0.3920169770717621
1772811082737765000,8.35476513671875,1.0701903104782104,0.03848264366388321,0.4948149025440216
1772811082747645700,8.364645751953125,1.167129397392273,-0.029694220051169395,0.6050696969032288
1772811082757526300,8.3745263671875,1.260872483253479,-0.10106687992811203,0.7068023681640625
1772811082767406800,8.38440673828125,1.343430519104004,-0.18841849267482758,0.7824360728263855
1772811082777287700,8.39428759765625,1.4121400117874146,-0.27044376730918884,0.8325034379959106
1772811082787168300,8.404168212890625,1.4781862497329712,-0.34501221776008606,0.8559392690658569
1772811082797048800,8.414048828125,1.5383737087249756,-0.4147869944572449,0.8687223792076111
1772811082806929700,8.4239296875,1.5815168619155884,-0.48722490668296814,0.8602002859115601
1772811082816810200,8.433810302734376,1.6076158285140991,-0.5559344291687012,0.8351665735244751
1772811082826690800,8.44369091796875,1.613474726676941,-0.6150565147399902,0.7978823781013489
1772811082836571400,8.4535712890625,1.6012241840362549,-0.6629933714866638,0.7403581738471985
1772811082846452200,8.4634521484375,1.5516895055770874,-0.720517635345459,0.6530065536499023
1772811082856332800,8.473332763671875,1.4478262662887573,-0.7977492213249207,0.5278380513191223
1772811082866213400,8.48321337890625,1.315200924873352,-0.8435555696487427,0.36591801047325134
1772811082876094200,8.49309423828125,1.2129356861114502,-0.8350334167480469,0.21038953959941864
1772811082885974800,8.502974853515624,1.1506177186965942,-0.7950860857963562,0.08628634363412857
1772811082895855400,8.51285546875,1.1085398197174072,-0.7604650259017944,-0.013315794058144093
1772811082905736000,8.52273583984375,1.080310344696045,-0.7109302282333374,-0.09267792850732803
1772811082915616800,8.53261669921875,1.0723209381103516,-0.6480796933174133,-0.14807163178920746
1772811082925497300,8.542497314453126,1.0664619207382202,-0.5905554890632629,-0.18056216835975647
1772811082935378000,8.5523779296875,1.0536787509918213,-0.5394228100776672,-0.2017342746257782
1772811082945258500,8.562258544921875,1.0089377164840698,-0.498410165309906,-0.2209090292453766
1772811082955139300,8.572139404296875,0.919988214969635,-0.46485435962677,-0.23848587274551392
1772811082965020000,8.58202001953125,0.7788407802581787,-0.4270375072956085,-0.25606271624565125
1772811082974900500,8.591900390625,0.5913544297218323,-0.3860248625278473,-0.2689790427684784
1772811082984781000,8.601781005859374,0.3681817054748535,-0.3524690568447113,-0.272707462310791
1772811082994662000,8.611661865234375,0.12423636019229889,-0.3327617049217224,-0.2684464156627655
1772811083004542700,8.621542724609375,-0.1213068813085556,-0.33649012446403503,-0.24607586860656738
1772811083014424000,8.631424072265625,-0.3391532599925995,-0.35513222217559814,-0.20932428538799286
1772811083024305200,8.64130517578125,-0.5154544115066528,-0.3716438114643097,-0.164583221077919
1772811083034186000,8.65118603515625,-0.6475470662117004,-0.39667749404907227,-0.1272989958524704
1772811083044067000,8.661067138671875,-0.7524755001068115,-0.4286354184150696,-0.10333056002855301
1772811083053948200,8.6709482421875,-0.8579366207122803,-0.45899543166160583,-0.10333056002855301
1772811083063829200,8.680829345703126,-0.9703218936920166,-0.4946817457675934,-0.12463583052158356
1772811083073710300,8.69071044921875,-1.0960229635238647,-0.531965970993042,-0.1560611128807068
1772811083083591400,8.70059130859375,-1.2329093217849731,-0.5649891495704651,-0.18482321500778198
1772811083093472500,8.710472412109375,-1.358077883720398,-0.5799028277397156,-0.20932428538799286
1772811083103353600,8.720353515625,-1.4630062580108643,-0.5591301918029785,-0.23382534086704254
1772811083113234700,8.730234619140624,-1.5333136320114136,-0.5037364959716797,-0.25619587302207947
1772811083123115800,8.74011572265625,-1.598294734954834,-0.43502700328826904,-0.260456919670105
1772811083132996900,8.749996826171875,-1.6536884307861328,-0.4126564562320709,-0.25193482637405396
1772811083142878000,8.7598779296875,-1.6915053129196167,-0.4041343629360199,-0.23009692132472992
1772811083152759000,8.769759033203124,-1.7106800079345703,-0.41212382912635803,-0.16777899861335754
1772811083162640100,8.77964013671875,-1.7101473808288574,-0.4749743640422821,-0.06498107314109802
1772811083172521200,8.789521240234375,-1.6712653636932373,-0.5926859974861145,0.05805686116218567
1772811083182402300,8.79940234375,-1.6472969055175781,-0.7460839152336121,0.1933453232049942
1772811083192283400,8.809283447265624,-1.6243937015533447,-0.9372987151145935,0.3121222257614136
1772811083202164500,8.81916455078125,-1.573793649673462,-1.1205240488052368,0.4159854054450989
1772811083212045600,8.829045654296875,-1.5098779201507568,-1.295759916305542,0.5289033651351929
1772811083221926700,8.8389267578125,-1.4395705461502075,-1.4747241735458374,0.6359623074531555
1772811083231807700,8.848807861328124,-1.3607410192489624,-1.6238610744476318,0.7419560551643372
1772811083241688800,8.858688720703125,-1.288303017616272,-1.7106800079345703,0.8410255312919617
1772811083251570000,8.86856982421875,-1.2211915254592896,-1.74956214427948,0.9368992447853088
1772811083261451000,8.878450927734375,-1.1652650833129883,-1.7666064500808716,1.0253161191940308
1772811083271332000,8.88833203125,-1.124252438545227,-1.7527580261230469,1.1052109003067017
1772811083281213200,8.898213134765625,-1.1061429977416992,-1.6915053129196167,1.1728551387786865
1772811083291094300,8.90809423828125,-1.119991421699524,-1.588707447052002,1.2415646314620972
1772811083300975400,8.917975341796875,-1.1578083038330078,-1.466734766960144,1.3108067512512207
1772811083310856400,8.9278564453125,-1.2227894067764282,-1.313336730003357,1.3496888875961304
1772811083320737500,8.937737548828125,-1.3053473234176636,-1.1508840322494507,1.346493124961853
1772811083330618600,8.94761865234375,-1.3990905284881592,-1.010801911354065,1.2863056659698486
1772811083340499700,8.957499755859375,-1.501355767250061,-0.8936229348182678,1.1973562240600586
1772811083350380800,8.967380859375,-1.5956315994262695,-0.8078691959381104,1.091362476348877
1772811083360262000,8.977261962890625,-1.6755263805389404,-0.7418228983879089,0.9582045674324036
1772811083370143000,8.98714306640625,-1.7852485179901123,-0.683233380317688,0.801078200340271
1772811083380024000,8.997024169921875,-1.921069622039795,-0.6214480996131897,0.6263749599456787
1772811083389905200,9.0069052734375,-2.044640064239502,-0.5596628189086914,0.4522043764591217
1772811083399786200,9.0167861328125,-2.1303939819335938,-0.4787027835845947,0.3073285222053528
1772811083409667300,9.026667236328125,-2.158090829849243,-0.3844269812107086,0.19121479988098145
1772811083419548400,9.03654833984375,-2.1367855072021484,-0.2805637717247009,0.09161266684532166
1772811083429429200,9.04642919921875,-2.10376238822937,-0.16231952607631683,0.019174743443727493
1772811083439310300,9.056310302734374,-2.0579559803009033,-0.04354264587163925,-0.01704421639442444
1772811083449191400,9.06619140625,-2.0132148265838623,0.07097318023443222,-0.01651158556342125
1772811083459072500,9.076072509765625,-1.979659080505371,0.1902827024459839,-0.010652635246515274
1772811083468953600,9.08595361328125,-1.9620822668075562,0.32397326827049255,-0.023968428373336792
1772811083478834700,9.095834716796874,-1.955690622329712,0.4486091136932373,-0.06764423102140427
1772811083488715800,9.1057158203125,-1.955690622329712,0.5908218026161194,-0.13741900026798248
1772811083498596600,9.1155966796875,-1.9439728260040283,0.7452849745750427,-0.2167811244726181
1772811083508477200,9.125477294921875,-1.9221348762512207,0.8933566212654114,-0.2870885133743286
1772811083518357800,9.135357666015626,-1.8853832483291626,1.0142639875411987,-0.3344927430152893
1772811083528238300,9.14523828125,-1.8379790782928467,1.1309103965759277,-0.358993798494339
1772811083538118700,9.15511865234375,-1.799096941947937,1.2816451787948608,-0.38349485397338867
1772811083547999200,9.164999267578125,-1.7825853824615479,1.492034673690796,-0.4330296218395233
1772811083557879800,9.1748798828125,-1.8097496032714844,1.7402411699295044,-0.511859118938446
1772811083567760100,9.184760009765625,-1.8635454177856445,2.0006980895996094,-0.6114612817764282
1772811083577640700,9.194640625,-1.9317222833633423,2.275003433227539,-0.6977475881576538
1772811083587521300,9.204521240234374,-2.0084211826324463,2.5061655044555664,-0.7547392249107361
1772811083597401900,9.21440185546875,-2.0904464721679688,2.6686182022094727,-0.7781749963760376
1772811083607282200,9.2242822265625,-2.1511664390563965,2.7602310180664062,-0.7771097421646118
1772811083617162800,9.234162841796875,-2.139448642730713,2.8236141204833984,-0.7882950305938721
1772811083627043300,9.244043212890626,-2.0872507095336914,2.9088351726531982,-0.8163913488388062
1772811083636924000,9.253923828125,-2.044640064239502,2.9972519874572754,-0.8254460692405701
1772811083646804200,9.26380419921875,-1.988181233406067,3.064363718032837,-0.8318376541137695
1772811083656684800,9.273684814453125,-1.8779264688491821,3.152780532836914,-0.8627303242683411
1772811083666565400,9.2835654296875,-1.7335832118988037,3.2641005516052246,-0.8930903077125549
1772811083676445700,9.29344580078125,-1.5748589038848877,3.3445279598236084,-0.9058734774589539
1772811083686326300,9.303326171875,-1.4209283590316772,3.3796815872192383,-0.9133303165435791
1772811083696206800,9.313206787109374,-1.2861725091934204,3.356778621673584,-0.9000145196914673
1772811083706087400,9.32308740234375,-1.1673957109451294,3.2443931102752686,-0.8510124087333679
1772811083715967700,9.3329677734375,-1.064597725868225,3.0429253578186035,-0.7860313057899475
1772811083725848300,9.342848388671875,-0.980974555015564,2.8037736415863037,-0.7098649740219116
1772811083735729000,9.35272900390625,-0.9213197827339172,2.594449281692505,-0.6384923458099365
1772811083745609500,9.362609375,-0.8669913411140442,2.4330618381500244,-0.6044039130210876
1772811083755489800,9.37248974609375,-0.8350334167480469,2.272207021713257,-0.5878922939300537
1772811083765370400,9.382370361328125,-0.8041408061981201,2.177398681640625,-0.5500754714012146
1772811083775251000,9.3922509765625,-0.7828355431556702,2.127464532852173,-0.5182507038116455
1772811083785131500,9.402131591796875,-0.7029407620429993,2.1780643463134766,-0.48682543635368347
1772811083795011800,9.41201171875,-0.6273070573806763,2.086451768875122,-0.48416227102279663
1772811083804892400,9.421892333984376,-0.5681849122047424,1.8180053234100342,-0.491086483001709
1772811083814773000,9.43177294921875,-0.45846277475357056,1.5990936756134033,-0.438355952501297
1772811083824653600,9.441653564453125,-0.35406696796417236,1.4286515712738037,-0.3579285442829132
1772811083834534000,9.451533935546875,-0.2960101068019867,1.3072115182876587,-0.2918822169303894
1772811083844414500,9.46141455078125,-0.3050648272037506,1.285906195640564,-0.27590325474739075
1772811083854295000,9.471294921875,-0.3295659124851227,1.439304232597351,-0.28495800495147705
1772811083864175600,9.481175537109374,-0.2901511490345001,1.6763253211975098,-0.2721748352050781
1772811083874056000,9.491055908203125,-0.182559534907341,1.797232747077942,-0.24767376482486725
1772811083883936500,9.5009365234375,-0.09893634915351868,1.8702032566070557,-0.28921905159950256
1772811083893817000,9.510817138671875,-0.11385004222393036,1.984719157218933,-0.4623243808746338
1772811083903697400,9.520697509765625,-0.111719511449337,1.9687401056289673,-0.6562023162841797
1772811083913578000,9.530577880859376,-0.07656581699848175,2.0251991748809814,-0.8633961081504822
1772811083923458600,9.54045849609375,-0.01957421749830246,2.231327533721924,-1.0759161710739136
1772811083933339100,9.550339111328125,0.016112111508846283,2.564222574234009,-1.2777836322784424
1772811083943219500,9.560219482421875,0.036352116614580154,2.880605697631836,-1.4759225845336914
1772811083953100000,9.57010009765625,0.007057370617985725,3.0537109375,-1.65315580368042
1772811083962980600,9.579980712890626,-0.11065424978733063,3.1501173973083496,-1.7383768558502197
1772811083972861200,9.589861083984376,-0.25499746203422546,3.2747533321380615,-1.720933198928833
1772811083982741500,9.599741455078124,-0.39294907450675964,3.4483911991119385,-1.6207984685897827
1772811083992622000,9.6096220703125,-0.5245091319084167,3.594864845275879,-1.460476279258728
1772811084002502700,9.619502685546875,-0.6459491848945618,3.590603828430176,-1.2383688688278198
1772811084012383500,9.629383544921875,-0.7141260504722595,3.4270858764648438,-0.936366617679596
1772811084022264300,9.639264404296876,-0.695483922958374,3.1692922115325928,-0.5619264841079712
1772811084032145000,9.649144775390624,-0.5532712340354919,2.9013783931732178,-0.14860425889492035
1772811084042025700,9.659025634765625,-0.35939326882362366,2.8332014083862305,0.2455432415008545
1772811084051906300,9.66890625,-0.1830921620130539,2.761296272277832,0.5470128059387207
1772811084061787100,9.678787109375,-0.058988966047763824,2.6110939979553223,0.7994802594184875
1772811084071668000,9.68866796875,0.023568956181406975,2.424140214920044,1.0572741031646729
1772811084081548500,9.698548583984374,0.05446159839630127,2.3085591793060303,1.3198615312576294
1772811084091429400,9.708429443359375,0.06298370659351349,2.319211959838867,1.6101458072662354
1772811084101310000,9.71831005859375,0.08748476952314377,2.196173906326294,1.8961690664291382
1772811084111190800,9.728190673828125,0.0864195004105568,1.9037591218948364,2.1092216968536377
1772811084121071600,9.738071533203126,0.06671212613582611,1.504285216331482,2.2429122924804688
1772811084130952200,9.7479521484375,0.03049316816031933,1.1394325494766235,2.30629563331604
1772811084140833000,9.7578330078125,-0.010519477538764477,0.8843019008636475,2.3329272270202637
1772811084150713900,9.7677138671875,-0.022770008072257042,0.7543397545814514,2.3728744983673096
1772811084160594400,9.777594482421875,0.003861580276861787,0.6797713041305542,2.4224092960357666
1772811084170475300,9.787475341796876,0.028895273804664612,0.609996497631073,2.4527692794799805
1772811084180355800,9.79735595703125,0.019307902082800865,0.5599291324615479,2.4378554821014404
1772811084190236700,9.807236572265625,-0.02756369300186634,0.5119922757148743,2.3410496711730957
1772811084200117500,9.817117431640625,-0.09094687551259995,0.5162533521652222,2.1651480197906494
1772811084209998000,9.826998046875,-0.14634057879447937,0.5876259803771973,1.9287927150726318
1772811084219879000,9.83687890625,-0.16711321473121643,0.6664555072784424,1.657683253288269
1772811084229759700,9.846759765625,-0.13462267816066742,0.7213165760040283,1.395095705986023
1772811084239640300,9.856640380859375,-0.03502053767442703,0.722914457321167,1.1905651092529297
1772811084249521200,9.866521240234375,0.10719214379787445,0.7223818302154541,1.05527663230896
1772811084259401700,9.876401611328125,0.2611227333545685,0.6962828636169434,0.9753819108009338
1772811084269282600,9.886282470703126,0.3969438076019287,0.6653902530670166,0.9540766477584839
1772811084279163400,9.896163330078124,0.5029375553131104,0.6701838970184326,0.9791103601455688
1772811084289044000,9.9060439453125,0.5663207173347473,0.6669881343841553,1.0302430391311646
1772811084298924800,9.9159248046875,0.5977460145950317,0.6589986681938171,1.1016156673431396
1772811084308805400,9.925805419921875,0.6041375994682312,0.6882933974266052,1.176716685295105
1772811084318686200,9.935686279296876,0.546613335609436,0.7660576105117798,1.1942936182022095
1772811084328566800,9.94556689453125,0.47524067759513855,0.8166576623916626,1.1426283121109009
1772811084338447600,9.955447509765625,0.43689119815826416,0.8352997899055481,1.0435588359832764
1772811084348328400,9.965328369140625,0.44594594836235046,0.8757797479629517,0.9439566135406494
1772811084358209000,9.975208984375,0.49494805932044983,0.8981503248214722,0.8768450617790222
1772811084368089900,9.98508984375,0.5860280990600586,0.8347671031951904,0.8582029342651367
1772811084377970700,9.994970703125,0.68083655834198,0.7025412917137146,0.8933566212654114
1772811084387851300,10.004851318359375,0.731436550617218,0.5869601964950562,0.9934914112091064
1772811084397732000,10.014732177734375,0.7021418213844299,0.46978121995925903,1.1735209226608276
1772811084407612700,10.02461279296875,0.6131923198699951,0.28602325916290283,1.3711273670196533
1772811084417493500,10.034493408203126,0.5098617672920227,0.15659373998641968,1.4707294702529907
1772811084427374300,10.044374267578124,0.4012048840522766,0.14913690090179443,1.4499567747116089
1772811084437255000,10.0542548828125,0.2829606235027313,0.1890842765569687,1.3455610275268555
1772811084447135700,10.0641357421875,0.16951005160808563,0.2780337929725647,1.2326430082321167
1772811084457016600,10.0740166015625,0.09653950482606888,0.18162743747234344,1.1511503458023071
1772811084466897200,10.083897216796874,-0.004660528153181076,0.03675159066915512,1.1282472610473633
1772811084476778000,10.093778076171875,-0.07230476289987564,-0.013848425820469856,1.1538136005401611
1772811084486658600,10.103658447265625,-0.07230476289987564,-0.05805686116218567,1.1863040924072266
1772811084496539400,10.113539306640625,-0.04460791125893593,-0.0026631588116288185,1.2198598384857178
1772811084506420700,10.123420654296876,-0.0025300008710473776,0.1699095368385315,1.2321103811264038
1772811084516302000,10.133302001953124,0.06884265691041946,0.4378232955932617,1.220925211906433
1772811084526183200,10.14318310546875,0.13701951503753662,0.7169223427772522,1.125051498413086
1772811084536064500,10.153064453125,0.2174469232559204,0.776044487953186,0.9689903259277344
1772811084545945900,10.16294580078125,0.23023007810115814,0.809600293636322,0.8060050010681152
1772811084555827000,10.172826904296874,0.18122795224189758,0.8154592514038086,0.7159902453422546
1772811084565708300,10.182708251953125,0.20626164972782135,0.3440801203250885,0.4821648895740509
1772811084575589600,10.192589599609375,0.16897742450237274,0.165781632065773,0.3175816833972931
1772811084585470700,10.202470703125,0.14021530747413635,0.15566162765026093,0.18282584846019745
1772811084595352000,10.21235205078125,0.13648688793182373,0.17749953269958496,0.048070017248392105
1772811084605233200,10.222233154296875,0.14021530747413635,0.25419852137565613,-0.06644581258296967
1772811084615114500,10.232114501953125,0.1471395194530487,0.3735080361366272,-0.11438266932964325
1772811084624995800,10.241995849609374,0.17270584404468536,0.41771647334098816,-0.0834900289773941
1772811084634877000,10.251876953125,0.22064270079135895,0.38096487522125244,0.003728422336280346
1772811084644758300,10.26175830078125,0.2515353560447693,0.28189536929130554,0.12516845762729645
1772811084654639600,10.2716396484375,0.2749711573123932,0.14341109991073608,0.21997691690921783
1772811084664520700,10.281520751953124,0.2893522083759308,0.0022636849898844957,0.26684850454330444
1772811084674402000,10.291402099609375,0.2792322039604187,-0.09840371459722519,0.2732400894165039
1772811084684283400,10.301283447265625,0.24993745982646942,-0.1729721575975418,0.25140219926834106
1772811084694164500,10.31116455078125,0.2131858617067337,-0.2059953361749649,0.21465060114860535
1772811084704045800,10.3210458984375,0.17323848605155945,-0.2203763872385025,0.18056216835975647
1772811084713927000,10.330927001953125,0.14447636902332306,-0.17457005381584167,0.15659373998641968
1772811084723808300,10.340808349609375,0.12423636019229889,-0.0739026591181755,0.15872426331043243
1772811084733689600,10.350689697265626,0.11624687910079956,0.019840532913804054,0.17150743305683136
