time,seconds_elapsed,z,y,x
1772811366491634400,0.373634521484375,-6.533437728881836,-3.225724697113037,3.4435606002807617
1772811366511395600,0.3933955078125,-7.795380115509033,-2.391982078552246,5.059730052947998
1772811366531156700,0.41315673828125,-7.194015026092529,-2.30361270904541,4.511096477508545
1772811366550918000,0.43291796875,-7.017112731933594,-2.373979091644287,1.9849815368652344
1772811366570678800,0.4526787109375,-6.39935302734375,-0.36759328842163086,-2.388319969177246
1772811366590440000,0.47243994140625,-1.4978227615356445,5.133872985839844,-7.237551689147949
1772811366610201000,0.492201171875,-0.6720952987670898,6.330665588378906,-9.312559127807617
1772811366629962200,0.511962158203125,-0.20653724670410156,-2.405946731567383,-0.6931440830230713
1772811366649723100,0.53172314453125,-0.7710070610046387,-3.5974695682525635,2.086864948272705
1772811366669484300,0.551484375,-3.883425235748291,-4.451128959655762,2.8680248260498047
1772811366689245400,0.571245361328125,-4.142705917358398,-5.246244430541992,1.9631705284118652
1772811366709006600,0.591006591796875,-3.6048450469970703,-3.9487929344177246,1.4256205558776855
1772811366728767700,0.610767822265625,-4.7237548828125,-5.50799036026001,3.0247206687927246
1772811366748529000,0.63052880859375,-2.8754055500030518,-5.141994476318359,3.3868966102600098
1772811366768289800,0.650289794921875,0.3550758361816406,-4.358208656311035,1.7100553512573242
1772811366788051000,0.670051025390625,1.3051624298095703,-4.351210117340088,1.4241113662719727
1772811366807812000,0.68981201171875,1.485276699066162,-4.5280890464782715,2.0118565559387207
1772811366827573200,0.7095732421875,-0.16179752349853516,-5.9116926193237305,2.1212387084960938
1772811366847334100,0.729334228515625,-1.9585704803466797,-5.260387420654297,1.1436853408813477
1772811366867095300,0.74909521484375,-6.327756404876709,-5.38778829574585,0.39000988006591797
1772811366886856400,0.7688564453125,-5.070952415466309,-5.10389518737793,1.0836057662963867
1772811366906617600,0.78861767578125,-3.839038372039795,-5.795130252838135,1.7122011184692383
1772811366926378800,0.808378662109375,-1.5172789096832275,-6.116240501403809,2.2742576599121094
1772811366946139600,0.8281396484375,-0.566767692565918,-6.012518405914307,3.744060516357422
1772811366965900800,0.84790087890625,-0.6150954365730286,-5.742295265197754,5.378192901611328
1772811366985662000,0.867661865234375,1.3448243141174316,-5.178060531616211,6.764695167541504
1772811367005423000,0.887423095703125,2.7480859756469727,-4.455404758453369,7.11948299407959
1772811367025184300,0.907184326171875,5.249365329742432,-3.483151435852051,7.036865234375
1772811367044945700,0.926945556640625,8.082659721374512,-1.8030166625976562,6.236172676086426
1772811367064706800,0.946706787109375,6.932238578796387,-1.1179609298706055,5.132968902587891
1772811367084468200,0.96646826171875,5.3594207763671875,-0.06788778305053711,4.034407138824463
1772811367104229400,0.9862294921875,2.898503541946411,0.1776270866394043,3.2671031951904297
1772811367123990500,1.005990478515625,1.8102893829345703,0.20650005340576172,2.7425479888916016
1772811367143752000,1.025751953125,2.233043670654297,0.4058074951171875,2.5524516105651855
1772811367163513000,1.04551318359375,3.1754183769226074,0.6714463233947754,2.264824390411377
1772811367183274200,1.065274169921875,3.4955179691314697,0.6751699447631836,1.8682279586791992
1772811367203035600,1.08503564453125,2.9697232246398926,0.8144106864929199,1.5414013862609863
1772811367222796800,1.104796875,1.2249314785003662,0.6522808074951172,1.6366934776306152
1772811367242558200,1.12455810546875,-0.30780744552612305,0.16477155685424805,2.463531494140625
1772811367262319400,1.1443193359375,0.08955597877502441,0.5190896987915039,3.0638747215270996
1772811367282080800,1.164080810546875,0.7529637813568115,1.2260899543762207,3.104757785797119
1772811367301842000,1.183842041015625,0.32067906856536865,0.915064811706543,3.6726064682006836
1772811367321603000,1.20360302734375,-0.1962052583694458,0.6014280319213867,3.2295022010803223
1772811367341364500,1.223364501953125,-1.161981463432312,1.084914207458496,2.258561611175537
1772811367361125600,1.243125732421875,-1.5811206102371216,1.4347147941589355,1.5247154235839844
1772811367380886800,1.26288671875,-2.178232192993164,2.0608930587768555,1.355522632598877
1772811367400648200,1.282648193359375,-1.726645588874817,2.356142044067383,2.228877067565918
1772811367420409300,1.302409423828125,-1.7056910991668701,2.878666877746582,2.769101619720459
1772811367440170800,1.322170654296875,-2.0645229816436768,2.980238914489746,3.1596741676330566
1772811367459932000,1.341931884765625,-2.4205033779144287,2.404996871948242,3.4090933799743652
1772811367479693000,1.361693115234375,-1.913649559020996,2.5200347900390625,3.3270959854125977
1772811367499454200,1.3814541015625,-1.290902018547058,3.038271903991699,4.304625034332275
1772811367519215400,1.40121533203125,-0.5879306793212891,2.2897768020629883,4.643105983734131
1772811367538976300,1.420976318359375,-0.2904866635799408,1.6700773239135742,5.156552791595459
1772811367558737400,1.4407373046875,-0.5355860590934753,0.5164246559143066,5.14019250869751
1772811367578498600,1.46049853515625,-0.8248870372772217,-0.5560598373413086,5.056458473205566
1772811367598259500,1.480259521484375,-0.7537737488746643,-1.5223054885864258,5.027647972106934
1772811367618020600,1.5000205078125,-0.8207238912582397,-2.685549259185791,4.8662590980529785
1772811367637781800,1.51978173828125,-0.4839956760406494,-3.9447684288024902,4.538336753845215
1772811367657542700,1.539542724609375,-0.1398559808731079,-4.697079181671143,3.632291793823242
1772811367677303800,1.5593037109375,-0.16448426246643066,-4.747270584106445,1.7532076835632324
1772811367697064700,1.579064697265625,-0.1946122646331787,-4.562842845916748,-0.23576641082763672
1772811367716825900,1.598825927734375,-0.08052706718444824,-4.151595592498779,-1.9541082382202148
1772811367736587000,1.6185869140625,-0.8695933818817139,-3.3385987281799316,-3.141395092010498
1772811367756348000,1.638347900390625,-1.6415636539459229,-2.7131357192993164,-3.664151668548584
1772811367776109000,1.658109130859375,-1.5514862537384033,-2.4297595024108887,-3.7830958366394043
1772811367795870000,1.677869873046875,-0.8679790496826172,-2.466686725616455,-3.646127223968506
1772811367815631000,1.697631103515625,-0.04510903358459473,-2.4503092765808105,-3.946869373321533
1772811367835392000,1.71739208984375,0.578300952911377,-2.5226173400878906,-4.358103275299072
1772811367855153200,1.737153076171875,1.0984207391738892,-2.6032752990722656,-4.784950256347656
1772811367874914300,1.756914306640625,1.3149099349975586,-2.648448944091797,-4.905394554138184
1772811367894675200,1.77667529296875,1.1447510719299316,-2.581174850463867,-4.871252059936523
1772811367914436400,1.796436279296875,0.7875803709030151,-2.252793550491333,-4.911012649536133
1772811367934197200,1.816197265625,0.3919339179992676,-1.8946223258972168,-4.857969284057617
1772811367953958400,1.83595849609375,0.4293992519378662,-1.7684578895568848,-4.575605869293213
1772811367973719600,1.855719482421875,0.6638143062591553,-1.9369351863861084,-4.295341491699219
1772811367993480400,1.87548046875,1.0669746398925781,-2.27541446685791,-4.0472025871276855
1772811368013242400,1.895242431640625,1.4620041847229004,-2.623013973236084,-3.965414524078369
1772811368033004300,1.91500439453125,1.8051784038543701,-2.8879380226135254,-3.837765693664551
1772811368052766200,1.93476611328125,2.0693540573120117,-2.974435567855835,-3.7000298500061035
1772811368072528400,1.9545283203125,2.2341697216033936,-3.197523832321167,-3.3289036750793457
1772811368092290300,1.974290283203125,1.774337887763977,-4.305458068847656,-2.3739075660705566
1772811368112052200,1.99405224609375,2.1516659259796143,-5.158975601196289,-1.4364471435546875
1772811368131814100,2.013814208984375,3.1620302200317383,-5.700601100921631,-0.4913201332092285
1772811368151576000,2.033576171875,3.9381203651428223,-5.656410217285156,0.3506474494934082
1772811368171338000,2.053337890625,4.2516937255859375,-4.660640716552734,0.6156549453735352
1772811368191100000,2.073099853515625,3.5394599437713623,-4.403618335723877,0.6194272041320801
1772811368210861800,2.09286181640625,2.531376600265503,-5.3832902908325195,1.356369972229004
1772811368230623700,2.112623779296875,2.2570254802703857,-2.6175904273986816,0.6079597473144531
1772811368250385700,2.1323857421875,0.7522778511047363,-1.7049870491027832,1.6146984100341797
1772811368270147600,2.152147705078125,1.0027029514312744,-0.5692181587219238,1.6998934745788574
1772811368289909500,2.171909423828125,-0.48022907972335815,-0.4235115051269531,3.0954465866088867
1772811368309671400,2.19167138671875,-2.2101409435272217,0.5198202133178711,3.1633176803588867
1772811368329433300,2.211433349609375,-3.9267373085021973,1.4377498626708984,2.5532474517822266
1772811368349195300,2.2311953125,-5.499590873718262,1.903005599975586,2.040113925933838
1772811368368957400,2.25095751953125,-5.137903690338135,2.19732666015625,1.7389960289001465
1772811368388719400,2.27071923828125,-4.090890884399414,2.0869150161743164,1.572655200958252
1772811368408481300,2.290481201171875,-3.126054525375366,1.4997611045837402,1.4477949142456055
1772811368428243200,2.3102431640625,-2.387692928314209,0.5332245826721191,0.605048656463623
1772811368448005000,2.330005126953125,-1.6888731718063354,-0.30178022384643555,-0.6360678672790527
1772811368467767000,2.34976708984375,-1.0785791873931885,-1.132828712463379,-1.6501483917236328
1772811368487529000,2.369529052734375,-0.18580597639083862,-2.0481014251708984,-2.4781179428100586
1772811368507291100,2.389291015625,0.7538310289382935,-2.6672110557556152,-3.627723455429077
1772811368527053300,2.40905322265625,1.4447506666183472,-2.8605170249938965,-4.658266067504883
1772811368546815500,2.4288154296875,2.2680578231811523,-2.857769012451172,-5.4743757247924805
1772811368566577700,2.44857763671875,2.9995455741882324,-2.3607230186462402,-5.955252647399902
1772811368586340000,2.468340087890625,3.515915632247925,-1.6738381385803223,-5.602748870849609
1772811368606102300,2.488102294921875,3.58485746383667,-1.0954580307006836,-4.539885520935059
1772811368625864400,2.507864501953125,3.2244369983673096,-0.5275626182556152,-3.4471194744110107
1772811368645626600,2.527626708984375,2.5724143981933594,-0.20496034622192383,-2.3328137397766113
1772811368665388800,2.547388916015625,2.1381022930145264,-0.3581070899963379,-1.029036045074463
1772811368685151000,2.56715087890625,1.3829095363616943,-0.571281909942627,0.37457942962646484
1772811368704913200,2.5869130859375,0.22979559004306793,-0.5469522476196289,1.8219609260559082
1772811368724675600,2.606675537109375,-0.9750853180885315,-0.3633546829223633,3.169254779815674
1772811368744437800,2.626437744140625,-2.2393627166748047,0.06158638000488281,3.7820487022399902
1772811368764200000,2.646199951171875,-3.376244306564331,0.4813857078552246,4.153088569641113
1772811368783962000,2.665962158203125,-4.655240535736084,0.030730247497558594,5.292222023010254
1772811368803724300,2.685724365234375,-4.725026607513428,-0.41428184509277344,6.23336935043335
1772811368823486500,2.705486572265625,-3.471393346786499,-0.25192737579345703,7.019387245178223
1772811368843249000,2.725248779296875,-2.119412422180176,0.5153121948242188,7.758535861968994
1772811368863011000,2.745010986328125,-1.4704184532165527,1.6118121147155762,8.667923927307129
1772811368882773200,2.764773193359375,-1.1174030303955078,2.326597213745117,9.764959335327148
1772811368902535400,2.784535400390625,-0.5355068445205688,2.7094883918762207,10.273652076721191
1772811368922297600,2.804297607421875,-0.09885171055793762,2.7514572143554688,9.160110473632812
1772811368942060000,2.82406005859375,-0.3992956876754761,2.2382993698120117,7.099556922912598
1772811368961822200,2.843822265625,-0.8357411623001099,1.4546422958374023,4.833256721496582
1772811368981584400,2.86358447265625,-0.7087036371231079,0.8448853492736816,2.791971206665039
1772811369001346000,2.883345947265625,-0.015905901789665222,0.14535140991210938,1.804093360900879
1772811369021107500,2.903107421875,0.36204901337623596,-0.6120595932006836,1.7148728370666504
1772811369040868900,2.922868896484375,0.38915401697158813,-1.088862419128418,1.6817302703857422
1772811369060630300,2.94263037109375,0.6045769453048706,-1.4298815727233887,1.6540498733520508
1772811369080391700,2.9623916015625,0.9080730676651001,-1.6737480163574219,2.0244579315185547
1772811369100153000,2.982153076171875,0.16468915343284607,-2.7516865730285645,2.887619972229004
1772811369119914500,3.00191455078125,-0.622279167175293,-3.6670475006103516,3.1161246299743652
1772811369139676000,3.021676025390625,-0.5200801491737366,-3.87691068649292,3.133739948272705
1772811369159437300,3.041437255859375,-0.5714983344078064,-3.822018623352051,2.9447240829467773
1772811369179198700,3.06119873046875,-0.7416760921478271,-3.504880905151367,1.5489940643310547
1772811369198960000,3.080960205078125,-0.7709506750106812,-3.2996840476989746,0.06022214889526367
1772811369218721300,3.10072119140625,-0.6780840158462524,-3.3202385902404785,-0.5475621223449707
1772811369238482700,3.120482666015625,-0.24405133724212646,-3.3681693077087402,-1.142341136932373
1772811369258244000,3.140244140625,0.15698444843292236,-3.319394111633301,-2.26509428024292
1772811369278005500,3.160005615234375,0.25107407569885254,-3.2042250633239746,-3.571524143218994
1772811369297767000,3.179766845703125,0.1873912811279297,-3.0782809257507324,-4.735238075256348
1772811369317528300,3.1995283203125,0.47513115406036377,-2.72830867767334,-5.591249465942383
1772811369337289700,3.219289794921875,0.9428275227546692,-2.43253231048584,-6.088728904724121
1772811369357051100,3.239051025390625,1.4319531917572021,-2.1412599086761475,-6.2322916984558105
1772811369376812500,3.2588125,1.6399602890014648,-2.1697094440460205,-6.0106987953186035
1772811369396574000,3.278573974609375,1.4664093255996704,-2.2720015048980713,-5.757657051086426
1772811369416335400,3.29833544921875,1.1444041728973389,-2.2444043159484863,-5.372002601623535
1772811369436096800,3.3180966796875,0.941317081451416,-2.2461886405944824,-4.892696380615234
1772811369455858000,3.33785791015625,0.8998878002166748,-2.3242225646972656,-4.4149909019470215
1772811369475619300,3.357619384765625,1.1776409149169922,-2.572446346282959,-3.9039649963378906
1772811369495380700,3.377380615234375,1.5355393886566162,-3.2300822734832764,-3.104363441467285
1772811369515143000,3.397142822265625,1.5607526302337646,-3.93129301071167,-2.807548999786377
1772811369534905000,3.416905029296875,2.358386516571045,-4.236809253692627,-2.9929070472717285
1772811369554667300,3.436667236328125,3.7968697547912598,-4.602811813354492,-3.1533827781677246
1772811369574429400,3.456429443359375,4.7596235275268555,-4.9695634841918945,-3.338900089263916
1772811369594191600,3.476191650390625,5.196926116943359,-4.937358379364014,-3.703859806060791
1772811369613953800,3.495953857421875,5.5041117668151855,-3.9348623752593994,-4.196857929229736
1772811369633715700,3.5157158203125,4.956051349639893,-3.707650899887085,-1.564788818359375
1772811369653478000,3.535477783203125,5.089881896972656,-4.8420634269714355,1.124800682067871
1772811369673240000,3.555239990234375,4.078717231750488,-2.375086545944214,-0.7456965446472168
1772811369693002200,3.575002197265625,1.840914249420166,-0.28114795684814453,-3.7316842079162598
1772811369712764400,3.594764404296875,-2.078540086746216,-1.703270435333252,-1.160475254058838
1772811369732526300,3.6145263671875,-3.7034201622009277,-1.0133814811706543,0.7321720123291016
1772811369752288500,3.63428857421875,-4.02290153503418,-0.7594976425170898,1.4570579528808594
1772811369772050700,3.65405078125,-3.586726188659668,-0.7828354835510254,1.6667146682739258
1772811369791812900,3.673812744140625,-2.754591464996338,-1.441389560699463,2.188048839569092
1772811369811575000,3.693574951171875,-1.5367650985717773,-1.6569452285766602,2.0936951637268066
1772811369831337000,3.7133369140625,-0.5556026697158813,-1.6157846450805664,1.7732563018798828
1772811369851099100,3.73309912109375,-0.22470390796661377,-1.348602294921875,1.5764703750610352
1772811369870861300,3.752861328125,0.3447474241256714,-0.9407329559326172,1.598672866821289
1772811369890623500,3.77262353515625,0.8891391158103943,-0.4287266731262207,1.773529052734375
1772811369910385700,3.7923857421875,0.9979429244995117,0.09508466720581055,2.027132034301758
1772811369930147600,3.812147705078125,0.5233102440834045,0.7474336624145508,1.9429054260253906
1772811369949909800,3.83190966796875,-0.3272174596786499,1.0572638511657715,1.7677092552185059
1772811369969672000,3.851671875,-1.1407479047775269,1.2594037055969238,1.266526699066162
1772811369989434000,3.87143408203125,-1.683753252029419,1.4030766487121582,0.45676088333129883
1772811370009195300,3.8911953125,-2.2888686656951904,1.6330370903015137,-0.18439245223999023
1772811370028956400,3.910956298828125,-2.7319371700286865,1.3311986923217773,-0.424957275390625
1772811370048717300,3.93071728515625,-2.8304548263549805,1.5587682723999023,-0.8385438919067383
1772811370068478500,3.950478515625,-3.0378806591033936,1.4633960723876953,-0.9995951652526855
1772811370088239600,3.970239501953125,-3.2596211433410645,1.0745234489440918,-1.1616506576538086
1772811370108000500,3.99000048828125,-3.140575885772705,0.8748512268066406,-1.5721983909606934
1772811370127761700,4.00976171875,-2.5017473697662354,0.6702160835266113,-1.7004609107971191
1772811370147522600,4.0295224609375,-1.6589972972869873,0.5770339965820312,-1.4305305480957031
1772811370167283700,4.04928369140625,-1.2900241613388062,-0.014056205749511719,-0.2531132698059082
1772811370187044900,4.069044921875,-1.3504595756530762,-1.041639804840088,1.1570978164672852
1772811370206805800,4.0888056640625,-1.1433298587799072,-1.306239128112793,2.155667781829834
1772811370226567000,4.10856689453125,-0.5532690286636353,-1.09429931640625,3.292142391204834
1772811370246328000,4.128328125,0.01704084873199463,-0.33210277557373047,4.668180465698242
1772811370266089000,4.1480888671875,0.43187057971954346,0.5377626419067383,6.452583312988281
1772811370285850000,4.16785009765625,0.9831141829490662,1.3740930557250977,8.060818672180176
1772811370305611000,4.187611083984375,1.4053791761398315,1.4269123077392578,9.806650161743164
1772811370325372200,4.2073720703125,1.6409814357757568,2.3714218139648438,9.482117652893066
1772811370345133300,4.22713330078125,0.8031619787216187,2.2563419342041016,8.266289710998535
1772811370364894200,4.246894287109375,-0.12843959033489227,1.6826000213623047,6.728054046630859
1772811370384655400,4.2666552734375,-0.6535703539848328,1.0321969985961914,5.302628040313721
1772811370404416300,4.286416259765625,-1.1409157514572144,0.3860769271850586,4.056127548217773
1772811370424177400,4.306177490234375,-1.4305310249328613,-0.05703449249267578,3.139655590057373
1772811370443938600,4.3259384765625,-1.5700068473815918,-0.49016380310058594,2.746859550476074
1772811370463699500,4.345699462890625,-1.2396599054336548,-0.7791376113891602,2.542888641357422
1772811370483460600,4.365460693359375,-0.414965957403183,-0.4398784637451172,2.3616857528686523
1772811370503222000,4.385221923828125,0.05196726322174072,-0.353787899017334,2.57039737701416
1772811370522984000,4.40498388671875,-0.022741734981536865,-0.3645792007446289,2.1385717391967773
1772811370542745900,4.424745849609375,0.0028777122497558594,-0.23388051986694336,1.858011245727539
1772811370562507800,4.4445078125,0.19687843322753906,-0.4239072799682617,1.641611099243164
1772811370582269700,4.464269775390625,0.4227478504180908,-0.7214784622192383,1.2680716514587402
1772811370602031600,4.484031494140625,0.7752499580383301,-1.0357656478881836,0.6146793365478516
1772811370621793500,4.50379345703125,1.3023109436035156,-1.4313554763793945,-0.19056272506713867
1772811370641555200,4.52355517578125,1.8794440031051636,-1.8125700950622559,-1.0537962913513184
1772811370661317000,4.543317138671875,2.477128267288208,-2.1222095489501953,-1.8605523109436035
1772811370681079000,4.5630791015625,3.0999650955200195,-2.3692498207092285,-2.5295324325561523
1772811370700841000,4.582841064453125,3.7235357761383057,-2.441650867462158,-3.2537713050842285
1772811370720603000,4.602602783203125,4.292689800262451,-2.505843162536621,-3.6102375984191895
1772811370740364500,4.622364501953125,4.50568962097168,-2.577282428741455,-3.7559852600097656
1772811370760126500,4.64212646484375,4.53193473815918,-2.7184553146362305,-3.516721725463867
1772811370779888400,4.661888427734375,4.352826118469238,-2.5832107067108154,-3.570983409881592
1772811370799650300,4.681650390625,3.2669386863708496,-2.5655665397644043,-3.1865363121032715
1772811370819412200,4.701412109375,3.1544628143310547,-2.6935296058654785,-2.3142237663269043
1772811370839174100,4.721174072265625,2.6905441284179688,-3.2666213512420654,-1.6206755638122559
1772811370858936000,4.74093603515625,1.6192071437835693,-4.223240852355957,-1.4280667304992676
1772811370878697700,4.76069775390625,1.1311678886413574,-4.552011013031006,-1.8139829635620117
1772811370898459600,4.780459716796875,2.0252280235290527,-4.2416486740112305,-1.8333144187927246
1772811370918221600,4.8002216796875,3.2462949752807617,-3.838412284851074,-1.187180995941162
1772811370937983500,4.8199833984375,4.719066619873047,-3.414727210998535,-0.4489760398864746
1772811370957745400,4.839745361328125,5.085173606872559,-2.658254623413086,-0.08041000366210938
1772811370977507300,4.85950732421875,4.522755146026611,-1.8879966735839844,0.3880605697631836
1772811370997268700,4.879268798828125,3.198617458343506,-1.3746404647827148,0.6573762893676758
1772811371017029400,4.899029296875,1.6853241920471191,-1.4157748222351074,0.2980079650878906
1772811371036789800,4.918789794921875,-0.7285292148590088,-1.7331771850585938,-0.1529221534729004
1772811371056550400,4.93855029296875,-3.6621224880218506,-1.6539955139160156,-0.7345728874206543
1772811371076310800,4.958310791015625,-5.590044021606445,-1.184070110321045,-0.9542255401611328
1772811371096071400,4.978071533203125,-6.333830833435059,-0.621030330657959,-1.0771560668945312
1772811371115831800,4.997831787109375,-5.933204174041748,-0.23318767547607422,-0.948601245880127
1772811371135592400,5.017592529296875,-4.240569591522217,-0.09616756439208984,-0.8609738349914551
1772811371155352800,5.037352783203125,-2.256998062133789,-0.1723337173461914,-0.8132553100585938
1772811371175113500,5.057113525390625,-0.8711555004119873,-0.40084266662597656,-1.0117759704589844
1772811371194873900,5.076873779296875,0.027043461799621582,-0.7020759582519531,-1.6599783897399902
1772811371214634500,5.096634521484375,0.6880715489387512,-0.7894377708435059,-2.69230318069458
1772811371234395000,5.116394775390625,1.1864252090454102,-0.647913932800293,-3.3192696571350098
1772811371254155500,5.136155517578125,1.5481994152069092,-0.5767097473144531,-3.354584217071533
1772811371273916000,5.155916015625,1.3412038087844849,-0.3846759796142578,-2.953854560852051
1772811371293676500,5.175676513671875,0.9080936908721924,-0.25176429748535156,-2.4025449752807617
1772811371313437000,5.19543701171875,0.21019595861434937,-0.15009307861328125,-1.8318710327148438
1772811371333197600,5.215197509765625,-0.3288344144821167,-0.26756763458251953,-1.134777545928955
1772811371352958000,5.2349580078125,-1.0020301342010498,-0.18812227249145508,-0.7322444915771484
1772811371372718600,5.254718505859375,-1.2409425973892212,-0.15705156326293945,-0.0893545150756836
1772811371392479000,5.27447900390625,-1.3564317226409912,-0.28693580627441406,0.7659354209899902
1772811371412239600,5.294239501953125,-1.6786212921142578,-0.42360639572143555,1.5145888328552246
1772811371432000000,5.314,-2.2755181789398193,-0.35119152069091797,2.018766403198242
1772811371451760600,5.3337607421875,-2.6355297565460205,-0.04716062545776367,2.2728209495544434
1772811371471521000,5.35352099609375,-2.909088611602783,0.4907093048095703,2.394608974456787
1772811371491281700,5.37328173828125,-3.519735813140869,0.7408814430236816,3.0313563346862793
1772811371511043000,5.39304296875,-4.300533771514893,-0.22344017028808594,4.587899684906006
1772811371530804500,5.412804443359375,-3.9730565547943115,-0.11243820190429688,4.999973297119141
1772811371550566000,5.43256591796875,-2.9388365745544434,0.47669410705566406,5.219096660614014
1772811371570327600,5.45232763671875,-1.658061146736145,1.0830316543579102,5.554437160491943
1772811371590089000,5.4720888671875,-0.8521984815597534,1.341702938079834,6.146151065826416
1772811371609850400,5.491850341796875,-0.3058463931083679,1.3431930541992188,6.639472484588623
1772811371629612000,5.511612060546875,0.29144227504730225,1.5693883895874023,6.28233528137207
1772811371649373400,5.53137353515625,0.6882898211479187,1.8780617713928223,5.149392604827881
1772811371669134800,5.551134765625,1.0010333061218262,1.9392962455749512,4.016440391540527
1772811371688896500,5.570896484375,1.2753230333328247,1.795440673828125,3.1421704292297363
1772811371708658000,5.590657958984375,1.6182899475097656,1.5012922286987305,2.632561206817627
1772811371728419300,5.61041943359375,1.9907066822052002,1.108720302581787,2.590294361114502
1772811371748181000,5.630180908203125,2.001126289367676,0.715057373046875,2.6144862174987793
1772811371767942400,5.6499423828125,2.0713613033294678,0.5805587768554688,2.672269344329834
1772811371787703800,5.669703857421875,2.206601619720459,0.6075577735900879,2.723391056060791
1772811371807465500,5.689465576171875,2.4180705547332764,0.551785945892334,2.824169635772705
1772811371827227000,5.709226806640625,2.6082866191864014,0.37735748291015625,2.9376168251037598
1772811371846988300,5.72898828125,2.5954623222351074,0.15361976623535156,3.034315586090088
1772811371866749700,5.748749755859375,2.0933163166046143,0.18428468704223633,2.5868306159973145
1772811371886511400,5.768511474609375,1.2694909572601318,-0.02028179168701172,1.8293657302856445
1772811371906272800,5.788272705078125,1.0905938148498535,-0.44717884063720703,1.0863685607910156
1772811371926034200,5.8080341796875,1.318450689315796,-0.6900062561035156,0.2290668487548828
1772811371945795800,5.8277958984375,1.625566005706787,-1.165900707244873,-0.39244508743286133
1772811371965557200,5.84755712890625,1.93058180809021,-1.7169466018676758,-0.9429306983947754
1772811371985318700,5.867318603515625,2.084341049194336,-2.076931953430176,-1.5507087707519531
1772811372005080800,5.887080810546875,2.1192398071289062,-2.589320182800293,-1.9448838233947754
1772811372024843300,5.90684326171875,2.086602210998535,-3.2059388160705566,-2.2014951705932617
1772811372044605700,5.926605712890625,2.158630609512329,-3.583063840866089,-2.5140857696533203
1772811372064368400,5.946368408203125,2.1080682277679443,-3.5519301891326904,-2.7625842094421387
1772811372084130800,5.966130859375,1.96149742603302,-3.89266037940979,-2.5176663398742676
1772811372103893200,5.985893310546875,1.813731074333191,-4.252697944641113,-1.8992657661437988
1772811372123655700,6.00565576171875,0.8224830627441406,-5.645400047302246,-0.7635498046875
1772811372143418000,6.025418212890625,0.2039961814880371,-6.254594802856445,-1.1122136116027832
1772811372163180800,6.045180908203125,1.0302547216415405,-6.07774019241333,-2.2585244178771973
1772811372182943200,6.064943115234375,2.240701913833618,-5.524352073669434,-3.4020371437072754
1772811372202705700,6.08470556640625,2.814950942993164,-4.855399131774902,-4.011687278747559
1772811372222468000,6.104468017578125,2.7224700450897217,-4.226075649261475,-3.869410991668701
1772811372242230500,6.12423046875,2.0643296241760254,-3.496797561645508,-3.7588744163513184
1772811372261993000,6.143992919921875,1.136685848236084,-2.889540910720825,-3.281689167022705
1772811372281755600,6.163755615234375,-0.24985778331756592,-2.2137985229492188,-2.7120909690856934
1772811372301518000,6.18351806640625,-2.2624707221984863,-1.8418869972229004,-1.8887743949890137
1772811372321280500,6.203280517578125,-3.992371082305908,-1.413320541381836,-0.9977831840515137
1772811372341043000,6.22304296875,-5.5899224281311035,0.024804115295410156,-1.074779987335205
1772811372360805400,6.242805419921875,-6.334577560424805,0.9109106063842773,-0.8454971313476562
1772811372380568000,6.262568115234375,-5.3292999267578125,1.1546306610107422,0.07544898986816406
1772811372400330500,6.28233056640625,-2.7124385833740234,1.1366677284240723,0.4150218963623047
1772811372420093000,6.302093017578125,-0.518204927444458,0.7679538726806641,-0.36855220794677734
1772811372439855400,6.32185546875,0.22092890739440918,0.10701894760131836,-1.5554680824279785
1772811372459617800,6.34161767578125,0.4970284700393677,-0.47942399978637695,-3.0176076889038086
1772811372479380200,6.361380126953125,0.8194948434829712,-0.5738816261291504,-3.999166250228882
1772811372499142100,6.38114208984375,0.7693954110145569,-0.8125052452087402,-3.683502197265625
1772811372518903300,6.4009033203125,0.8461248874664307,-1.1666874885559082,-2.847546100616455
1772811372538664400,6.42066455078125,0.7553379535675049,-1.3723416328430176,-2.134681224822998
1772811372558425300,6.44042529296875,0.47308552265167236,-1.0759658813476562,-2.0133399963378906
1772811372578186500,6.4601865234375,0.5313634276390076,-0.7122282981872559,-1.8636360168457031
1772811372597947400,6.479947509765625,0.7525194883346558,-0.8551692962646484,-0.9602875709533691
1772811372617708500,6.49970849609375,0.9469937086105347,-1.2768230438232422,0.10376882553100586
1772811372637469400,6.519469482421875,0.7705739140510559,-1.6379423141479492,0.7933444976806641
1772811372657230600,6.539230712890625,0.32346898317337036,-1.5498924255371094,1.191551685333252
1772811372676991700,6.55899169921875,0.07895231246948242,-1.070310115814209,1.7226958274841309
1772811372696752600,6.578752685546875,-0.4368175268173218,-0.295717716217041,2.7793350219726562
1772811372716513800,6.598513671875,-1.4326461553573608,-0.8065834045410156,5.364192485809326
1772811372736274700,6.618274658203125,-2.089075803756714,-1.4643230438232422,7.026970863342285
1772811372756035800,6.638035888671875,-1.7570128440856934,-0.3735380172729492,6.96281623840332
1772811372775796700,6.657796630859375,-1.3549516201019287,0.2860431671142578,7.662449359893799
1772811372795558000,6.677557861328125,-1.244638442993164,1.0494499206542969,8.383679389953613
1772811372815319000,6.697319091796875,-1.2754192352294922,2.033517360687256,9.135096549987793
1772811372835080000,6.717079833984375,-1.1438281536102295,2.603059768676758,9.299827575683594
1772811372854841000,6.736841064453125,-1.2957258224487305,2.7969589233398438,8.577162742614746
1772811372874602000,6.75660205078125,-1.4280489683151245,2.842230796813965,7.067699909210205
1772811372894363100,6.776363037109375,-1.4489924907684326,2.8135809898376465,5.831916809082031
1772811372914124000,6.7961240234375,-1.2649356126785278,2.5488786697387695,5.223533630371094
1772811372933885200,6.81588525390625,-1.0459330081939697,2.165721893310547,5.034056663513184
1772811372953646000,6.83564599609375,-0.9027597308158875,1.6227173805236816,4.9407734870910645
1772811372973407200,6.8554072265625,-0.6449810266494751,1.0207667350769043,4.6428022384643555
1772811372993168400,6.87516845703125,-0.36851179599761963,0.3302803039550781,4.137447834014893
1772811373012929000,6.894928955078125,0.22556626796722412,-0.25867748260498047,3.366671085357666
1772811373032690000,6.91468994140625,0.7228630781173706,-0.8204398155212402,2.673384189605713
1772811373052450800,6.934450927734375,1.0504999160766602,-1.3233041763305664,1.8791675567626953
1772811373072211500,6.95421142578125,1.027168869972229,-1.825235366821289,1.1190118789672852
1772811373091972400,6.973972412109375,1.0312609672546387,-2.4475274085998535,0.32060956954956055
1772811373111733200,6.993733154296875,1.0862185955047607,-2.9170660972595215,-0.4714827537536621
1772811373131494000,7.013493896484375,1.4261693954467773,-3.2668943405151367,-1.2945356369018555
1772811373151254800,7.0332548828125,1.996984839439392,-3.2562122344970703,-2.174314022064209
1772811373171015700,7.053015625,2.5600168704986572,-3.3717002868652344,-2.5234360694885254
1772811373190776300,7.0727763671875,2.898103952407837,-3.9578988552093506,-2.3739418983459473
1772811373210537200,7.092537109375,3.030121088027954,-4.786251068115234,-2.282637596130371
1772811373230298000,7.112298095703125,3.2602250576019287,-5.383608818054199,-2.551445484161377
1772811373250059000,7.13205908203125,3.5307204723358154,-5.648294448852539,-2.982551097869873
1772811373269819600,7.151819580078125,3.777040719985962,-5.5175299644470215,-3.597830295562744
1772811373289580500,7.17158056640625,3.423835277557373,-5.665985107421875,-3.49281644821167
1772811373309341200,7.191341064453125,2.456529140472412,-7.136687755584717,-2.5534472465515137
1772811373329102000,7.21110205078125,1.9293737411499023,-7.31141471862793,-2.9480481147766113
1772811373348863000,7.230863037109375,2.555158853530884,-6.395112037658691,-3.870969772338867
1772811373368623600,7.25062353515625,3.537644147872925,-5.319726943969727,-4.4141340255737305
1772811373388384500,7.270384521484375,4.358132362365723,-4.316910743713379,-4.239054203033447
1772811373408145400,7.2901455078125,4.08886194229126,-3.7361626625061035,-3.3578381538391113
1772811373427906000,7.309906005859375,2.9262731075286865,-3.4252078533172607,-2.291360378265381
1772811373447667000,7.3296669921875,1.4947388172149658,-3.448714017868042,-1.2811903953552246
1772811373467427800,7.349427734375,-0.06709933280944824,-3.1754722595214844,-0.8036065101623535
1772811373487188700,7.369188720703125,-1.5417020320892334,-2.4117040634155273,-1.0528388023376465
1772811373506950700,7.38895068359375,-3.274628162384033,-1.6549129486083984,-1.419114589691162
1772811373526713000,7.408713134765625,-3.9556949138641357,-1.051708698272705,-1.8898277282714844
1772811373546475800,7.428475830078125,-3.6061007976531982,-0.7117223739624023,-2.373704433441162
1772811373566238500,7.448238525390625,-2.276825189590454,-0.5494246482849121,-2.9540109634399414
1772811373586001000,7.4680009765625,-0.932020902633667,-0.16852664947509766,-3.5857791900634766
1772811373605763600,7.487763671875,-0.24816250801086426,-0.14409923553466797,-3.8912482261657715
1772811373625526300,7.5075263671875,0.2794531583786011,-0.03339338302612305,-4.0264434814453125
1772811373645288700,7.527288818359375,0.7609919309616089,-0.13658428192138672,-3.9286296367645264
1772811373665051400,7.547051513671875,1.3521697521209717,-0.3153667449951172,-3.5748958587646484
1772811373684813800,7.566813720703125,1.717631220817566,-0.5193610191345215,-2.8226218223571777
1772811373704576500,7.586576416015625,1.618741750717163,-0.6816449165344238,-1.7272067070007324
1772811373724339200,7.606339111328125,1.1545641422271729,-0.8517251014709473,-0.1715412139892578
1772811373744101600,7.6261015625,0.35927343368530273,-1.1243324279785156,1.5216779708862305
1772811373763864300,7.6458642578125,-0.6305696964263916,-1.6973519325256348,3.423081874847412
1772811373783626800,7.665626708984375,-1.378650426864624,-1.4122037887573242,4.63952112197876
1772811373803389400,7.685389404296875,-1.7981473207473755,-0.6061325073242188,5.655374526977539
1772811373823152000,7.705152099609375,-2.2905683517456055,-0.08375930786132812,7.116410732269287
1772811373842914600,7.72491455078125,-3.4129798412323,-1.086456298828125,9.427522659301758
1772811373862677200,7.74467724609375,-3.4552884101867676,-1.385514259338379,10.12708854675293
1772811373882440000,7.76443994140625,-2.694267749786377,-0.15993785858154297,9.781562805175781
1772811373902202400,7.784202392578125,-2.2445225715637207,0.666111946105957,9.836445808410645
1772811373921965000,7.803965087890625,-2.000227212905884,1.705500602722168,9.396327018737793
1772811373941727500,7.8237275390625,-1.6542506217956543,2.7384538650512695,8.589517593383789
1772811373961490200,7.843490234375,-1.7841336727142334,2.7583160400390625,7.559688568115234
1772811373981252600,7.863252685546875,-1.8689463138580322,2.692094326019287,6.182742118835449
1772811374001015000,7.88301513671875,-1.3408639430999756,2.6478285789489746,4.818264484405518
1772811374020777200,7.902777099609375,-0.7234656810760498,2.485776901245117,4.01807975769043
1772811374040539100,7.9225390625,-0.18098896741867065,2.157454490661621,3.6992931365966797
1772811374060301000,7.942301025390625,0.36776548624038696,1.6885528564453125,3.648393154144287
1772811374080063200,7.962063232421875,1.025965929031372,1.3758745193481445,3.42063570022583
1772811374099825200,7.9818251953125,1.3809033632278442,1.0336651802062988,3.0775766372680664
1772811374119587300,8.00158740234375,1.5579534769058228,0.6845331192016602,2.5117106437683105
1772811374139349200,8.021349365234375,1.5440876483917236,0.32994937896728516,1.8002057075500488
1772811374159111200,8.041111083984376,1.3385634422302246,-0.0734248161315918,1.0691208839416504
1772811374178873300,8.060873291015625,1.180373191833496,-0.3394927978515625,0.13170194625854492
1772811374198635300,8.08063525390625,1.0745110511779785,-0.6846575736999512,-0.6016616821289062
1772811374218397400,8.1003974609375,1.1382274627685547,-0.9114208221435547,-1.213557243347168
1772811374238159400,8.120159423828126,1.1453622579574585,-1.085073471069336,-1.296818733215332
1772811374257921300,8.13992138671875,1.3328793048858643,-1.1291189193725586,-1.1765570640563965
1772811374277683500,8.159683349609375,1.1587677001953125,-1.3545527458190918,-0.6645498275756836
1772811374297445400,8.1794453125,1.0730290412902832,-2.155611038208008,-0.01624155044555664
1772811374317207600,8.19920751953125,1.28340744972229,-2.8941802978515625,0.14810991287231445
1772811374336969500,8.218969482421874,1.6159110069274902,-3.7542853355407715,0.1772327423095703
1772811374356731600,8.238731689453125,2.1866183280944824,-4.706635475158691,0.1624593734741211
1772811374376493600,8.25849365234375,2.713088035583496,-6.524395942687988,0.8792390823364258
1772811374396255500,8.27825537109375,2.9746737480163574,-8.004197120666504,0.9250984191894531
1772811374416017700,8.298017578125,3.779606580734253,-8.5432767868042,0.20590686798095703
1772811374435779600,8.317779541015625,5.03339958190918,-8.311473846435547,-1.0417695045471191
1772811374455541800,8.337541748046876,6.241177558898926,-6.824848175048828,-2.751251697540283
1772811374475303700,8.3573037109375,6.91270637512207,-4.98893404006958,-3.955118179321289
1772811374495065600,8.377065673828126,6.319382190704346,-4.206132888793945,-3.9046502113342285
1772811374514826800,8.39682666015625,5.091757774353027,-3.9406089782714844,-3.7293143272399902
1772811374534588200,8.416588134765625,3.5285961627960205,-3.9926388263702393,-3.5538277626037598
1772811374554349300,8.436349365234374,1.364266037940979,-3.9248862266540527,-3.87672758102417
1772811374574110700,8.45611083984375,-1.142397403717041,-3.5101685523986816,-4.735177516937256
1772811374593872000,8.475871826171876,-3.3002283573150635,-2.936825752258301,-5.341605186462402
1772811374613633000,8.495633056640624,-3.8315961360931396,-2.4397480487823486,-5.094669342041016
1772811374633394400,8.51539453125,-3.318720579147339,-1.4081897735595703,-4.878696441650391
1772811374653155600,8.535155517578126,-2.9984066486358643,-0.4991130828857422,-4.875977516174316
1772811374672917000,8.5549169921875,-2.959824323654175,-0.04930686950683594,-4.681897163391113
1772811374692678100,8.57467822265625,-2.3122196197509766,-0.030928611755371094,-4.316673755645752
1772811374712439600,8.594439453125,-1.0575472116470337,-0.16521215438842773,-4.213617324829102
1772811374732200700,8.61420068359375,-0.12206900119781494,-0.48745059967041016,-4.152666091918945
1772811374751961900,8.6339619140625,0.4303262233734131,-0.968052864074707,-3.9267759323120117
1772811374771723300,8.65372314453125,0.6891023516654968,-1.1176786422729492,-3.6754660606384277
1772811374791484400,8.673484375,0.5364141464233398,-1.166496753692627,-2.8715872764587402
1772811374811245800,8.693245849609376,-0.021547436714172363,-1.2994208335876465,-1.245328426361084
1772811374831007000,8.713007080078125,-0.8008438348770142,-1.6886529922485352,0.6597514152526855
1772811374850768400,8.732768310546875,-1.3415476083755493,-2.033848762512207,2.0196266174316406
1772811374870529500,8.752529541015624,-1.9640922546386719,-1.6986660957336426,3.094320774078369
1772811374890290700,8.772290771484375,-3.0237009525299072,-0.7881507873535156,4.684423446655273
1772811374910052000,8.792052001953126,-4.6149444580078125,0.10709524154663086,7.046093463897705
1772811374929813200,8.811813232421875,-5.782620429992676,-0.7277545928955078,10.287361145019531
1772811374949574700,8.83157470703125,-6.1191182136535645,-1.0207300186157227,10.472761154174805
1772811374969335800,8.851335693359376,-4.42014741897583,-1.0021142959594727,10.14229965209961
1772811374989097200,8.87109716796875,-2.1098294258117676,1.1449499130249023,10.709787368774414
1772811375008858000,8.890858154296875,-0.5520355701446533,2.7293100357055664,11.770645141601562
1772811375028619000,8.910618896484374,-0.2849404811859131,2.731597900390625,9.640287399291992
1772811375048380000,8.9303798828125,2.1843934059143066,1.908111572265625,6.62086296081543
1772811375068140800,8.950140869140625,1.958205223083496,2.054476261138916,3.2644577026367188
1772811375087901700,8.969901611328124,1.286738634109497,1.7409472465515137,1.9982151985168457
1772811375107662600,8.98966259765625,0.9427992701530457,1.4623494148254395,1.267336368560791
1772811375127423500,9.009423583984375,1.428937315940857,0.8886399269104004,1.0480661392211914
1772811375147184400,9.029184326171874,2.3418354988098145,0.45041990280151367,0.864781379699707
1772811375166945300,9.0489453125,2.7209911346435547,0.19061851501464844,0.8455443382263184
1772811375186706200,9.0687060546875,2.8750057220458984,0.18022680282592773,0.8652033805847168
1772811375206467000,9.088467041015624,2.600381374359131,0.33123350143432617,0.9516243934631348
1772811375226228000,9.10822802734375,2.2570278644561768,0.46105241775512695,0.9529514312744141
1772811375245988900,9.12798876953125,1.7455050945281982,0.15456533432006836,0.9745569229125977
1772811375265749800,9.147749755859374,1.2905826568603516,0.036072731018066406,0.6292037963867188
1772811375285510700,9.1675107421875,1.0689435005187988,0.05626535415649414,0.11538982391357422
1772811375305271600,9.187271484375,1.2551939487457275,-0.04409027099609375,-0.25146007537841797
1772811375325032400,9.207032470703124,1.6888595819473267,-0.27385950088500977,-0.5069561004638672
1772811375344793300,9.22679345703125,2.31727933883667,-0.8268189430236816,-0.5024909973144531
1772811375364554200,9.24655419921875,2.7596468925476074,-1.7590861320495605,-0.6433100700378418
1772811375384315100,9.266315185546874,3.226921796798706,-2.455272674560547,-1.192533016204834
1772811375404076000,9.286075927734375,3.516014337539673,-2.85842227935791,-1.7778043746948242
1772811375423837000,9.3058369140625,3.55055832862854,-2.654336929321289,-2.5617146492004395
1772811375443597800,9.325597900390624,3.666856288909912,-2.563417434692383,-2.801225185394287
1772811375463358700,9.345358642578125,3.290736436843872,-3.4946799278259277,-1.4722819328308105
1772811375483119600,9.36511962890625,2.1150810718536377,-5.0289788246154785,-0.027980804443359375
1772811375502881300,9.38488134765625,1.9607576131820679,-5.064558506011963,-0.10328006744384766
1772811375522643200,9.404643310546875,1.7830783128738403,-4.74531364440918,-0.1306285858154297
1772811375542405400,9.4244052734375,2.4290812015533447,-3.5983057022094727,-0.9206805229187012
1772811375562167600,9.44416748046875,2.6521265506744385,-2.8326056003570557,-0.7210297584533691
1772811375581929700,9.4639296875,1.872871994972229,-1.9482016563415527,0.273712158203125
1772811375601691600,9.483691650390625,1.213465929031372,-0.7754583358764648,0.6010255813598633
1772811375621453800,9.503453857421874,0.22944927215576172,-0.09575676918029785,0.4431304931640625
1772811375641216000,9.523216064453125,-1.4579499959945679,0.645554780960083,0.106170654296875
1772811375660978200,9.542978271484374,-3.310570001602173,0.7387924194335938,1.8594846725463867
1772811375680740000,9.562739990234375,-3.6388144493103027,0.8282451629638672,5.143927574157715
1772811375700502300,9.582502197265624,-3.3070263862609863,1.3149809837341309,7.621646881103516
1772811375720264400,9.602264404296875,-2.6865642070770264,1.040968656539917,7.502119064331055
1772811375740026400,9.6220263671875,-0.7388664484024048,0.12890028953552246,5.198751449584961
1772811375759788500,9.64178857421875,0.705000638961792,-0.11823105812072754,2.9273109436035156
1772811375779557600,9.6615576171875,2.3569176197052,-0.39269089698791504,1.3388605117797852
1772811375799319800,9.68131982421875,3.6480517387390137,-0.6153154373168945,0.3841266632080078
1772811375819081700,9.701081787109375,3.639644145965576,-0.6355977058410645,-0.1904125213623047
1772811375838844000,9.720843994140624,2.076796531677246,-0.13109052181243896,-1.5769233703613281
1772811375858606000,9.740606201171875,0.6452522277832031,-0.15656152367591858,-1.7568655014038086
1772811375878368000,9.760367919921874,-0.8620586395263672,-0.4056603014469147,-1.5014123916625977
1772811375898130200,9.780130126953125,-2.5460095405578613,-0.49643856287002563,-1.2116336822509766
1772811375917892400,9.799892333984374,-2.609553337097168,-0.46832549571990967,-0.7152576446533203
1772811375937654500,9.819654541015625,-1.711897373199463,-0.9368717074394226,-0.18532943725585938
1772811375957416400,9.83941650390625,2.8006105422973633,-1.7926597595214844,0.5159378051757812
1772811375977178600,9.8591787109375,-0.07399845123291016,-1.4388036727905273,0.6614890098571777
1772811375996940800,9.87894091796875,1.2066497802734375,-2.4938273429870605,1.7618966102600098
1772811376016703000,9.898702880859375,0.13903141021728516,-2.8146932125091553,1.8675453662872314
1772811376036465200,9.918465087890626,-1.046461582183838,-2.8028178215026855,0.9752898216247559
1772811376056227000,9.93822705078125,-1.91212797164917,-2.308912515640259,-0.24015092849731445
1772811376075989200,9.9579892578125,-2.1627249717712402,-2.4271962642669678,-0.15320420265197754
1772811376095751400,9.97775146484375,-3.261958122253418,-2.0486373901367188,0.0744786262512207
1772811376115513600,9.997513671875,-3.2518954277038574,-1.9151694774627686,0.36226391792297363
1772811376135275800,10.01727587890625,-2.582413673400879,-1.965907335281372,-0.15808820724487305
1772811376155038000,10.037037841796876,-1.396148681640625,-1.196351408958435,-0.9609794616699219
1772811376174800100,10.056800048828125,-0.9827938079833984,-0.8093358278274536,-1.3412821292877197
1772811376194562300,10.076562255859375,-0.3512077331542969,-0.5736265182495117,-1.9082310199737549
1772811376214324500,10.096324462890625,0.5456962585449219,-0.8448232412338257,-0.738227367401123
1772811376234086400,10.11608642578125,1.1345596313476562,-1.5787097215652466,0.31330180168151855
1772811376253848600,10.1358486328125,0.9595718383789062,-2.162114143371582,0.9700491428375244
1772811376273610800,10.15561083984375,0.3066749572753906,-2.795992851257324,1.6486661434173584
1772811376293373000,10.175373046875,-1.1243247985839844,-1.711141586303711,0.541506290435791
1772811376313135000,10.195135009765625,-1.6983790397644043,-0.38661134243011475,-0.8917803764343262
1772811376332897300,10.214897216796874,-2.4460878372192383,-0.6454051733016968,-1.0022830963134766
1772811376352659500,10.234659423828125,-2.677586078643799,-0.05624723434448242,-1.2437067031860352
1772811376372421600,10.254421630859374,-2.762411594390869,0.02431035041809082,-0.8145318031311035
1772811376392183800,10.274183837890625,-2.8682303428649902,0.042833566665649414,-0.8897976875305176
1772811376411945700,10.29394580078125,-2.9206185340881348,0.015600919723510742,-0.5420116186141968
1772811376431708000,10.3137080078125,-2.661938190460205,-0.026120424270629883,-0.6250163316726685
1772811376451470000,10.333469970703124,-1.8186450004577637,0.06900668144226074,-0.456531286239624
1772811376471232300,10.353232177734375,-1.287839412689209,0.07015252113342285,-0.07962870597839355
1772811376490994400,10.372994384765626,-0.9089536666870117,0.17977166175842285,0.04361867904663086
1772811376510756000,10.392756103515625,-1.265955924987793,0.27263379096984863,0.06877708435058594
1772811376530518000,10.41251806640625,-2.2693681716918945,0.12990260124206543,-0.004101991653442383
1772811376550279700,10.43227978515625,-3.12363862991333,-0.12406682968139648,0.15336990356445312
1772811376570041600,10.45204150390625,-3.6921701431274414,-0.8691763877868652,0.43039917945861816
1772811376589803300,10.47180322265625,-4.518961429595947,-0.4445016384124756,-0.4600791931152344
1772811376609565000,10.49156494140625,-4.398410797119141,-0.14976954460144043,-1.0377378463745117
1772811376629326800,10.511326904296874,-3.1657800674438477,-0.4888930320739746,-1.6647019386291504
1772811376649088500,10.531088623046875,-4.6456427574157715,-2.148338794708252,-0.3418583869934082
1772811376668850400,10.550850341796876,-6.322522163391113,-2.1895751953125,-1.1766581535339355
1772811376688612000,10.570612060546875,-7.072887420654297,-2.0605528354644775,-0.6532900333404541
1772811376708373800,10.590373779296876,-7.823661804199219,-2.359396457672119,-1.080033540725708
1772811376728135700,10.6101357421875,-7.722528457641602,-1.2571407556533813,-3.0321948528289795
1772811376747897300,10.6298974609375,-5.094266891479492,-1.1206992864608765,-3.044588327407837
1772811376767659000,10.649658935546874,-4.728245258331299,-5.032503128051758,1.4810009002685547
1772811376787421000,10.6694208984375,-7.244997501373291,-5.282339096069336,2.8551735877990723
1772811376807182600,10.6891826171875,-9.37578296661377,-5.450663089752197,3.305589199066162
1772811376826944500,10.708944580078125,-8.150471687316895,-7.335107803344727,3.2949767112731934
1772811376846706200,10.7287060546875,-3.948671817779541,-8.447904586791992,4.156678199768066
1772811376866468000,10.748468017578125,0.8638367652893066,-10.244673728942871,5.881241321563721
1772811376886229800,10.768229736328125,3.5660009384155273,-9.678640365600586,7.425933837890625
1772811376905991400,10.787991455078124,4.136844158172607,-9.231182098388672,7.187071800231934
1772811376925753300,10.80775341796875,17.279659271240234,-7.604188919067383,3.026148796081543
1772811376945515000,10.827514892578124,30.025371551513672,-6.049147129058838,2.0829668045043945
1772811376965276700,10.847276611328125,25.146713256835938,-5.579732894897461,2.846489429473877
1772811376985038600,10.86703857421875,17.520404815673828,-6.3753275871276855,4.440943241119385
1772811377004799700,10.8867998046875,14.083563804626465,-1.8920831680297852,4.063449382781982
1772811377024561000,10.906560791015625,13.426490783691406,1.3629608154296875,2.1410884857177734
1772811377044321800,10.92632177734375,11.912517547607422,-0.38211584091186523,1.6212348937988281
1772811377064083000,10.9460830078125,9.480813980102539,-0.8012890815734863,-0.565932035446167
1772811377083843800,10.96584375,5.343382835388184,-0.4711167812347412,-1.6698174476623535
1772811377103605000,10.98560498046875,3.5756301879882812,-0.6383702754974365,-1.3752374649047852
1772811377123366000,11.005365966796875,2.9928417205810547,-1.866193175315857,-0.6414637565612793
1772811377143127000,11.025126953125,3.3380746841430664,-2.512084484100342,1.0076348781585693
1772811377162888000,11.044887939453124,0.7041215896606445,-2.622668743133545,1.0451794862747192
1772811377182648800,11.06464892578125,-0.14518356323242188,-2.63944149017334,0.18806672096252441
1772811377202410000,11.084409912109376,1.4782485961914062,-3.201819896697998,-0.18250155448913574
1772811377222171000,11.1041708984375,1.0190143585205078,-4.66947078704834,0.8202359080314636
1772811377241932000,11.12393212890625,-1.1962871551513672,-5.347918510437012,2.239410877227783
1772811377261693000,11.14369287109375,-2.2228598594665527,-5.360559463500977,3.259620428085327
1772811377281454000,11.1634541015625,-1.600719928741455,-4.846183776855469,2.770456314086914
1772811377301215000,11.183215087890625,-1.668177604675293,-4.5716447830200195,1.6735661029815674
1772811377320976100,11.20297607421875,-2.1183080673217773,-4.589731693267822,1.7829372882843018
1772811377340737000,11.222737060546875,-2.548888683319092,-4.559061050415039,1.4715161323547363
1772811377360498200,11.242498291015625,-2.413158893585205,-4.481361389160156,1.2943944931030273
1772811377380259000,11.262259033203126,-2.489014148712158,-4.173043251037598,1.7113655805587769
1772811377400020000,11.28202001953125,-2.668916702270508,-3.954774856567383,1.6183364391326904
1772811377419781000,11.301781005859375,-2.978168487548828,-3.6736855506896973,1.4609053134918213
1772811377439542000,11.3215419921875,-2.505669116973877,-3.1784920692443848,0.9762455821037292
1772811377459303200,11.34130322265625,-1.9685873985290527,-2.816986560821533,0.9268993139266968
1772811377479064000,11.36106396484375,-1.3314719200134277,-2.51753568649292,0.9765920042991638
1772811377498825200,11.3808251953125,-0.2787613868713379,-2.4928359985351562,0.9737974405288696
1772811377518586400,11.40058642578125,-0.43499135971069336,-2.3806920051574707,1.1944743394851685
1772811377538347500,11.420347412109376,-0.5356206893920898,-2.2464656829833984,1.033538818359375
1772811377558108700,11.440108642578124,-1.2253241539001465,-2.30104398727417,1.2398667335510254
1772811377577869800,11.459869873046875,-2.0367588996887207,-1.402970314025879,0.3373907506465912
1772811377597631000,11.479630859375,-1.99855375289917,-1.6394586563110352,0.03472107648849487
1772811377617392400,11.499392333984375,-1.8263320922851562,-1.1174345016479492,-0.33342576026916504
1772811377637153500,11.519153564453125,-1.5402412414550781,-0.9152259826660156,-0.3761409521102905
1772811377656914700,11.538914794921874,-1.3517932891845703,-0.7004690170288086,-0.4496070146560669
1772811377676675800,11.55867578125,-1.4679436683654785,0.18792390823364258,-0.5015592575073242
1772811377696437000,11.57843701171875,-0.553309440612793,-0.04669761657714844,-0.9534317255020142
1772811377716198100,11.5981982421875,0.3286576271057129,-0.05090951919555664,-0.7496761083602905
1772811377735959300,11.617959228515625,-0.028267860412597656,-0.2219524383544922,0.09889894723892212
1772811377755720400,11.637720458984376,-0.44123029708862305,-0.27931737899780273,0.29365044832229614
1772811377775481900,11.65748193359375,-0.7475237846374512,-0.23402118682861328,-0.15639197826385498
1772811377795243000,11.677242919921875,-0.6176023483276367,-0.3208346366882324,0.11911273002624512
1772811377815004200,11.697004150390624,-0.3897709846496582,-0.45079755783081055,0.5143745541572571
