time,seconds_elapsed,z,y,x
1772811267918153500,0.343153564453125,-0.2872285842895508,0.12603759765625,0.1546601951122284
1772811267937916000,0.362916015625,-1.7504220008850098,0.0927572250366211,0.3567034900188446
1772811267957678300,0.38267822265625,-2.6239356994628906,-0.4942770004272461,-0.09047085046768188
1772811267977440800,0.402440673828125,-1.8926186561584473,-0.021955490112304688,0.1256656050682068
1772811267997203000,0.422202880859375,-1.5717239379882812,-0.0020499229431152344,0.4620742201805115
1772811268016964600,0.441964599609375,-3.000277519226074,0.6981096267700195,-0.3853488564491272
1772811268036726300,0.461726318359375,-2.513486385345459,0.49037623405456543,0.17722421884536743
1772811268056488000,0.481488037109375,-2.6271471977233887,-0.18864774703979492,0.45459896326065063
1772811268076249600,0.50124951171875,-0.4971494674682617,-0.10957884788513184,-0.5079526901245117
1772811268096011500,0.521011474609375,0.6984405517578125,-0.27115678787231445,0.6690436601638794
1772811268115773200,0.540773193359375,2.2576427459716797,-1.0991227626800537,1.5241734981536865
1772811268135534800,0.560534912109375,1.6909685134887695,-0.5096540451049805,1.5607118606567383
1772811268155296500,0.580296630859375,-0.7701520919799805,-0.6957287788391113,1.5706477165222168
1772811268175058200,0.60005810546875,-3.3408894538879395,-1.488793969154358,1.1708261966705322
1772811268194820000,0.619820068359375,-3.910745620727539,-0.7745442390441895,0.10753458738327026
1772811268214581800,0.639581787109375,-2.963045597076416,0.0640113353729248,-1.7501662969589233
1772811268234343400,0.659343505859375,-2.7365527153015137,-0.2656710147857666,-2.499438524246216
1772811268254105000,0.67910498046875,-3.718216896057129,-0.6006187200546265,-1.3787145614624023
1772811268273866800,0.69886669921875,-4.999035358428955,-0.9105139970779419,0.3941459655761719
1772811268293628400,0.71862841796875,-6.235461235046387,-0.43883955478668213,1.9207763671875
1772811268313390300,0.738390380859375,-5.578513145446777,0.7064394950866699,0.8909516334533691
1772811268333152000,0.758152099609375,-6.6858906745910645,2.0924363136291504,-2.473432779312134
1772811268352913700,0.77791357421875,-4.590747833251953,2.4787118434906006,-6.459485054016113
1772811268372675300,0.79767529296875,-0.1724386215209961,1.4472482204437256,-5.566189765930176
1772811268392437000,0.81743701171875,-1.8679628372192383,-2.3400444984436035,-2.617682695388794
1772811268412198700,0.83719873046875,-6.596970558166504,-1.8261849880218506,-1.0668325424194336
1772811268431960600,0.856960693359375,-8.088496208190918,-4.098318576812744,-1.2638373374938965
1772811268451722200,0.87672216796875,-2.4740583896636963,-3.9659643173217773,-1.3838210105895996
1772811268471484000,0.89648388671875,-2.9626851081848145,-4.989145755767822,-1.946265697479248
1772811268491245600,0.91624560546875,-8.738526344299316,-7.178308010101318,0.049831390380859375
1772811268511008500,0.936008544921875,-2.456979990005493,-7.718611717224121,1.3417367935180664
1772811268530771700,0.955771728515625,2.3326401710510254,-7.496097564697266,2.791278839111328
1772811268550534700,0.97553466796875,3.757439613342285,-7.248472213745117,3.2305679321289062
1772811268570297600,0.995297607421875,2.216238021850586,-6.95626974105835,2.3648977279663086
1772811268590060800,1.015060791015625,-0.12130729854106903,-6.850196361541748,0.7729387283325195
1772811268609823700,1.03482373046875,-0.6461637020111084,-7.319831371307373,0.23750877380371094
1772811268629587000,1.0545869140625,0.1544175148010254,-7.381102085113525,0.7623891830444336
1772811268649350000,1.074349853515625,2.136556625366211,-7.1881842613220215,2.1272740364074707
1772811268669112800,1.09411279296875,3.4200899600982666,-6.244001865386963,3.3453121185302734
1772811268688876000,1.1138759765625,3.2269856929779053,-5.155930995941162,4.885253429412842
1772811268708639000,1.133638916015625,1.9307610988616943,-4.061994552612305,6.285750865936279
1772811268728402200,1.153402099609375,0.5490915775299072,-2.8556671142578125,6.9662065505981445
1772811268748165000,1.1731650390625,-0.6397197246551514,-1.829543113708496,7.599318504333496
1772811268767928300,1.19292822265625,-1.2379145622253418,-1.109267234802246,7.603753566741943
1772811268787691300,1.212691162109375,-1.0070915222167969,-0.8342123031616211,7.261401653289795
1772811268807454500,1.232454345703125,-0.6332494020462036,-0.4100179672241211,6.421518802642822
1772811268827217400,1.252217529296875,-1.1554118394851685,-0.10698795318603516,5.749505043029785
1772811268846980400,1.27198046875,-1.3884949684143066,0.17075443267822266,5.404302597045898
1772811268866743600,1.29174365234375,-1.736256718635559,0.3627166748046875,5.116058349609375
1772811268886506500,1.311506591796875,-2.195620536804199,0.5690450668334961,5.210718631744385
1772811268906269700,1.331269775390625,-1.82594895362854,0.8914022445678711,5.074557304382324
1772811268926032600,1.35103271484375,-1.853501319885254,0.4816131591796875,5.221950531005859
1772811268945795600,1.370795654296875,-1.5590676069259644,0.44914817810058594,4.580801963806152
1772811268965558800,1.390558837890625,-0.973371148109436,0.2838630676269531,4.4979248046875
1772811268985321700,1.41032177734375,-0.40927720069885254,0.5172901153564453,5.346790313720703
1772811269005084000,1.430083984375,-0.6750563979148865,1.0464181900024414,6.930691719055176
1772811269024845600,1.449845458984375,-1.3427904844284058,1.890902042388916,8.332313537597656
1772811269044607500,1.469607421875,-1.8478976488113403,3.1461992263793945,9.000079154968262
1772811269064369200,1.489369140625,-2.403348922729492,3.700791358947754,9.220785140991211
1772811269084130800,1.509130859375,-2.954416275024414,3.3084497451782227,9.18879222869873
1772811269103892500,1.528892578125,-3.484097480773926,2.9828639030456543,8.764763832092285
1772811269123654100,1.548654052734375,-3.495696783065796,2.7532739639282227,8.326886177062988
1772811269143415800,1.568415771484375,-2.5611910820007324,1.9426298141479492,8.188371658325195
1772811269163177500,1.588177490234375,-1.6845914125442505,0.5858011245727539,8.078393936157227
1772811269182939100,1.607939208984375,-0.8776537179946899,-0.2614021301269531,6.93752384185791
1772811269202701000,1.627701171875,0.12060713768005371,-1.3068065643310547,5.540851593017578
1772811269222462700,1.647462646484375,1.4381401538848877,-2.744873046875,4.185816287994385
1772811269242224400,1.667224365234375,2.158708333969116,-3.5766544342041016,2.690255641937256
1772811269261986000,1.686986083984375,1.658614993095398,-4.1183061599731445,1.4763121604919434
1772811269281747700,1.706747802734375,1.1477843523025513,-4.94348669052124,0.9300537109375
1772811269301509400,1.72650927734375,1.247678279876709,-5.2494354248046875,0.7063713073730469
1772811269321271300,1.746271240234375,1.8916094303131104,-5.706650257110596,1.0743322372436523
1772811269341033000,1.766032958984375,2.7588348388671875,-6.137385368347168,1.1840009689331055
1772811269360794600,1.785794677734375,3.1349265575408936,-6.287153244018555,0.7708926200866699
1772811269380556300,1.805556396484375,2.665501594543457,-5.877115726470947,-0.3309354782104492
1772811269400318000,1.82531787109375,2.240001678466797,-5.156981945037842,-1.428450107574463
1772811269420079600,1.84507958984375,2.1575613021850586,-4.413681507110596,-2.3255109786987305
1772811269439841300,1.86484130859375,2.2156686782836914,-3.706514358520508,-3.166874408721924
1772811269459603000,1.88460302734375,2.3336541652679443,-2.902331829071045,-3.6323533058166504
1772811269479364900,1.90436474609375,2.3272087574005127,-2.7266201972961426,-3.4291205406188965
1772811269499126800,1.924126708984375,1.8602211475372314,-2.457098960876465,-3.5874218940734863
1772811269518889000,1.943888916015625,1.2763042449951172,-2.3002820014953613,-3.9527478218078613
1772811269538651400,1.9636513671875,0.7014403343200684,-2.160073757171631,-4.41221809387207
1772811269558413800,1.983413818359375,0.674189567565918,-2.347470998764038,-4.629149436950684
1772811269578176000,2.003176025390625,0.5655028820037842,-2.6289560794830322,-5.008401870727539
1772811269597938400,2.0229384765625,0.7482426166534424,-2.8295209407806396,-5.309544563293457
1772811269617700900,2.042700927734375,1.130296230316162,-3.1529674530029297,-5.3933305740356445
1772811269637463000,2.062463134765625,1.5274710655212402,-3.4575355052948,-5.657139778137207
1772811269657225500,2.0822255859375,1.8912990093231201,-3.6288580894470215,-5.941153526306152
1772811269676988000,2.10198779296875,2.1564769744873047,-3.7926807403564453,-5.873283386230469
1772811269696750000,2.12175,1.459700345993042,-4.881063461303711,-5.273824691772461
1772811269716512500,2.141512451171875,1.2570037841796875,-5.524245262145996,-5.473762512207031
1772811269736275000,2.16127490234375,2.3284034729003906,-6.037910461425781,-5.548459053039551
1772811269756037000,2.181037109375,3.095555067062378,-6.1570353507995605,-5.2300214767456055
1772811269775799600,2.200799560546875,3.165834903717041,-5.977358818054199,-4.371820449829102
1772811269795562000,2.22056201171875,2.451748847961426,-5.57637357711792,-3.0501694679260254
1772811269815324200,2.24032421875,1.4658361673355103,-4.786962509155273,-1.2522711753845215
1772811269835086600,2.260086669921875,0.7016580104827881,-3.610546112060547,0.2353229522705078
1772811269854849000,2.27984912109375,0.10860133171081543,-2.5052261352539062,1.3487215042114258
1772811269874611200,2.299611083984375,-0.7345764636993408,-1.6670112609863281,2.19334077835083
1772811269894373600,2.31937353515625,-1.5632033348083496,-1.0945568084716797,3.0500736236572266
1772811269914136000,2.339135986328125,-2.0992860794067383,-0.5329418182373047,3.536360740661621
1772811269933898200,2.358898193359375,-2.4127402305603027,0.16435861587524414,3.651306629180908
1772811269953660700,2.37866064453125,-2.5071253776550293,0.5472126007080078,3.786153793334961
1772811269973423000,2.398423095703125,-2.1320228576660156,0.8707609176635742,3.6011710166931152
1772811269993185300,2.418185302734375,-1.454736590385437,0.5196657180786133,3.6211347579956055
1772811270012947500,2.437947509765625,-0.902763843536377,0.3393435478210449,3.374795913696289
1772811270032709600,2.457709716796875,-0.8821930885314941,0.6211004257202148,2.564405918121338
1772811270052471800,2.477471923828125,-0.7038192749023438,0.5043039321899414,1.8775343894958496
1772811270072234000,2.49723388671875,0.08601605892181396,0.5682358741760254,1.0193901062011719
1772811270091996200,2.51699609375,0.8771330118179321,0.2734065055847168,0.3236212730407715
1772811270111758300,2.53675830078125,1.938920021057129,0.006756782531738281,-0.37039852142333984
1772811270131520500,2.5565205078125,2.7154998779296875,-0.030025005340576172,-1.0380311012268066
1772811270151282700,2.57628271484375,3.4162940979003906,-0.08310556411743164,-1.5078620910644531
1772811270171044900,2.596044921875,3.982558488845825,0.37392282485961914,-1.8722186088562012
1772811270190807000,2.61580712890625,3.7560553550720215,0.6421670913696289,-1.9530649185180664
1772811270210569200,2.6355693359375,3.0845770835876465,0.7135252952575684,-1.6764006614685059
1772811270230331400,2.655331298828125,2.4521052837371826,0.8690805435180664,-1.2162775993347168
1772811270250093600,2.675093505859375,1.507523536682129,0.7876491546630859,-0.42779064178466797
1772811270269855700,2.694855712890625,0.6943238973617554,0.5853724479675293,0.2354121208190918
1772811270289618000,2.714617919921875,0.09751087427139282,0.23617219924926758,1.2537317276000977
1772811270309380000,2.734380126953125,0.2258637547492981,0.07356929779052734,2.284430503845215
1772811270329142300,2.754142333984375,-0.2264208197593689,0.1456127166748047,3.4143214225769043
1772811270348904400,2.773904541015625,-1.1647133827209473,0.16253280639648438,4.466550350189209
1772811270368666600,2.79366650390625,-2.800503730773926,-0.4725160598754883,5.848101615905762
1772811270388428800,2.8134287109375,-3.728443145751953,-0.7512578964233398,6.409682750701904
1772811270408191000,2.83319091796875,-3.586650848388672,-0.4028654098510742,6.693626403808594
1772811270427953200,2.852953125,-3.2014265060424805,0.227935791015625,7.307220458984375
1772811270447715300,2.87271533203125,-2.5265021324157715,1.3502483367919922,8.006484031677246
1772811270467477500,2.8924775390625,-1.8424972295761108,2.2378101348876953,8.869617462158203
1772811270487239700,2.91223974609375,-1.3792250156402588,2.656080722808838,9.276445388793945
1772811270507001000,2.9320009765625,-1.5433437824249268,2.7808923721313477,8.838205337524414
1772811270526762200,2.95176220703125,-2.4255478382110596,2.4748659133911133,7.6221466064453125
1772811270546523400,2.9715234375,-2.705951690673828,1.6663570404052734,6.2979230880737305
1772811270566284500,2.991284423828125,-2.0279884338378906,0.522364616394043,5.175458908081055
1772811270586045700,3.011045654296875,-0.6621741056442261,-0.7814826965332031,4.030622482299805
1772811270605806800,3.030806884765625,0.7466038465499878,-2.127073287963867,2.9899954795837402
1772811270625568000,3.050568115234375,1.9598106145858765,-3.3437886238098145,2.0221705436706543
1772811270645329200,3.0703291015625,2.852271556854248,-4.085779190063477,1.2367725372314453
1772811270665090300,3.09009033203125,3.6174869537353516,-4.141077995300293,0.7377710342407227
1772811270684851500,3.1098515625,4.085111618041992,-4.0471673011779785,0.434417724609375
1772811270704612400,3.1296123046875,4.199577331542969,-3.724888801574707,0.24378252029418945
1772811270724373500,3.14937353515625,3.8468282222747803,-3.61979341506958,0.12416887283325195
1772811270744134700,3.169134765625,3.30395770072937,-3.5178170204162598,-0.15731525421142578
1772811270763895800,3.188895751953125,2.4792513847351074,-3.4538917541503906,-0.524937629699707
1772811270783657000,3.208656982421875,1.6129586696624756,-3.481485366821289,-1.0941181182861328
1772811270803418000,3.228418212890625,1.1680631637573242,-3.518092155456543,-1.7344145774841309
1772811270823179300,3.24817919921875,0.9666534662246704,-3.524163246154785,-2.2341256141662598
1772811270842940400,3.2679404296875,0.9969384670257568,-3.525291919708252,-2.6470537185668945
1772811270862701600,3.28770166015625,0.9699604511260986,-3.27164888381958,-3.2656116485595703
1772811270882462700,3.307462646484375,1.020258903503418,-3.0092086791992188,-3.8435869216918945
1772811270902224000,3.327223876953125,1.3410310745239258,-2.884755849838257,-4.191586017608643
1772811270921985000,3.346985107421875,1.679284691810608,-3.234020233154297,-4.206822872161865
1772811270941746200,3.36674609375,1.670821189880371,-3.786264657974243,-4.254038333892822
1772811270961507300,3.38650732421875,1.7816040515899658,-4.101978302001953,-4.742166996002197
1772811270981268500,3.4062685546875,2.310159206390381,-4.140816688537598,-5.594791412353516
1772811271001030000,3.42602978515625,2.830998182296753,-4.045231819152832,-6.473934173583984
1772811271020791800,3.445791748046875,2.485107898712158,-3.9740540981292725,-7.019852638244629
1772811271040553700,3.4655537109375,1.3625247478485107,-4.569559574127197,-6.838930130004883
1772811271060315600,3.485315673828125,0.43659043312072754,-5.176440715789795,-6.944303512573242
1772811271080077600,3.50507763671875,0.36151885986328125,-5.546158790588379,-6.851283073425293
1772811271099839200,3.524839111328125,0.5339951515197754,-6.082874774932861,-6.209930419921875
1772811271119601400,3.544601318359375,1.486602783203125,-6.185436248779297,-5.164943695068359
1772811271139363000,3.564363037109375,1.4791423082351685,-6.297143459320068,-4.152624130249023
1772811271159125000,3.584125,1.512165904045105,-5.900518417358398,-2.762665271759033
1772811271178887000,3.603886962890625,1.4107993841171265,-4.961482048034668,-1.0984067916870117
1772811271198648800,3.62364892578125,0.8032001256942749,-3.6198325157165527,0.5906829833984375
1772811271218410800,3.64341064453125,-0.3973963260650635,-2.1245102882385254,1.828855037689209
1772811271238172700,3.663172607421875,-1.9734199047088623,-1.1637883186340332,2.912015438079834
1772811271257934600,3.6829345703125,-2.579765796661377,-0.44438648223876953,2.0351314544677734
1772811271277696500,3.702696533203125,-2.9683127403259277,-0.3605613708496094,1.6292123794555664
1772811271297458400,3.72245849609375,-3.490109443664551,-0.4116530418395996,2.3331351280212402
1772811271317220400,3.742220458984375,-3.1278843879699707,-0.3324251174926758,2.86851167678833
1772811271336982300,3.761982177734375,-2.2216413021087646,-0.4680476188659668,2.8023576736450195
1772811271356744200,3.781744140625,-2.0170514583587646,-0.5235686302185059,2.9136343002319336
1772811271376506000,3.801506103515625,-1.4979395866394043,-0.4062070846557617,2.797891139984131
1772811271396268000,3.82126806640625,-0.8444235324859619,-0.056667327880859375,2.5745391845703125
1772811271416030000,3.841030029296875,0.07348442077636719,0.2959132194519043,2.2386460304260254
1772811271435792000,3.8607919921875,0.9840555191040039,0.5327568054199219,1.7890119552612305
1772811271455553800,3.8805537109375,1.7040059566497803,0.5201501846313477,1.0956616401672363
1772811271475315500,3.9003154296875,2.493701219558716,0.3660154342651367,0.1898636817932129
1772811271495077400,3.920077392578125,3.058286428451538,0.25850343704223633,-0.762845516204834
1772811271514838800,3.9398388671875,3.286909580230713,0.07433032989501953,-1.3268733024597168
1772811271534600200,3.95960009765625,3.2408008575439453,-0.32204198837280273,-1.7257895469665527
1772811271554361900,3.97936181640625,3.2825798988342285,-0.6559290885925293,-2.2064218521118164
1772811271574123300,3.999123291015625,3.352722644805908,-0.6232609748840332,-2.9155690670013428
1772811271593884700,4.018884765625,3.4983291625976562,-0.5931086540222168,-3.4014151096343994
1772811271613646000,4.03864599609375,3.5601611137390137,-0.4451770782470703,-3.9140374660491943
1772811271633407500,4.058407470703125,3.357483386993408,-0.2335977554321289,-3.281320333480835
1772811271653169200,4.078169189453125,2.99961256980896,-0.28859901428222656,-1.4485721588134766
1772811271672930600,4.0979306640625,2.4876708984375,-0.5292468070983887,0.4643845558166504
1772811271692692000,4.11769189453125,1.7783534526824951,-0.5360636711120605,1.5338077545166016
1772811271712453400,4.137453369140625,0.6681293249130249,-0.6671867370605469,2.6095762252807617
1772811271732214800,4.15721484375,-0.5322220921516418,-2.1090049743652344,3.9837570190429688
1772811271751976400,4.1769765625,-1.5967652797698975,-2.7080039978027344,4.450531482696533
1772811271771737900,4.19673779296875,-1.4597103595733643,-2.613147735595703,5.710533618927002
1772811271791499300,4.216499267578125,-1.9730786085128784,-1.943821907043457,7.393823623657227
1772811271811260700,4.2362607421875,-2.086106777191162,-0.4638710021972656,8.904793739318848
1772811271831022000,4.25602197265625,-2.311831474304199,0.9141349792480469,9.97441577911377
1772811271850783500,4.275783447265625,-1.2832807302474976,2.501345634460449,10.286970138549805
1772811271870545200,4.295545166015625,-0.8024066090583801,3.1827564239501953,9.299381256103516
1772811271890306600,4.315306640625,-1.7445814609527588,2.990365982055664,7.670042514801025
1772811271910068000,4.33506787109375,-3.3004889488220215,2.4269213676452637,5.823571681976318
1772811271929829400,4.354829345703125,-4.469327449798584,1.7756390571594238,4.418487548828125
1772811271949590800,4.3745908203125,-4.531501293182373,1.1269702911376953,3.397210121154785
1772811271969352400,4.3943525390625,-3.90596342086792,0.6909046173095703,2.430495023727417
1772811271989113900,4.41411376953125,-2.5017752647399902,0.02585601806640625,2.1096839904785156
1772811272008876300,4.433876220703125,-1.0912197828292847,-0.8578720092773438,2.1895346641540527
1772811272028639200,4.45363916015625,-0.5529578328132629,-1.271392822265625,2.092440605163574
1772811272048402000,4.47340185546875,-0.1904134452342987,-1.4104852676391602,2.10587739944458
1772811272068164900,4.493164794921875,0.3380504250526428,-1.3269214630126953,2.1701693534851074
1772811272087927600,4.512927490234375,0.9838207960128784,-1.1035375595092773,2.175868034362793
1772811272107690500,4.5326904296875,1.1056208610534668,-1.267906665802002,2.195051670074463
1772811272127453200,4.552453125,0.6710493564605713,-1.8595170974731445,1.8580732345581055
1772811272147216100,4.572216064453125,0.16988009214401245,-2.4442977905273438,0.9464921951293945
1772811272166978800,4.591978759765625,-0.1932709813117981,-2.851583480834961,-0.14793872833251953
1772811272186741500,4.611741455078125,-0.5759588479995728,-3.32865047454834,-1.0625190734863281
1772811272206504400,4.63150439453125,-0.335829496383667,-3.55853271484375,-2.0028977394104004
1772811272226267100,4.65126708984375,-0.028843164443969727,-3.7314085960388184,-2.8466858863830566
1772811272246030000,4.671030029296875,1.0264129638671875,-3.6387972831726074,-3.4255523681640625
1772811272265792800,4.690792724609375,1.496766209602356,-3.5461225509643555,-3.806166648864746
1772811272285555700,4.7105556640625,1.5281342267990112,-3.4645628929138184,-4.248094081878662
1772811272305318400,4.730318359375,1.0911083221435547,-3.448004722595215,-4.744283676147461
1772811272325081300,4.750081298828125,0.7081773281097412,-3.4673025608062744,-5.257683753967285
1772811272344844000,4.769843994140625,0.4421401023864746,-3.537393808364868,-5.787631034851074
1772811272364607000,4.78960693359375,0.3638789653778076,-3.478104591369629,-6.257586479187012
1772811272384369700,4.80936962890625,0.6191776394844055,-3.360576868057251,-6.414351940155029
1772811272404132400,4.82913232421875,0.39867985248565674,-3.6318910121917725,-5.960078239440918
1772811272423895300,4.848895263671875,-0.11256957054138184,-4.771914482116699,-4.924937725067139
1772811272443658000,4.868657958984375,-0.23887765407562256,-5.555828094482422,-4.564818859100342
1772811272463421000,4.8884208984375,0.6669048070907593,-5.807234764099121,-4.552473545074463
1772811272483183600,4.90818359375,1.7562865018844604,-5.708711624145508,-3.9162001609802246
1772811272502945800,4.92794580078125,2.811708688735962,-5.372239589691162,-2.855368137359619
1772811272522707000,4.94770703125,3.2730908393859863,-4.592404842376709,-1.8628520965576172
1772811272542468400,4.96746826171875,1.9539794921875,-3.536965847015381,-0.7455792427062988
1772811272562229800,4.987229736328125,0.2508366107940674,-2.5930795669555664,-0.4188547134399414
1772811272581991200,5.0069912109375,-0.630091667175293,-1.5562996864318848,0.4639573097229004
1772811272601752600,5.026752685546875,-0.17900323867797852,-0.5116066932678223,1.5432415008544922
1772811272621514000,5.046513916015625,-0.6977988481521606,0.09577131271362305,2.0859436988830566
1772811272641275100,5.066275146484375,-2.122504234313965,0.27350378036499023,3.184966564178467
1772811272661036500,5.08603662109375,-3.1436359882354736,0.7785782814025879,3.412391185760498
1772811272680798000,5.1057978515625,-3.7969460487365723,1.1085319519042969,2.9157066345214844
1772811272700559400,5.125559326171875,-3.7942874431610107,0.8751077651977539,2.8063526153564453
1772811272720320800,5.14532080078125,-2.0063953399658203,0.6960983276367188,2.2981271743774414
1772811272740082000,5.16508203125,-1.941076636314392,0.3156743049621582,2.1610426902770996
1772811272759843300,5.18484326171875,-0.7746131420135498,0.2283492088317871,0.7872195243835449
1772811272779604700,5.204604736328125,-0.31296753883361816,-0.15398216247558594,-0.24316787719726562
1772811272799366100,5.2243662109375,0.06701481342315674,-0.4541001319885254,-1.378455638885498
1772811272819127600,5.24412744140625,0.713049054145813,-0.7705264091491699,-2.280264377593994
1772811272838889000,5.263888916015625,1.9459798336029053,-0.9798679351806641,-3.0393126010894775
1772811272858650000,5.283650146484375,3.1272854804992676,-1.0107574462890625,-3.5235917568206787
1772811272878411500,5.30341162109375,3.682314872741699,-0.9410901069641113,-3.8969228267669678
1772811272898173000,5.3231728515625,3.886836528778076,-0.8577485084533691,-4.209049224853516
1772811272917934300,5.342934326171875,4.45729923248291,-0.5911188125610352,-3.8211734294891357
1772811272937695500,5.362695556640625,4.787968635559082,-0.48290348052978516,-2.89104962348938
1772811272957457000,5.382456787109375,4.077101230621338,-0.49029064178466797,-1.6935014724731445
1772811272977218300,5.40221826171875,3.3307595252990723,-0.8371167182922363,-0.3705286979675293
1772811272996980000,5.42197998046875,2.297783136367798,-0.911750316619873,0.7365999221801758
1772811273016743000,5.441742919921875,0.6775403022766113,-1.0510482788085938,2.0452780723571777
1772811273036505900,5.461505859375,-0.8677572011947632,-0.9471235275268555,3.2295780181884766
1772811273056268800,5.481268798828125,-2.241509437561035,-0.6494359970092773,3.988640785217285
1772811273076031700,5.50103173828125,-3.683012008666992,-0.3260488510131836,4.816775321960449
1772811273095794700,5.520794677734375,-4.790060997009277,0.11713504791259766,5.521324634552002
1772811273115557600,5.5405576171875,-5.907353401184082,-0.5033912658691406,6.823785781860352
1772811273135320600,5.560320556640625,-6.354754447937012,-0.44199180603027344,6.554099082946777
1772811273155083500,5.58008349609375,-6.425633907318115,-0.26902008056640625,5.991706848144531
1772811273174846500,5.599846435546875,-5.597919940948486,0.2518768310546875,5.204833984375
1772811273194609400,5.619609375,-4.508679389953613,0.9971952438354492,4.935687065124512
1772811273214372400,5.639372314453125,-3.2377231121063232,1.4009623527526855,5.327086448669434
1772811273234135300,5.65913525390625,-2.1103436946868896,1.956101417541504,5.390250205993652
1772811273253898200,5.678898193359375,-1.4063823223114014,2.381532669067383,4.771797180175781
1772811273273661200,5.6986611328125,-1.110859751701355,2.2928318977355957,3.94061541557312
1772811273293424000,5.718424072265625,-0.8833870887756348,2.079792022705078,3.263178825378418
1772811273313187300,5.738187255859375,-0.7124571800231934,1.5671610832214355,2.9762864112854004
1772811273332950300,5.7579501953125,-0.387287974357605,1.0036430358886719,2.7257437705993652
1772811273352713200,5.777713134765625,0.15971754491329193,0.24533748626708984,2.648667812347412
1772811273372476200,5.79747607421875,0.8488630652427673,-0.5309343338012695,2.5497679710388184
1772811273392239000,5.817239013671875,1.4033372402191162,-1.3098716735839844,2.415243625640869
1772811273412002000,5.837001953125,1.814931035041809,-2.1572036743164062,2.5536999702453613
1772811273431765000,5.856764892578125,2.0674757957458496,-3.018228054046631,2.6615943908691406
1772811273451528000,5.87652783203125,2.2204880714416504,-3.227367401123047,2.367048740386963
1772811273471291000,5.896290771484375,2.2415215969085693,-2.8634557723999023,1.948918342590332
1772811273491053800,5.9160537109375,2.129617929458618,-2.4451870918273926,1.9294166564941406
1772811273510815000,5.93581494140625,1.8735555410385132,-2.0866122245788574,1.8215689659118652
1772811273530576100,5.955576171875,1.4811532497406006,-2.1518054008483887,1.7277350425720215
1772811273550337500,5.975337646484375,1.3588049411773682,-2.435485363006592,1.0774130821228027
1772811273570098700,5.9950986328125,1.4279859066009521,-2.6350879669189453,-0.10524320602416992
1772811273589859800,6.01485986328125,1.5726789236068726,-2.8707075119018555,-1.123002529144287
1772811273609621000,6.03462109375,1.6200220584869385,-2.957815647125244,-2.0702881813049316
1772811273629382100,6.054382080078125,1.527640461921692,-3.0126423835754395,-2.980043411254883
1772811273649143300,6.074143310546875,1.600602626800537,-2.939317226409912,-3.6567888259887695
1772811273668904400,6.093904541015625,1.7777082920074463,-2.7477529048919678,-4.377430438995361
1772811273688665600,6.11366552734375,2.0980587005615234,-2.5992209911346436,-4.9349775314331055
1772811273708426800,6.1334267578125,2.0311079025268555,-2.7182602882385254,-5.223484039306641
1772811273728188000,6.15318798828125,1.6421267986297607,-2.9352071285247803,-5.350635528564453
1772811273747949000,6.172948974609375,1.2404069900512695,-3.038177967071533,-5.573529243469238
1772811273767710200,6.192710205078125,1.0660266876220703,-3.1478891372680664,-5.7709808349609375
1772811273787471400,6.212471435546875,1.488533854484558,-3.011634111404419,-6.155979156494141
1772811273807232500,6.232232421875,2.0623319149017334,-2.9469823837280273,-5.880563259124756
1772811273826993700,6.25199365234375,1.9771255254745483,-3.801215171813965,-4.749578475952148
1772811273846754800,6.2717548828125,1.3562803268432617,-4.480075836181641,-4.433770179748535
1772811273866516000,6.291515869140625,1.2202130556106567,-5.04680061340332,-4.378671169281006
1772811273886277000,6.311277099609375,1.5327039957046509,-5.331489562988281,-4.06189489364624
1772811273906038300,6.331038330078125,1.8150962591171265,-5.385012626647949,-2.8434510231018066
1772811273925799400,6.35079931640625,1.9068796634674072,-5.201807498931885,-1.1363277435302734
1772811273945560600,6.370560546875,1.333918809890747,-4.342840194702148,0.5807638168334961
1772811273965321700,6.39032177734375,0.11238622665405273,-2.753816604614258,1.8054594993591309
1772811273985083000,6.410082763671875,-0.7117682695388794,-1.204279899597168,2.176332473754883
1772811274004844500,6.429844482421875,-2.575683116912842,0.2281503677368164,1.5380439758300781
1772811274024606200,6.449606201171875,-4.539419174194336,0.8796377182006836,1.8777885437011719
1772811274044368100,6.4693681640625,-5.279412269592285,1.508836269378662,2.495645523071289
1772811274064130000,6.489130126953125,-5.413280487060547,1.9189600944519043,2.5348339080810547
1772811274083891700,6.5088916015625,-5.09873628616333,1.9719786643981934,2.3787002563476562
1772811274103653600,6.528653564453125,-4.681495666503906,1.4968385696411133,2.2343850135803223
1772811274123415600,6.54841552734375,-3.8582816123962402,0.715296745300293,1.819312572479248
1772811274143177200,6.56817724609375,-2.9545373916625977,-0.34117841720581055,1.2852139472961426
1772811274162939100,6.587939208984375,-1.8359466791152954,-1.1802139282226562,0.5412087440490723
1772811274182701000,6.607701171875,-0.5298748016357422,-1.5728759765625,-0.2911849021911621
1772811274202462700,6.627462646484375,0.7813706398010254,-1.8594260215759277,-1.0235185623168945
1772811274222224600,6.647224609375,2.820916175842285,-1.7528233528137207,-2.0533761978149414
1772811274241986600,6.666986572265625,3.2008004188537598,-1.7784810066223145,-1.622446060180664
1772811274261748200,6.686748291015625,3.6241109371185303,-1.5281095504760742,-2.5363516807556152
1772811274281510100,6.70651025390625,3.7508316040039062,-1.3283071517944336,-2.671720027923584
1772811274301271800,6.726271728515625,3.5653066635131836,-0.9472064971923828,-2.8838210105895996
1772811274321033700,6.74603369140625,3.216946601867676,-0.7392468452453613,-2.6764001846313477
1772811274340795600,6.765795654296875,2.5977072715759277,-0.6268367767333984,-2.229572296142578
1772811274360557300,6.785557373046875,1.8367987871170044,-0.39132261276245117,-1.8468585014343262
1772811274380319200,6.8053193359375,0.8425777554512024,-0.24441003799438477,-1.5678496360778809
1772811274400081200,6.8250810546875,0.040440261363983154,-0.07724142074584961,-1.4556894302368164
1772811274419842800,6.8448427734375,-0.5453957319259644,0.1046605110168457,-1.3044672012329102
1772811274439604700,6.864604736328125,-1.0835237503051758,0.1100759506225586,-0.8949017524719238
1772811274459366700,6.88436669921875,-1.5612859725952148,0.07910013198852539,-0.35594606399536133
1772811274479128300,6.90412841796875,-1.9685389995574951,0.08634090423583984,0.31228113174438477
1772811274498890200,6.92389013671875,-2.1679165363311768,0.0065746307373046875,1.126530647277832
1772811274518652400,6.94365234375,-2.2676265239715576,-0.05335807800292969,1.8474602699279785
1772811274538414600,6.96341455078125,-2.4341795444488525,0.07073497772216797,2.4698386192321777
1772811274558176800,6.9831767578125,-2.636479377746582,0.3368663787841797,3.1615443229675293
1772811274577939000,7.00293896484375,-3.175595760345459,-0.14896869659423828,4.411696910858154
1772811274597701000,7.022701171875,-3.9405789375305176,-0.6801567077636719,4.950198650360107
1772811274617463300,7.04246337890625,-4.272425174713135,-0.5473833084106445,4.714840412139893
1772811274637225500,7.0622255859375,-3.854851484298706,0.05478477478027344,4.2537336349487305
1772811274656987600,7.081987548828125,-2.5792269706726074,1.0642356872558594,4.396131992340088
1772811274676749800,7.101749755859375,-1.7120307683944702,1.6056838035583496,5.317984104156494
1772811274696512000,7.121511962890625,-1.285851001739502,1.8748435974121094,6.033234119415283
1772811274716274200,7.141274169921875,-1.2838847637176514,2.038501739501953,6.286826133728027
1772811274736036400,7.161036376953125,-1.3353219032287598,1.9384784698486328,5.611404895782471
1772811274755798500,7.180798583984375,-1.5079400539398193,1.6412749290466309,4.8416972160339355
1772811274775560700,7.200560791015625,-1.3586164712905884,1.2321453094482422,4.1124749183654785
1772811274795323000,7.220322998046875,-0.659339427947998,0.8128194808959961,3.7507591247558594
1772811274815085000,7.2400849609375,0.148869588971138,0.3639383316040039,3.5300374031066895
1772811274834847200,7.25984716796875,0.8333266973495483,-0.2440042495727539,3.3236756324768066
1772811274854609400,7.279609375,1.1447862386703491,-0.9583950042724609,3.25692081451416
1772811274874371600,7.29937158203125,1.469588279724121,-1.8144330978393555,2.629666328430176
1772811274894133800,7.3191337890625,1.947012186050415,-2.298832416534424,1.6254572868347168
1772811274913896000,7.33889599609375,2.4147226810455322,-2.6632118225097656,0.8884191513061523
1772811274933658000,7.358658203125,2.7524750232696533,-2.947784423828125,0.3825082778930664
1772811274953420300,7.378420166015625,2.873387336730957,-2.9688491821289062,0.05491065979003906
1772811274973182500,7.398182373046875,2.8350846767425537,-3.054292678833008,-0.055457115173339844
1772811274992944600,7.417944580078125,2.718674898147583,-2.936863422393799,-0.3877134323120117
1772811275012706600,7.43770654296875,2.568965435028076,-2.719265937805176,-0.816525936126709
1772811275032468700,7.45746875,2.2069497108459473,-2.646974563598633,-1.2139687538146973
1772811275052230700,7.477230712890625,1.8277562856674194,-2.619136333465576,-1.6471037864685059
1772811275071992800,7.496992919921875,1.5193641185760498,-2.6205739974975586,-2.0959630012512207
1772811275091754800,7.516754638671875,1.0923495292663574,-2.660038471221924,-2.469390392303467
1772811275111517000,7.536516845703125,0.8481287956237793,-2.602451801300049,-2.979996681213379
1772811275131278800,7.55627880859375,0.5769999027252197,-2.6545653343200684,-3.4279775619506836
1772811275151041000,7.576041015625,0.5673131942749023,-2.6406898498535156,-3.9686174392700195
1772811275170803000,7.595802978515625,0.46527206897735596,-2.6055119037628174,-4.476851463317871
1772811275190565000,7.615565185546875,0.515335202217102,-2.4570705890655518,-5.095709800720215
1772811275210327000,7.6353271484375,0.5893538594245911,-2.1879312992095947,-5.749930381774902
1772811275230089200,7.655089111328125,0.2586303949356079,-1.8799018859863281,-6.072443008422852
1772811275249851100,7.67485107421875,-0.8915234804153442,-1.5040075778961182,-4.669682025909424
1772811275269613300,7.69461328125,-1.7087626457214355,-0.8892135620117188,-1.8563599586486816
1772811275289375200,7.714375244140625,-1.7249455451965332,-0.02647113800048828,0.7798728942871094
1772811275309137400,7.734137451171875,-1.1345809698104858,0.37713623046875,1.761758804321289
1772811275328899300,7.7538994140625,-0.1892193704843521,0.5390222072601318,2.249356269836426
1772811275348661500,7.77366162109375,0.28962278366088867,0.7750730514526367,1.2120895385742188
1772811275368423400,7.79342333984375,-0.1451789140701294,0.17971301078796387,0.29448890686035156
1772811275388185600,7.813185546875,-0.8136849403381348,-0.5030186176300049,-0.39809226989746094
1772811275407947500,7.832947509765625,-0.8470486998558044,-0.9236600399017334,-0.5597753524780273
1772811275427709700,7.852709716796875,-0.7543370723724365,-0.9694375991821289,-0.569580078125
1772811275447471600,7.8724716796875,-0.23055145144462585,-0.9547522068023682,-0.38831424713134766
1772811275467233800,7.89223388671875,1.0547564029693604,-0.8122131824493408,0.3959331512451172
1772811275486995700,7.91199560546875,2.1709065437316895,-0.15516400337219238,1.4483051300048828
1772811275506757400,7.93175732421875,2.3902928829193115,0.5397763252258301,2.478318214416504
1772811275526519000,7.95151904296875,1.7516565322875977,1.063910961151123,2.716984748840332
1772811275546280700,7.97128076171875,0.8811524510383606,1.3161869049072266,2.1571969985961914
1772811275566042000,7.9910419921875,0.060927629470825195,1.49430251121521,0.8159151077270508
1772811275585803800,8.0108037109375,-0.7832267880439758,1.156630516052246,-0.24962615966796875
1772811275605565400,8.0305654296875,-1.618943691253662,0.6033918857574463,-0.8582563400268555
1772811275625326800,8.050326904296876,-2.229123115539551,-0.07097673416137695,-1.2740979194641113
1772811275645088500,8.070088623046875,-2.368316173553467,-0.8894526958465576,-1.5411076545715332
1772811275664850200,8.08985009765625,-2.083606719970703,-1.755063533782959,-1.808103084564209
1772811275684611600,8.109611572265624,-0.9024733304977417,-2.6326828002929688,-1.7373461723327637
1772811275704373200,8.129373291015625,-0.5882586240768433,-3.288501739501953,-1.281787395477295
1772811275724135000,8.149135009765626,-0.5090427398681641,-3.431431531906128,-2.161932945251465
1772811275743896300,8.168896240234375,-0.23419982194900513,-3.5345494747161865,-2.6652140617370605
1772811275763658000,8.188657958984376,-0.09280812740325928,-3.146333694458008,-3.2507152557373047
1772811275783419600,8.208419677734375,-0.3228954076766968,-3.0633583068847656,-3.416712760925293
1772811275803181000,8.22818115234375,-0.09524405002593994,-2.830130100250244,-3.705188274383545
1772811275822942700,8.247942626953124,0.6781153082847595,-2.4888346195220947,-4.384905815124512
1772811275842704400,8.267704345703125,0.5520297288894653,-2.3858518600463867,-5.058803558349609
1772811275862465800,8.2874658203125,-0.09653091430664062,-2.402524948120117,-5.404666900634766
1772811275882227500,8.3072275390625,-0.7621016502380371,-2.3766651153564453,-5.234489440917969
1772811275901989000,8.326989013671875,-1.3986817598342896,-2.3148458003997803,-4.600902080535889
1772811275921750500,8.34675048828125,-1.4795026779174805,-2.1919894218444824,-3.8681845664978027
1772811275941512200,8.36651220703125,-1.0305867195129395,-2.1941633224487305,-3.276524543762207
1772811275961273900,8.38627392578125,-0.4055604934692383,-2.273024559020996,-2.844163417816162
1772811275981035300,8.40603515625,0.1738266944885254,-2.569479465484619,-2.180213451385498
1772811276000797000,8.425796875,0.6217927932739258,-2.885028839111328,-1.343719482421875
1772811276020558600,8.44555859375,0.9500850439071655,-3.004810333251953,-0.41025781631469727
1772811276040320300,8.4653203125,1.0755336284637451,-2.9201793670654297,0.6400389671325684
1772811276060082000,8.48508203125,1.1043879985809326,-2.6740994453430176,1.8121881484985352
1772811276079843600,8.504843505859375,0.9155223369598389,-2.121643543243408,2.9514479637145996
1772811276099605200,8.524605224609376,0.6972849369049072,-1.5566349029541016,4.04918098449707
1772811276119367000,8.544366943359375,0.5887141227722168,-0.8122720718383789,4.868305206298828
1772811276139128600,8.564128662109376,0.17418622970581055,-0.08214664459228516,5.507141590118408
1772811276158890200,8.58389013671875,-0.5260199308395386,0.6753778457641602,6.1291351318359375
1772811276178652000,8.60365185546875,-1.1189357042312622,1.4433355331420898,6.340468406677246
1772811276198413600,8.62341357421875,-1.9380273818969727,1.7986788749694824,6.713727951049805
1772811276218175200,8.64317529296875,-2.6239702701568604,0.8871059417724609,7.656757831573486
1772811276237936600,8.6629365234375,-2.568568468093872,0.5877695083618164,7.653778553009033
1772811276257698300,8.6826982421875,-2.2857003211975098,0.8089046478271484,7.241189956665039
1772811276277460000,8.7024599609375,-2.073791027069092,2.038896083831787,6.664278030395508
1772811276297221600,8.7222216796875,-1.815576195716858,2.8779525756835938,7.072503089904785
1772811276316983300,8.7419833984375,-1.430861473083496,3.267122268676758,7.772513389587402
1772811276336745000,8.761744873046876,-1.0099570751190186,3.542479991912842,7.882933616638184
1772811276356506600,8.781506591796875,-1.3998852968215942,3.503464698791504,7.5122246742248535
1772811276376268300,8.801268310546876,-1.9686297178268433,2.813021659851074,7.110701560974121
1772811276396030000,8.821030029296875,-1.9823614358901978,1.877974510192871,6.8512420654296875
1772811276415791600,8.84079150390625,-1.635240077972412,0.8787317276000977,6.48457145690918
1772811276435553300,8.86055322265625,-0.8322783708572388,-0.1643819808959961,6.175180435180664
1772811276455315000,8.88031494140625,0.352158784866333,-1.2636661529541016,6.155228614807129
1772811276475076600,8.90007666015625,1.2661257982254028,-2.1327905654907227,5.938343524932861
1772811276494838300,8.91983837890625,1.979938268661499,-2.7950258255004883,5.389988422393799
1772811276514600000,8.939599853515626,1.6569218635559082,-3.5787978172302246,4.649023056030273
1772811276534361900,8.95936181640625,1.9396381378173828,-4.452585697174072,4.021676540374756
1772811276554123500,8.97912353515625,2.2958574295043945,-5.533941745758057,3.6551146507263184
1772811276573885200,8.99888525390625,2.423370361328125,-6.450976371765137,3.2785568237304688
1772811276593647000,9.018647216796875,1.9255905151367188,-6.548177719116211,2.4879355430603027
1772811276613408800,9.03840869140625,0.9464126825332642,-6.390819549560547,1.9406156539916992
1772811276633170400,9.05817041015625,0.6166329979896545,-6.295350551605225,1.8905363082885742
1772811276652932400,9.077932373046876,1.4718847274780273,-5.818397045135498,1.9325170516967773
1772811276672694000,9.097694091796875,1.6393944025039673,-6.027238845825195,2.8228225708007812
1772811276692455700,9.11745556640625,1.9026529788970947,-6.0113935470581055,2.397205352783203
1772811276712217600,9.137217529296874,-2.158440351486206,-7.739194393157959,2.121713638305664
1772811276731979300,9.156979248046875,-3.304576873779297,-8.069409370422363,0.49597930908203125
1772811276751741000,9.176740966796874,-2.5616345405578613,-6.156634330749512,-1.1491751670837402
1772811276771502800,9.1965029296875,-1.9164259433746338,-6.51865291595459,0.6515951156616211
1772811276791264500,9.216264404296876,-1.9450416564941406,-6.217401027679443,1.251905918121338
1772811276811026200,9.236026123046875,-1.9916448593139648,-5.850375652313232,0.7126655578613281
1772811276830788000,9.2557880859375,-1.3171892166137695,-6.650971412658691,0.23408746719360352
1772811276850549800,9.2755498046875,-1.4861502647399902,-6.308837890625,-0.5893850326538086
1772811276870311400,9.2953115234375,-2.4236135482788086,-5.712845802307129,-0.6944675445556641
1772811276890073300,9.3150732421875,-2.1281967163085938,-5.345216751098633,-0.5869674682617188
1772811276909835000,9.3348349609375,-1.7004990577697754,-4.795360565185547,-0.49423813819885254
1772811276929597000,9.354596923828124,-1.290341854095459,-4.068442344665527,-0.5505988597869873
1772811276949358600,9.374358642578125,-1.3301019668579102,-3.0266575813293457,-1.1559600830078125
1772811276969120300,9.394120361328126,-2.2785792350769043,-2.930048942565918,-1.0853450298309326
1772811276988882000,9.4138818359375,-3.4342942237854004,-2.742734909057617,-1.7243449687957764
1772811277008645000,9.43364501953125,-2.5310025215148926,-2.2452688217163086,-1.6596486568450928
1772811277028408600,9.45340869140625,-1.925886631011963,-2.0773158073425293,-1.0541927814483643
1772811277048172000,9.473172119140624,-1.6293063163757324,-1.6758390665054321,-1.1745097637176514
1772811277067935500,9.492935546875,1.4773330688476562,-1.2661999464035034,-0.9986298084259033
1772811277087699000,9.512698974609375,3.048872947692871,-1.4626933336257935,-0.3151143193244934
1772811277107462400,9.53246240234375,2.1776676177978516,-1.8662821054458618,0.5191305875778198
1772811277127225900,9.552225830078125,0.36548328399658203,-1.2090686559677124,0.35399916768074036
1772811277146989300,9.5719892578125,-0.931889533996582,-0.5583608150482178,0.2339845895767212
1772811277166752800,9.591752685546876,-1.9266343116760254,-0.6754288673400879,0.878301739692688
1772811277186516200,9.61151611328125,-2.928800106048584,-0.441730260848999,1.1465017795562744
1772811277206279700,9.63127978515625,-3.6137642860412598,-0.3617262840270996,1.4395159482955933
1772811277226043100,9.651043212890626,-3.09181547164917,-0.45800304412841797,1.5961929559707642
1772811277245806600,9.670806640625,-2.127974033355713,-0.41501569747924805,1.6244227886199951
1772811277265570000,9.690570068359374,-1.7769207954406738,-0.16750288009643555,1.4413591623306274
1772811277285333500,9.71033349609375,-1.656601905822754,0.032190799713134766,1.4840528964996338
1772811277305097000,9.730096923828125,-1.3968591690063477,-0.04094409942626953,1.3366334438323975
1772811277324860400,9.7498603515625,-1.7440228462219238,0.0593714714050293,0.9479544758796692
1772811277344623900,9.769623779296875,-1.8346896171569824,0.1421184539794922,0.8887838125228882
1772811277364387300,9.78938720703125,-1.783048152923584,0.0333561897277832,0.9411495923995972
1772811277384150800,9.80915087890625,-1.2616820335388184,0.16341543197631836,0.8824583888053894
1772811277403914200,9.828914306640625,-0.7582659721374512,0.17304325103759766,0.903084933757782
1772811277423677700,9.848677734375,-0.3189830780029297,0.3589963912963867,0.5468044281005859
1772811277443441200,9.868441162109375,-0.9222550392150879,0.27333927154541016,-0.12161874771118164
1772811277463204600,9.88820458984375,-1.4838042259216309,-0.07597970962524414,-0.05499851703643799
1772811277482968000,9.907968017578124,-1.1736602783203125,0.11748504638671875,-0.010781288146972656
1772811277502730800,9.927730712890625,-0.37535953521728516,-0.01376485824584961,0.4878578186035156
1772811277522492400,9.947492431640624,0.04515838623046875,-0.053221702575683594,0.564460039138794
1772811277542254300,9.96725439453125,-0.07317733764648438,0.04056835174560547,0.33613651990890503
1772811277562016300,9.987016357421876,-0.14681434631347656,0.13325119018554688,-0.059478759765625
1772811277581778000,10.00677783203125,-0.0785207748413086,0.032573699951171875,-0.1430942416191101
